name,TrialNum,Word,WordCategory,FishType,WordList,WordValence,WordReputation,CorrectResp,IncorrectResp,FishTypeFile,Round,WordType,Condition,LoopforOrange.thisRepN,LoopforOrange.thisTrialN,LoopforOrange.thisN,LoopforOrange.thisIndex,LoopForGreen.thisRepN,LoopForGreen.thisTrialN,LoopForGreen.thisN,LoopForGreen.thisIndex,GreenInstLoop.thisRepN,GreenInstLoop.thisTrialN,GreenInstLoop.thisN,GreenInstLoop.thisIndex,GreenPrac.thisRepN,GreenPrac.thisTrialN,GreenPrac.thisN,GreenPrac.thisIndex,trials_2.thisRepN,trials_2.thisTrialN,trials_2.thisN,trials_2.thisIndex,GreenRound1.thisRepN,GreenRound1.thisTrialN,GreenRound1.thisN,GreenRound1.thisIndex,GreenRound2.thisRepN,GreenRound2.thisTrialN,GreenRound2.thisN,GreenRound2.thisIndex,GreenRound3.thisRepN,GreenRound3.thisTrialN,GreenRound3.thisN,GreenRound3.thisIndex,GreenRound4.thisRepN,GreenRound4.thisTrialN,GreenRound4.thisN,GreenRound4.thisIndex,GreenRound5.thisRepN,GreenRound5.thisTrialN,GreenRound5.thisN,GreenRound5.thisIndex,text_2.started,text_2.stopped,text_3.started,text_3.stopped,key_resp.keys,key_resp.rt,key_resp.started,key_resp.stopped,PassI.started,PassI.stopped,PassInst.keys,PassInst.rt,PassInst.started,PassInst.stopped,mouse_2.x,mouse_2.y,mouse_2.leftButton,mouse_2.midButton,mouse_2.rightButton,mouse_2.started,mouse_2.stopped,image.started,image.stopped,text_5.started,text_5.stopped,text_6.started,text_6.stopped,text_7.started,text_7.stopped,text_8.started,text_8.stopped,slider_3.response,slider_3.rt,slider_3.started,slider_3.stopped,Response_3,Feedback_3,BackGround_3.started,BackGround_3.stopped,Fish_3.started,Fish_3.stopped,WordBox_3.started,WordBox_3.stopped,Words_3.started,Words_3.stopped,BackGround_Feedback_3.started,BackGround_Feedback_3.stopped,Feedbacks_3.started,Feedbacks_3.stopped,Continue_or_not_2.keys,Continue_or_not_2.rt,Continue_or_not_2.started,Continue_or_not_2.stopped,image_4.started,image_4.stopped,mouse_3.x,mouse_3.y,mouse_3.leftButton,mouse_3.midButton,mouse_3.rightButton,mouse_3.started,mouse_3.stopped,startmain.started,startmain.stopped,slider_4.response,slider_4.rt,slider_4.started,slider_4.stopped,Response_4,Feedback_4,BackGround_4.started,BackGround_4.stopped,Fish_4.started,Fish_4.stopped,WordBox_4.started,WordBox_4.stopped,Words_4.started,Words_4.stopped,BackGround_Feedback_4.started,BackGround_Feedback_4.stopped,Feedbacks_4.started,Feedbacks_4.stopped,text.started,text.stopped,break_interval.started,break_interval.stopped,mouse.x,mouse.y,mouse.leftButton,mouse.midButton,mouse.rightButton,mouse.started,mouse.stopped,stratnextround.started,stratnextround.stopped,endgame.started,endgame.stopped,participant,date,expName,psychopyVersion,frameRate,
,,,,,,,,,,,,,,,,,,,,,,,,,,,,,,,,,,,,,,,,,,,,,,,,,,,,,,23.07963509997353,None,23.07963509997353,None,space,1.6457892999751493,23.527556299988646,None,,,,,,,,,,,,,,,,,,,,,,,,,,,,,,,,,,,,,,,,,,,,,,,,,,,,,,,,,,,,,,,,,,,,,,,,,,,,,,,,,,,,,,,,,,108,2022-05-02_12h35.52.608,FishGame,2022.1.1,60.10323330894692,
물고기과제_instruction(참가자용)GreenVersion.mp4,,,,,,,,,,,,,,,,,,0,0,0,0,0,0,0,0,,,,,,,,,,,,,,,,,,,,,,,,,,,,,,,,,,,,,91.85657810000703,None,n,32.74875129997963,91.85657810000703,None,,,,,,,,,,,,,,,,,,,,,,,,,,,,,,,,,,,,,,,,,,,,,,,,,,,,,,,,,,,,,,,,,,,,,,,,,,,,,,,,,,,,108,2022-05-02_12h35.52.608,FishGame,2022.1.1,60.10323330894692,
,1,넌 교활해,5,Orange,B,2.333333333333333,2.133333333333333,ScrollUp,ScrollDown,Orange.png,practice,,,,,,,0,0,0,0,,,,,0,0,0,0,0,0,0,0,,,,,,,,,,,,,,,,,,,,,,,,,,,,,,,,,,,0.12685186,-0.23055555,1,0,0,0.5145577699295245,None,124.62942159996601,None,131.11358070001006,132.61311889998615,132.64667619997635,133.59706459997687,133.64690569997765,134.59641679999186,134.59641679999186,None,2,2.082521599950269,135.75779020000482,None,ScrollUp,정답입니다,135.75779020000482,None,135.75779020000482,None,135.75779020000482,None,135.75779020000482,None,137.67535550001776,None,137.67535550001776,138.17992949998006,,,,,,,,,,,,,,,,,,,,,,,,,,,,,,,,,,,,,,,,,,,,,,,,,108,2022-05-02_12h35.52.608,FishGame,2022.1.1,60.10323330894692,
,2,넌 슬기로워,2,Green,A,6.166666666666667,4.1,ScrollDown,ScrollUp,Green.png,practice,,,,,,,0,0,0,0,,,,,0,0,0,0,0,1,1,1,,,,,,,,,,,,,,,,,,,,,,,,,,,,,,,,,,,,,,,,,,,,,,,,,,,,1,1.1559276999905705,138.81208850000985,None,ScrollDown,정답입니다,138.81208850000985,None,138.81208850000985,None,138.81208850000985,None,138.81208850000985,None,139.86357579997275,None,139.86357579997275,140.36383689998183,,,,,,,,,,,,,,,,,,,,,,,,,,,,,,,,,,,,,,,,,,,,,,,,,108,2022-05-02_12h35.52.608,FishGame,2022.1.1,60.10323330894692,
,3,나를 보내줘,6,Green,A,0,0,ScrollUp,ScrollDown,Green.png,practice,,,,,,,0,0,0,0,,,,,0,0,0,0,0,2,2,2,,,,,,,,,,,,,,,,,,,,,,,,,,,,,,,,,,,,,,,,,,,,,,,,,,,,2,1.8341866999980994,140.99354649998713,None,ScrollUp,정답입니다,140.99354649998713,None,140.99354649998713,None,140.99354649998713,None,140.99354649998713,None,142.7268784000189,None,142.7268784000189,143.2306382000097,,,,,,,,,,,,,,,,,,,,,,,,,,,,,,,,,,,,,,,,,,,,,,,,,108,2022-05-02_12h35.52.608,FishGame,2022.1.1,60.10323330894692,
,4,나를 데려가줘,6,Orange,B,0,0,ScrollDown,ScrollUp,Orange.png,practice,,,,,,,0,0,0,0,,,,,0,0,0,0,0,3,3,3,,,,,,,,,,,,,,,,,,,,,,,,,,,,,,,,,,,,,,,,,,,,,,,,,,,,1,1.2819032999686897,143.86135279998416,None,ScrollDown,정답입니다,143.86135279998416,None,143.86135279998416,None,143.86135279998416,None,143.86135279998416,None,145.03464540001005,None,145.03464540001005,145.54691809997894,,,,,,,,,,,,,,,,,,,,,,,,,,,,,,,,,,,,,,,,,,,,,,,,,108,2022-05-02_12h35.52.608,FishGame,2022.1.1,60.10323330894692,
,1,넌 교활해,5,Orange,B,2.333333333333333,2.133333333333333,ScrollUp,ScrollDown,Orange.png,practice,,,,,,,0,0,0,0,,,,,0,0,0,0,,,,,,,,,,,,,,,,,,,,,,,,,,,,,,,,,,,,,,,,,,,,,,,,,,,,,,,,,,,,,,,,,,,,,,,,,,n,16.26832159998594,146.0470731999958,None,146.0470731999958,None,,,,,,,,,,,,,,,,,,,,,,,,,,,,,,,,,,,,,,,,,,,108,2022-05-02_12h35.52.608,FishGame,2022.1.1,60.10323330894692,
,1,넌 따뜻해,1,Orange,B,6.083333333333333,5.6,ScrollUp,ScrollDown,Orange.png,1,Positive,Incongruent,,,,,0,0,0,0,,,,,,,,,,,,,0,0,0,0,,,,,,,,,,,,,,,,,,,,,,,,,,,,,,,,,,,,,,,,174.981467399979,176.4806782999658,176.51384119997965,177.46416139998473,177.51412900001742,178.46397219999926,178.46397219999926,None,,,,,,,,,,,,,,,,,,,,,,,,,0.044444446,-0.17870371,1,0,0,0.31422607001150027,None,162.34719289996428,None,2,2.2355173000250943,179.64316199999303,None,ScrollUp,정답입니다,179.64316199999303,None,179.64316199999303,None,179.64316199999303,None,179.64316199999303,None,181.69688770000357,None,181.69688770000357,182.19771819998277,,,,,,,,,,,,,,,,108,2022-05-02_12h35.52.608,FishGame,2022.1.1,60.10323330894692,
,2,넌 기품있어,2,Orange,B,5.791666666666668,4.5,ScrollUp,ScrollDown,Orange.png,1,Positive,Incongruent,,,,,0,0,0,0,,,,,,,,,,,,,0,1,1,1,,,,,,,,,,,,,,,,,,,,,,,,,,,,,,,,,,,,,,,,,,,,,,,,,,,,,,,,,,,,,,,,,,,,,,,,,,,,,,,,,2,1.549725299992133,182.8453757999814,None,ScrollUp,정답입니다,182.8453757999814,None,182.8453757999814,None,182.8453757999814,None,182.8453757999814,None,184.26853289996507,None,184.26853289996507,184.78077790001407,,,,,,,,,,,,,,,,108,2022-05-02_12h35.52.608,FishGame,2022.1.1,60.10323330894692,
,3,나를 보내줘,6,Green,A,0,0,ScrollUp,ScrollDown,Green.png,1,NonTarget,NonTarget,,,,,0,0,0,0,,,,,,,,,,,,,0,2,2,2,,,,,,,,,,,,,,,,,,,,,,,,,,,,,,,,,,,,,,,,,,,,,,,,,,,,,,,,,,,,,,,,,,,,,,,,,,,,,,,,,2,1.6510793999768794,185.42191289999755,None,ScrollUp,정답입니다,185.42191289999755,None,185.42191289999755,None,185.42191289999755,None,185.42191289999755,None,186.96054910001112,None,186.96054910001112,187.46394149999833,,,,,,,,,,,,,,,,108,2022-05-02_12h35.52.608,FishGame,2022.1.1,60.10323330894692,
,4,넌 수동적이야,4,Green,A,2.833333333333333,2.933333333333333,ScrollDown,ScrollUp,Green.png,1,Negative,Incongruent,,,,,0,0,0,0,,,,,,,,,,,,,0,3,3,3,,,,,,,,,,,,,,,,,,,,,,,,,,,,,,,,,,,,,,,,,,,,,,,,,,,,,,,,,,,,,,,,,,,,,,,,,,,,,,,,,1,2.1220410999958403,188.107966999989,None,ScrollDown,정답입니다,188.107966999989,None,188.107966999989,None,188.107966999989,None,188.107966999989,None,190.11385759996483,None,190.11385759996483,190.61398690001806,,,,,,,,,,,,,,,,108,2022-05-02_12h35.52.608,FishGame,2022.1.1,60.10323330894692,
,5,넌 사심이 없어,3,Orange,B,4.916666666666666,4.333333333333333,ScrollUp,ScrollDown,Orange.png,1,Neutral,Neutral,,,,,0,0,0,0,,,,,,,,,,,,,0,4,4,4,,,,,,,,,,,,,,,,,,,,,,,,,,,,,,,,,,,,,,,,,,,,,,,,,,,,,,,,,,,,,,,,,,,,,,,,,,,,,,,,,2,1.4548953999765217,191.2574988999986,None,ScrollUp,정답입니다,191.2574988999986,None,191.2574988999986,None,191.2574988999986,None,191.2574988999986,None,192.59436689998256,None,192.59436689998256,193.09755940001924,,,,,,,,,,,,,,,,108,2022-05-02_12h35.52.608,FishGame,2022.1.1,60.10323330894692,
,6,넌 헤퍼,5,Green,A,2.458333333333334,2.233333333333333,ScrollDown,ScrollUp,Green.png,1,Negative,Incongruent,,,,,0,0,0,0,,,,,,,,,,,,,0,5,5,5,,,,,,,,,,,,,,,,,,,,,,,,,,,,,,,,,,,,,,,,,,,,,,,,,,,,,,,,,,,,,,,,,,,,,,,,,,,,,,,,,1,2.06985629996052,193.733897899976,None,ScrollDown,정답입니다,193.733897899976,None,193.733897899976,None,193.733897899976,None,193.733897899976,None,195.69415349996416,None,195.69415349996416,196.19816580001498,,,,,,,,,,,,,,,,108,2022-05-02_12h35.52.608,FishGame,2022.1.1,60.10323330894692,
,7,넌 말쑥해,3,Green,A,4.833333333333334,4.333333333333333,ScrollDown,ScrollUp,Green.png,1,Neutral,Neutral,,,,,0,0,0,0,,,,,,,,,,,,,0,6,6,6,,,,,,,,,,,,,,,,,,,,,,,,,,,,,,,,,,,,,,,,,,,,,,,,,,,,,,,,,,,,,,,,,,,,,,,,,,,,,,,,,1,1.3116523000062443,196.83298209996428,None,ScrollDown,정답입니다,196.83298209996428,None,196.83298209996428,None,196.83298209996428,None,196.83298209996428,None,198.033124700014,None,198.033124700014,198.54757029999746,,,,,,,,,,,,,,,,108,2022-05-02_12h35.52.608,FishGame,2022.1.1,60.10323330894692,
,8,넌 투덜거려,5,Orange,B,2.541666666666667,2.266666666666667,ScrollUp,ScrollDown,Orange.png,1,Negative,Congruent,,,,,0,0,0,0,,,,,,,,,,,,,0,7,7,7,,,,,,,,,,,,,,,,,,,,,,,,,,,,,,,,,,,,,,,,,,,,,,,,,,,,,,,,,,,,,,,,,,,,,,,,,,,,,,,,,2,1.4083459000103176,199.19258199998876,None,ScrollUp,정답입니다,199.19258199998876,None,199.19258199998876,None,199.19258199998876,None,199.19258199998876,None,200.48114889999852,None,200.48114889999852,200.9812065999722,,,,,,,,,,,,,,,,108,2022-05-02_12h35.52.608,FishGame,2022.1.1,60.10323330894692,
,9,넌 적극적이야,1,Green,A,5.708333333333333,5.533333333333333,ScrollDown,ScrollUp,Green.png,1,Positive,Congruent,,,,,0,0,0,0,,,,,,,,,,,,,0,8,8,8,,,,,,,,,,,,,,,,,,,,,,,,,,,,,,,,,,,,,,,,,,,,,,,,,,,,,,,,,,,,,,,,,,,,,,,,,,,,,,,,,1,1.4016829999745823,201.6148607999785,None,ScrollDown,정답입니다,201.6148607999785,None,201.6148607999785,None,201.6148607999785,None,201.6148607999785,None,202.91131230001338,None,202.91131230001338,203.4148881000001,,,,,,,,,,,,,,,,108,2022-05-02_12h35.52.608,FishGame,2022.1.1,60.10323330894692,
,10,넌 재미없어,4,Orange,B,2.625,2.966666666666667,ScrollUp,ScrollDown,Orange.png,1,Negative,Congruent,,,,,0,0,0,0,,,,,,,,,,,,,0,9,9,9,,,,,,,,,,,,,,,,,,,,,,,,,,,,,,,,,,,,,,,,,,,,,,,,,,,,,,,,,,,,,,,,,,,,,,,,,,,,,,,,,2,1.4471034000162035,204.05249099998036,None,ScrollUp,정답입니다,204.05249099998036,None,204.05249099998036,None,204.05249099998036,None,204.05249099998036,None,205.38552640000125,None,205.38552640000125,205.89792560000205,,,,,,,,,,,,,,,,108,2022-05-02_12h35.52.608,FishGame,2022.1.1,60.10323330894692,
,11,넌 명석해,2,Green,A,5.875,4.033333333333333,ScrollDown,ScrollUp,Green.png,1,Positive,Congruent,,,,,0,0,0,0,,,,,,,,,,,,,0,10,10,10,,,,,,,,,,,,,,,,,,,,,,,,,,,,,,,,,,,,,,,,,,,,,,,,,,,,,,,,,,,,,,,,,,,,,,,,,,,,,,,,,1,1.3374008999671787,206.52985350001836,None,ScrollDown,정답입니다,206.52985350001836,None,206.52985350001836,None,206.52985350001836,None,206.52985350001836,None,207.76097760000266,None,207.76097760000266,208.2647884999751,,,,,,,,,,,,,,,,108,2022-05-02_12h35.52.608,FishGame,2022.1.1,60.10323330894692,
,12,나를 데려가줘,6,Orange,B,0,0,ScrollDown,ScrollUp,Orange.png,1,NonTarget,NonTarget,,,,,0,0,0,0,,,,,,,,,,,,,0,11,11,11,,,,,,,,,,,,,,,,,,,,,,,,,,,,,,,,,,,,,,,,,,,,,,,,,,,,,,,,,,,,,,,,,,,,,,,,,,,,,,,,,1,1.6081577999866568,208.90371039998718,None,ScrollDown,정답입니다,208.90371039998718,None,208.90371039998718,None,208.90371039998718,None,208.90371039998718,None,210.39793679997092,None,210.39793679997092,210.89810990000842,,,,,,,,,,,,,,,,108,2022-05-02_12h35.52.608,FishGame,2022.1.1,60.10323330894692,
,13,넌 소심해,4,Green,A,3,3.1,ScrollDown,ScrollUp,Green.png,1,Negative,Incongruent,,,,,0,0,0,0,,,,,,,,,,,,,0,12,12,12,,,,,,,,,,,,,,,,,,,,,,,,,,,,,,,,,,,,,,,,,,,,,,,,,,,,,,,,,,,,,,,,,,,,,,,,,,,,,,,,,1,1.9059092000243254,211.53041910001775,None,ScrollDown,정답입니다,211.53041910001775,None,211.53041910001775,None,211.53041910001775,None,211.53041910001775,None,213.33149949996732,None,213.33149949996732,213.83209400001215,,,,,,,,,,,,,,,,108,2022-05-02_12h35.52.608,FishGame,2022.1.1,60.10323330894692,
,14,넌 합리적이야,2,Green,A,5.583333333333333,4.733333333333333,ScrollDown,ScrollUp,Green.png,1,Positive,Congruent,,,,,0,0,0,0,,,,,,,,,,,,,0,13,13,13,,,,,,,,,,,,,,,,,,,,,,,,,,,,,,,,,,,,,,,,,,,,,,,,,,,,,,,,,,,,,,,,,,,,,,,,,,,,,,,,,1,1.2297017999808304,214.46537679998437,None,ScrollDown,정답입니다,214.46537679998437,None,214.46537679998437,None,214.46537679998437,None,214.46537679998437,None,215.58582629996818,None,215.58582629996818,216.09849080001004,,,,,,,,,,,,,,,,108,2022-05-02_12h35.52.608,FishGame,2022.1.1,60.10323330894692,
,15,넌 무자비해,5,Orange,B,2.333333333333333,2.1,ScrollUp,ScrollDown,Orange.png,1,Negative,Congruent,,,,,0,0,0,0,,,,,,,,,,,,,0,14,14,14,,,,,,,,,,,,,,,,,,,,,,,,,,,,,,,,,,,,,,,,,,,,,,,,,,,,,,,,,,,,,,,,,,,,,,,,,,,,,,,,,2,1.3827816999983042,216.7423284999677,None,ScrollUp,정답입니다,216.7423284999677,None,216.7423284999677,None,216.7423284999677,None,216.7423284999677,None,218.0027789999731,None,218.0027789999731,218.51443839998683,,,,,,,,,,,,,,,,108,2022-05-02_12h35.52.608,FishGame,2022.1.1,60.10323330894692,
,16,나를 보내줘,6,Green,A,0,0,ScrollUp,ScrollDown,Green.png,1,NonTarget,NonTarget,,,,,0,0,0,0,,,,,,,,,,,,,0,15,15,15,,,,,,,,,,,,,,,,,,,,,,,,,,,,,,,,,,,,,,,,,,,,,,,,,,,,,,,,,,,,,,,,,,,,,,,,,,,,,,,,,2,1.6348270999733359,219.143969799974,None,ScrollUp,정답입니다,219.143969799974,None,219.143969799974,None,219.143969799974,None,219.143969799974,None,220.6781345999916,None,220.6781345999916,221.18157989997417,,,,,,,,,,,,,,,,108,2022-05-02_12h35.52.608,FishGame,2022.1.1,60.10323330894692,
,17,넌 현실적이야,3,Orange,B,4.608695652173913,4.766666666666667,ScrollUp,ScrollDown,Orange.png,1,Neutral,Neutral,,,,,0,0,0,0,,,,,,,,,,,,,0,16,16,16,,,,,,,,,,,,,,,,,,,,,,,,,,,,,,,,,,,,,,,,,,,,,,,,,,,,,,,,,,,,,,,,,,,,,,,,,,,,,,,,,2,1.5180229999823496,221.82145160000073,None,ScrollUp,정답입니다,221.82145160000073,None,221.82145160000073,None,221.82145160000073,None,221.82145160000073,None,223.22823020000942,None,223.22823020000942,223.73181550001027,,,,,,,,,,,,,,,,108,2022-05-02_12h35.52.608,FishGame,2022.1.1,60.10323330894692,
,18,넌 의리있어,1,Orange,B,5.833333333333334,5.633333333333334,ScrollUp,ScrollDown,Orange.png,1,Positive,Incongruent,,,,,0,0,0,0,,,,,,,,,,,,,0,17,17,17,,,,,,,,,,,,,,,,,,,,,,,,,,,,,,,,,,,,,,,,,,,,,,,,,,,,,,,,,,,,,,,,,,,,,,,,,,,,,,,,,2,1.8857671999721788,224.371450799983,None,ScrollUp,정답입니다,224.371450799983,None,224.371450799983,None,224.371450799983,None,224.371450799983,None,226.14475189999212,None,226.14475189999212,226.64814239996485,,,,,,,,,,,,,,,,108,2022-05-02_12h35.52.608,FishGame,2022.1.1,60.10323330894692,
,19,넌 신경과민이야,5,Green,A,2.541666666666667,2.166666666666667,ScrollDown,ScrollUp,Green.png,1,Negative,Incongruent,,,,,0,0,0,0,,,,,,,,,,,,,0,18,18,18,,,,,,,,,,,,,,,,,,,,,,,,,,,,,,,,,,,,,,,,,,,,,,,,,,,,,,,,,,,,,,,,,,,,,,,,,,,,,,,,,1,1.4568082999903709,227.2948730000062,None,ScrollDown,정답입니다,227.2948730000062,None,227.2948730000062,None,227.2948730000062,None,227.2948730000062,None,228.63184869999532,None,228.63184869999532,229.1315180999809,,,,,,,,,,,,,,,,108,2022-05-02_12h35.52.608,FishGame,2022.1.1,60.10323330894692,
,20,넌 편안해,1,Green,A,5.916666666666666,5.866666666666666,ScrollDown,ScrollUp,Green.png,1,Positive,Congruent,,,,,0,0,0,0,,,,,,,,,,,,,0,19,19,19,,,,,,,,,,,,,,,,,,,,,,,,,,,,,,,,,,,,,,,,,,,,,,,,,,,,,,,,,,,,,,,,,,,,,,,,,,,,,,,,,1,1.4402750000008382,229.7666361000156,None,ScrollDown,정답입니다,229.7666361000156,None,229.7666361000156,None,229.7666361000156,None,229.7666361000156,None,231.09797639999306,None,231.09797639999306,231.59857619996183,,,,,,,,,,,,,,,,108,2022-05-02_12h35.52.608,FishGame,2022.1.1,60.10323330894692,
,21,넌 품위있어,2,Orange,B,5.291666666666666,4.466666666666667,ScrollUp,ScrollDown,Orange.png,1,Positive,Incongruent,,,,,0,0,0,0,,,,,,,,,,,,,0,20,20,20,,,,,,,,,,,,,,,,,,,,,,,,,,,,,,,,,,,,,,,,,,,,,,,,,,,,,,,,,,,,,,,,,,,,,,,,,,,,,,,,,2,1.388734000036493,232.23591719998512,None,ScrollUp,정답입니다,232.23591719998512,None,232.23591719998512,None,232.23591719998512,None,232.23591719998512,None,233.5119185000076,None,233.5119185000076,234.01500089996262,,,,,,,,,,,,,,,,108,2022-05-02_12h35.52.608,FishGame,2022.1.1,60.10323330894692,
,22,넌 빈틈없어,3,Green,A,4.833333333333333,3.966666666666667,ScrollDown,ScrollUp,Green.png,1,Neutral,Neutral,,,,,0,0,0,0,,,,,,,,,,,,,0,21,21,21,,,,,,,,,,,,,,,,,,,,,,,,,,,,,,,,,,,,,,,,,,,,,,,,,,,,,,,,,,,,,,,,,,,,,,,,,,,,,,,,,1,1.3862780000199564,234.6509303000057,None,ScrollDown,정답입니다,234.6509303000057,None,234.6509303000057,None,234.6509303000057,None,234.6509303000057,None,235.9285063999705,None,235.9285063999705,236.43181099998765,,,,,,,,,,,,,,,,108,2022-05-02_12h35.52.608,FishGame,2022.1.1,60.10323330894692,
,23,넌 상상력없어,4,Orange,B,2.833333333333333,3.133333333333333,ScrollUp,ScrollDown,Orange.png,1,Negative,Congruent,,,,,0,0,0,0,,,,,,,,,,,,,0,22,22,22,,,,,,,,,,,,,,,,,,,,,,,,,,,,,,,,,,,,,,,,,,,,,,,,,,,,,,,,,,,,,,,,,,,,,,,,,,,,,,,,,2,1.3587457000394352,237.07620519999182,None,ScrollUp,정답입니다,237.07620519999182,None,237.07620519999182,None,237.07620519999182,None,237.07620519999182,None,238.31456949998392,None,238.31456949998392,238.81555210001534,,,,,,,,,,,,,,,,108,2022-05-02_12h35.52.608,FishGame,2022.1.1,60.10323330894692,
,24,넌 지혜로워,2,Orange,B,6.333333333333334,4.633333333333334,ScrollUp,ScrollDown,Orange.png,1,Positive,Incongruent,,,,,0,0,0,0,,,,,,,,,,,,,0,23,23,23,,,,,,,,,,,,,,,,,,,,,,,,,,,,,,,,,,,,,,,,,,,,,,,,,,,,,,,,,,,,,,,,,,,,,,,,,,,,,,,,,2,1.2363637000089511,239.46236700000009,None,ScrollUp,정답입니다,239.46236700000009,None,239.46236700000009,None,239.46236700000009,None,239.46236700000009,None,240.5785382000031,None,240.5785382000031,241.0819424999645,,,,,,,,,,,,,,,,108,2022-05-02_12h35.52.608,FishGame,2022.1.1,60.10323330894692,
,25,넌 시끄러워,4,Green,A,2.833333333333333,3.033333333333333,ScrollDown,ScrollUp,Green.png,1,Negative,Incongruent,,,,,0,0,0,0,,,,,,,,,,,,,0,24,24,24,,,,,,,,,,,,,,,,,,,,,,,,,,,,,,,,,,,,,,,,,,,,,,,,,,,,,,,,,,,,,,,,,,,,,,,,,,,,,,,,,1,1.2108406000188552,241.7189996999805,None,ScrollDown,정답입니다,241.7189996999805,None,241.7189996999805,None,241.7189996999805,None,241.7189996999805,None,242.81516130000819,None,242.81516130000819,243.3155461999704,,,,,,,,,,,,,,,,108,2022-05-02_12h35.52.608,FishGame,2022.1.1,60.10323330894692,
,26,넌 만사태평이야,3,Orange,B,4,4.333333333333333,ScrollUp,ScrollDown,Orange.png,1,Neutral,Neutral,,,,,0,0,0,0,,,,,,,,,,,,,0,25,25,25,,,,,,,,,,,,,,,,,,,,,,,,,,,,,,,,,,,,,,,,,,,,,,,,,,,,,,,,,,,,,,,,,,,,,,,,,,,,,,,,,2,1.342369400023017,243.9604378999793,None,ScrollUp,정답입니다,243.9604378999793,None,243.9604378999793,None,243.9604378999793,None,243.9604378999793,None,245.18177560000913,None,245.18177560000913,245.68195429997286,,,,,,,,,,,,,,,,108,2022-05-02_12h35.52.608,FishGame,2022.1.1,60.10323330894692,
,27,넌 붙임성있어,1,Green,A,5.708333333333333,5.633333333333334,ScrollDown,ScrollUp,Green.png,1,Positive,Congruent,,,,,0,0,0,0,,,,,,,,,,,,,0,26,26,26,,,,,,,,,,,,,,,,,,,,,,,,,,,,,,,,,,,,,,,,,,,,,,,,,,,,,,,,,,,,,,,,,,,,,,,,,,,,,,,,,1,1.491264600015711,246.31979259999935,None,ScrollDown,정답입니다,246.31979259999935,None,246.31979259999935,None,246.31979259999935,None,246.31979259999935,None,247.69868530001258,None,247.69868530001258,248.19879150000634,,,,,,,,,,,,,,,,108,2022-05-02_12h35.52.608,FishGame,2022.1.1,60.10323330894692,
,28,넌 영리해,2,Green,A,6,4.033333333333333,ScrollDown,ScrollUp,Green.png,1,Positive,Congruent,,,,,0,0,0,0,,,,,,,,,,,,,0,27,27,27,,,,,,,,,,,,,,,,,,,,,,,,,,,,,,,,,,,,,,,,,,,,,,,,,,,,,,,,,,,,,,,,,,,,,,,,,,,,,,,,,1,1.1848637000075541,248.8290890000062,None,ScrollDown,정답입니다,248.8290890000062,None,248.8290890000062,None,248.8290890000062,None,248.8290890000062,None,249.91178540000692,None,249.91178540000692,250.41557640000246,,,,,,,,,,,,,,,,108,2022-05-02_12h35.52.608,FishGame,2022.1.1,60.10323330894692,
,29,넌 열심이야,1,Orange,B,6.041666666666667,5.833333333333333,ScrollUp,ScrollDown,Orange.png,1,Positive,Incongruent,,,,,0,0,0,0,,,,,,,,,,,,,0,28,28,28,,,,,,,,,,,,,,,,,,,,,,,,,,,,,,,,,,,,,,,,,,,,,,,,,,,,,,,,,,,,,,,,,,,,,,,,,,,,,,,,,2,1.2325722000095993,251.0619805000024,None,ScrollUp,정답입니다,251.0619805000024,None,251.0619805000024,None,251.0619805000024,None,251.0619805000024,None,252.16983979998622,None,252.16983979998622,252.6822630999959,,,,,,,,,,,,,,,,108,2022-05-02_12h35.52.608,FishGame,2022.1.1,60.10323330894692,
,30,넌 인기없어,4,Orange,B,3,3.3,ScrollUp,ScrollDown,Orange.png,1,Negative,Congruent,,,,,0,0,0,0,,,,,,,,,,,,,0,29,29,29,,,,,,,,,,,,,,,,,,,,,,,,,,,,,,,,,,,,,,,,,,,,,,,,,,,,,,,,,,,,,,,,,,,,,,,,,,,,,,,,,2,1.104751499951817,253.32183779997285,None,ScrollUp,정답입니다,253.32183779997285,None,253.32183779997285,None,253.32183779997285,None,253.32183779997285,None,254.3118452000199,None,254.3118452000199,254.81539379997412,,,,,,,,,,,,,,,,108,2022-05-02_12h35.52.608,FishGame,2022.1.1,60.10323330894692,
,31,넌 익살스러워,3,Green,A,4.708333333333334,4.833333333333333,ScrollDown,ScrollUp,Green.png,1,Neutral,Neutral,,,,,0,0,0,0,,,,,,,,,,,,,0,30,30,30,,,,,,,,,,,,,,,,,,,,,,,,,,,,,,,,,,,,,,,,,,,,,,,,,,,,,,,,,,,,,,,,,,,,,,,,,,,,,,,,,1,1.1402955999947153,255.45614959998056,None,ScrollDown,정답입니다,255.45614959998056,None,255.45614959998056,None,255.45614959998056,None,255.45614959998056,None,256.48235469998326,None,256.48235469998326,256.9825162999914,,,,,,,,,,,,,,,,108,2022-05-02_12h35.52.608,FishGame,2022.1.1,60.10323330894692,
,32,넌 이기적이야,5,Orange,B,2.291666666666667,2.333333333333333,ScrollUp,ScrollDown,Orange.png,1,Negative,Congruent,,,,,0,0,0,0,,,,,,,,,,,,,0,31,31,31,,,,,,,,,,,,,,,,,,,,,,,,,,,,,,,,,,,,,,,,,,,,,,,,,,,,,,,,,,,,,,,,,,,,,,,,,,,,,,,,,2,1.1428109999978915,257.6159741000156,None,ScrollUp,정답입니다,257.6159741000156,None,257.6159741000156,None,257.6159741000156,None,257.6159741000156,None,258.64914270001464,None,258.64914270001464,259.1487046999973,,,,,,,,,,,,,,,,108,2022-05-02_12h35.52.608,FishGame,2022.1.1,60.10323330894692,
,33,나를 데려가줘,6,Orange,B,0,0,ScrollDown,ScrollUp,Orange.png,1,NonTarget,NonTarget,,,,,0,0,0,0,,,,,,,,,,,,,0,32,32,32,,,,,,,,,,,,,,,,,,,,,,,,,,,,,,,,,,,,,,,,,,,,,,,,,,,,,,,,,,,,,,,,,,,,,,,,,,,,,,,,,1,1.9468238999834284,259.784680199984,None,ScrollDown,정답입니다,259.784680199984,None,259.784680199984,None,259.784680199984,None,259.784680199984,None,261.6202497999766,None,261.6202497999766,262.132627199986,,,,,,,,,,,,,,,,108,2022-05-02_12h35.52.608,FishGame,2022.1.1,60.10323330894692,
,34,넌 기회주의자야,5,Green,A,2.875,2.133333333333333,ScrollDown,ScrollUp,Green.png,1,Negative,Incongruent,,,,,0,0,0,0,,,,,,,,,,,,,0,33,33,33,,,,,,,,,,,,,,,,,,,,,,,,,,,,,,,,,,,,,,,,,,,,,,,,,,,,,,,,,,,,,,,,,,,,,,,,,,,,,,,,,1,1.4168383000069298,262.77373149996856,None,ScrollDown,정답입니다,262.77373149996856,None,262.77373149996856,None,262.77373149996856,None,262.77373149996856,None,264.07034909998765,None,264.07034909998765,264.5830058999709,,,,,,,,,,,,,,,,108,2022-05-02_12h35.52.608,FishGame,2022.1.1,60.10323330894692,
,1,넌 미성숙해,4,Green,A,3,3.2,ScrollDown,ScrollUp,Green.png,2,Negative,Incongruent,,,,,0,0,0,0,,,,,,,,,,,,,,,,,0,0,0,0,,,,,,,,,,,,,,,,,,,,,,,,,,,,,,,,,,,,297.9334547999897,299.43404039996676,299.46683429996483,300.41637230000924,300.466871200013,301.4164967999677,301.4164967999677,None,,,,,,,,,,,,,,,,,,,,,,,,,,,,,,,,,,1,1.859549499989953,302.5714067000081,None,ScrollDown,정답입니다,302.5714067000081,None,302.5714067000081,None,302.5714067000081,None,302.5714067000081,None,304.27060689998325,None,304.27060689998325,304.7836758000194,265.0824600000051,None,265.0824600000051,None,0.1388889,-0.12407407,1,0,0,0.016009770042728633,None,295.08301609999035,None,,,108,2022-05-02_12h35.52.608,FishGame,2022.1.1,60.10323330894692,
,2,넌 반사회적이야,5,Orange,B,2.416666666666667,2.033333333333333,ScrollUp,ScrollDown,Orange.png,2,Negative,Congruent,,,,,0,0,0,0,,,,,,,,,,,,,,,,,0,1,1,1,,,,,,,,,,,,,,,,,,,,,,,,,,,,,,,,,,,,,,,,,,,,,,,,,,,,,,,,,,,,,,,,,,,,,,,,,,,,,2,1.407365299994126,305.4236823999672,None,ScrollUp,정답입니다,305.4236823999672,None,305.4236823999672,None,305.4236823999672,None,305.4236823999672,None,306.71648730000015,None,306.71648730000015,307.2165878000087,,,,,,,,,,,,,,,,108,2022-05-02_12h35.52.608,FishGame,2022.1.1,60.10323330894692,
,3,넌 유능해,2,Green,A,6.208333333333333,4.433333333333334,ScrollDown,ScrollUp,Green.png,2,Positive,Congruent,,,,,0,0,0,0,,,,,,,,,,,,,,,,,0,2,2,2,,,,,,,,,,,,,,,,,,,,,,,,,,,,,,,,,,,,,,,,,,,,,,,,,,,,,,,,,,,,,,,,,,,,,,,,,,,,,1.1898148208856583,1.124546199978795,307.8554425999755,None,ScrollDown,정답입니다,307.8554425999755,None,307.8554425999755,None,307.8554425999755,None,307.8554425999755,None,308.8664053999819,None,308.8664053999819,309.36694229999557,,,,,,,,,,,,,,,,108,2022-05-02_12h35.52.608,FishGame,2022.1.1,60.10323330894692,
,4,넌 능숙해,2,Orange,B,5.666666666666667,4.733333333333333,ScrollUp,ScrollDown,Orange.png,2,Positive,Incongruent,,,,,0,0,0,0,,,,,,,,,,,,,,,,,0,3,3,3,,,,,,,,,,,,,,,,,,,,,,,,,,,,,,,,,,,,,,,,,,,,,,,,,,,,,,,,,,,,,,,,,,,,,,,,,,,,,2,1.7613824000000022,309.9970222999691,None,ScrollUp,정답입니다,309.9970222999691,None,309.9970222999691,None,309.9970222999691,None,309.9970222999691,None,311.6499074000167,None,311.6499074000167,312.15045829996234,,,,,,,,,,,,,,,,108,2022-05-02_12h35.52.608,FishGame,2022.1.1,60.10323330894692,
,5,넌 진부해,4,Orange,B,2.458333333333333,3.166666666666667,ScrollUp,ScrollDown,Orange.png,2,Negative,Congruent,,,,,0,0,0,0,,,,,,,,,,,,,,,,,0,4,4,4,,,,,,,,,,,,,,,,,,,,,,,,,,,,,,,,,,,,,,,,,,,,,,,,,,,,,,,,,,,,,,,,,,,,,,,,,,,,,2,1.2311244000447914,312.79441699996823,None,ScrollUp,정답입니다,312.79441699996823,None,312.79441699996823,None,312.79441699996823,None,312.79441699996823,None,313.90420200000517,None,313.90420200000517,314.41705509996973,,,,,,,,,,,,,,,,108,2022-05-02_12h35.52.608,FishGame,2022.1.1,60.10323330894692,
,6,나를 보내줘,6,Green,A,0,0,ScrollUp,ScrollDown,Green.png,2,NonTarget,NonTarget,,,,,0,0,0,0,,,,,,,,,,,,,,,,,0,5,5,5,,,,,,,,,,,,,,,,,,,,,,,,,,,,,,,,,,,,,,,,,,,,,,,,,,,,,,,,,,,,,,,,,,,,,,,,,,,,,2,1.4676132999593392,315.04139239998767,None,ScrollUp,정답입니다,315.04139239998767,None,315.04139239998767,None,315.04139239998767,None,315.04139239998767,None,316.41348980000475,None,316.41348980000475,316.91708869999275,,,,,,,,,,,,,,,,108,2022-05-02_12h35.52.608,FishGame,2022.1.1,60.10323330894692,
,7,넌 엄격해,3,Green,A,4.166666666666666,4.1,ScrollDown,ScrollUp,Green.png,2,Neutral,Neutral,,,,,0,0,0,0,,,,,,,,,,,,,,,,,0,6,6,6,,,,,,,,,,,,,,,,,,,,,,,,,,,,,,,,,,,,,,,,,,,,,,,,,,,,,,,,,,,,,,,,,,,,,,,,,,,,,1,1.505388599995058,317.5548612999846,None,ScrollDown,정답입니다,317.5548612999846,None,317.5548612999846,None,317.5548612999846,None,317.5548612999846,None,318.9499656999833,None,318.9499656999833,319.45061389997136,,,,,,,,,,,,,,,,108,2022-05-02_12h35.52.608,FishGame,2022.1.1,60.10323330894692,
,8,나를 보내줘,6,Green,A,0,0,ScrollUp,ScrollDown,Green.png,2,NonTarget,NonTarget,,,,,0,0,0,0,,,,,,,,,,,,,,,,,0,7,7,7,,,,,,,,,,,,,,,,,,,,,,,,,,,,,,,,,,,,,,,,,,,,,,,,,,,,,,,,,,,,,,,,,,,,,,,,,,,,,2,1.3768720999942161,320.07746349996887,None,ScrollUp,정답입니다,320.07746349996887,None,320.07746349996887,None,320.07746349996887,None,320.07746349996887,None,321.35016859997995,None,321.35016859997995,321.8504910999909,,,,,,,,,,,,,,,,108,2022-05-02_12h35.52.608,FishGame,2022.1.1,60.10323330894692,
,9,넌 대담해,3,Orange,B,4.875,4.866666666666666,ScrollUp,ScrollDown,Orange.png,2,Neutral,Neutral,,,,,0,0,0,0,,,,,,,,,,,,,,,,,0,8,8,8,,,,,,,,,,,,,,,,,,,,,,,,,,,,,,,,,,,,,,,,,,,,,,,,,,,,,,,,,,,,,,,,,,,,,,,,,,,,,2,1.4600600999547169,322.4923939,None,ScrollUp,정답입니다,322.4923939,None,322.4923939,None,322.4923939,None,322.4923939,None,323.83376429998316,None,323.83376429998316,324.3340024999925,,,,,,,,,,,,,,,,108,2022-05-02_12h35.52.608,FishGame,2022.1.1,60.10323330894692,
,10,넌 꾸준해,1,Green,A,5.916666666666668,5.8,ScrollDown,ScrollUp,Green.png,2,Positive,Congruent,,,,,0,0,0,0,,,,,,,,,,,,,,,,,0,9,9,9,,,,,,,,,,,,,,,,,,,,,,,,,,,,,,,,,,,,,,,,,,,,,,,,,,,,,,,,,,,,,,,,,,,,,,,,,,,,,1,1.2971448000171222,324.9704296999844,None,ScrollDown,정답입니다,324.9704296999844,None,324.9704296999844,None,324.9704296999844,None,324.9704296999844,None,326.15473710000515,None,326.15473710000515,326.66725009999936,,,,,,,,,,,,,,,,108,2022-05-02_12h35.52.608,FishGame,2022.1.1,60.10323330894692,
,11,나를 데려가줘,6,Orange,B,0,0,ScrollDown,ScrollUp,Orange.png,2,NonTarget,NonTarget,,,,,0,0,0,0,,,,,,,,,,,,,,,,,0,10,10,10,,,,,,,,,,,,,,,,,,,,,,,,,,,,,,,,,,,,,,,,,,,,,,,,,,,,,,,,,,,,,,,,,,,,,,,,,,,,,1.0817901194095612,1.3914534999639727,327.2992768000113,None,ScrollDown,정답입니다,327.2992768000113,None,327.2992768000113,None,327.2992768000113,None,327.2992768000113,None,328.5834414999699,None,328.5834414999699,329.0833828999894,,,,,,,,,,,,,,,,108,2022-05-02_12h35.52.608,FishGame,2022.1.1,60.10323330894692,
,12,넌 독선적이야,5,Green,A,2.458333333333333,1.933333333333333,ScrollDown,ScrollUp,Green.png,2,Negative,Incongruent,,,,,0,0,0,0,,,,,,,,,,,,,,,,,0,11,11,11,,,,,,,,,,,,,,,,,,,,,,,,,,,,,,,,,,,,,,,,,,,,,,,,,,,,,,,,,,,,,,,,,,,,,,,,,,,,,1,1.5892267999588512,329.725585600012,None,ScrollDown,정답입니다,329.725585600012,None,329.725585600012,None,329.725585600012,None,329.725585600012,None,331.20065710000927,None,331.20065710000927,331.70074559998466,,,,,,,,,,,,,,,,108,2022-05-02_12h35.52.608,FishGame,2022.1.1,60.10323330894692,
,13,나를 보내줘,6,Green,A,0,0,ScrollUp,ScrollDown,Green.png,2,NonTarget,NonTarget,,,,,0,0,0,0,,,,,,,,,,,,,,,,,0,12,12,12,,,,,,,,,,,,,,,,,,,,,,,,,,,,,,,,,,,,,,,,,,,,,,,,,,,,,,,,,,,,,,,,,,,,,,,,,,,,,2,1.3406872000196017,332.3265562999877,None,ScrollUp,정답입니다,332.3265562999877,None,332.3265562999877,None,332.3265562999877,None,332.3265562999877,None,333.56707849999657,None,333.56707849999657,334.06740609998815,,,,,,,,,,,,,,,,108,2022-05-02_12h35.52.608,FishGame,2022.1.1,60.10323330894692,
,14,넌 책임감있어,1,Orange,B,6.347826086956522,6,ScrollUp,ScrollDown,Orange.png,2,Positive,Incongruent,,,,,0,0,0,0,,,,,,,,,,,,,,,,,0,13,13,13,,,,,,,,,,,,,,,,,,,,,,,,,,,,,,,,,,,,,,,,,,,,,,,,,,,,,,,,,,,,,,,,,,,,,,,,,,,,,2,1.3439784000511281,334.70786239998415,None,ScrollUp,정답입니다,334.70786239998415,None,334.70786239998415,None,334.70786239998415,None,334.70786239998415,None,335.93351569998777,None,335.93351569998777,336.4337424999685,,,,,,,,,,,,,,,,108,2022-05-02_12h35.52.608,FishGame,2022.1.1,60.10323330894692,
,15,넌 문학적이야,3,Green,A,4.708333333333334,4.333333333333333,ScrollDown,ScrollUp,Green.png,2,Neutral,Neutral,,,,,0,0,0,0,,,,,,,,,,,,,,,,,0,14,14,14,,,,,,,,,,,,,,,,,,,,,,,,,,,,,,,,,,,,,,,,,,,,,,,,,,,,,,,,,,,,,,,,,,,,,,,,,,,,,1,1.1780061000026762,337.07551669998793,None,ScrollDown,정답입니다,337.07551669998793,None,337.07551669998793,None,337.07551669998793,None,337.07551669998793,None,338.1371885999688,None,338.1371885999688,338.6506679999875,,,,,,,,,,,,,,,,108,2022-05-02_12h35.52.608,FishGame,2022.1.1,60.10323330894692,
,16,넌 재미있어,1,Orange,B,5.875,5.7,ScrollUp,ScrollDown,Orange.png,2,Positive,Incongruent,,,,,0,0,0,0,,,,,,,,,,,,,,,,,0,15,15,15,,,,,,,,,,,,,,,,,,,,,,,,,,,,,,,,,,,,,,,,,,,,,,,,,,,,,,,,,,,,,,,,,,,,,,,,,,,,,2,1.9683019999647513,339.2826996999793,None,ScrollUp,정답입니다,339.2826996999793,None,339.2826996999793,None,339.2826996999793,None,339.2826996999793,None,341.1473288999987,None,341.1473288999987,341.6511662999983,,,,,,,,,,,,,,,,108,2022-05-02_12h35.52.608,FishGame,2022.1.1,60.10323330894692,
,17,나를 데려가줘,6,Orange,B,0,0,ScrollDown,ScrollUp,Orange.png,2,NonTarget,NonTarget,,,,,0,0,0,0,,,,,,,,,,,,,,,,,0,16,16,16,,,,,,,,,,,,,,,,,,,,,,,,,,,,,,,,,,,,,,,,,,,,,,,,,,,,,,,,,,,,,,,,,,,,,,,,,,,,,1,1.2729724000091664,342.28437890001805,None,ScrollDown,정답입니다,342.28437890001805,None,342.28437890001805,None,342.28437890001805,None,342.28437890001805,None,343.4503770999727,None,343.4503770999727,343.95090389996767,,,,,,,,,,,,,,,,108,2022-05-02_12h35.52.608,FishGame,2022.1.1,60.10323330894692,
,18,넌 협력적이야,1,Green,A,5.625,5.633333333333334,ScrollDown,ScrollUp,Green.png,2,Positive,Congruent,,,,,0,0,0,0,,,,,,,,,,,,,,,,,0,17,17,17,,,,,,,,,,,,,,,,,,,,,,,,,,,,,,,,,,,,,,,,,,,,,,,,,,,,,,,,,,,,,,,,,,,,,,,,,,,,,1,1.7731569000170566,344.5863491999917,None,ScrollDown,정답입니다,344.5863491999917,None,344.5863491999917,None,344.5863491999917,None,344.5863491999917,None,346.25082879996626,None,346.25082879996626,346.7509580000187,,,,,,,,,,,,,,,,108,2022-05-02_12h35.52.608,FishGame,2022.1.1,60.10323330894692,
,19,넌 평범해,3,Orange,B,4.333333333333332,4.233333333333333,ScrollUp,ScrollDown,Orange.png,2,Neutral,Neutral,,,,,0,0,0,0,,,,,,,,,,,,,,,,,0,18,18,18,,,,,,,,,,,,,,,,,,,,,,,,,,,,,,,,,,,,,,,,,,,,,,,,,,,,,,,,,,,,,,,,,,,,,,,,,,,,,2,1.322107199986931,347.38590230001137,None,ScrollUp,정답입니다,347.38590230001137,None,347.38590230001137,None,347.38590230001137,None,347.38590230001137,None,348.5975963000092,None,348.5975963000092,349.1007642999757,,,,,,,,,,,,,,,,108,2022-05-02_12h35.52.608,FishGame,2022.1.1,60.10323330894692,
,20,넌 오만해,5,Green,A,2.333333333333333,2,ScrollDown,ScrollUp,Green.png,2,Negative,Incongruent,,,,,0,0,0,0,,,,,,,,,,,,,,,,,0,19,19,19,,,,,,,,,,,,,,,,,,,,,,,,,,,,,,,,,,,,,,,,,,,,,,,,,,,,,,,,,,,,,,,,,,,,,,,,,,,,,1.0817901194095612,2.0133370000403374,349.732156699989,None,ScrollDown,정답입니다,349.732156699989,None,349.732156699989,None,349.732156699989,None,349.732156699989,None,351.63802359998226,None,351.63802359998226,352.1514223999693,,,,,,,,,,,,,,,,108,2022-05-02_12h35.52.608,FishGame,2022.1.1,60.10323330894692,
,21,넌 운이없어,4,Orange,B,3,3.466666666666667,ScrollUp,ScrollDown,Orange.png,2,Negative,Congruent,,,,,0,0,0,0,,,,,,,,,,,,,,,,,0,20,20,20,,,,,,,,,,,,,,,,,,,,,,,,,,,,,,,,,,,,,,,,,,,,,,,,,,,,,,,,,,,,,,,,,,,,,,,,,,,,,2,1.8749937000102364,352.78751619998366,None,ScrollUp,정답입니다,352.78751619998366,None,352.78751619998366,None,352.78751619998366,None,352.78751619998366,None,354.5507217000122,None,354.5507217000122,355.051477800007,,,,,,,,,,,,,,,,108,2022-05-02_12h35.52.608,FishGame,2022.1.1,60.10323330894692,
,22,넌 창조적이야,2,Orange,B,6.125,4.633333333333334,ScrollUp,ScrollDown,Orange.png,2,Positive,Incongruent,,,,,0,0,0,0,,,,,,,,,,,,,,,,,0,21,21,21,,,,,,,,,,,,,,,,,,,,,,,,,,,,,,,,,,,,,,,,,,,,,,,,,,,,,,,,,,,,,,,,,,,,,,,,,,,,,1.9444444676240284,1.9402652999851853,355.6944666999625,None,ScrollUp,정답입니다,355.6944666999625,None,355.6944666999625,None,355.6944666999625,None,355.6944666999625,None,357.5175488999812,None,357.5175488999812,358.01753239997197,,,,,,,,,,,,,,,,108,2022-05-02_12h35.52.608,FishGame,2022.1.1,60.10323330894692,
,23,나를 보내줘,6,Green,A,0,0,ScrollUp,ScrollDown,Green.png,2,NonTarget,NonTarget,,,,,0,0,0,0,,,,,,,,,,,,,,,,,0,22,22,22,,,,,,,,,,,,,,,,,,,,,,,,,,,,,,,,,,,,,,,,,,,,,,,,,,,,,,,,,,,,,,,,,,,,,,,,,,,,,2,1.4376456000027247,358.6484402999631,None,ScrollUp,정답입니다,358.6484402999631,None,358.6484402999631,None,358.6484402999631,None,358.6484402999631,None,359.9811583000119,None,359.9811583000119,360.4844562999788,,,,,,,,,,,,,,,,108,2022-05-02_12h35.52.608,FishGame,2022.1.1,60.10323330894692,
,24,넌 통찰력있어,2,Green,A,6.5,4.8,ScrollDown,ScrollUp,Green.png,2,Positive,Congruent,,,,,0,0,0,0,,,,,,,,,,,,,,,,,0,23,23,23,,,,,,,,,,,,,,,,,,,,,,,,,,,,,,,,,,,,,,,,,,,,,,,,,,,,,,,,,,,,,,,,,,,,,,,,,,,,,1.0339506367842357,1.2906615000101738,361.1227417999762,None,ScrollDown,정답입니다,361.1227417999762,None,361.1227417999762,None,361.1227417999762,None,361.1227417999762,None,362.30110119999154,None,362.30110119999154,362.80113420001,,,,,,,,,,,,,,,,108,2022-05-02_12h35.52.608,FishGame,2022.1.1,60.10323330894692,
,25,넌 경솔해,5,Orange,B,2.458333333333333,2.266666666666667,ScrollUp,ScrollDown,Orange.png,2,Negative,Congruent,,,,,0,0,0,0,,,,,,,,,,,,,,,,,0,24,24,24,,,,,,,,,,,,,,,,,,,,,,,,,,,,,,,,,,,,,,,,,,,,,,,,,,,,,,,,,,,,,,,,,,,,,,,,,,,,,2,1.5480664999922737,363.43829369999,None,ScrollUp,정답입니다,363.43829369999,None,363.43829369999,None,363.43829369999,None,363.43829369999,None,364.8722784999991,None,364.8722784999991,365.38460459996713,,,,,,,,,,,,,,,,108,2022-05-02_12h35.52.608,FishGame,2022.1.1,60.10323330894692,
,26,넌 초조해,4,Green,A,2.916666666666667,3.133333333333333,ScrollDown,ScrollUp,Green.png,2,Negative,Incongruent,,,,,0,0,0,0,,,,,,,,,,,,,,,,,0,25,25,25,,,,,,,,,,,,,,,,,,,,,,,,,,,,,,,,,,,,,,,,,,,,,,,,,,,,,,,,,,,,,,,,,,,,,,,,,,,,,1,1.4466668000095524,366.01629130000947,None,ScrollDown,정답입니다,366.01629130000947,None,366.01629130000947,None,366.01629130000947,None,366.01629130000947,None,367.3558234999655,None,367.3558234999655,367.86778839997714,,,,,,,,,,,,,,,,108,2022-05-02_12h35.52.608,FishGame,2022.1.1,60.10323330894692,
,27,넌 무관심해,4,Orange,B,2.833333333333333,2.9,ScrollUp,ScrollDown,Orange.png,2,Negative,Congruent,,,,,0,0,0,0,,,,,,,,,,,,,,,,,0,26,26,26,,,,,,,,,,,,,,,,,,,,,,,,,,,,,,,,,,,,,,,,,,,,,,,,,,,,,,,,,,,,,,,,,,,,,,,,,,,,,2,1.938203900004737,368.5063533000066,None,ScrollUp,정답입니다,368.5063533000066,None,368.5063533000066,None,368.5063533000066,None,368.5063533000066,None,370.33422279998194,None,370.33422279998194,370.83455059997505,,,,,,,,,,,,,,,,108,2022-05-02_12h35.52.608,FishGame,2022.1.1,60.10323330894692,
,28,넌 감성적이야,3,Orange,B,4.125,4.166666666666667,ScrollUp,ScrollDown,Orange.png,2,Neutral,Neutral,,,,,0,0,0,0,,,,,,,,,,,,,,,,,0,27,27,27,,,,,,,,,,,,,,,,,,,,,,,,,,,,,,,,,,,,,,,,,,,,,,,,,,,,,,,,,,,,,,,,,,,,,,,,,,,,,2,1.144432999950368,371.4666141999769,None,ScrollUp,정답입니다,371.4666141999769,None,371.4666141999769,None,371.4666141999769,None,371.4666141999769,None,372.50297470000805,None,372.50297470000805,373.0174261999782,,,,,,,,,,,,,,,,108,2022-05-02_12h35.52.608,FishGame,2022.1.1,60.10323330894692,
,29,넌 배려심있어,1,Green,A,6.083333333333333,5.5,ScrollDown,ScrollUp,Green.png,2,Positive,Congruent,,,,,0,0,0,0,,,,,,,,,,,,,,,,,0,28,28,28,,,,,,,,,,,,,,,,,,,,,,,,,,,,,,,,,,,,,,,,,,,,,,,,,,,,,,,,,,,,,,,,,,,,,,,,,,,,,1,1.317009499995038,373.6534390000161,None,ScrollDown,정답입니다,373.6534390000161,None,373.6534390000161,None,373.6534390000161,None,373.6534390000161,None,374.8558482999797,None,374.8558482999797,375.36776300001657,,,,,,,,,,,,,,,,108,2022-05-02_12h35.52.608,FishGame,2022.1.1,60.10323330894692,
,30,넌 숨김없어,3,Green,A,4.5,4.933333333333334,ScrollDown,ScrollUp,Green.png,2,Neutral,Neutral,,,,,0,0,0,0,,,,,,,,,,,,,,,,,0,29,29,29,,,,,,,,,,,,,,,,,,,,,,,,,,,,,,,,,,,,,,,,,,,,,,,,,,,,,,,,,,,,,,,,,,,,,,,,,,,,,1,1.1148084999877028,376.00403110001935,None,ScrollDown,정답입니다,376.00403110001935,None,376.00403110001935,None,376.00403110001935,None,376.00403110001935,None,377.00602639996214,None,377.00602639996214,377.51848769997014,,,,,,,,,,,,,,,,108,2022-05-02_12h35.52.608,FishGame,2022.1.1,60.10323330894692,
,31,넌 훌륭해,2,Orange,B,5.916666666666667,4.033333333333333,ScrollUp,ScrollDown,Orange.png,2,Positive,Incongruent,,,,,0,0,0,0,,,,,,,,,,,,,,,,,0,30,30,30,,,,,,,,,,,,,,,,,,,,,,,,,,,,,,,,,,,,,,,,,,,,,,,,,,,,,,,,,,,,,,,,,,,,,,,,,,,,,2,1.3488216999685392,378.16231290000724,None,ScrollUp,정답입니다,378.16231290000724,None,378.16231290000724,None,378.16231290000724,None,378.16231290000724,None,379.3891219999641,None,379.3891219999641,379.9017662999686,,,,,,,,,,,,,,,,108,2022-05-02_12h35.52.608,FishGame,2022.1.1,60.10323330894692,
,32,넌 슬기로워,2,Green,A,6.166666666666667,4.1,ScrollDown,ScrollUp,Green.png,2,Positive,Congruent,,,,,0,0,0,0,,,,,,,,,,,,,,,,,0,31,31,31,,,,,,,,,,,,,,,,,,,,,,,,,,,,,,,,,,,,,,,,,,,,,,,,,,,,,,,,,,,,,,,,,,,,,,,,,,,,,1,1.295410799968522,380.53289039997617,None,ScrollDown,정답입니다,380.53289039997617,None,380.53289039997617,None,380.53289039997617,None,380.53289039997617,None,381.72100469999714,None,381.72100469999714,382.2346906000166,,,,,,,,,,,,,,,,108,2022-05-02_12h35.52.608,FishGame,2022.1.1,60.10323330894692,
,33,넌 냉혹해,5,Green,A,2.583333333333333,2.1,ScrollDown,ScrollUp,Green.png,2,Negative,Incongruent,,,,,0,0,0,0,,,,,,,,,,,,,,,,,0,32,32,32,,,,,,,,,,,,,,,,,,,,,,,,,,,,,,,,,,,,,,,,,,,,,,,,,,,,,,,,,,,,,,,,,,,,,,,,,,,,,1,1.1643794000265189,382.87547079997603,None,ScrollDown,정답입니다,382.87547079997603,None,382.87547079997603,None,382.87547079997603,None,382.87547079997603,None,383.92280599998776,None,383.92280599998776,384.4353088999633,,,,,,,,,,,,,,,,108,2022-05-02_12h35.52.608,FishGame,2022.1.1,60.10323330894692,
,34,나를 데려가줘,6,Orange,B,0,0,ScrollDown,ScrollUp,Orange.png,2,NonTarget,NonTarget,,,,,0,0,0,0,,,,,,,,,,,,,,,,,0,33,33,33,,,,,,,,,,,,,,,,,,,,,,,,,,,,,,,,,,,,,,,,,,,,,,,,,,,,,,,,,,,,,,,,,,,,,,,,,,,,,1,1.556806400010828,385.06563689996256,None,ScrollDown,정답입니다,385.06563689996256,None,385.06563689996256,None,385.06563689996256,None,385.06563689996256,None,386.5180287999683,None,386.5180287999683,387.0181829999783,,,,,,,,,,,,,,,,108,2022-05-02_12h35.52.608,FishGame,2022.1.1,60.10323330894692,
,35,넌 편파적이야,5,Orange,B,2.125,2,ScrollUp,ScrollDown,Orange.png,2,Negative,Congruent,,,,,0,0,0,0,,,,,,,,,,,,,,,,,0,34,34,34,,,,,,,,,,,,,,,,,,,,,,,,,,,,,,,,,,,,,,,,,,,,,,,,,,,,,,,,,,,,,,,,,,,,,,,,,,,,,2,1.6039519000332803,387.79136859998107,None,ScrollUp,정답입니다,387.79136859998107,None,387.79136859998107,None,387.79136859998107,None,387.79136859998107,None,389.1509603000013,None,389.1509603000013,389.65148459997727,,,,,,,,,,,,,,,,108,2022-05-02_12h35.52.608,FishGame,2022.1.1,60.10323330894692,
,36,넌 슬퍼,4,Green,A,2.583333333333333,3.066666666666667,ScrollDown,ScrollUp,Green.png,2,Negative,Incongruent,,,,,0,0,0,0,,,,,,,,,,,,,,,,,0,35,35,35,,,,,,,,,,,,,,,,,,,,,,,,,,,,,,,,,,,,,,,,,,,,,,,,,,,,,,,,,,,,,,,,,,,,,,,,,,,,,1,1.3101424999767914,390.2879895999795,None,ScrollDown,정답입니다,390.2879895999795,None,390.2879895999795,None,390.2879895999795,None,390.2879895999795,None,391.48478930001147,None,391.48478930001147,391.9852092000074,,,,,,,,,,,,,,,,108,2022-05-02_12h35.52.608,FishGame,2022.1.1,60.10323330894692,
,37,나를 데려가줘,6,Orange,B,0,0,ScrollDown,ScrollUp,Orange.png,2,NonTarget,NonTarget,,,,,0,0,0,0,,,,,,,,,,,,,,,,,0,36,36,36,,,,,,,,,,,,,,,,,,,,,,,,,,,,,,,,,,,,,,,,,,,,,,,,,,,,,,,,,,,,,,,,,,,,,,,,,,,,,1,1.1405752000282519,392.61818789999234,None,ScrollDown,정답입니다,392.61818789999234,None,392.61818789999234,None,392.61818789999234,None,392.61818789999234,None,393.6515953000053,None,393.6515953000053,394.1517572000157,,,,,,,,,,,,,,,,108,2022-05-02_12h35.52.608,FishGame,2022.1.1,60.10323330894692,
,38,넌 친절해,1,Orange,B,6.041666666666667,5.533333333333333,ScrollUp,ScrollDown,Orange.png,2,Positive,Incongruent,,,,,0,0,0,0,,,,,,,,,,,,,,,,,0,37,37,37,,,,,,,,,,,,,,,,,,,,,,,,,,,,,,,,,,,,,,,,,,,,,,,,,,,,,,,,,,,,,,,,,,,,,,,,,,,,,2,1.5014859000220895,394.7948455999722,None,ScrollUp,정답입니다,394.7948455999722,None,394.7948455999722,None,394.7948455999722,None,394.7948455999722,None,396.18151369999396,None,396.18151369999396,396.6853376000072,,,,,,,,,,,,,,,,108,2022-05-02_12h35.52.608,FishGame,2022.1.1,60.10323330894692,
,1,넌 엉성해,4,Green,A,3,3.3,ScrollDown,ScrollUp,Green.png,3,Negative,Incongruent,,,,,0,0,0,0,,,,,,,,,,,,,,,,,,,,,0,0,0,0,,,,,,,,,,,,,,,,,,,,,,,,,,,,,,,,428.31883970001945,429.81961020000745,429.85229090001667,430.802288100007,430.8528301999904,431.80212060001213,431.80212060001213,None,,,,,,,,,,,,,,,,,,,,,,,,,,,,,,,,,,1,1.4786068000248633,432.9586600000039,None,ScrollDown,정답입니다,432.9586600000039,None,432.9586600000039,None,432.9586600000039,None,432.9586600000039,None,434.2737711999798,None,434.2737711999798,434.78586790000554,397.18520629999693,None,397.18520629999693,None,0.0037037036,-0.2212963,1,0,0,0.01617296994663775,None,427.1857173999888,None,,,108,2022-05-02_12h35.52.608,FishGame,2022.1.1,60.10323330894692,
,2,나를 보내줘,6,Green,A,0,0,ScrollUp,ScrollDown,Green.png,3,NonTarget,NonTarget,,,,,0,0,0,0,,,,,,,,,,,,,,,,,,,,,0,1,1,1,,,,,,,,,,,,,,,,,,,,,,,,,,,,,,,,,,,,,,,,,,,,,,,,,,,,,,,,,,,,,,,,,,,,,,,,,2,1.3994113999651745,435.41537130001234,None,ScrollUp,정답입니다,435.41537130001234,None,435.41537130001234,None,435.41537130001234,None,435.41537130001234,None,436.7073004000122,None,436.7073004000122,437.21937629999593,,,,,,,,,,,,,,,,108,2022-05-02_12h35.52.608,FishGame,2022.1.1,60.10323330894692,
,3,넌 활발해,1,Orange,B,5.666666666666667,5.6,ScrollUp,ScrollDown,Orange.png,3,Positive,Incongruent,,,,,0,0,0,0,,,,,,,,,,,,,,,,,,,,,0,2,2,2,,,,,,,,,,,,,,,,,,,,,,,,,,,,,,,,,,,,,,,,,,,,,,,,,,,,,,,,,,,,,,,,,,,,,,,,,2,1.4248713999986649,437.86167929996736,None,ScrollUp,정답입니다,437.86167929996736,None,437.86167929996736,None,437.86167929996736,None,437.86167929996736,None,439.16899599996395,None,439.16899599996395,439.66929799999343,,,,,,,,,,,,,,,,108,2022-05-02_12h35.52.608,FishGame,2022.1.1,60.10323330894692,
,4,넌 논리적이야,2,Green,A,5.666666666666666,4.633333333333334,ScrollDown,ScrollUp,Green.png,3,Positive,Congruent,,,,,0,0,0,0,,,,,,,,,,,,,,,,,,,,,0,3,3,3,,,,,,,,,,,,,,,,,,,,,,,,,,,,,,,,,,,,,,,,,,,,,,,,,,,,,,,,,,,,,,,,,,,,,,,,,1,1.215398499974981,440.30263539997395,None,ScrollDown,정답입니다,440.30263539997395,None,440.30263539997395,None,440.30263539997395,None,440.30263539997395,None,441.40735819999827,None,441.40735819999827,441.91983889997937,,,,,,,,,,,,,,,,108,2022-05-02_12h35.52.608,FishGame,2022.1.1,60.10323330894692,
,5,넌 과묵해,3,Green,A,3.875,4.4,ScrollDown,ScrollUp,Green.png,3,Neutral,Neutral,,,,,0,0,0,0,,,,,,,,,,,,,,,,,,,,,0,4,4,4,,,,,,,,,,,,,,,,,,,,,,,,,,,,,,,,,,,,,,,,,,,,,,,,,,,,,,,,,,,,,,,,,,,,,,,,,1.0679012437661488,1.1810788000002503,442.5525614999933,None,ScrollDown,정답입니다,442.5525614999933,None,442.5525614999933,None,442.5525614999933,None,442.5525614999933,None,443.6234264000086,None,443.6234264000086,444.1363457000116,,,,,,,,,,,,,,,,108,2022-05-02_12h35.52.608,FishGame,2022.1.1,60.10323330894692,
,6,나를 데려가줘,6,Orange,B,0,0,ScrollDown,ScrollUp,Orange.png,3,NonTarget,NonTarget,,,,,0,0,0,0,,,,,,,,,,,,,,,,,,,,,0,5,5,5,,,,,,,,,,,,,,,,,,,,,,,,,,,,,,,,,,,,,,,,,,,,,,,,,,,,,,,,,,,,,,,,,,,,,,,,,1,1.4717332000145689,444.7676337999874,None,ScrollDown,정답입니다,444.7676337999874,None,444.7676337999874,None,444.7676337999874,None,444.7676337999874,None,446.13287729996955,None,446.13287729996955,446.63590340001974,,,,,,,,,,,,,,,,108,2022-05-02_12h35.52.608,FishGame,2022.1.1,60.10323330894692,
,7,넌 미숙해,4,Orange,B,3,3,ScrollUp,ScrollDown,Orange.png,3,Negative,Congruent,,,,,0,0,0,0,,,,,,,,,,,,,,,,,,,,,0,6,6,6,,,,,,,,,,,,,,,,,,,,,,,,,,,,,,,,,,,,,,,,,,,,,,,,,,,,,,,,,,,,,,,,,,,,,,,,,2,1.1691778000094928,447.27337629999965,None,ScrollUp,정답입니다,447.27337629999965,None,447.27337629999965,None,447.27337629999965,None,447.27337629999965,None,448.332863299991,None,448.332863299991,448.83588739996776,,,,,,,,,,,,,,,,108,2022-05-02_12h35.52.608,FishGame,2022.1.1,60.10323330894692,
,8,나를 보내줘,6,Green,A,0,0,ScrollUp,ScrollDown,Green.png,3,NonTarget,NonTarget,,,,,0,0,0,0,,,,,,,,,,,,,,,,,,,,,0,7,7,7,,,,,,,,,,,,,,,,,,,,,,,,,,,,,,,,,,,,,,,,,,,,,,,,,,,,,,,,,,,,,,,,,,,,,,,,,2,1.2401603000471368,449.46221679996233,None,ScrollUp,정답입니다,449.46221679996233,None,449.46221679996233,None,449.46221679996233,None,449.46221679996233,None,450.6026517999708,None,450.6026517999708,451.1030398000148,,,,,,,,,,,,,,,,108,2022-05-02_12h35.52.608,FishGame,2022.1.1,60.10323330894692,
,9,넌 자신만만해,3,Orange,B,4.833333333333334,4.333333333333333,ScrollUp,ScrollDown,Orange.png,3,Neutral,Neutral,,,,,0,0,0,0,,,,,,,,,,,,,,,,,,,,,0,8,8,8,,,,,,,,,,,,,,,,,,,,,,,,,,,,,,,,,,,,,,,,,,,,,,,,,,,,,,,,,,,,,,,,,,,,,,,,,2,1.237016599974595,451.733000200009,None,ScrollUp,정답입니다,451.733000200009,None,451.733000200009,None,451.733000200009,None,451.733000200009,None,452.86583909997717,None,452.86583909997717,453.36955329997,,,,,,,,,,,,,,,,108,2022-05-02_12h35.52.608,FishGame,2022.1.1,60.10323330894692,
,10,넌 탐욕스러워,5,Green,A,2.25,2.1,ScrollDown,ScrollUp,Green.png,3,Negative,Incongruent,,,,,0,0,0,0,,,,,,,,,,,,,,,,,,,,,0,9,9,9,,,,,,,,,,,,,,,,,,,,,,,,,,,,,,,,,,,,,,,,,,,,,,,,,,,,,,,,,,,,,,,,,,,,,,,,,1.0972222338120143,1.0658285999670625,454.00893579999683,None,ScrollDown,정답입니다,454.00893579999683,None,454.00893579999683,None,454.00893579999683,None,454.00893579999683,None,454.95715089997975,None,454.95715089997975,455.46953279996524,,,,,,,,,,,,,,,,108,2022-05-02_12h35.52.608,FishGame,2022.1.1,60.10323330894692,
,11,넌 인기있어,2,Green,A,5.458333333333333,4.5,ScrollDown,ScrollUp,Green.png,3,Positive,Congruent,,,,,0,0,0,0,,,,,,,,,,,,,,,,,,,,,0,10,10,10,,,,,,,,,,,,,,,,,,,,,,,,,,,,,,,,,,,,,,,,,,,,,,,,,,,,,,,,,,,,,,,,,,,,,,,,,1.016975333293279,1.0353757999837399,456.0991208999767,None,ScrollDown,정답입니다,456.0991208999767,None,456.0991208999767,None,456.0991208999767,None,456.0991208999767,None,457.02482649998274,None,457.02482649998274,457.5362627999857,,,,,,,,,,,,,,,,108,2022-05-02_12h35.52.608,FishGame,2022.1.1,60.10323330894692,
,12,나를 데려가줘,6,Orange,B,0,0,ScrollDown,ScrollUp,Orange.png,3,NonTarget,NonTarget,,,,,0,0,0,0,,,,,,,,,,,,,,,,,,,,,0,11,11,11,,,,,,,,,,,,,,,,,,,,,,,,,,,,,,,,,,,,,,,,,,,,,,,,,,,,,,,,,,,,,,,,,,,,,,,,,1,1.4389389000134543,458.177342400013,None,ScrollDown,정답입니다,458.177342400013,None,458.177342400013,None,458.177342400013,None,458.177342400013,None,459.50316229998134,None,459.50316229998134,460.0031783999875,,,,,,,,,,,,,,,,108,2022-05-02_12h35.52.608,FishGame,2022.1.1,60.10323330894692,
,13,넌 뛰어나,2,Orange,B,6.166666666666667,4,ScrollUp,ScrollDown,Orange.png,3,Positive,Incongruent,,,,,0,0,0,0,,,,,,,,,,,,,,,,,,,,,0,12,12,12,,,,,,,,,,,,,,,,,,,,,,,,,,,,,,,,,,,,,,,,,,,,,,,,,,,,,,,,,,,,,,,,,,,,,,,,,2,1.179662799986545,460.64101500000106,None,ScrollUp,정답입니다,460.64101500000106,None,460.64101500000106,None,460.64101500000106,None,460.64101500000106,None,461.7059523999924,None,461.7059523999924,462.219691700011,,,,,,,,,,,,,,,,108,2022-05-02_12h35.52.608,FishGame,2022.1.1,60.10323330894692,
,14,넌 낙관적이야,1,Green,A,5.75,5.8,ScrollDown,ScrollUp,Green.png,3,Positive,Congruent,,,,,0,0,0,0,,,,,,,,,,,,,,,,,,,,,0,13,13,13,,,,,,,,,,,,,,,,,,,,,,,,,,,,,,,,,,,,,,,,,,,,,,,,,,,,,,,,,,,,,,,,,,,,,,,,,1,1.3190677000093274,462.8520445000031,None,ScrollDown,정답입니다,462.8520445000031,None,462.8520445000031,None,462.8520445000031,None,462.8520445000031,None,464.06639499997254,None,464.06639499997254,464.5697798000183,,,,,,,,,,,,,,,,108,2022-05-02_12h35.52.608,FishGame,2022.1.1,60.10323330894692,
,15,넌 산만해,4,Orange,B,2.695652173913043,3.033333333333333,ScrollUp,ScrollDown,Orange.png,3,Negative,Congruent,,,,,0,0,0,0,,,,,,,,,,,,,,,,,,,,,0,14,14,14,,,,,,,,,,,,,,,,,,,,,,,,,,,,,,,,,,,,,,,,,,,,,,,,,,,,,,,,,,,,,,,,,,,,,,,,,2,1.2916575000272132,465.20598069997504,None,ScrollUp,정답입니다,465.20598069997504,None,465.20598069997504,None,465.20598069997504,None,465.20598069997504,None,466.3860041999724,None,466.3860041999724,466.8866074999678,,,,,,,,,,,,,,,,108,2022-05-02_12h35.52.608,FishGame,2022.1.1,60.10323330894692,
,16,나를 보내줘,6,Green,A,0,0,ScrollUp,ScrollDown,Green.png,3,NonTarget,NonTarget,,,,,0,0,0,0,,,,,,,,,,,,,,,,,,,,,0,15,15,15,,,,,,,,,,,,,,,,,,,,,,,,,,,,,,,,,,,,,,,,,,,,,,,,,,,,,,,,,,,,,,,,,,,,,,,,,2,2.4011155999614857,467.51570089999586,None,ScrollUp,정답입니다,467.51570089999586,None,467.51570089999586,None,467.51570089999586,None,467.51570089999586,None,469.816421800002,None,469.816421800002,470.32028290000744,,,,,,,,,,,,,,,,108,2022-05-02_12h35.52.608,FishGame,2022.1.1,60.10323330894692,
,17,넌 교활해,5,Orange,B,2.333333333333333,2.133333333333333,ScrollUp,ScrollDown,Orange.png,3,Negative,Congruent,,,,,0,0,0,0,,,,,,,,,,,,,,,,,,,,,0,16,16,16,,,,,,,,,,,,,,,,,,,,,,,,,,,,,,,,,,,,,,,,,,,,,,,,,,,,,,,,,,,,,,,,,,,,,,,,,2,1.6858622999861836,470.9559611000004,None,ScrollUp,정답입니다,470.9559611000004,None,470.9559611000004,None,470.9559611000004,None,470.9559611000004,None,472.53327179996995,None,472.53327179996995,473.0364073999808,,,,,,,,,,,,,,,,108,2022-05-02_12h35.52.608,FishGame,2022.1.1,60.10323330894692,
,18,나를 보내줘,6,Green,A,0,0,ScrollUp,ScrollDown,Green.png,3,NonTarget,NonTarget,,,,,0,0,0,0,,,,,,,,,,,,,,,,,,,,,0,17,17,17,,,,,,,,,,,,,,,,,,,,,,,,,,,,,,,,,,,,,,,,,,,,,,,,,,,,,,,,,,,,,,,,,,,,,,,,,2,1.4238288000342436,473.66448119998677,None,ScrollUp,정답입니다,473.66448119998677,None,473.66448119998677,None,473.66448119998677,None,473.66448119998677,None,474.98652849998325,None,474.98652849998325,475.4870225999621,,,,,,,,,,,,,,,,108,2022-05-02_12h35.52.608,FishGame,2022.1.1,60.10323330894692,
,19,넌 불친절해,5,Orange,B,2.208333333333333,2.033333333333333,ScrollUp,ScrollDown,Orange.png,3,Negative,Congruent,,,,,0,0,0,0,,,,,,,,,,,,,,,,,,,,,0,18,18,18,,,,,,,,,,,,,,,,,,,,,,,,,,,,,,,,,,,,,,,,,,,,,,,,,,,,,,,,,,,,,,,,,,,,,,,,,2,1.2056524999788962,476.12869240000146,None,ScrollUp,정답입니다,476.12869240000146,None,476.12869240000146,None,476.12869240000146,None,476.12869240000146,None,477.21640659996774,None,477.21640659996774,477.7198816000018,,,,,,,,,,,,,,,,108,2022-05-02_12h35.52.608,FishGame,2022.1.1,60.10323330894692,
,20,넌 지적이야,2,Orange,B,5.75,4.366666666666666,ScrollUp,ScrollDown,Orange.png,3,Positive,Incongruent,,,,,0,0,0,0,,,,,,,,,,,,,,,,,,,,,0,19,19,19,,,,,,,,,,,,,,,,,,,,,,,,,,,,,,,,,,,,,,,,,,,,,,,,,,,,,,,,,,,,,,,,,,,,,,,,,2,1.3105362999485806,478.3583079999662,None,ScrollUp,정답입니다,478.3583079999662,None,478.3583079999662,None,478.3583079999662,None,478.3583079999662,None,479.5531077000196,None,479.5531077000196,480.053250500001,,,,,,,,,,,,,,,,108,2022-05-02_12h35.52.608,FishGame,2022.1.1,60.10323330894692,
,21,넌 우유부단해,4,Green,A,2.666666666666667,3.166666666666667,ScrollDown,ScrollUp,Green.png,3,Negative,Incongruent,,,,,0,0,0,0,,,,,,,,,,,,,,,,,,,,,0,20,20,20,,,,,,,,,,,,,,,,,,,,,,,,,,,,,,,,,,,,,,,,,,,,,,,,,,,,,,,,,,,,,,,,,,,,,,,,,1.0262345671653748,1.5904937000013888,480.69271779997507,None,ScrollDown,정답입니다,480.69271779997507,None,480.69271779997507,None,480.69271779997507,None,480.69271779997507,None,482.16994940000586,None,482.16994940000586,482.6702509999741,,,,,,,,,,,,,,,,108,2022-05-02_12h35.52.608,FishGame,2022.1.1,60.10323330894692,
,22,나를 데려가줘,6,Orange,B,0,0,ScrollDown,ScrollUp,Orange.png,3,NonTarget,NonTarget,,,,,0,0,0,0,,,,,,,,,,,,,,,,,,,,,0,21,21,21,,,,,,,,,,,,,,,,,,,,,,,,,,,,,,,,,,,,,,,,,,,,,,,,,,,,,,,,,,,,,,,,,,,,,,,,,1,1.4022929000202566,483.323376299988,None,ScrollDown,정답입니다,483.323376299988,None,483.323376299988,None,483.323376299988,None,483.323376299988,None,484.5999565999955,None,484.5999565999955,485.10328749998007,,,,,,,,,,,,,,,,108,2022-05-02_12h35.52.608,FishGame,2022.1.1,60.10323330894692,
,23,넌 성실해,1,Orange,B,6.041666666666666,5.7,ScrollUp,ScrollDown,Orange.png,3,Positive,Incongruent,,,,,0,0,0,0,,,,,,,,,,,,,,,,,,,,,0,22,22,22,,,,,,,,,,,,,,,,,,,,,,,,,,,,,,,,,,,,,,,,,,,,,,,,,,,,,,,,,,,,,,,,,,,,,,,,,2,1.3092980000074022,485.73720709996996,None,ScrollUp,정답입니다,485.73720709996996,None,485.73720709996996,None,485.73720709996996,None,485.73720709996996,None,486.9364490999724,None,486.9364490999724,487.4371266000089,,,,,,,,,,,,,,,,108,2022-05-02_12h35.52.608,FishGame,2022.1.1,60.10323330894692,
,24,넌 현실주의적이야,3,Green,A,4.625,4.4,ScrollDown,ScrollUp,Green.png,3,Neutral,Neutral,,,,,0,0,0,0,,,,,,,,,,,,,,,,,,,,,0,23,23,23,,,,,,,,,,,,,,,,,,,,,,,,,,,,,,,,,,,,,,,,,,,,,,,,,,,,,,,,,,,,,,,,,,,,,,,,,1.141975313425064,1.524735699989833,488.0651498999796,None,ScrollDown,정답입니다,488.0651498999796,None,488.0651498999796,None,488.0651498999796,None,488.0651498999796,None,489.4868436999968,None,489.4868436999968,489.9870593000087,,,,,,,,,,,,,,,,108,2022-05-02_12h35.52.608,FishGame,2022.1.1,60.10323330894692,
,25,넌 진실돼,1,Green,A,6.625,5.566666666666666,ScrollDown,ScrollUp,Green.png,3,Positive,Congruent,,,,,0,0,0,0,,,,,,,,,,,,,,,,,,,,,0,24,24,24,,,,,,,,,,,,,,,,,,,,,,,,,,,,,,,,,,,,,,,,,,,,,,,,,,,,,,,,,,,,,,,,,,,,,,,,,1.0262345671653748,1.0471192999975756,490.6202647999744,None,ScrollDown,정답입니다,490.6202647999744,None,490.6202647999744,None,490.6202647999744,None,490.6202647999744,None,491.5576404000167,None,491.5576404000167,492.07076819997746,,,,,,,,,,,,,,,,108,2022-05-02_12h35.52.608,FishGame,2022.1.1,60.10323330894692,
,26,넌 천진난만해,3,Orange,B,4.958333333333334,4.833333333333333,ScrollUp,ScrollDown,Orange.png,3,Neutral,Neutral,,,,,0,0,0,0,,,,,,,,,,,,,,,,,,,,,0,25,25,25,,,,,,,,,,,,,,,,,,,,,,,,,,,,,,,,,,,,,,,,,,,,,,,,,,,,,,,,,,,,,,,,,,,,,,,,,2,1.2666063000215217,492.7119403000106,None,ScrollUp,정답입니다,492.7119403000106,None,492.7119403000106,None,492.7119403000106,None,492.7119403000106,None,493.85804159997497,None,493.85804159997497,494.3706952999928,,,,,,,,,,,,,,,,108,2022-05-02_12h35.52.608,FishGame,2022.1.1,60.10323330894692,
,27,넌 교양없어,5,Green,A,2.416666666666667,2.2,ScrollDown,ScrollUp,Green.png,3,Negative,Incongruent,,,,,0,0,0,0,,,,,,,,,,,,,,,,,,,,,0,26,26,26,,,,,,,,,,,,,,,,,,,,,,,,,,,,,,,,,,,,,,,,,,,,,,,,,,,,,,,,,,,,,,,,,,,,,,,,,1.080246905485789,1.1823469999944791,495.00403010001173,None,ScrollDown,정답입니다,495.00403010001173,None,495.00403010001173,None,495.00403010001173,None,495.00403010001173,None,496.0753833000199,None,496.0753833000199,496.58742250001524,,,,,,,,,,,,,,,,108,2022-05-02_12h35.52.608,FishGame,2022.1.1,60.10323330894692,
,28,나를 보내줘,6,Green,A,0,0,ScrollUp,ScrollDown,Green.png,3,NonTarget,NonTarget,,,,,0,0,0,0,,,,,,,,,,,,,,,,,,,,,0,27,27,27,,,,,,,,,,,,,,,,,,,,,,,,,,,,,,,,,,,,,,,,,,,,,,,,,,,,,,,,,,,,,,,,,,,,,,,,,2,1.2271789000369608,497.21477449999657,None,ScrollUp,정답입니다,497.21477449999657,None,497.21477449999657,None,497.21477449999657,None,497.21477449999657,None,498.3366868000012,None,498.3366868000012,498.83721239998704,,,,,,,,,,,,,,,,108,2022-05-02_12h35.52.608,FishGame,2022.1.1,60.10323330894692,
,29,넌 엉뚱스러워,3,Green,A,4.166666666666667,4.133333333333334,ScrollDown,ScrollUp,Green.png,3,Neutral,Neutral,,,,,0,0,0,0,,,,,,,,,,,,,,,,,,,,,0,28,28,28,,,,,,,,,,,,,,,,,,,,,,,,,,,,,,,,,,,,,,,,,,,,,,,,,,,,,,,,,,,,,,,,,,,,,,,,,1.0262345671653748,1.3718995000235736,499.47453269996913,None,ScrollDown,정답입니다,499.47453269996913,None,499.47453269996913,None,499.47453269996913,None,499.47453269996913,None,500.7369110999862,None,500.7369110999862,501.23735020001186,,,,,,,,,,,,,,,,108,2022-05-02_12h35.52.608,FishGame,2022.1.1,60.10323330894692,
,30,넌 무지해,4,Orange,B,2.541666666666667,3.066666666666667,ScrollUp,ScrollDown,Orange.png,3,Negative,Congruent,,,,,0,0,0,0,,,,,,,,,,,,,,,,,,,,,0,29,29,29,,,,,,,,,,,,,,,,,,,,,,,,,,,,,,,,,,,,,,,,,,,,,,,,,,,,,,,,,,,,,,,,,,,,,,,,,2,2.885012699989602,501.8678618000122,None,ScrollUp,정답입니다,501.8678618000122,None,501.8678618000122,None,501.8678618000122,None,501.8678618000122,None,504.65053199999966,None,504.65053199999966,505.15368509996915,,,,,,,,,,,,,,,,108,2022-05-02_12h35.52.608,FishGame,2022.1.1,60.10323330894692,
,31,넌 음울해,5,Orange,B,2.25,2.233333333333333,ScrollUp,ScrollDown,Orange.png,3,Negative,Congruent,,,,,0,0,0,0,,,,,,,,,,,,,,,,,,,,,0,30,30,30,,,,,,,,,,,,,,,,,,,,,,,,,,,,,,,,,,,,,,,,,,,,,,,,,,,,,,,,,,,,,,,,,,,,,,,,,2,1.162044099997729,505.7930745999911,None,ScrollUp,정답입니다,505.7930745999911,None,505.7930745999911,None,505.7930745999911,None,505.7930745999911,None,506.84072350000497,None,506.84072350000497,507.35391989996424,,,,,,,,,,,,,,,,108,2022-05-02_12h35.52.608,FishGame,2022.1.1,60.10323330894692,
,32,넌 냉소적이야,5,Green,A,2.916666666666667,2.4,ScrollDown,ScrollUp,Green.png,3,Negative,Incongruent,,,,,0,0,0,0,,,,,,,,,,,,,,,,,,,,,0,31,31,31,,,,,,,,,,,,,,,,,,,,,,,,,,,,,,,,,,,,,,,,,,,,,,,,,,,,,,,,,,,,,,,,,,,,,,,,,1.060185174147288,1.1940761000150815,507.9846746000112,None,ScrollDown,정답입니다,507.9846746000112,None,507.9846746000112,None,507.9846746000112,None,507.9846746000112,None,509.07035379996523,None,509.07035379996523,509.57078169996385,,,,,,,,,,,,,,,,108,2022-05-02_12h35.52.608,FishGame,2022.1.1,60.10323330894692,
,33,나를 데려가줘,6,Orange,B,0,0,ScrollDown,ScrollUp,Orange.png,3,NonTarget,NonTarget,,,,,0,0,0,0,,,,,,,,,,,,,,,,,,,,,0,32,32,32,,,,,,,,,,,,,,,,,,,,,,,,,,,,,,,,,,,,,,,,,,,,,,,,,,,,,,,,,,,,,,,,,,,,,,,,,1,1.2408386999741197,510.2030444999691,None,ScrollDown,정답입니다,510.2030444999691,None,510.2030444999691,None,510.2030444999691,None,510.2030444999691,None,511.3371136999922,None,511.3371136999922,511.83764189999783,,,,,,,,,,,,,,,,108,2022-05-02_12h35.52.608,FishGame,2022.1.1,60.10323330894692,
,34,넌 쾌활해,1,Green,A,5.541666666666666,5.733333333333333,ScrollDown,ScrollUp,Green.png,3,Positive,Congruent,,,,,0,0,0,0,,,,,,,,,,,,,,,,,,,,,0,33,33,33,,,,,,,,,,,,,,,,,,,,,,,,,,,,,,,,,,,,,,,,,,,,,,,,,,,,,,,,,,,,,,,,,,,,,,,,,1,1.2815555999986827,512.4712311999756,None,ScrollDown,정답입니다,512.4712311999756,None,512.4712311999756,None,512.4712311999756,None,512.4712311999756,None,513.6418931999942,None,513.6418931999942,514.154409300012,,,,,,,,,,,,,,,,108,2022-05-02_12h35.52.608,FishGame,2022.1.1,60.10323330894692,
,35,나를 보내줘,6,Green,A,0,0,ScrollUp,ScrollDown,Green.png,3,NonTarget,NonTarget,,,,,0,0,0,0,,,,,,,,,,,,,,,,,,,,,0,34,34,34,,,,,,,,,,,,,,,,,,,,,,,,,,,,,,,,,,,,,,,,,,,,,,,,,,,,,,,,,,,,,,,,,,,,,,,,,2,2.156325599993579,514.7829170000041,None,ScrollUp,정답입니다,514.7829170000041,None,514.7829170000041,None,514.7829170000041,None,514.7829170000041,None,516.8372441999963,None,516.8372441999963,517.3374529000139,,,,,,,,,,,,,,,,108,2022-05-02_12h35.52.608,FishGame,2022.1.1,60.10323330894692,
,36,넌 명랑해,1,Orange,B,5.739130434782609,5.666666666666667,ScrollUp,ScrollDown,Orange.png,3,Positive,Incongruent,,,,,0,0,0,0,,,,,,,,,,,,,,,,,,,,,0,35,35,35,,,,,,,,,,,,,,,,,,,,,,,,,,,,,,,,,,,,,,,,,,,,,,,,,,,,,,,,,,,,,,,,,,,,,,,,,2,1.308499499980826,517.9728117999621,None,ScrollUp,정답입니다,517.9728117999621,None,517.9728117999621,None,517.9728117999621,None,517.9728117999621,None,519.1706043999875,None,519.1706043999875,519.6707563999807,,,,,,,,,,,,,,,,108,2022-05-02_12h35.52.608,FishGame,2022.1.1,60.10323330894692,
,37,넌 멍해,4,Green,A,2.833333333333333,3.4,ScrollDown,ScrollUp,Green.png,3,Negative,Incongruent,,,,,0,0,0,0,,,,,,,,,,,,,,,,,,,,,0,36,36,36,,,,,,,,,,,,,,,,,,,,,,,,,,,,,,,,,,,,,,,,,,,,,,,,,,,,,,,,,,,,,,,,,,,,,,,,,1,1.3312950999825262,520.3022278000135,None,ScrollDown,정답입니다,520.3022278000135,None,520.3022278000135,None,520.3022278000135,None,520.3022278000135,None,521.5253236999852,None,521.5253236999852,522.037321700016,,,,,,,,,,,,,,,,108,2022-05-02_12h35.52.608,FishGame,2022.1.1,60.10323330894692,
,38,나를 데려가줘,6,Orange,B,0,0,ScrollDown,ScrollUp,Orange.png,3,NonTarget,NonTarget,,,,,0,0,0,0,,,,,,,,,,,,,,,,,,,,,0,37,37,37,,,,,,,,,,,,,,,,,,,,,,,,,,,,,,,,,,,,,,,,,,,,,,,,,,,,,,,,,,,,,,,,,,,,,,,,,1.2175925970077515,1.1327525000087917,522.6688770999899,None,ScrollDown,정답입니다,522.6688770999899,None,522.6688770999899,None,522.6688770999899,None,522.6688770999899,None,523.692015299981,None,523.692015299981,524.2042764999787,,,,,,,,,,,,,,,,108,2022-05-02_12h35.52.608,FishGame,2022.1.1,60.10323330894692,
,39,넌 현명해,2,Green,A,6.541666666666666,4.533333333333333,ScrollDown,ScrollUp,Green.png,3,Positive,Congruent,,,,,0,0,0,0,,,,,,,,,,,,,,,,,,,,,0,38,38,38,,,,,,,,,,,,,,,,,,,,,,,,,,,,,,,,,,,,,,,,,,,,,,,,,,,,,,,,,,,,,,,,,,,,,,,,,1.0679012437661488,1.288480499992147,524.8290544999763,None,ScrollDown,정답입니다,524.8290544999763,None,524.8290544999763,None,524.8290544999763,None,524.8290544999763,None,526.0208899999852,None,526.0208899999852,526.5209355999832,,,,,,,,,,,,,,,,108,2022-05-02_12h35.52.608,FishGame,2022.1.1,60.10323330894692,
,40,넌 수줍어,3,Orange,B,3.541666666666666,4.366666666666666,ScrollUp,ScrollDown,Orange.png,3,Neutral,Neutral,,,,,0,0,0,0,,,,,,,,,,,,,,,,,,,,,0,39,39,39,,,,,,,,,,,,,,,,,,,,,,,,,,,,,,,,,,,,,,,,,,,,,,,,,,,,,,,,,,,,,,,,,,,,,,,,,2,1.5481036000419408,527.1605666999822,None,ScrollUp,정답입니다,527.1605666999822,None,527.1605666999822,None,527.1605666999822,None,527.1605666999822,None,528.5922128999955,None,528.5922128999955,529.104576200014,,,,,,,,,,,,,,,,108,2022-05-02_12h35.52.608,FishGame,2022.1.1,60.10323330894692,
,41,나를 데려가줘,6,Orange,B,0,0,ScrollDown,ScrollUp,Orange.png,3,NonTarget,NonTarget,,,,,0,0,0,0,,,,,,,,,,,,,,,,,,,,,0,40,40,40,,,,,,,,,,,,,,,,,,,,,,,,,,,,,,,,,,,,,,,,,,,,,,,,,,,,,,,,,,,,,,,,,,,,,,,,,1,1.6382509000250138,529.7362947000074,None,ScrollDown,정답입니다,529.7362947000074,None,529.7362947000074,None,529.7362947000074,None,529.7362947000074,None,531.267428799998,None,531.267428799998,531.7716834999737,,,,,,,,,,,,,,,,108,2022-05-02_12h35.52.608,FishGame,2022.1.1,60.10323330894692,
,42,넌 성숙해,2,Orange,B,5.833333333333333,4.533333333333333,ScrollUp,ScrollDown,Orange.png,3,Positive,Incongruent,,,,,0,0,0,0,,,,,,,,,,,,,,,,,,,,,0,41,41,41,,,,,,,,,,,,,,,,,,,,,,,,,,,,,,,,,,,,,,,,,,,,,,,,,,,,,,,,,,,,,,,,,,,,,,,,,2,1.7572836999897845,532.4058863999671,None,ScrollUp,정답입니다,532.4058863999671,None,532.4058863999671,None,532.4058863999671,None,532.4058863999671,None,534.0538069999893,None,534.0538069999893,534.5548426000169,,,,,,,,,,,,,,,,108,2022-05-02_12h35.52.608,FishGame,2022.1.1,60.10323330894692,
,1,넌 매력적이야,2,Orange,B,6.125,4.666666666666667,ScrollUp,ScrollDown,Orange.png,4,Positive,Incongruent,,,,,0,0,0,0,,,,,,,,,,,,,,,,,,,,,,,,,0,0,0,0,,,,,,,,,,,,,,,,,,,,,,,,,,,,571.8558244999731,573.3712815999752,573.388225600007,574.3388845999725,574.3892253999948,575.3387645999901,575.3387645999901,None,,,,,,,,,,,,,,,,,,,,,,,,,,,,,,,,,,2,1.594020999968052,576.5621710999985,None,ScrollUp,정답입니다,576.5621710999985,None,576.5621710999985,None,576.5621710999985,None,576.5621710999985,None,577.9516359000118,None,577.9516359000118,578.4552918999689,535.0550501999678,None,535.0550501999678,None,0.175,-0.15648147,1,0,0,0.01624566997634247,None,565.0548448999762,None,,,108,2022-05-02_12h35.52.608,FishGame,2022.1.1,60.10323330894692,
,2,나를 보내줘,6,Green,A,0,0,ScrollUp,ScrollDown,Green.png,4,NonTarget,NonTarget,,,,,0,0,0,0,,,,,,,,,,,,,,,,,,,,,,,,,0,1,1,1,,,,,,,,,,,,,,,,,,,,,,,,,,,,,,,,,,,,,,,,,,,,,,,,,,,,,,,,,,,,,,,,,,,,,2,1.4956235999707133,579.1254276999971,None,ScrollUp,정답입니다,579.1254276999971,None,579.1254276999971,None,579.1254276999971,None,579.1254276999971,None,580.4763317999896,None,580.4763317999896,580.9883001999697,,,,,,,,,,,,,,,,108,2022-05-02_12h35.52.608,FishGame,2022.1.1,60.10323330894692,
,3,넌 조심스러워,3,Green,A,4.791666666666666,4.666666666666667,ScrollDown,ScrollUp,Green.png,4,Neutral,Neutral,,,,,0,0,0,0,,,,,,,,,,,,,,,,,,,,,,,,,0,2,2,2,,,,,,,,,,,,,,,,,,,,,,,,,,,,,,,,,,,,,,,,,,,,,,,,,,,,,,,,,,,,,,,,,,,,,1,1.3915044999448583,581.6386076000053,None,ScrollDown,정답입니다,581.6386076000053,None,581.6386076000053,None,581.6386076000053,None,581.6386076000053,None,582.9048386999639,None,582.9048386999639,583.4052037000074,,,,,,,,,,,,,,,,108,2022-05-02_12h35.52.608,FishGame,2022.1.1,60.10323330894692,
,4,넌 철학적이야,3,Orange,B,4.5,4.266666666666667,ScrollUp,ScrollDown,Orange.png,4,Neutral,Neutral,,,,,0,0,0,0,,,,,,,,,,,,,,,,,,,,,,,,,0,3,3,3,,,,,,,,,,,,,,,,,,,,,,,,,,,,,,,,,,,,,,,,,,,,,,,,,,,,,,,,,,,,,,,,,,,,,2,1.318999100010842,584.064341099991,None,ScrollUp,정답입니다,584.064341099991,None,584.064341099991,None,584.064341099991,None,584.064341099991,None,585.2520315999864,None,585.2520315999864,585.7555299999658,,,,,,,,,,,,,,,,108,2022-05-02_12h35.52.608,FishGame,2022.1.1,60.10323330894692,
,5,넌 쩨쩨해,5,Green,A,2.375,2.133333333333333,ScrollDown,ScrollUp,Green.png,4,Negative,Incongruent,,,,,0,0,0,0,,,,,,,,,,,,,,,,,,,,,,,,,0,4,4,4,,,,,,,,,,,,,,,,,,,,,,,,,,,,,,,,,,,,,,,,,,,,,,,,,,,,,,,,,,,,,,,,,,,,,1,1.329651800042484,586.4276199999731,None,ScrollDown,정답입니다,586.4276199999731,None,586.4276199999731,None,586.4276199999731,None,586.4276199999731,None,587.6100516999722,None,587.6100516999722,588.1221175999963,,,,,,,,,,,,,,,,108,2022-05-02_12h35.52.608,FishGame,2022.1.1,60.10323330894692,
,6,나를 데려가줘,6,Orange,B,0,0,ScrollDown,ScrollUp,Orange.png,4,NonTarget,NonTarget,,,,,0,0,0,0,,,,,,,,,,,,,,,,,,,,,,,,,0,5,5,5,,,,,,,,,,,,,,,,,,,,,,,,,,,,,,,,,,,,,,,,,,,,,,,,,,,,,,,,,,,,,,,,,,,,,1,1.4626599000184797,588.760090900003,None,ScrollDown,정답입니다,588.760090900003,None,588.760090900003,None,588.760090900003,None,588.760090900003,None,590.1105528000044,None,590.1105528000044,590.6218469999731,,,,,,,,,,,,,,,,108,2022-05-02_12h35.52.608,FishGame,2022.1.1,60.10323330894692,
,7,넌 고집불통이야,5,Orange,B,2.875,2,ScrollUp,ScrollDown,Orange.png,4,Negative,Congruent,,,,,0,0,0,0,,,,,,,,,,,,,,,,,,,,,,,,,0,6,6,6,,,,,,,,,,,,,,,,,,,,,,,,,,,,,,,,,,,,,,,,,,,,,,,,,,,,,,,,,,,,,,,,,,,,,2,1.7575957999797538,591.2729276000173,None,ScrollUp,정답입니다,591.2729276000173,None,591.2729276000173,None,591.2729276000173,None,591.2729276000173,None,592.9055398000055,None,592.9055398000055,593.405550299969,,,,,,,,,,,,,,,,108,2022-05-02_12h35.52.608,FishGame,2022.1.1,60.10323330894692,
,8,넌 무심해,4,Green,A,2.875,3.2,ScrollDown,ScrollUp,Green.png,4,Negative,Incongruent,,,,,0,0,0,0,,,,,,,,,,,,,,,,,,,,,,,,,0,7,7,7,,,,,,,,,,,,,,,,,,,,,,,,,,,,,,,,,,,,,,,,,,,,,,,,,,,,,,,,,,,,,,,,,,,,,1.1342592686414719,1.5368181999656372,594.0345531000057,None,ScrollDown,정답입니다,594.0345531000057,None,594.0345531000057,None,594.0345531000057,None,594.0345531000057,None,595.4618096000049,None,595.4618096000049,595.972565700009,,,,,,,,,,,,,,,,108,2022-05-02_12h35.52.608,FishGame,2022.1.1,60.10323330894692,
,9,넌 정겨워,1,Green,A,5.791666666666667,5.666666666666667,ScrollDown,ScrollUp,Green.png,4,Positive,Congruent,,,,,0,0,0,0,,,,,,,,,,,,,,,,,,,,,,,,,0,8,8,8,,,,,,,,,,,,,,,,,,,,,,,,,,,,,,,,,,,,,,,,,,,,,,,,,,,,,,,,,,,,,,,,,,,,,1.0694444576899211,1.455009599972982,596.6616561000119,None,ScrollDown,정답입니다,596.6616561000119,None,596.6616561000119,None,596.6616561000119,None,596.6616561000119,None,597.9557837999891,None,597.9557837999891,598.4562091999687,,,,,,,,,,,,,,,,108,2022-05-02_12h35.52.608,FishGame,2022.1.1,60.10323330894692,
,10,나를 데려가줘,6,Orange,B,0,0,ScrollDown,ScrollUp,Orange.png,4,NonTarget,NonTarget,,,,,0,0,0,0,,,,,,,,,,,,,,,,,,,,,,,,,0,9,9,9,,,,,,,,,,,,,,,,,,,,,,,,,,,,,,,,,,,,,,,,,,,,,,,,,,,,,,,,,,,,,,,,,,,,,1.1296296268701553,1.222295599989593,599.0928078999859,None,ScrollDown,정답입니다,599.0928078999859,None,599.0928078999859,None,599.0928078999859,None,599.0928078999859,None,600.2057132999762,None,600.2057132999762,600.7055651000119,,,,,,,,,,,,,,,,108,2022-05-02_12h35.52.608,FishGame,2022.1.1,60.10323330894692,
,11,넌 체제순응적이야,4,Orange,B,3,3.6,ScrollUp,ScrollDown,Orange.png,4,Negative,Congruent,,,,,0,0,0,0,,,,,,,,,,,,,,,,,,,,,,,,,0,10,10,10,,,,,,,,,,,,,,,,,,,,,,,,,,,,,,,,,,,,,,,,,,,,,,,,,,,,,,,,,,,,,,,,,,,,,2,1.954979700036347,601.3559823000105,None,ScrollUp,정답입니다,601.3559823000105,None,601.3559823000105,None,601.3559823000105,None,601.3559823000105,None,603.1858300999738,None,603.1858300999738,603.6898713000119,,,,,,,,,,,,,,,,108,2022-05-02_12h35.52.608,FishGame,2022.1.1,60.10323330894692,
,12,나를 보내줘,6,Green,A,0,0,ScrollUp,ScrollDown,Green.png,4,NonTarget,NonTarget,,,,,0,0,0,0,,,,,,,,,,,,,,,,,,,,,,,,,0,11,11,11,,,,,,,,,,,,,,,,,,,,,,,,,,,,,,,,,,,,,,,,,,,,,,,,,,,,,,,,,,,,,,,,,,,,,2,1.932083900028374,604.3174312000046,None,ScrollUp,정답입니다,604.3174312000046,None,604.3174312000046,None,604.3174312000046,None,604.3174312000046,None,606.1438308999641,None,606.1438308999641,606.6557951999712,,,,,,,,,,,,,,,,108,2022-05-02_12h35.52.608,FishGame,2022.1.1,60.10323330894692,
,13,넌 박식해,2,Green,A,5.625,3.933333333333333,ScrollDown,ScrollUp,Green.png,4,Positive,Congruent,,,,,0,0,0,0,,,,,,,,,,,,,,,,,,,,,,,,,0,12,12,12,,,,,,,,,,,,,,,,,,,,,,,,,,,,,,,,,,,,,,,,,,,,,,,,,,,,,,,,,,,,,,,,,,,,,1,1.824769800005015,607.295900499972,None,ScrollDown,정답입니다,607.295900499972,None,607.295900499972,None,607.295900499972,None,607.295900499972,None,609.005665100005,None,609.005665100005,609.5058848999906,,,,,,,,,,,,,,,,108,2022-05-02_12h35.52.608,FishGame,2022.1.1,60.10323330894692,
,14,나를 보내줘,6,Green,A,0,0,ScrollUp,ScrollDown,Green.png,4,NonTarget,NonTarget,,,,,0,0,0,0,,,,,,,,,,,,,,,,,,,,,,,,,0,13,13,13,,,,,,,,,,,,,,,,,,,,,,,,,,,,,,,,,,,,,,,,,,,,,,,,,,,,,,,,,,,,,,,,,,,,,2,1.701128399989102,610.1352358000004,None,ScrollUp,정답입니다,610.1352358000004,None,610.1352358000004,None,610.1352358000004,None,610.1352358000004,None,611.735882900015,None,611.735882900015,612.2398710999987,,,,,,,,,,,,,,,,108,2022-05-02_12h35.52.608,FishGame,2022.1.1,60.10323330894692,
,15,넌 침착해,1,Orange,B,5.458333333333333,5.566666666666666,ScrollUp,ScrollDown,Orange.png,4,Positive,Incongruent,,,,,0,0,0,0,,,,,,,,,,,,,,,,,,,,,,,,,0,14,14,14,,,,,,,,,,,,,,,,,,,,,,,,,,,,,,,,,,,,,,,,,,,,,,,,,,,,,,,,,,,,,,,,,,,,,2,2.8230821000179276,612.8811714000185,None,ScrollUp,정답입니다,612.8811714000185,None,612.8811714000185,None,612.8811714000185,None,612.8811714000185,None,615.5888460999704,None,615.5888460999704,616.0902179999975,,,,,,,,,,,,,,,,108,2022-05-02_12h35.52.608,FishGame,2022.1.1,60.10323330894692,
,16,나를 데려가줘,6,Orange,B,0,0,ScrollDown,ScrollUp,Orange.png,4,NonTarget,NonTarget,,,,,0,0,0,0,,,,,,,,,,,,,,,,,,,,,,,,,0,15,15,15,,,,,,,,,,,,,,,,,,,,,,,,,,,,,,,,,,,,,,,,,,,,,,,,,,,,,,,,,,,,,,,,,,,,,1,1.3321590999839827,616.7234750000061,None,ScrollDown,정답입니다,616.7234750000061,None,616.7234750000061,None,616.7234750000061,None,616.7234750000061,None,617.9439264999819,None,617.9439264999819,618.4561208999949,,,,,,,,,,,,,,,,108,2022-05-02_12h35.52.608,FishGame,2022.1.1,60.10323330894692,
,17,넌 행복해,1,Green,A,6.416666666666666,6.166666666666667,ScrollDown,ScrollUp,Green.png,4,Positive,Congruent,,,,,0,0,0,0,,,,,,,,,,,,,,,,,,,,,,,,,0,16,16,16,,,,,,,,,,,,,,,,,,,,,,,,,,,,,,,,,,,,,,,,,,,,,,,,,,,,,,,,,,,,,,,,,,,,,1.2361111144224803,1.1908380999811925,619.0933666999917,None,ScrollDown,정답입니다,619.0933666999917,None,619.0933666999917,None,619.0933666999917,None,619.0933666999917,None,620.1726296999841,None,620.1726296999841,620.672658299969,,,,,,,,,,,,,,,,108,2022-05-02_12h35.52.608,FishGame,2022.1.1,60.10323330894692,
,18,넌 겸손해,2,Orange,B,5.791666666666667,4.766666666666667,ScrollUp,ScrollDown,Orange.png,4,Positive,Incongruent,,,,,0,0,0,0,,,,,,,,,,,,,,,,,,,,,,,,,0,17,17,17,,,,,,,,,,,,,,,,,,,,,,,,,,,,,,,,,,,,,,,,,,,,,,,,,,,,,,,,,,,,,,,,,,,,,2,1.532787800009828,621.3130873999908,None,ScrollUp,정답입니다,621.3130873999908,None,621.3130873999908,None,621.3130873999908,None,621.3130873999908,None,622.7273331999895,None,622.7273331999895,623.2395999999717,,,,,,,,,,,,,,,,108,2022-05-02_12h35.52.608,FishGame,2022.1.1,60.10323330894692,
,19,나를 보내줘,6,Green,A,0,0,ScrollUp,ScrollDown,Green.png,4,NonTarget,NonTarget,,,,,0,0,0,0,,,,,,,,,,,,,,,,,,,,,,,,,0,18,18,18,,,,,,,,,,,,,,,,,,,,,,,,,,,,,,,,,,,,,,,,,,,,,,,,,,,,,,,,,,,,,,,,,,,,,2,1.3920876000192948,623.8654405999696,None,ScrollUp,정답입니다,623.8654405999696,None,623.8654405999696,None,623.8654405999696,None,623.8654405999696,None,625.1562673000153,None,625.1562673000153,625.6566539999912,,,,,,,,,,,,,,,,108,2022-05-02_12h35.52.608,FishGame,2022.1.1,60.10323330894692,
,20,넌 의심없어,3,Green,A,4.166666666666667,4.6,ScrollDown,ScrollUp,Green.png,4,Neutral,Neutral,,,,,0,0,0,0,,,,,,,,,,,,,,,,,,,,,,,,,0,19,19,19,,,,,,,,,,,,,,,,,,,,,,,,,,,,,,,,,,,,,,,,,,,,,,,,,,,,,,,,,,,,,,,,,,,,,1,1.1047780999797396,626.2841645000153,None,ScrollDown,정답입니다,626.2841645000153,None,626.2841645000153,None,626.2841645000153,None,626.2841645000153,None,627.286273500009,None,627.286273500009,627.7901198000181,,,,,,,,,,,,,,,,108,2022-05-02_12h35.52.608,FishGame,2022.1.1,60.10323330894692,
,21,넌 시시해,4,Green,A,2.666666666666667,2.966666666666667,ScrollDown,ScrollUp,Green.png,4,Negative,Incongruent,,,,,0,0,0,0,,,,,,,,,,,,,,,,,,,,,,,,,0,20,20,20,,,,,,,,,,,,,,,,,,,,,,,,,,,,,,,,,,,,,,,,,,,,,,,,,,,,,,,,,,,,,,,,,,,,,1,1.5390893000294454,628.4197840999695,None,ScrollDown,정답입니다,628.4197840999695,None,628.4197840999695,None,628.4197840999695,None,628.4197840999695,None,629.8563068999792,None,629.8563068999792,630.3562562000006,,,,,,,,,,,,,,,,108,2022-05-02_12h35.52.608,FishGame,2022.1.1,60.10323330894692,
,22,나를 데려가줘,6,Orange,B,0,0,ScrollDown,ScrollUp,Orange.png,4,NonTarget,NonTarget,,,,,0,0,0,0,,,,,,,,,,,,,,,,,,,,,,,,,0,21,21,21,,,,,,,,,,,,,,,,,,,,,,,,,,,,,,,,,,,,,,,,,,,,,,,,,,,,,,,,,,,,,,,,,,,,,1,1.6577000999823213,630.988121500006,None,ScrollDown,정답입니다,630.988121500006,None,630.988121500006,None,630.988121500006,None,630.988121500006,None,632.539408600016,None,632.539408600016,633.0397159999702,,,,,,,,,,,,,,,,108,2022-05-02_12h35.52.608,FishGame,2022.1.1,60.10323330894692,
,23,넌 무정해,5,Green,A,2.5,2.2,ScrollDown,ScrollUp,Green.png,4,Negative,Incongruent,,,,,0,0,0,0,,,,,,,,,,,,,,,,,,,,,,,,,0,22,22,22,,,,,,,,,,,,,,,,,,,,,,,,,,,,,,,,,,,,,,,,,,,,,,,,,,,,,,,,,,,,,,,,,,,,,1,1.8560371000203304,633.6703222999931,None,ScrollDown,정답입니다,633.6703222999931,None,633.6703222999931,None,633.6703222999931,None,633.6703222999931,None,635.4227926000021,None,635.4227926000021,635.9229704000172,,,,,,,,,,,,,,,,108,2022-05-02_12h35.52.608,FishGame,2022.1.1,60.10323330894692,
,24,넌 긍정적이야,1,Orange,B,6.041666666666667,6.066666666666666,ScrollUp,ScrollDown,Orange.png,4,Positive,Incongruent,,,,,0,0,0,0,,,,,,,,,,,,,,,,,,,,,,,,,0,23,23,23,,,,,,,,,,,,,,,,,,,,,,,,,,,,,,,,,,,,,,,,,,,,,,,,,,,,,,,,,,,,,,,,,,,,,2,1.6455344000132754,636.5685316000017,None,ScrollUp,정답입니다,636.5685316000017,None,636.5685316000017,None,636.5685316000017,None,636.5685316000017,None,638.0929451999837,None,638.0929451999837,638.6068366999971,,,,,,,,,,,,,,,,108,2022-05-02_12h35.52.608,FishGame,2022.1.1,60.10323330894692,
,25,나를 보내줘,6,Green,A,0,0,ScrollUp,ScrollDown,Green.png,4,NonTarget,NonTarget,,,,,0,0,0,0,,,,,,,,,,,,,,,,,,,,,,,,,0,24,24,24,,,,,,,,,,,,,,,,,,,,,,,,,,,,,,,,,,,,,,,,,,,,,,,,,,,,,,,,,,,,,,,,,,,,,2,1.3777939999708906,639.2343501999858,None,ScrollUp,정답입니다,639.2343501999858,None,639.2343501999858,None,639.2343501999858,None,639.2343501999858,None,640.5081486999989,None,640.5081486999989,641.02286919998,,,,,,,,,,,,,,,,108,2022-05-02_12h35.52.608,FishGame,2022.1.1,60.10323330894692,
,26,넌 시기심이 많아,5,Orange,B,2.458333333333333,2.233333333333333,ScrollUp,ScrollDown,Orange.png,4,Negative,Congruent,,,,,0,0,0,0,,,,,,,,,,,,,,,,,,,,,,,,,0,25,25,25,,,,,,,,,,,,,,,,,,,,,,,,,,,,,,,,,,,,,,,,,,,,,,,,,,,,,,,,,,,,,,,,,,,,,2,1.4783266999875195,641.6659465999692,None,ScrollUp,정답입니다,641.6659465999692,None,641.6659465999692,None,641.6659465999692,None,641.6659465999692,None,643.026357099996,None,643.026357099996,643.5404103000183,,,,,,,,,,,,,,,,108,2022-05-02_12h35.52.608,FishGame,2022.1.1,60.10323330894692,
,27,넌 탁월해,2,Green,A,5.708333333333334,4.5,ScrollDown,ScrollUp,Green.png,4,Positive,Congruent,,,,,0,0,0,0,,,,,,,,,,,,,,,,,,,,,,,,,0,26,26,26,,,,,,,,,,,,,,,,,,,,,,,,,,,,,,,,,,,,,,,,,,,,,,,,,,,,,,,,,,,,,,,,,,,,,1,1.2931361000519246,644.1759552999865,None,ScrollDown,정답입니다,644.1759552999865,None,644.1759552999865,None,644.1759552999865,None,644.1759552999865,None,645.356472000014,None,645.356472000014,645.8567434999859,,,,,,,,,,,,,,,,108,2022-05-02_12h35.52.608,FishGame,2022.1.1,60.10323330894692,
,28,나를 데려가줘,6,Orange,B,0,0,ScrollDown,ScrollUp,Orange.png,4,NonTarget,NonTarget,,,,,0,0,0,0,,,,,,,,,,,,,,,,,,,,,,,,,0,27,27,27,,,,,,,,,,,,,,,,,,,,,,,,,,,,,,,,,,,,,,,,,,,,,,,,,,,,,,,,,,,,,,,,,,,,,1,1.4406118000042625,646.4869324999745,None,ScrollDown,정답입니다,646.4869324999745,None,646.4869324999745,None,646.4869324999745,None,646.4869324999745,None,647.8228111999924,None,647.8228111999924,648.3233155999915,,,,,,,,,,,,,,,,108,2022-05-02_12h35.52.608,FishGame,2022.1.1,60.10323330894692,
,29,넌 조용해,3,Orange,B,4.333333333333333,4.166666666666667,ScrollUp,ScrollDown,Orange.png,4,Neutral,Neutral,,,,,0,0,0,0,,,,,,,,,,,,,,,,,,,,,,,,,0,28,28,28,,,,,,,,,,,,,,,,,,,,,,,,,,,,,,,,,,,,,,,,,,,,,,,,,,,,,,,,,,,,,,,,,,,,,2,1.3688718000194058,648.9647900999989,None,ScrollUp,정답입니다,648.9647900999989,None,648.9647900999989,None,648.9647900999989,None,648.9647900999989,None,650.2199132000096,None,650.2199132000096,650.7232408999698,,,,,,,,,,,,,,,,108,2022-05-02_12h35.52.608,FishGame,2022.1.1,60.10323330894692,
,30,넌 다정해,1,Green,A,5.833333333333334,5.7,ScrollDown,ScrollUp,Green.png,4,Positive,Congruent,,,,,0,0,0,0,,,,,,,,,,,,,,,,,,,,,,,,,0,29,29,29,,,,,,,,,,,,,,,,,,,,,,,,,,,,,,,,,,,,,,,,,,,,,,,,,,,,,,,,,,,,,,,,,,,,,1,1.3643522000056691,651.3539582999656,None,ScrollDown,정답입니다,651.3539582999656,None,651.3539582999656,None,651.3539582999656,None,651.3539582999656,None,652.6113474000013,None,652.6113474000013,653.1233326999936,,,,,,,,,,,,,,,,108,2022-05-02_12h35.52.608,FishGame,2022.1.1,60.10323330894692,
,31,넌 능력있어,2,Orange,B,6.166666666666666,4.6,ScrollUp,ScrollDown,Orange.png,4,Positive,Incongruent,,,,,0,0,0,0,,,,,,,,,,,,,,,,,,,,,,,,,0,30,30,30,,,,,,,,,,,,,,,,,,,,,,,,,,,,,,,,,,,,,,,,,,,,,,,,,,,,,,,,,,,,,,,,,,,,,2,1.8131624999805354,653.7549514999846,None,ScrollUp,정답입니다,653.7549514999846,None,653.7549514999846,None,653.7549514999846,None,653.7549514999846,None,655.4606186000165,None,655.4606186000165,655.9737146999687,,,,,,,,,,,,,,,,108,2022-05-02_12h35.52.608,FishGame,2022.1.1,60.10323330894692,
,32,넌 불쾌해,5,Green,A,2.125,1.933333333333333,ScrollDown,ScrollUp,Green.png,4,Negative,Incongruent,,,,,0,0,0,0,,,,,,,,,,,,,,,,,,,,,,,,,0,31,31,31,,,,,,,,,,,,,,,,,,,,,,,,,,,,,,,,,,,,,,,,,,,,,,,,,,,,,,,,,,,,,,,,,,,,,1,1.4785179999889806,656.5986782999826,None,ScrollDown,정답입니다,656.5986782999826,None,656.5986782999826,None,656.5986782999826,None,656.5986782999826,None,657.9764670999721,None,657.9764670999721,658.4903618000099,,,,,,,,,,,,,,,,108,2022-05-02_12h35.52.608,FishGame,2022.1.1,60.10323330894692,
,33,나를 데려가줘,6,Orange,B,0,0,ScrollDown,ScrollUp,Orange.png,4,NonTarget,NonTarget,,,,,0,0,0,0,,,,,,,,,,,,,,,,,,,,,,,,,0,32,32,32,,,,,,,,,,,,,,,,,,,,,,,,,,,,,,,,,,,,,,,,,,,,,,,,,,,,,,,,,,,,,,,,,,,,,1,1.4314165000105277,659.1231711999862,None,ScrollDown,정답입니다,659.1231711999862,None,659.1231711999862,None,659.1231711999862,None,659.1231711999862,None,660.4446654999629,None,660.4446654999629,660.9567837999784,,,,,,,,,,,,,,,,108,2022-05-02_12h35.52.608,FishGame,2022.1.1,60.10323330894692,
,34,넌 유순해,3,Green,A,4.458333333333333,5,ScrollDown,ScrollUp,Green.png,4,Neutral,Neutral,,,,,0,0,0,0,,,,,,,,,,,,,,,,,,,,,,,,,0,33,33,33,,,,,,,,,,,,,,,,,,,,,,,,,,,,,,,,,,,,,,,,,,,,,,,,,,,,,,,,,,,,,,,,,,,,,1.2685185074806213,3.433856699964963,661.5830078999861,None,ScrollDown,정답입니다,661.5830078999861,None,661.5830078999861,None,661.5830078999861,None,661.5830078999861,None,664.9113743999624,None,664.9113743999624,665.4238324000034,,,,,,,,,,,,,,,,108,2022-05-02_12h35.52.608,FishGame,2022.1.1,60.10323330894692,
,35,넌 근심스러워,4,Orange,B,2.708333333333333,3.133333333333333,ScrollUp,ScrollDown,Orange.png,4,Negative,Congruent,,,,,0,0,0,0,,,,,,,,,,,,,,,,,,,,,,,,,0,34,34,34,,,,,,,,,,,,,,,,,,,,,,,,,,,,,,,,,,,,,,,,,,,,,,,,,,,,,,,,,,,,,,,,,,,,,2,1.6612567999982275,666.1124893999659,None,ScrollUp,정답입니다,666.1124893999659,None,666.1124893999659,None,666.1124893999659,None,666.1124893999659,None,667.6066257999628,None,667.6066257999628,668.1075829999754,,,,,,,,,,,,,,,,108,2022-05-02_12h35.52.608,FishGame,2022.1.1,60.10323330894692,
,36,넌 세련되었어,2,Green,A,5.5,4.6,ScrollDown,ScrollUp,Green.png,4,Positive,Congruent,,,,,0,0,0,0,,,,,,,,,,,,,,,,,,,,,,,,,0,35,35,35,,,,,,,,,,,,,,,,,,,,,,,,,,,,,,,,,,,,,,,,,,,,,,,,,,,,,,,,,,,,,,,,,,,,,1.0339506367842357,1.8732312000356615,668.7487101000152,None,ScrollDown,정답입니다,668.7487101000152,None,668.7487101000152,None,668.7487101000152,None,668.7487101000152,None,670.5068959000055,None,670.5068959000055,671.0071837999858,,,,,,,,,,,,,,,,108,2022-05-02_12h35.52.608,FishGame,2022.1.1,60.10323330894692,
,37,나를 보내줘,6,Green,A,0,0,ScrollUp,ScrollDown,Green.png,4,NonTarget,NonTarget,,,,,0,0,0,0,,,,,,,,,,,,,,,,,,,,,,,,,0,36,36,36,,,,,,,,,,,,,,,,,,,,,,,,,,,,,,,,,,,,,,,,,,,,,,,,,,,,,,,,,,,,,,,,,,,,,2,1.7817124999710359,671.6368400999927,None,ScrollUp,정답입니다,671.6368400999927,None,671.6368400999927,None,671.6368400999927,None,671.6368400999927,None,673.3116460000165,None,673.3116460000165,673.8240516000078,,,,,,,,,,,,,,,,108,2022-05-02_12h35.52.608,FishGame,2022.1.1,60.10323330894692,
,38,넌 확고해,3,Orange,B,4.708333333333334,4.566666666666666,ScrollUp,ScrollDown,Orange.png,4,Neutral,Neutral,,,,,0,0,0,0,,,,,,,,,,,,,,,,,,,,,,,,,0,37,37,37,,,,,,,,,,,,,,,,,,,,,,,,,,,,,,,,,,,,,,,,,,,,,,,,,,,,,,,,,,,,,,,,,,,,,2,2.190370799973607,674.4665286999661,None,ScrollUp,정답입니다,674.4665286999661,None,674.4665286999661,None,674.4665286999661,None,674.4665286999661,None,676.5404559000162,None,676.5404559000162,677.0410385999712,,,,,,,,,,,,,,,,108,2022-05-02_12h35.52.608,FishGame,2022.1.1,60.10323330894692,
,39,넌 이해심이 많아,1,Orange,B,6.041666666666668,5.533333333333333,ScrollUp,ScrollDown,Orange.png,4,Positive,Incongruent,,,,,0,0,0,0,,,,,,,,,,,,,,,,,,,,,,,,,0,38,38,38,,,,,,,,,,,,,,,,,,,,,,,,,,,,,,,,,,,,,,,,,,,,,,,,,,,,,,,,,,,,,,,,,,,,,1.9629629850387573,2.938816800015047,677.6742806999828,None,ScrollUp,정답입니다,677.6742806999828,None,677.6742806999828,None,677.6742806999828,None,677.6742806999828,None,680.5069621999864,None,680.5069621999864,681.0070193000138,,,,,,,,,,,,,,,,108,2022-05-02_12h35.52.608,FishGame,2022.1.1,60.10323330894692,
,40,나를 보내줘,6,Green,A,0,0,ScrollUp,ScrollDown,Green.png,4,NonTarget,NonTarget,,,,,0,0,0,0,,,,,,,,,,,,,,,,,,,,,,,,,0,39,39,39,,,,,,,,,,,,,,,,,,,,,,,,,,,,,,,,,,,,,,,,,,,,,,,,,,,,,,,,,,,,,,,,,,,,,2,1.2952887999708764,681.6331952000037,None,ScrollUp,정답입니다,681.6331952000037,None,681.6331952000037,None,681.6331952000037,None,681.6331952000037,None,682.8269508999656,None,682.8269508999656,683.3414697999833,,,,,,,,,,,,,,,,108,2022-05-02_12h35.52.608,FishGame,2022.1.1,60.10323330894692,
,41,넌 거칠어,4,Green,A,2.625,3.033333333333333,ScrollDown,ScrollUp,Green.png,4,Negative,Incongruent,,,,,0,0,0,0,,,,,,,,,,,,,,,,,,,,,,,,,0,40,40,40,,,,,,,,,,,,,,,,,,,,,,,,,,,,,,,,,,,,,,,,,,,,,,,,,,,,,,,,,,,,,,,,,,,,,1,1.6501988000236452,683.9750549999881,None,ScrollDown,정답입니다,683.9750549999881,None,683.9750549999881,None,683.9750549999881,None,683.9750549999881,None,685.5119798000087,None,685.5119798000087,686.024139199988,,,,,,,,,,,,,,,,108,2022-05-02_12h35.52.608,FishGame,2022.1.1,60.10323330894692,
,42,넌 변덕맞아,5,Orange,B,2.75,2.166666666666667,ScrollUp,ScrollDown,Orange.png,4,Negative,Congruent,,,,,0,0,0,0,,,,,,,,,,,,,,,,,,,,,,,,,0,41,41,41,,,,,,,,,,,,,,,,,,,,,,,,,,,,,,,,,,,,,,,,,,,,,,,,,,,,,,,,,,,,,,,,,,,,,2,2.2235684000188485,686.6678603999899,None,ScrollUp,정답입니다,686.6678603999899,None,686.6678603999899,None,686.6678603999899,None,686.6678603999899,None,688.7739561999915,None,688.7739561999915,689.2742504999624,,,,,,,,,,,,,,,,108,2022-05-02_12h35.52.608,FishGame,2022.1.1,60.10323330894692,
,43,나를 데려가줘,6,Orange,B,0,0,ScrollDown,ScrollUp,Orange.png,4,NonTarget,NonTarget,,,,,0,0,0,0,,,,,,,,,,,,,,,,,,,,,,,,,0,42,42,42,,,,,,,,,,,,,,,,,,,,,,,,,,,,,,,,,,,,,,,,,,,,,,,,,,,,,,,,,,,,,,,,,,,,,1,1.5688802999793552,689.9057445999933,None,ScrollDown,정답입니다,689.9057445999933,None,689.9057445999933,None,689.9057445999933,None,689.9057445999933,None,691.3706467999727,None,691.3706467999727,691.8748299999861,,,,,,,,,,,,,,,,108,2022-05-02_12h35.52.608,FishGame,2022.1.1,60.10323330894692,
,44,넌 외로워,4,Orange,B,2.833333333333333,3.3,ScrollUp,ScrollDown,Orange.png,4,Negative,Congruent,,,,,0,0,0,0,,,,,,,,,,,,,,,,,,,,,,,,,0,43,43,43,,,,,,,,,,,,,,,,,,,,,,,,,,,,,,,,,,,,,,,,,,,,,,,,,,,,,,,,,,,,,,,,,,,,,2,1.457004500029143,692.5121516999789,None,ScrollUp,정답입니다,692.5121516999789,None,692.5121516999789,None,692.5121516999789,None,692.5121516999789,None,693.8572284000111,None,693.8572284000111,694.3574644000037,,,,,,,,,,,,,,,,108,2022-05-02_12h35.52.608,FishGame,2022.1.1,60.10323330894692,
,1,넌 불평스러워,5,Green,A,2.25,2.066666666666667,ScrollDown,ScrollUp,Green.png,5,Negative,Incongruent,,,,,0,0,0,0,,,,,,,,,,,,,,,,,,,,,,,,,,,,,0,0,0,0,,,,,,,,,,,,,,,,,,,,,,,,726.1083290000097,727.6086754999706,727.641770199989,728.591719100019,728.6414937999798,729.5916064999765,729.5916064999765,None,,,,,,,,,,,,,,,,,,,,,,,,,,,,,,,,,,1,1.627141600009054,730.7439462000038,None,ScrollDown,정답입니다,730.7439462000038,None,730.7439462000038,None,730.7439462000038,None,730.7439462000038,None,732.2124463999644,None,732.2124463999644,732.7252491000108,694.8574021999957,None,694.8574021999957,None,0.094444446,-0.23055555,1,0,0,0.01618006994249299,None,724.8581900999998,None,,,108,2022-05-02_12h35.52.608,FishGame,2022.1.1,60.10323330894692,
,2,나를 보내줘,6,Green,A,0,0,ScrollUp,ScrollDown,Green.png,5,NonTarget,NonTarget,,,,,0,0,0,0,,,,,,,,,,,,,,,,,,,,,,,,,,,,,0,1,1,1,,,,,,,,,,,,,,,,,,,,,,,,,,,,,,,,,,,,,,,,,,,,,,,,,,,,,,,,,,,,,,,,,2,1.352766900032293,733.352890899987,None,ScrollUp,정답입니다,733.352890899987,None,733.352890899987,None,733.352890899987,None,733.352890899987,None,734.6050744999666,None,734.6050744999666,735.1083115999936,,,,,,,,,,,,,,,,108,2022-05-02_12h35.52.608,FishGame,2022.1.1,60.10323330894692,
,3,넌 다재다능해,2,Orange,B,6.208333333333333,4.5,ScrollUp,ScrollDown,Orange.png,5,Positive,Incongruent,,,,,0,0,0,0,,,,,,,,,,,,,,,,,,,,,,,,,,,,,0,2,2,2,,,,,,,,,,,,,,,,,,,,,,,,,,,,,,,,,,,,,,,,,,,,,,,,,,,,,,,,,,,,,,,,,2,2.455016700027045,735.7411576000159,None,ScrollUp,정답입니다,735.7411576000159,None,735.7411576000159,None,735.7411576000159,None,735.7411576000159,None,738.0884648999781,None,738.0884648999781,738.5921062999987,,,,,,,,,,,,,,,,108,2022-05-02_12h35.52.608,FishGame,2022.1.1,60.10323330894692,
,4,넌 과감해,3,Green,A,4.833333333333334,4.6,ScrollDown,ScrollUp,Green.png,5,Neutral,Neutral,,,,,0,0,0,0,,,,,,,,,,,,,,,,,,,,,,,,,,,,,0,3,3,3,,,,,,,,,,,,,,,,,,,,,,,,,,,,,,,,,,,,,,,,,,,,,,,,,,,,,,,,,,,,,,,,,1,1.4619964000303298,739.2211918999674,None,ScrollDown,정답입니다,739.2211918999674,None,739.2211918999674,None,739.2211918999674,None,739.2211918999674,None,740.578997900011,None,740.578997900011,741.0919003000017,,,,,,,,,,,,,,,,108,2022-05-02_12h35.52.608,FishGame,2022.1.1,60.10323330894692,
,5,넌 고분고분해,3,Orange,B,3.75,4.033333333333333,ScrollUp,ScrollDown,Orange.png,5,Neutral,Neutral,,,,,0,0,0,0,,,,,,,,,,,,,,,,,,,,,,,,,,,,,0,4,4,4,,,,,,,,,,,,,,,,,,,,,,,,,,,,,,,,,,,,,,,,,,,,,,,,,,,,,,,,,,,,,,,,,2,1.477892700000666,741.7348698999849,None,ScrollUp,정답입니다,741.7348698999849,None,741.7348698999849,None,741.7348698999849,None,741.7348698999849,None,743.0956684999983,None,743.0956684999983,743.6090090000071,,,,,,,,,,,,,,,,108,2022-05-02_12h35.52.608,FishGame,2022.1.1,60.10323330894692,
,6,나를 보내줘,6,Green,A,0,0,ScrollUp,ScrollDown,Green.png,5,NonTarget,NonTarget,,,,,0,0,0,0,,,,,,,,,,,,,,,,,,,,,,,,,,,,,0,5,5,5,,,,,,,,,,,,,,,,,,,,,,,,,,,,,,,,,,,,,,,,,,,,,,,,,,,,,,,,,,,,,,,,,2,1.4736893000081182,744.2375850999961,None,ScrollUp,정답입니다,744.2375850999961,None,744.2375850999961,None,744.2375850999961,None,744.2375850999961,None,745.6084900000133,None,745.6084900000133,746.1090264999657,,,,,,,,,,,,,,,,108,2022-05-02_12h35.52.608,FishGame,2022.1.1,60.10323330894692,
,7,넌 잘 잊어,4,Green,A,3,3.7,ScrollDown,ScrollUp,Green.png,5,Negative,Incongruent,,,,,0,0,0,0,,,,,,,,,,,,,,,,,,,,,,,,,,,,,0,6,6,6,,,,,,,,,,,,,,,,,,,,,,,,,,,,,,,,,,,,,,,,,,,,,,,,,,,,,,,,,,,,,,,,,1,1.276558900019154,746.7497984999791,None,ScrollDown,정답입니다,746.7497984999791,None,746.7497984999791,None,746.7497984999791,None,746.7497984999791,None,747.9088029999984,None,747.9088029999984,748.4084322999697,,,,,,,,,,,,,,,,108,2022-05-02_12h35.52.608,FishGame,2022.1.1,60.10323330894692,
,8,넌 탐구심이없어,4,Orange,B,2.833333333333333,3.066666666666667,ScrollUp,ScrollDown,Orange.png,5,Negative,Congruent,,,,,0,0,0,0,,,,,,,,,,,,,,,,,,,,,,,,,,,,,0,7,7,7,,,,,,,,,,,,,,,,,,,,,,,,,,,,,,,,,,,,,,,,,,,,,,,,,,,,,,,,,,,,,,,,,2,1.2736690000165254,749.0541497999802,None,ScrollUp,정답입니다,749.0541497999802,None,749.0541497999802,None,749.0541497999802,None,749.0541497999802,None,750.2083371999906,None,750.2083371999906,750.7089194,,,,,,,,,,,,,,,,108,2022-05-02_12h35.52.608,FishGame,2022.1.1,60.10323330894692,
,9,나를 데려가줘,6,Orange,B,0,0,ScrollDown,ScrollUp,Orange.png,5,NonTarget,NonTarget,,,,,0,0,0,0,,,,,,,,,,,,,,,,,,,,,,,,,,,,,0,8,8,8,,,,,,,,,,,,,,,,,,,,,,,,,,,,,,,,,,,,,,,,,,,,,,,,,,,,,,,,,,,,,,,,,1,1.5662827999913134,751.3452957000118,None,ScrollDown,정답입니다,751.3452957000118,None,751.3452957000118,None,751.3452957000118,None,751.3452957000118,None,752.7966933000134,None,752.7966933000134,753.3085983999772,,,,,,,,,,,,,,,,108,2022-05-02_12h35.52.608,FishGame,2022.1.1,60.10323330894692,
,10,넌 참되어,2,Green,A,6.041666666666664,4.733333333333333,ScrollDown,ScrollUp,Green.png,5,Positive,Congruent,,,,,0,0,0,0,,,,,,,,,,,,,,,,,,,,,,,,,,,,,0,9,9,9,,,,,,,,,,,,,,,,,,,,,,,,,,,,,,,,,,,,,,,,,,,,,,,,,,,,,,,,,,,,,,,,,1.2438271592060726,1.3291768999770284,753.9446767999907,None,ScrollDown,정답입니다,753.9446767999907,None,753.9446767999907,None,753.9446767999907,None,753.9446767999907,None,755.1631052999874,None,755.1631052999874,755.6753632000182,,,,,,,,,,,,,,,,108,2022-05-02_12h35.52.608,FishGame,2022.1.1,60.10323330894692,
,11,넌 생기있어,1,Orange,B,5.875,5.633333333333334,ScrollUp,ScrollDown,Orange.png,5,Positive,Incongruent,,,,,0,0,0,0,,,,,,,,,,,,,,,,,,,,,,,,,,,,,0,10,10,10,,,,,,,,,,,,,,,,,,,,,,,,,,,,,,,,,,,,,,,,,,,,,,,,,,,,,,,,,,,,,,,,,2,1.4227384999976493,756.313993299962,None,ScrollUp,정답입니다,756.313993299962,None,756.313993299962,None,756.313993299962,None,756.313993299962,None,757.6253237999626,None,757.6253237999626,758.1255429000012,,,,,,,,,,,,,,,,108,2022-05-02_12h35.52.608,FishGame,2022.1.1,60.10323330894692,
,12,넌 비사교적이야,4,Orange,B,2.875,2.9,ScrollUp,ScrollDown,Orange.png,5,Negative,Congruent,,,,,0,0,0,0,,,,,,,,,,,,,,,,,,,,,,,,,,,,,0,11,11,11,,,,,,,,,,,,,,,,,,,,,,,,,,,,,,,,,,,,,,,,,,,,,,,,,,,,,,,,,,,,,,,,,2,1.3673922999878414,758.7581733000115,None,ScrollUp,정답입니다,758.7581733000115,None,758.7581733000115,None,758.7581733000115,None,758.7581733000115,None,760.0222825999954,None,760.0222825999954,760.5254588999669,,,,,,,,,,,,,,,,108,2022-05-02_12h35.52.608,FishGame,2022.1.1,60.10323330894692,
,13,나를 데려가줘,6,Orange,B,0,0,ScrollDown,ScrollUp,Orange.png,5,NonTarget,NonTarget,,,,,0,0,0,0,,,,,,,,,,,,,,,,,,,,,,,,,,,,,0,12,12,12,,,,,,,,,,,,,,,,,,,,,,,,,,,,,,,,,,,,,,,,,,,,,,,,,,,,,,,,,,,,,,,,,1,1.505679699999746,761.1600286000175,None,ScrollDown,정답입니다,761.1600286000175,None,761.1600286000175,None,761.1600286000175,None,761.1600286000175,None,762.558913099987,None,762.558913099987,763.0589868999668,,,,,,,,,,,,,,,,108,2022-05-02_12h35.52.608,FishGame,2022.1.1,60.10323330894692,
,14,넌 고독해,4,Green,A,2.916666666666667,3.233333333333333,ScrollDown,ScrollUp,Green.png,5,Negative,Incongruent,,,,,0,0,0,0,,,,,,,,,,,,,,,,,,,,,,,,,,,,,0,13,13,13,,,,,,,,,,,,,,,,,,,,,,,,,,,,,,,,,,,,,,,,,,,,,,,,,,,,,,,,,,,,,,,,,1.3549382761120796,2.3225611000088975,763.6854515000014,None,ScrollDown,정답입니다,763.6854515000014,None,763.6854515000014,None,763.6854515000014,None,763.6854515000014,None,765.9038347000023,None,765.9038347000023,766.409265299968,,,,,,,,,,,,,,,,108,2022-05-02_12h35.52.608,FishGame,2022.1.1,60.10323330894692,
,15,넌 신경질적이야,5,Orange,B,2.375,2.233333333333333,ScrollUp,ScrollDown,Orange.png,5,Negative,Congruent,,,,,0,0,0,0,,,,,,,,,,,,,,,,,,,,,,,,,,,,,0,14,14,14,,,,,,,,,,,,,,,,,,,,,,,,,,,,,,,,,,,,,,,,,,,,,,,,,,,,,,,,,,,,,,,,,2,1.518405300041195,767.0503642999684,None,ScrollUp,정답입니다,767.0503642999684,None,767.0503642999684,None,767.0503642999684,None,767.0503642999684,None,768.4557492000167,None,768.4557492000167,768.9595864000148,,,,,,,,,,,,,,,,108,2022-05-02_12h35.52.608,FishGame,2022.1.1,60.10323330894692,
,16,넌 똑똑해,2,Orange,B,5.666666666666667,3.966666666666667,ScrollUp,ScrollDown,Orange.png,5,Positive,Incongruent,,,,,0,0,0,0,,,,,,,,,,,,,,,,,,,,,,,,,,,,,0,15,15,15,,,,,,,,,,,,,,,,,,,,,,,,,,,,,,,,,,,,,,,,,,,,,,,,,,,,,,,,,,,,,,,,,2,1.5380817000404932,769.59971520002,None,ScrollUp,정답입니다,769.59971520002,None,769.59971520002,None,769.59971520002,None,769.59971520002,None,771.0225068000145,None,771.0225068000145,771.5260897999979,,,,,,,,,,,,,,,,108,2022-05-02_12h35.52.608,FishGame,2022.1.1,60.10323330894692,
,17,나를 보내줘,6,Green,A,0,0,ScrollUp,ScrollDown,Green.png,5,NonTarget,NonTarget,,,,,0,0,0,0,,,,,,,,,,,,,,,,,,,,,,,,,,,,,0,16,16,16,,,,,,,,,,,,,,,,,,,,,,,,,,,,,,,,,,,,,,,,,,,,,,,,,,,,,,,,,,,,,,,,,2,1.397902900003828,772.1558924000128,None,ScrollUp,정답입니다,772.1558924000128,None,772.1558924000128,None,772.1558924000128,None,772.1558924000128,None,773.446965900017,None,773.446965900017,773.959118800005,,,,,,,,,,,,,,,,108,2022-05-02_12h35.52.608,FishGame,2022.1.1,60.10323330894692,
,18,넌 협조적이야,1,Green,A,5.625,5.666666666666667,ScrollDown,ScrollUp,Green.png,5,Positive,Congruent,,,,,0,0,0,0,,,,,,,,,,,,,,,,,,,,,,,,,,,,,0,17,17,17,,,,,,,,,,,,,,,,,,,,,,,,,,,,,,,,,,,,,,,,,,,,,,,,,,,,,,,,,,,,,,,,,1,1.172786500013899,774.5875528000179,None,ScrollDown,정답입니다,774.5875528000179,None,774.5875528000179,None,774.5875528000179,None,774.5875528000179,None,775.6591486000107,None,775.6591486000107,776.1597047999967,,,,,,,,,,,,,,,,108,2022-05-02_12h35.52.608,FishGame,2022.1.1,60.10323330894692,
,19,나를 데려가줘,6,Orange,B,0,0,ScrollDown,ScrollUp,Orange.png,5,NonTarget,NonTarget,,,,,0,0,0,0,,,,,,,,,,,,,,,,,,,,,,,,,,,,,0,18,18,18,,,,,,,,,,,,,,,,,,,,,,,,,,,,,,,,,,,,,,,,,,,,,,,,,,,,,,,,,,,,,,,,,1,1.2629693999770097,776.7930418999749,None,ScrollDown,정답입니다,776.7930418999749,None,776.7930418999749,None,776.7930418999749,None,776.7930418999749,None,777.9460071999929,None,777.9460071999929,778.4593877000152,,,,,,,,,,,,,,,,108,2022-05-02_12h35.52.608,FishGame,2022.1.1,60.10323330894692,
,20,넌 몰인정해,5,Orange,B,2.541666666666667,2.066666666666667,ScrollUp,ScrollDown,Orange.png,5,Negative,Congruent,,,,,0,0,0,0,,,,,,,,,,,,,,,,,,,,,,,,,,,,,0,19,19,19,,,,,,,,,,,,,,,,,,,,,,,,,,,,,,,,,,,,,,,,,,,,,,,,,,,,,,,,,,,,,,,,,2,1.6386087999562733,779.1027049999684,None,ScrollUp,정답입니다,779.1027049999684,None,779.1027049999684,None,779.1027049999684,None,779.1027049999684,None,780.622339900001,None,780.622339900001,781.126524399966,,,,,,,,,,,,,,,,108,2022-05-02_12h35.52.608,FishGame,2022.1.1,60.10323330894692,
,21,나를 데려가줘,6,Orange,B,0,0,ScrollDown,ScrollUp,Orange.png,5,NonTarget,NonTarget,,,,,0,0,0,0,,,,,,,,,,,,,,,,,,,,,,,,,,,,,0,20,20,20,,,,,,,,,,,,,,,,,,,,,,,,,,,,,,,,,,,,,,,,,,,,,,,,,,,,,,,,,,,,,,,,,1,2.064647099992726,781.7606661000173,None,ScrollDown,정답입니다,781.7606661000173,None,781.7606661000173,None,781.7606661000173,None,781.7606661000173,None,783.713968099968,None,783.713968099968,784.2259633999784,,,,,,,,,,,,,,,,108,2022-05-02_12h35.52.608,FishGame,2022.1.1,60.10323330894692,
,22,넌 순진해,3,Orange,B,4.125,4.166666666666667,ScrollUp,ScrollDown,Orange.png,5,Neutral,Neutral,,,,,0,0,0,0,,,,,,,,,,,,,,,,,,,,,,,,,,,,,0,21,21,21,,,,,,,,,,,,,,,,,,,,,,,,,,,,,,,,,,,,,,,,,,,,,,,,,,,,,,,,,,,,,,,,,2,1.239853499981109,784.8569082000176,None,ScrollUp,정답입니다,784.8569082000176,None,784.8569082000176,None,784.8569082000176,None,784.8569082000176,None,785.9924274999648,None,785.9924274999648,786.4924797000131,,,,,,,,,,,,,,,,108,2022-05-02_12h35.52.608,FishGame,2022.1.1,60.10323330894692,
,23,넌 신뢰할만해,1,Green,A,6.625,5.533333333333333,ScrollDown,ScrollUp,Green.png,5,Positive,Congruent,,,,,0,0,0,0,,,,,,,,,,,,,,,,,,,,,,,,,,,,,0,22,22,22,,,,,,,,,,,,,,,,,,,,,,,,,,,,,,,,,,,,,,,,,,,,,,,,,,,,,,,,,,,,,,,,,1,1.1911098000127822,787.1303138000076,None,ScrollDown,정답입니다,787.1303138000076,None,787.1303138000076,None,787.1303138000076,None,787.1303138000076,None,788.209154799988,None,788.209154799988,788.7093830999802,,,,,,,,,,,,,,,,108,2022-05-02_12h35.52.608,FishGame,2022.1.1,60.10323330894692,
,24,나를 보내줘,6,Green,A,0,0,ScrollUp,ScrollDown,Green.png,5,NonTarget,NonTarget,,,,,0,0,0,0,,,,,,,,,,,,,,,,,,,,,,,,,,,,,0,23,23,23,,,,,,,,,,,,,,,,,,,,,,,,,,,,,,,,,,,,,,,,,,,,,,,,,,,,,,,,,,,,,,,,,2,1.485109300003387,789.3400120000006,None,ScrollUp,정답입니다,789.3400120000006,None,789.3400120000006,None,789.3400120000006,None,789.3400120000006,None,790.722403199994,None,790.722403199994,791.2258331999765,,,,,,,,,,,,,,,,108,2022-05-02_12h35.52.608,FishGame,2022.1.1,60.10323330894692,
,25,넌 인색해,5,Green,A,2.625,2.233333333333333,ScrollDown,ScrollUp,Green.png,5,Negative,Incongruent,,,,,0,0,0,0,,,,,,,,,,,,,,,,,,,,,,,,,,,,,0,24,24,24,,,,,,,,,,,,,,,,,,,,,,,,,,,,,,,,,,,,,,,,,,,,,,,,,,,,,,,,,,,,,,,,,1.1234567960103352,1.5838494999916293,791.8589254000108,None,ScrollDown,정답입니다,791.8589254000108,None,791.8589254000108,None,791.8589254000108,None,791.8589254000108,None,793.3303864999907,None,793.3303864999907,793.8427799000056,,,,,,,,,,,,,,,,108,2022-05-02_12h35.52.608,FishGame,2022.1.1,60.10323330894692,
,26,넌 유쾌해,1,Orange,B,5.833333333333333,5.766666666666667,ScrollUp,ScrollDown,Orange.png,5,Positive,Incongruent,,,,,0,0,0,0,,,,,,,,,,,,,,,,,,,,,,,,,,,,,0,25,25,25,,,,,,,,,,,,,,,,,,,,,,,,,,,,,,,,,,,,,,,,,,,,,,,,,,,,,,,,,,,,,,,,,2,1.3709342000074685,794.478680900007,None,ScrollUp,정답입니다,794.478680900007,None,794.478680900007,None,794.478680900007,None,794.478680900007,None,795.7392410999746,None,795.7392410999746,796.2430942999781,,,,,,,,,,,,,,,,108,2022-05-02_12h35.52.608,FishGame,2022.1.1,60.10323330894692,
,27,나를 보내줘,6,Green,A,0,0,ScrollUp,ScrollDown,Green.png,5,NonTarget,NonTarget,,,,,0,0,0,0,,,,,,,,,,,,,,,,,,,,,,,,,,,,,0,26,26,26,,,,,,,,,,,,,,,,,,,,,,,,,,,,,,,,,,,,,,,,,,,,,,,,,,,,,,,,,,,,,,,,,2,1.4778490000171587,796.8718622999731,None,ScrollUp,정답입니다,796.8718622999731,None,796.8718622999731,None,796.8718622999731,None,796.8718622999731,None,798.2429929999635,None,798.2429929999635,798.7426487000193,,,,,,,,,,,,,,,,108,2022-05-02_12h35.52.608,FishGame,2022.1.1,60.10323330894692,
