name,TrialNum,Word,WordCategory,FishType,WordList,WordValence,WordReputation,CorrectResp,IncorrectResp,FishTypeFile,Round,WordType,Condition,LoopforOrange.thisRepN,LoopforOrange.thisTrialN,LoopforOrange.thisN,LoopforOrange.thisIndex,OrangeInstLoop.thisRepN,OrangeInstLoop.thisTrialN,OrangeInstLoop.thisN,OrangeInstLoop.thisIndex,OrangePrac.thisRepN,OrangePrac.thisTrialN,OrangePrac.thisN,OrangePrac.thisIndex,temp1.thisRepN,temp1.thisTrialN,temp1.thisN,temp1.thisIndex,OrangeRound1.thisRepN,OrangeRound1.thisTrialN,OrangeRound1.thisN,OrangeRound1.thisIndex,OrangeRound2.thisRepN,OrangeRound2.thisTrialN,OrangeRound2.thisN,OrangeRound2.thisIndex,OrangeRound3.thisRepN,OrangeRound3.thisTrialN,OrangeRound3.thisN,OrangeRound3.thisIndex,OrangeRound4.thisRepN,OrangeRound4.thisTrialN,OrangeRound4.thisN,OrangeRound4.thisIndex,OrangeRound5.thisRepN,OrangeRound5.thisTrialN,OrangeRound5.thisN,OrangeRound5.thisIndex,LoopForGreen.thisRepN,LoopForGreen.thisTrialN,LoopForGreen.thisN,LoopForGreen.thisIndex,text_2.started,text_2.stopped,text_3.started,text_3.stopped,key_resp.keys,key_resp.rt,key_resp.started,key_resp.stopped,PassI_2.started,PassI_2.stopped,PassInst_2.keys,PassInst_2.rt,PassInst_2.started,PassInst_2.stopped,mouse_2.x,mouse_2.y,mouse_2.leftButton,mouse_2.midButton,mouse_2.rightButton,mouse_2.started,mouse_2.stopped,image.started,image.stopped,text_5.started,text_5.stopped,text_6.started,text_6.stopped,text_7.started,text_7.stopped,text_8.started,text_8.stopped,slider_2.response,slider_2.rt,slider_2.started,slider_2.stopped,Response_2,Feedback_2,BackGround_2.started,BackGround_2.stopped,Fish_2.started,Fish_2.stopped,WordBox_2.started,WordBox_2.stopped,Words_2.started,Words_2.stopped,BackGround_Feedback_2.started,BackGround_Feedback_2.stopped,Feedbacks_2.started,Feedbacks_2.stopped,Continue_or_not.keys,Continue_or_not.rt,Continue_or_not.started,Continue_or_not.stopped,image_3.started,image_3.stopped,mouse_3.x,mouse_3.y,mouse_3.leftButton,mouse_3.midButton,mouse_3.rightButton,mouse_3.started,mouse_3.stopped,startmain.started,startmain.stopped,slider.response,slider.rt,slider.started,slider.stopped,Response,Feedback,BackGround.started,BackGround.stopped,Fish.started,Fish.stopped,WordBox.started,WordBox.stopped,Words.started,Words.stopped,BackGround_Feedback.started,BackGround_Feedback.stopped,Feedbacks.started,Feedbacks.stopped,text.started,text.stopped,break_interval.started,break_interval.stopped,mouse.x,mouse.y,mouse.leftButton,mouse.midButton,mouse.rightButton,mouse.started,mouse.stopped,stratnextround.started,stratnextround.stopped,endgame.started,endgame.stopped,participant,date,expName,psychopyVersion,frameRate,
,,,,,,,,,,,,,,,,,,,,,,,,,,,,,,,,,,,,,,,,,,,,,,,,,,,,,,22.23648099997081,None,22.23648099997081,None,space,2.0506095999735408,22.69095279998146,None,,,,,,,,,,,,,,,,,,,,,,,,,,,,,,,,,,,,,,,,,,,,,,,,,,,,,,,,,,,,,,,,,,,,,,,,,,,,,,,,,,,,,,,,,,109,2022-05-02_15h17.13.463,FishGame,2022.1.1,59.83452164768092,
물고기과제_instruction(참가자용)OrangeVersion.mp4,,,,,,,,,,,,,,0,0,0,0,0,0,0,0,,,,,,,,,,,,,,,,,,,,,,,,,,,,,,,,,,,,,,,,,91.02501380001195,None,n,22.54502279998269,91.02501380001195,None,,,,,,,,,,,,,,,,,,,,,,,,,,,,,,,,,,,,,,,,,,,,,,,,,,,,,,,,,,,,,,,,,,,,,,,,,,,,,,,,,,,,109,2022-05-02_15h17.13.463,FishGame,2022.1.1,59.83452164768092,
,1,넌 교활해,5,Green,B,2.333333333333333,2.133333333333333,ScrollUp,ScrollDown,Green.png,practice,,,0,0,0,0,,,,,0,0,0,0,0,0,0,0,,,,,,,,,,,,,,,,,,,,,,,,,,,,,,,,,,,,,,,0.10092592,-0.22870371,1,0,0,0.5138073600246571,None,113.59272299997974,None,117.49294679996092,118.99256310000783,119.02633169997716,119.97617969999555,120.02592059999006,120.97585469996557,120.97585469996557,None,1.7932098756233852,1.5773711000219919,122.13475279998966,None,ScrollUp,정답입니다,122.13475279998966,None,122.13475279998966,None,122.13475279998966,None,122.13475279998966,None,123.54792459995952,None,123.54792459995952,124.05974900000729,,,,,,,,,,,,,,,,,,,,,,,,,,,,,,,,,,,,,,,,,,,,,,,,,109,2022-05-02_15h17.13.463,FishGame,2022.1.1,59.83452164768092,
,2,넌 슬기로워,2,Orange,A,6.166666666666667,4.1,ScrollDown,ScrollUp,Orange.png,practice,,,0,0,0,0,,,,,0,0,0,0,0,1,1,1,,,,,,,,,,,,,,,,,,,,,,,,,,,,,,,,,,,,,,,,,,,,,,,,,,,,,,,,1.1327160547176998,1.5249686000170186,124.69321019999916,None,ScrollDown,정답입니다,124.69321019999916,None,124.69321019999916,None,124.69321019999916,None,124.69321019999916,None,126.1093027999741,None,126.1093027999741,126.60980440001003,,,,,,,,,,,,,,,,,,,,,,,,,,,,,,,,,,,,,,,,,,,,,,,,,109,2022-05-02_15h17.13.463,FishGame,2022.1.1,59.83452164768092,
,3,나를 보내줘,6,Orange,A,0,0,ScrollUp,ScrollDown,Orange.png,practice,,,0,0,0,0,,,,,0,0,0,0,0,2,2,2,,,,,,,,,,,,,,,,,,,,,,,,,,,,,,,,,,,,,,,,,,,,,,,,,,,,,,,,1.5108024687506258,1.5192016999935731,127.24346979998518,None,NoResponse,무응답입니다,127.24346979998518,None,127.24346979998518,None,127.24346979998518,None,127.24346979998518,None,128.65201919997344,None,128.65201919997344,129.15921800001524,,,,,,,,,,,,,,,,,,,,,,,,,,,,,,,,,,,,,,,,,,,,,,,,,109,2022-05-02_15h17.13.463,FishGame,2022.1.1,59.83452164768092,
,4,나를 데려가줘,6,Green,B,0,0,ScrollDown,ScrollUp,Green.png,practice,,,0,0,0,0,,,,,0,0,0,0,0,3,3,3,,,,,,,,,,,,,,,,,,,,,,,,,,,,,,,,,,,,,,,,,,,,,,,,,,,,,,,,1,2.0698020000127144,129.8022270000074,None,ScrollDown,정답입니다,129.8022270000074,None,129.8022270000074,None,129.8022270000074,None,129.8022270000074,None,131.75007899996126,None,131.75007899996126,132.2601227000123,,,,,,,,,,,,,,,,,,,,,,,,,,,,,,,,,,,,,,,,,,,,,,,,,109,2022-05-02_15h17.13.463,FishGame,2022.1.1,59.83452164768092,
,1,넌 교활해,5,Green,B,2.333333333333333,2.133333333333333,ScrollUp,ScrollDown,Green.png,practice,,,0,0,0,0,,,,,0,0,0,0,,,,,,,,,,,,,,,,,,,,,,,,,,,,,,,,,,,,,,,,,,,,,,,,,,,,,,,,,,,,,,,,,,,,,,,,,,,,,,n,16.83996859996114,132.7593151999754,None,132.7593151999754,None,,,,,,,,,,,,,,,,,,,,,,,,,,,,,,,,,,,,,,,,,,,109,2022-05-02_15h17.13.463,FishGame,2022.1.1,59.83452164768092,
,1,넌 따뜻해,1,Green,B,6.083333333333333,5.6,ScrollUp,ScrollDown,Green.png,1,Positive,Incongruent,0,0,0,0,,,,,,,,,,,,,0,0,0,0,,,,,,,,,,,,,,,,,,,,,,,,,,,,,,,,,,,,,,,,,,,,151.54337189998478,153.04339929996058,153.0770182000124,154.02703960001236,154.07678770000348,155.02710499998648,155.02710499998648,None,,,,,,,,,,,,,,,,,,,,,,,,,0.044444446,-0.12407407,1,0,0,0.31328956002835184,None,149.62660560000222,None,1.9753086467583973,1.670580100035295,156.2096660999814,None,ScrollUp,정답입니다,156.2096660999814,None,156.2096660999814,None,156.2096660999814,None,156.2096660999814,None,157.69683109998005,None,157.69683109998005,158.21030470001278,,,,,,,,,,,,,,,,109,2022-05-02_15h17.13.463,FishGame,2022.1.1,59.83452164768092,
,2,넌 기품있어,2,Green,B,5.791666666666668,4.5,ScrollUp,ScrollDown,Green.png,1,Positive,Incongruent,0,0,0,0,,,,,,,,,,,,,0,1,1,1,,,,,,,,,,,,,,,,,,,,,,,,,,,,,,,,,,,,,,,,,,,,,,,,,,,,,,,,,,,,,,,,,,,,,,,,,,,,,,,,,,,,,1.9027777661879857,1.2381921000196598,158.8349276999943,None,ScrollUp,정답입니다,158.8349276999943,None,158.8349276999943,None,158.8349276999943,None,158.8349276999943,None,159.95961499999976,None,159.95961499999976,160.46004390000599,,,,,,,,,,,,,,,,109,2022-05-02_15h17.13.463,FishGame,2022.1.1,59.83452164768092,
,3,나를 보내줘,6,Orange,A,0,0,ScrollUp,ScrollDown,Orange.png,1,NonTarget,NonTarget,0,0,0,0,,,,,,,,,,,,,0,2,2,2,,,,,,,,,,,,,,,,,,,,,,,,,,,,,,,,,,,,,,,,,,,,,,,,,,,,,,,,,,,,,,,,,,,,,,,,,,,,,,,,,,,,,2,1.4617501000175253,161.10774669999955,None,ScrollUp,정답입니다,161.10774669999955,None,161.10774669999955,None,161.10774669999955,None,161.10774669999955,None,162.44742310000584,None,162.44742310000584,162.96055660001002,,,,,,,,,,,,,,,,109,2022-05-02_15h17.13.463,FishGame,2022.1.1,59.83452164768092,
,4,넌 수동적이야,4,Orange,A,2.833333333333333,2.933333333333333,ScrollDown,ScrollUp,Orange.png,1,Negative,Incongruent,0,0,0,0,,,,,,,,,,,,,0,3,3,3,,,,,,,,,,,,,,,,,,,,,,,,,,,,,,,,,,,,,,,,,,,,,,,,,,,,,,,,,,,,,,,,,,,,,,,,,,,,,,,,,,,,,1.0185184975465138,1.4063619999797083,163.60748179996153,None,ScrollDown,정답입니다,163.60748179996153,None,163.60748179996153,None,163.60748179996153,None,163.60748179996153,None,164.8926741000032,None,164.8926741000032,165.3935460000066,,,,,,,,,,,,,,,,109,2022-05-02_15h17.13.463,FishGame,2022.1.1,59.83452164768092,
,5,넌 사심이 없어,3,Green,B,4.916666666666666,4.333333333333333,ScrollUp,ScrollDown,Green.png,1,Neutral,Neutral,0,0,0,0,,,,,,,,,,,,,0,4,4,4,,,,,,,,,,,,,,,,,,,,,,,,,,,,,,,,,,,,,,,,,,,,,,,,,,,,,,,,,,,,,,,,,,,,,,,,,,,,,,,,,,,,,2,1.6210446000332013,166.03532580001047,None,ScrollUp,정답입니다,166.03532580001047,None,166.03532580001047,None,166.03532580001047,None,166.03532580001047,None,167.54040379996877,None,167.54040379996877,168.04382219997933,,,,,,,,,,,,,,,,109,2022-05-02_15h17.13.463,FishGame,2022.1.1,59.83452164768092,
,6,넌 헤퍼,5,Orange,A,2.458333333333334,2.233333333333333,ScrollDown,ScrollUp,Orange.png,1,Negative,Incongruent,0,0,0,0,,,,,,,,,,,,,0,5,5,5,,,,,,,,,,,,,,,,,,,,,,,,,,,,,,,,,,,,,,,,,,,,,,,,,,,,,,,,,,,,,,,,,,,,,,,,,,,,,,,,,,,,,1.0015431940555573,1.7165671999682672,168.70193799998378,None,ScrollDown,정답입니다,168.70193799998378,None,168.70193799998378,None,168.70193799998378,None,168.70193799998378,None,170.28144160000375,None,170.28144160000375,170.7940918999957,,,,,,,,,,,,,,,,109,2022-05-02_15h17.13.463,FishGame,2022.1.1,59.83452164768092,
,7,넌 말쑥해,3,Orange,A,4.833333333333334,4.333333333333333,ScrollDown,ScrollUp,Orange.png,1,Neutral,Neutral,0,0,0,0,,,,,,,,,,,,,0,6,6,6,,,,,,,,,,,,,,,,,,,,,,,,,,,,,,,,,,,,,,,,,,,,,,,,,,,,,,,,,,,,,,,,,,,,,,,,,,,,,,,,,,,,,1,1.351056600047741,171.43421049998142,None,ScrollDown,정답입니다,171.43421049998142,None,171.43421049998142,None,171.43421049998142,None,171.43421049998142,None,172.67371409997577,None,172.67371409997577,173.17725989996688,,,,,,,,,,,,,,,,109,2022-05-02_15h17.13.463,FishGame,2022.1.1,59.83452164768092,
,8,넌 투덜거려,5,Green,B,2.541666666666667,2.266666666666667,ScrollUp,ScrollDown,Green.png,1,Negative,Congruent,0,0,0,0,,,,,,,,,,,,,0,7,7,7,,,,,,,,,,,,,,,,,,,,,,,,,,,,,,,,,,,,,,,,,,,,,,,,,,,,,,,,,,,,,,,,,,,,,,,,,,,,,,,,,,,,,2,1.199002199980896,173.81737070000963,None,ScrollUp,정답입니다,173.81737070000963,None,173.81737070000963,None,173.81737070000963,None,173.81737070000963,None,174.89810749999015,None,174.89810749999015,175.4104604999884,,,,,,,,,,,,,,,,109,2022-05-02_15h17.13.463,FishGame,2022.1.1,59.83452164768092,
,9,넌 적극적이야,1,Orange,A,5.708333333333333,5.533333333333333,ScrollDown,ScrollUp,Orange.png,1,Positive,Congruent,0,0,0,0,,,,,,,,,,,,,0,8,8,8,,,,,,,,,,,,,,,,,,,,,,,,,,,,,,,,,,,,,,,,,,,,,,,,,,,,,,,,,,,,,,,,,,,,,,,,,,,,,,,,,,,,,1.0509259402751923,1.2388387999963015,176.0531552999746,None,ScrollDown,정답입니다,176.0531552999746,None,176.0531552999746,None,176.0531552999746,None,176.0531552999746,None,177.17708439996932,None,177.17708439996932,177.6769708999782,,,,,,,,,,,,,,,,109,2022-05-02_15h17.13.463,FishGame,2022.1.1,59.83452164768092,
,10,넌 재미없어,4,Green,B,2.625,2.966666666666667,ScrollUp,ScrollDown,Green.png,1,Negative,Congruent,0,0,0,0,,,,,,,,,,,,,0,9,9,9,,,,,,,,,,,,,,,,,,,,,,,,,,,,,,,,,,,,,,,,,,,,,,,,,,,,,,,,,,,,,,,,,,,,,,,,,,,,,,,,,,,,,2,1.2968281999928877,178.3199504999793,None,ScrollUp,정답입니다,178.3199504999793,None,178.3199504999793,None,178.3199504999793,None,178.3199504999793,None,179.49844809999922,None,179.49844809999922,180.01069689996075,,,,,,,,,,,,,,,,109,2022-05-02_15h17.13.463,FishGame,2022.1.1,59.83452164768092,
,11,넌 명석해,2,Orange,A,5.875,4.033333333333333,ScrollDown,ScrollUp,Orange.png,1,Positive,Congruent,0,0,0,0,,,,,,,,,,,,,0,10,10,10,,,,,,,,,,,,,,,,,,,,,,,,,,,,,,,,,,,,,,,,,,,,,,,,,,,,,,,,,,,,,,,,,,,,,,,,,,,,,,,,,,,,,1.09413580596447,1.3529755999916233,180.65293360000942,None,ScrollDown,정답입니다,180.65293360000942,None,180.65293360000942,None,180.65293360000942,None,180.65293360000942,None,181.8906065999763,None,181.8906065999763,182.39388849999523,,,,,,,,,,,,,,,,109,2022-05-02_15h17.13.463,FishGame,2022.1.1,59.83452164768092,
,12,나를 데려가줘,6,Green,B,0,0,ScrollDown,ScrollUp,Green.png,1,NonTarget,NonTarget,0,0,0,0,,,,,,,,,,,,,0,11,11,11,,,,,,,,,,,,,,,,,,,,,,,,,,,,,,,,,,,,,,,,,,,,,,,,,,,,,,,,,,,,,,,,,,,,,,,,,,,,,,,,,,,,,1.0277777810891469,1.457940399996005,183.02955679997103,None,ScrollDown,정답입니다,183.02955679997103,None,183.02955679997103,None,183.02955679997103,None,183.02955679997103,None,184.37714699999196,None,184.37714699999196,184.87758420000318,,,,,,,,,,,,,,,,109,2022-05-02_15h17.13.463,FishGame,2022.1.1,59.83452164768092,
,13,넌 소심해,4,Orange,A,3,3.1,ScrollDown,ScrollUp,Orange.png,1,Negative,Incongruent,0,0,0,0,,,,,,,,,,,,,0,12,12,12,,,,,,,,,,,,,,,,,,,,,,,,,,,,,,,,,,,,,,,,,,,,,,,,,,,,,,,,,,,,,,,,,,,,,,,,,,,,,,,,,,,,,1.0200617114702861,1.3991750000277534,185.51876629999606,None,ScrollDown,정답입니다,185.51876629999606,None,185.51876629999606,None,185.51876629999606,None,185.51876629999606,None,186.79868720000377,None,186.79868720000377,187.31061459996272,,,,,,,,,,,,,,,,109,2022-05-02_15h17.13.463,FishGame,2022.1.1,59.83452164768092,
,14,넌 합리적이야,2,Orange,A,5.583333333333333,4.733333333333333,ScrollDown,ScrollUp,Orange.png,1,Positive,Congruent,0,0,0,0,,,,,,,,,,,,,0,13,13,13,,,,,,,,,,,,,,,,,,,,,,,,,,,,,,,,,,,,,,,,,,,,,,,,,,,,,,,,,,,,,,,,,,,,,,,,,,,,,,,,,,,,,1,1.2847064000088722,187.95453200000338,None,ScrollDown,정답입니다,187.95453200000338,None,187.95453200000338,None,187.95453200000338,None,187.95453200000338,None,189.12418179999804,None,189.12418179999804,189.62767199997324,,,,,,,,,,,,,,,,109,2022-05-02_15h17.13.463,FishGame,2022.1.1,59.83452164768092,
,15,넌 무자비해,5,Green,B,2.333333333333333,2.1,ScrollUp,ScrollDown,Green.png,1,Negative,Congruent,0,0,0,0,,,,,,,,,,,,,0,14,14,14,,,,,,,,,,,,,,,,,,,,,,,,,,,,,,,,,,,,,,,,,,,,,,,,,,,,,,,,,,,,,,,,,,,,,,,,,,,,,,,,,,,,,2,1.2631712000002153,190.2716387999826,None,ScrollUp,정답입니다,190.2716387999826,None,190.2716387999826,None,190.2716387999826,None,190.2716387999826,None,191.41531750001013,None,191.41531750001013,191.92762239999138,,,,,,,,,,,,,,,,109,2022-05-02_15h17.13.463,FishGame,2022.1.1,59.83452164768092,
,16,나를 보내줘,6,Orange,A,0,0,ScrollUp,ScrollDown,Orange.png,1,NonTarget,NonTarget,0,0,0,0,,,,,,,,,,,,,0,15,15,15,,,,,,,,,,,,,,,,,,,,,,,,,,,,,,,,,,,,,,,,,,,,,,,,,,,,,,,,,,,,,,,,,,,,,,,,,,,,,,,,,,,,,2,1.3934755999944173,192.55856599996332,None,ScrollUp,정답입니다,192.55856599996332,None,192.55856599996332,None,192.55856599996332,None,192.55856599996332,None,193.8439209999633,None,193.8439209999633,194.3441817999701,,,,,,,,,,,,,,,,109,2022-05-02_15h17.13.463,FishGame,2022.1.1,59.83452164768092,
,17,넌 현실적이야,3,Green,B,4.608695652173913,4.766666666666667,ScrollUp,ScrollDown,Green.png,1,Neutral,Neutral,0,0,0,0,,,,,,,,,,,,,0,16,16,16,,,,,,,,,,,,,,,,,,,,,,,,,,,,,,,,,,,,,,,,,,,,,,,,,,,,,,,,,,,,,,,,,,,,,,,,,,,,,,,,,,,,,2,1.4268120999913663,194.98332209995715,None,ScrollUp,정답입니다,194.98332209995715,None,194.98332209995715,None,194.98332209995715,None,194.98332209995715,None,196.2961463999818,None,196.2961463999818,196.8110330000054,,,,,,,,,,,,,,,,109,2022-05-02_15h17.13.463,FishGame,2022.1.1,59.83452164768092,
,18,넌 의리있어,1,Green,B,5.833333333333334,5.633333333333334,ScrollUp,ScrollDown,Green.png,1,Positive,Incongruent,0,0,0,0,,,,,,,,,,,,,0,17,17,17,,,,,,,,,,,,,,,,,,,,,,,,,,,,,,,,,,,,,,,,,,,,,,,,,,,,,,,,,,,,,,,,,,,,,,,,,,,,,,,,,,,,,2,1.19836540002143,197.44698629999766,None,ScrollUp,정답입니다,197.44698629999766,None,197.44698629999766,None,197.44698629999766,None,197.44698629999766,None,198.53189300000668,None,198.53189300000668,199.04447189997882,,,,,,,,,,,,,,,,109,2022-05-02_15h17.13.463,FishGame,2022.1.1,59.83452164768092,
,19,넌 신경과민이야,5,Orange,A,2.541666666666667,2.166666666666667,ScrollDown,ScrollUp,Orange.png,1,Negative,Incongruent,0,0,0,0,,,,,,,,,,,,,0,18,18,18,,,,,,,,,,,,,,,,,,,,,,,,,,,,,,,,,,,,,,,,,,,,,,,,,,,,,,,,,,,,,,,,,,,,,,,,,,,,,,,,,,,,,1.0385802288850148,1.141513100010343,199.69125299999723,None,ScrollDown,정답입니다,199.69125299999723,None,199.69125299999723,None,199.69125299999723,None,199.69125299999723,None,200.71099059999688,None,200.71099059999688,201.21066619997146,,,,,,,,,,,,,,,,109,2022-05-02_15h17.13.463,FishGame,2022.1.1,59.83452164768092,
,20,넌 편안해,1,Orange,A,5.916666666666666,5.866666666666666,ScrollDown,ScrollUp,Orange.png,1,Positive,Congruent,0,0,0,0,,,,,,,,,,,,,0,19,19,19,,,,,,,,,,,,,,,,,,,,,,,,,,,,,,,,,,,,,,,,,,,,,,,,,,,,,,,,,,,,,,,,,,,,,,,,,,,,,,,,,,,,,1.0154321193695068,1.2151770999771543,201.85303729999578,None,ScrollDown,정답입니다,201.85303729999578,None,201.85303729999578,None,201.85303729999578,None,201.85303729999578,None,202.94864829996368,None,202.94864829996368,203.46126369998092,,,,,,,,,,,,,,,,109,2022-05-02_15h17.13.463,FishGame,2022.1.1,59.83452164768092,
,21,넌 품위있어,2,Green,B,5.291666666666666,4.466666666666667,ScrollUp,ScrollDown,Green.png,1,Positive,Incongruent,0,0,0,0,,,,,,,,,,,,,0,20,20,20,,,,,,,,,,,,,,,,,,,,,,,,,,,,,,,,,,,,,,,,,,,,,,,,,,,,,,,,,,,,,,,,,,,,,,,,,,,,,,,,,,,,,2,1.319647399999667,204.09251529996982,None,ScrollUp,정답입니다,204.09251529996982,None,204.09251529996982,None,204.09251529996982,None,204.09251529996982,None,205.30749729997478,None,205.30749729997478,205.81113149999874,,,,,,,,,,,,,,,,109,2022-05-02_15h17.13.463,FishGame,2022.1.1,59.83452164768092,
,22,넌 빈틈없어,3,Orange,A,4.833333333333333,3.966666666666667,ScrollDown,ScrollUp,Orange.png,1,Neutral,Neutral,0,0,0,0,,,,,,,,,,,,,0,21,21,21,,,,,,,,,,,,,,,,,,,,,,,,,,,,,,,,,,,,,,,,,,,,,,,,,,,,,,,,,,,,,,,,,,,,,,,,,,,,,,,,,,,,,1.0262345671653748,1.3792877000523731,206.45148039999185,None,ScrollDown,정답입니다,206.45148039999185,None,206.45148039999185,None,206.45148039999185,None,206.45148039999185,None,207.71471759997075,None,207.71471759997075,208.22810479998589,,,,,,,,,,,,,,,,109,2022-05-02_15h17.13.463,FishGame,2022.1.1,59.83452164768092,
,23,넌 상상력없어,4,Green,B,2.833333333333333,3.133333333333333,ScrollUp,ScrollDown,Green.png,1,Negative,Congruent,0,0,0,0,,,,,,,,,,,,,0,22,22,22,,,,,,,,,,,,,,,,,,,,,,,,,,,,,,,,,,,,,,,,,,,,,,,,,,,,,,,,,,,,,,,,,,,,,,,,,,,,,,,,,,,,,1.8904321044683456,1.16488890000619,208.86662559997058,None,ScrollUp,정답입니다,208.86662559997058,None,208.86662559997058,None,208.86662559997058,None,208.86662559997058,None,209.91553940001177,None,209.91553940001177,210.42785579996416,,,,,,,,,,,,,,,,109,2022-05-02_15h17.13.463,FishGame,2022.1.1,59.83452164768092,
,24,넌 지혜로워,2,Green,B,6.333333333333334,4.633333333333334,ScrollUp,ScrollDown,Green.png,1,Positive,Incongruent,0,0,0,0,,,,,,,,,,,,,0,23,23,23,,,,,,,,,,,,,,,,,,,,,,,,,,,,,,,,,,,,,,,,,,,,,,,,,,,,,,,,,,,,,,,,,,,,,,,,,,,,,,,,,,,,,1.9336419701576233,1.3128633000305854,211.07028159999754,None,ScrollUp,정답입니다,211.07028159999754,None,211.07028159999754,None,211.07028159999754,None,211.07028159999754,None,212.26568279997446,None,212.26568279997446,212.7781837999937,,,,,,,,,,,,,,,,109,2022-05-02_15h17.13.463,FishGame,2022.1.1,59.83452164768092,
,25,넌 시끄러워,4,Orange,A,2.833333333333333,3.033333333333333,ScrollDown,ScrollUp,Orange.png,1,Negative,Incongruent,0,0,0,0,,,,,,,,,,,,,0,24,24,24,,,,,,,,,,,,,,,,,,,,,,,,,,,,,,,,,,,,,,,,,,,,,,,,,,,,,,,,,,,,,,,,,,,,,,,,,,,,,,,,,,,,,1.1049382785956066,1.1414590000058524,213.42129919998115,None,ScrollDown,정답입니다,213.42129919998115,None,213.42129919998115,None,213.42129919998115,None,213.42129919998115,None,214.44423379999353,None,214.44423379999353,214.94486579997465,,,,,,,,,,,,,,,,109,2022-05-02_15h17.13.463,FishGame,2022.1.1,59.83452164768092,
,26,넌 만사태평이야,3,Green,B,4,4.333333333333333,ScrollUp,ScrollDown,Green.png,1,Neutral,Neutral,0,0,0,0,,,,,,,,,,,,,0,25,25,25,,,,,,,,,,,,,,,,,,,,,,,,,,,,,,,,,,,,,,,,,,,,,,,,,,,,,,,,,,,,,,,,,,,,,,,,,,,,,,,,,,,,,1.8456790000200272,1.418601400044281,215.58428469998762,None,ScrollUp,정답입니다,215.58428469998762,None,215.58428469998762,None,215.58428469998762,None,215.58428469998762,None,216.8908311999985,None,216.8908311999985,217.39427339995746,,,,,,,,,,,,,,,,109,2022-05-02_15h17.13.463,FishGame,2022.1.1,59.83452164768092,
,27,넌 붙임성있어,1,Orange,A,5.708333333333333,5.633333333333334,ScrollDown,ScrollUp,Orange.png,1,Positive,Congruent,0,0,0,0,,,,,,,,,,,,,0,26,26,26,,,,,,,,,,,,,,,,,,,,,,,,,,,,,,,,,,,,,,,,,,,,,,,,,,,,,,,,,,,,,,,,,,,,,,,,,,,,,,,,,,,,,1.0756172637144725,1.090508499997668,218.03711139998632,None,ScrollDown,정답입니다,218.03711139998632,None,218.03711139998632,None,218.03711139998632,None,218.03711139998632,None,219.0111339999712,None,219.0111339999712,219.51139569998486,,,,,,,,,,,,,,,,109,2022-05-02_15h17.13.463,FishGame,2022.1.1,59.83452164768092,
,28,넌 영리해,2,Orange,A,6,4.033333333333333,ScrollDown,ScrollUp,Orange.png,1,Positive,Congruent,0,0,0,0,,,,,,,,,,,,,0,27,27,27,,,,,,,,,,,,,,,,,,,,,,,,,,,,,,,,,,,,,,,,,,,,,,,,,,,,,,,,,,,,,,,,,,,,,,,,,,,,,,,,,,,,,1.09413580596447,1.2074271999881603,220.14936099998886,None,ScrollDown,정답입니다,220.14936099998886,None,220.14936099998886,None,220.14936099998886,None,220.14936099998886,None,221.24513559998013,None,221.24513559998013,221.74429419997614,,,,,,,,,,,,,,,,109,2022-05-02_15h17.13.463,FishGame,2022.1.1,59.83452164768092,
,29,넌 열심이야,1,Green,B,6.041666666666667,5.833333333333333,ScrollUp,ScrollDown,Green.png,1,Positive,Incongruent,0,0,0,0,,,,,,,,,,,,,0,28,28,28,,,,,,,,,,,,,,,,,,,,,,,,,,,,,,,,,,,,,,,,,,,,,,,,,,,,,,,,,,,,,,,,,,,,,,,,,,,,,,,,,,,,,1.8858024626970291,1.1345882000168785,222.38723399996525,None,ScrollUp,정답입니다,222.38723399996525,None,222.38723399996525,None,222.38723399996525,None,222.38723399996525,None,223.40799360000528,None,223.40799360000528,223.91138279996812,,,,,,,,,,,,,,,,109,2022-05-02_15h17.13.463,FishGame,2022.1.1,59.83452164768092,
,30,넌 인기없어,4,Green,B,3,3.3,ScrollUp,ScrollDown,Green.png,1,Negative,Congruent,0,0,0,0,,,,,,,,,,,,,0,29,29,29,,,,,,,,,,,,,,,,,,,,,,,,,,,,,,,,,,,,,,,,,,,,,,,,,,,,,,,,,,,,,,,,,,,,,,,,,,,,,,,,,,,,,2,1.1979966000071727,224.5452351999702,None,ScrollUp,정답입니다,224.5452351999702,None,224.5452351999702,None,224.5452351999702,None,224.5452351999702,None,225.63254259998212,None,225.63254259998212,226.14473649999127,,,,,,,,,,,,,,,,109,2022-05-02_15h17.13.463,FishGame,2022.1.1,59.83452164768092,
,31,넌 익살스러워,3,Orange,A,4.708333333333334,4.833333333333333,ScrollDown,ScrollUp,Orange.png,1,Neutral,Neutral,0,0,0,0,,,,,,,,,,,,,0,30,30,30,,,,,,,,,,,,,,,,,,,,,,,,,,,,,,,,,,,,,,,,,,,,,,,,,,,,,,,,,,,,,,,,,,,,,,,,,,,,,,,,,,,,,1.0324074228604634,1.190861799987033,226.79393310000887,None,ScrollDown,정답입니다,226.79393310000887,None,226.79393310000887,None,226.79393310000887,None,226.79393310000887,None,227.86097129998961,None,227.86097129998961,228.36163749999832,,,,,,,,,,,,,,,,109,2022-05-02_15h17.13.463,FishGame,2022.1.1,59.83452164768092,
,32,넌 이기적이야,5,Green,B,2.291666666666667,2.333333333333333,ScrollUp,ScrollDown,Green.png,1,Negative,Congruent,0,0,0,0,,,,,,,,,,,,,0,31,31,31,,,,,,,,,,,,,,,,,,,,,,,,,,,,,,,,,,,,,,,,,,,,,,,,,,,,,,,,,,,,,,,,,,,,,,,,,,,,,,,,,,,,,2,1.1475932999746874,228.99514379998436,None,ScrollUp,정답입니다,228.99514379998436,None,228.99514379998436,None,228.99514379998436,None,228.99514379998436,None,230.0325748999603,None,230.0325748999603,230.54450889996951,,,,,,,,,,,,,,,,109,2022-05-02_15h17.13.463,FishGame,2022.1.1,59.83452164768092,
,33,나를 데려가줘,6,Green,B,0,0,ScrollDown,ScrollUp,Green.png,1,NonTarget,NonTarget,0,0,0,0,,,,,,,,,,,,,0,32,32,32,,,,,,,,,,,,,,,,,,,,,,,,,,,,,,,,,,,,,,,,,,,,,,,,,,,,,,,,,,,,,,,,,,,,,,,,,,,,,,,,,,,,,1.1512345721324284,1.5506673000054434,231.17406170000322,None,ScrollDown,정답입니다,231.17406170000322,None,231.17406170000322,None,231.17406170000322,None,231.17406170000322,None,232.61590689996956,None,232.61590689996956,233.12843400001293,,,,,,,,,,,,,,,,109,2022-05-02_15h17.13.463,FishGame,2022.1.1,59.83452164768092,
,34,넌 기회주의자야,5,Orange,A,2.875,2.133333333333333,ScrollDown,ScrollUp,Orange.png,1,Negative,Incongruent,0,0,0,0,,,,,,,,,,,,,0,33,33,33,,,,,,,,,,,,,,,,,,,,,,,,,,,,,,,,,,,,,,,,,,,,,,,,,,,,,,,,,,,,,,,,,,,,,,,,,,,,,,,,,,,,,1.1512345721324284,1.2080528000369668,233.77081939997151,None,ScrollDown,정답입니다,233.77081939997151,None,233.77081939997151,None,233.77081939997151,None,233.77081939997151,None,234.861470200005,None,234.861470200005,235.36139420000836,,,,,,,,,,,,,,,,109,2022-05-02_15h17.13.463,FishGame,2022.1.1,59.83452164768092,
,1,넌 미성숙해,4,Orange,A,3,3.2,ScrollDown,ScrollUp,Orange.png,2,Negative,Incongruent,0,0,0,0,,,,,,,,,,,,,,,,,0,0,0,0,,,,,,,,,,,,,,,,,,,,,,,,,,,,,,,,,,,,,,,,267.9626708999858,269.4625756999594,269.49563879997004,270.4461325999582,270.49601060000714,271.44622899999376,271.44622899999376,None,,,,,,,,,,,,,,,,,,,,,,,,,,,,,,,,,,1.0524691541989644,1.4914455999969505,272.6048129000119,None,ScrollDown,정답입니다,272.6048129000119,None,272.6048129000119,None,272.6048129000119,None,272.6048129000119,None,273.92908689996693,None,273.92908689996693,274.42952199996216,235.86169980000705,None,235.86169980000705,None,0.16574074,-0.10555556,1,0,0,0.015667159983422607,None,265.8624947000062,None,,,109,2022-05-02_15h17.13.463,FishGame,2022.1.1,59.83452164768092,
,2,넌 반사회적이야,5,Green,B,2.416666666666667,2.033333333333333,ScrollUp,ScrollDown,Green.png,2,Negative,Congruent,0,0,0,0,,,,,,,,,,,,,,,,,0,1,1,1,,,,,,,,,,,,,,,,,,,,,,,,,,,,,,,,,,,,,,,,,,,,,,,,,,,,,,,,,,,,,,,,,,,,,,,,,,,,,,,,,1.9413580397764842,1.207063100009691,275.062803799985,None,ScrollUp,정답입니다,275.062803799985,None,275.062803799985,None,275.062803799985,None,275.062803799985,None,276.16218559996923,None,276.16218559996923,276.6628187999595,,,,,,,,,,,,,,,,109,2022-05-02_15h17.13.463,FishGame,2022.1.1,59.83452164768092,
,3,넌 유능해,2,Orange,A,6.208333333333333,4.433333333333334,ScrollDown,ScrollUp,Orange.png,2,Positive,Congruent,0,0,0,0,,,,,,,,,,,,,,,,,0,2,2,2,,,,,,,,,,,,,,,,,,,,,,,,,,,,,,,,,,,,,,,,,,,,,,,,,,,,,,,,,,,,,,,,,,,,,,,,,,,,,,,,,1.388888883093993,1.0698395000072196,277.3044133000076,None,ScrollDown,정답입니다,277.3044133000076,None,277.3044133000076,None,277.3044133000076,None,277.3044133000076,None,278.2585040999693,None,278.2585040999693,278.7625987000065,,,,,,,,,,,,,,,,109,2022-05-02_15h17.13.463,FishGame,2022.1.1,59.83452164768092,
,4,넌 능숙해,2,Green,B,5.666666666666667,4.733333333333333,ScrollUp,ScrollDown,Green.png,2,Positive,Incongruent,0,0,0,0,,,,,,,,,,,,,,,,,0,3,3,3,,,,,,,,,,,,,,,,,,,,,,,,,,,,,,,,,,,,,,,,,,,,,,,,,,,,,,,,,,,,,,,,,,,,,,,,,,,,,,,,,1.8688271592060726,1.0399357000133023,279.39000730001135,None,ScrollUp,정답입니다,279.39000730001135,None,279.39000730001135,None,279.39000730001135,None,279.39000730001135,None,280.32907849998446,None,280.32907849998446,280.82884460000787,,,,,,,,,,,,,,,,109,2022-05-02_15h17.13.463,FishGame,2022.1.1,59.83452164768092,
,5,넌 진부해,4,Green,B,2.458333333333333,3.166666666666667,ScrollUp,ScrollDown,Green.png,2,Negative,Congruent,0,0,0,0,,,,,,,,,,,,,,,,,0,4,4,4,,,,,,,,,,,,,,,,,,,,,,,,,,,,,,,,,,,,,,,,,,,,,,,,,,,,,,,,,,,,,,,,,,,,,,,,,,,,,,,,,1.873456800977389,1.1960152999963611,281.46256039995933,None,ScrollUp,정답입니다,281.46256039995933,None,281.46256039995933,None,281.46256039995933,None,281.46256039995933,None,282.5508932999801,None,282.5508932999801,283.06277769996086,,,,,,,,,,,,,,,,109,2022-05-02_15h17.13.463,FishGame,2022.1.1,59.83452164768092,
,6,나를 보내줘,6,Orange,A,0,0,ScrollUp,ScrollDown,Orange.png,2,NonTarget,NonTarget,0,0,0,0,,,,,,,,,,,,,,,,,0,5,5,5,,,,,,,,,,,,,,,,,,,,,,,,,,,,,,,,,,,,,,,,,,,,,,,,,,,,,,,,,,,,,,,,,,,,,,,,,,,,,,,,,2,1.5175305000157095,283.69767809996847,None,ScrollUp,정답입니다,283.69767809996847,None,283.69767809996847,None,283.69767809996847,None,283.69767809996847,None,285.1087342000101,None,285.1087342000101,285.61281949997647,,,,,,,,,,,,,,,,109,2022-05-02_15h17.13.463,FishGame,2022.1.1,59.83452164768092,
,7,넌 엄격해,3,Orange,A,4.166666666666666,4.1,ScrollDown,ScrollUp,Orange.png,2,Neutral,Neutral,0,0,0,0,,,,,,,,,,,,,,,,,0,6,6,6,,,,,,,,,,,,,,,,,,,,,,,,,,,,,,,,,,,,,,,,,,,,,,,,,,,,,,,,,,,,,,,,,,,,,,,,,,,,,,,,,1.1481481442848842,1.1499634999781847,286.2523520999821,None,ScrollDown,정답입니다,286.2523520999821,None,286.2523520999821,None,286.2523520999821,None,286.2523520999821,None,287.2837429000065,None,287.2837429000065,287.79581330000656,,,,,,,,,,,,,,,,109,2022-05-02_15h17.13.463,FishGame,2022.1.1,59.83452164768092,
,8,나를 보내줘,6,Orange,A,0,0,ScrollUp,ScrollDown,Orange.png,2,NonTarget,NonTarget,0,0,0,0,,,,,,,,,,,,,,,,,0,7,7,7,,,,,,,,,,,,,,,,,,,,,,,,,,,,,,,,,,,,,,,,,,,,,,,,,,,,,,,,,,,,,,,,,,,,,,,,,,,,,,,,,1.8981481492519379,1.2907654999871738,288.4273058999679,None,ScrollUp,정답입니다,288.4273058999679,None,288.4273058999679,None,288.4273058999679,None,288.4273058999679,None,289.6122895000153,None,289.6122895000153,290.11308400001144,,,,,,,,,,,,,,,,109,2022-05-02_15h17.13.463,FishGame,2022.1.1,59.83452164768092,
,9,넌 대담해,3,Green,B,4.875,4.866666666666666,ScrollUp,ScrollDown,Green.png,2,Neutral,Neutral,0,0,0,0,,,,,,,,,,,,,,,,,0,8,8,8,,,,,,,,,,,,,,,,,,,,,,,,,,,,,,,,,,,,,,,,,,,,,,,,,,,,,,,,,,,,,,,,,,,,,,,,,,,,,,,,,2,1.542579700006172,290.7537927000085,None,ScrollUp,정답입니다,290.7537927000085,None,290.7537927000085,None,290.7537927000085,None,290.7537927000085,None,292.1793233999633,None,292.1793233999633,292.68003250000766,,,,,,,,,,,,,,,,109,2022-05-02_15h17.13.463,FishGame,2022.1.1,59.83452164768092,
,10,넌 꾸준해,1,Orange,A,5.916666666666668,5.8,ScrollDown,ScrollUp,Orange.png,2,Positive,Congruent,0,0,0,0,,,,,,,,,,,,,,,,,0,9,9,9,,,,,,,,,,,,,,,,,,,,,,,,,,,,,,,,,,,,,,,,,,,,,,,,,,,,,,,,,,,,,,,,,,,,,,,,,,,,,,,,,1.1388888855775197,1.4239548000041395,293.3220718000084,None,ScrollDown,정답입니다,293.3220718000084,None,293.3220718000084,None,293.3220718000084,None,293.3220718000084,None,294.6287239000085,None,294.6287239000085,295.1303762999596,,,,,,,,,,,,,,,,109,2022-05-02_15h17.13.463,FishGame,2022.1.1,59.83452164768092,
,11,나를 데려가줘,6,Green,B,0,0,ScrollDown,ScrollUp,Green.png,2,NonTarget,NonTarget,0,0,0,0,,,,,,,,,,,,,,,,,0,10,10,10,,,,,,,,,,,,,,,,,,,,,,,,,,,,,,,,,,,,,,,,,,,,,,,,,,,,,,,,,,,,,,,,,,,,,,,,,,,,,,,,,1.0987654229005177,1.315436500008218,295.75959099998,None,ScrollDown,정답입니다,295.75959099998,None,295.75959099998,None,295.75959099998,None,295.75959099998,None,296.9677888000151,None,296.9677888000151,297.4799667999614,,,,,,,,,,,,,,,,109,2022-05-02_15h17.13.463,FishGame,2022.1.1,59.83452164768092,
,12,넌 독선적이야,5,Orange,A,2.458333333333333,1.933333333333333,ScrollDown,ScrollUp,Orange.png,2,Negative,Incongruent,0,0,0,0,,,,,,,,,,,,,,,,,0,11,11,11,,,,,,,,,,,,,,,,,,,,,,,,,,,,,,,,,,,,,,,,,,,,,,,,,,,,,,,,,,,,,,,,,,,,,,,,,,,,,,,,,1.115740751226743,1.1480588999693282,298.1238118999754,None,ScrollDown,정답입니다,298.1238118999754,None,298.1238118999754,None,298.1238118999754,None,298.1238118999754,None,299.1505940000061,None,299.1505940000061,299.66271389997564,,,,,,,,,,,,,,,,109,2022-05-02_15h17.13.463,FishGame,2022.1.1,59.83452164768092,
,13,나를 보내줘,6,Orange,A,0,0,ScrollUp,ScrollDown,Orange.png,2,NonTarget,NonTarget,0,0,0,0,,,,,,,,,,,,,,,,,0,12,12,12,,,,,,,,,,,,,,,,,,,,,,,,,,,,,,,,,,,,,,,,,,,,,,,,,,,,,,,,,,,,,,,,,,,,,,,,,,,,,,,,,1.9799382885297139,1.6016370999859646,300.2998124999576,None,ScrollUp,정답입니다,300.2998124999576,None,300.2998124999576,None,300.2998124999576,None,300.2998124999576,None,301.792165699997,None,301.792165699997,302.296348200005,,,,,,,,,,,,,,,,109,2022-05-02_15h17.13.463,FishGame,2022.1.1,59.83452164768092,
,14,넌 책임감있어,1,Green,B,6.347826086956522,6,ScrollUp,ScrollDown,Green.png,2,Positive,Incongruent,0,0,0,0,,,,,,,,,,,,,,,,,0,13,13,13,,,,,,,,,,,,,,,,,,,,,,,,,,,,,,,,,,,,,,,,,,,,,,,,,,,,,,,,,,,,,,,,,,,,,,,,,,,,,,,,,2,2.6154441999970004,302.94835139997303,None,ScrollUp,정답입니다,302.94835139997303,None,302.94835139997303,None,302.94835139997303,None,302.94835139997303,None,305.4340824999963,None,305.4340824999963,305.946699299966,,,,,,,,,,,,,,,,109,2022-05-02_15h17.13.463,FishGame,2022.1.1,59.83452164768092,
,15,넌 문학적이야,3,Orange,A,4.708333333333334,4.333333333333333,ScrollDown,ScrollUp,Orange.png,2,Neutral,Neutral,0,0,0,0,,,,,,,,,,,,,,,,,0,14,14,14,,,,,,,,,,,,,,,,,,,,,,,,,,,,,,,,,,,,,,,,,,,,,,,,,,,,,,,,,,,,,,,,,,,,,,,,,,,,,,,,,1.2037036965290706,1.1420318000018597,306.5866418000078,None,ScrollDown,정답입니다,306.5866418000078,None,306.5866418000078,None,306.5866418000078,None,306.5866418000078,None,307.6125788000063,None,307.6125788000063,308.11344749998534,,,,,,,,,,,,,,,,109,2022-05-02_15h17.13.463,FishGame,2022.1.1,59.83452164768092,
,16,넌 재미있어,1,Green,B,5.875,5.7,ScrollUp,ScrollDown,Green.png,2,Positive,Incongruent,0,0,0,0,,,,,,,,,,,,,,,,,0,15,15,15,,,,,,,,,,,,,,,,,,,,,,,,,,,,,,,,,,,,,,,,,,,,,,,,,,,,,,,,,,,,,,,,,,,,,,,,,,,,,,,,,1.7484567960103354,1.2091213000239804,308.74530989996856,None,ScrollUp,정답입니다,308.74530989996856,None,308.74530989996856,None,308.74530989996856,None,308.74530989996856,None,309.8479650999652,None,309.8479650999652,310.36252929997863,,,,,,,,,,,,,,,,109,2022-05-02_15h17.13.463,FishGame,2022.1.1,59.83452164768092,
,17,나를 데려가줘,6,Green,B,0,0,ScrollDown,ScrollUp,Green.png,2,NonTarget,NonTarget,0,0,0,0,,,,,,,,,,,,,,,,,0,16,16,16,,,,,,,,,,,,,,,,,,,,,,,,,,,,,,,,,,,,,,,,,,,,,,,,,,,,,,,,,,,,,,,,,,,,,,,,,,,,,,,,,1.1188271542390187,1.2719748000381514,311.0372437000042,None,ScrollDown,정답입니다,311.0372437000042,None,311.0372437000042,None,311.0372437000042,None,311.0372437000042,None,312.163010499964,None,312.163010499964,312.6634930999717,,,,,,,,,,,,,,,,109,2022-05-02_15h17.13.463,FishGame,2022.1.1,59.83452164768092,
,18,넌 협력적이야,1,Orange,A,5.625,5.633333333333334,ScrollDown,ScrollUp,Orange.png,2,Positive,Congruent,0,0,0,0,,,,,,,,,,,,,,,,,0,17,17,17,,,,,,,,,,,,,,,,,,,,,,,,,,,,,,,,,,,,,,,,,,,,,,,,,,,,,,,,,,,,,,,,,,,,,,,,,,,,,,,,,1.0586419602235158,1.1145031999913044,313.3065920000081,None,ScrollDown,정답입니다,313.3065920000081,None,313.3065920000081,None,313.3065920000081,None,313.3065920000081,None,314.3012306999881,None,314.3012306999881,314.8130747000105,,,,,,,,,,,,,,,,109,2022-05-02_15h17.13.463,FishGame,2022.1.1,59.83452164768092,
,19,넌 평범해,3,Green,B,4.333333333333332,4.233333333333333,ScrollUp,ScrollDown,Green.png,2,Neutral,Neutral,0,0,0,0,,,,,,,,,,,,,,,,,0,18,18,18,,,,,,,,,,,,,,,,,,,,,,,,,,,,,,,,,,,,,,,,,,,,,,,,,,,,,,,,,,,,,,,,,,,,,,,,,,,,,,,,,1.9537037014961243,1.1231553999823518,315.45198099996196,None,ScrollUp,정답입니다,315.45198099996196,None,315.45198099996196,None,315.45198099996196,None,315.45198099996196,None,316.46338289999403,None,316.46338289999403,316.963172299962,,,,,,,,,,,,,,,,109,2022-05-02_15h17.13.463,FishGame,2022.1.1,59.83452164768092,
,20,넌 오만해,5,Orange,A,2.333333333333333,2,ScrollDown,ScrollUp,Orange.png,2,Negative,Incongruent,0,0,0,0,,,,,,,,,,,,,,,,,0,19,19,19,,,,,,,,,,,,,,,,,,,,,,,,,,,,,,,,,,,,,,,,,,,,,,,,,,,,,,,,,,,,,,,,,,,,,,,,,,,,,,,,,1.1851851791143417,1.1563590000150725,317.61085239995737,None,ScrollDown,정답입니다,317.61085239995737,None,317.61085239995737,None,317.61085239995737,None,317.61085239995737,None,318.6463487999863,None,318.6463487999863,319.1464507000055,,,,,,,,,,,,,,,,109,2022-05-02_15h17.13.463,FishGame,2022.1.1,59.83452164768092,
,21,넌 운이없어,4,Green,B,3,3.466666666666667,ScrollUp,ScrollDown,Green.png,2,Negative,Congruent,0,0,0,0,,,,,,,,,,,,,,,,,0,20,20,20,,,,,,,,,,,,,,,,,,,,,,,,,,,,,,,,,,,,,,,,,,,,,,,,,,,,,,,,,,,,,,,,,,,,,,,,,,,,,,,,,1.9722222189108531,1.099119599966798,319.78011329995934,None,ScrollUp,정답입니다,319.78011329995934,None,319.78011329995934,None,319.78011329995934,None,319.78011329995934,None,320.7678505000076,None,320.7678505000076,321.28017230000114,,,,,,,,,,,,,,,,109,2022-05-02_15h17.13.463,FishGame,2022.1.1,59.83452164768092,
,22,넌 창조적이야,2,Green,B,6.125,4.633333333333334,ScrollUp,ScrollDown,Green.png,2,Positive,Incongruent,0,0,0,0,,,,,,,,,,,,,,,,,0,21,21,21,,,,,,,,,,,,,,,,,,,,,,,,,,,,,,,,,,,,,,,,,,,,,,,,,,,,,,,,,,,,,,,,,,,,,,,,,,,,,,,,,1.7916666616996129,1.0083491000114009,321.9189761999878,None,ScrollUp,정답입니다,321.9189761999878,None,321.9189761999878,None,321.9189761999878,None,321.9189761999878,None,322.8128391999635,None,322.8128391999635,323.3135299999849,,,,,,,,,,,,,,,,109,2022-05-02_15h17.13.463,FishGame,2022.1.1,59.83452164768092,
,23,나를 보내줘,6,Orange,A,0,0,ScrollUp,ScrollDown,Orange.png,2,NonTarget,NonTarget,0,0,0,0,,,,,,,,,,,,,,,,,0,22,22,22,,,,,,,,,,,,,,,,,,,,,,,,,,,,,,,,,,,,,,,,,,,,,,,,,,,,,,,,,,,,,,,,,,,,,,,,,,,,,,,,,2,1.257743299996946,323.9457182000042,None,ScrollUp,정답입니다,323.9457182000042,None,323.9457182000042,None,323.9457182000042,None,323.9457182000042,None,325.0964603999746,None,325.0964603999746,325.5967278999742,,,,,,,,,,,,,,,,109,2022-05-02_15h17.13.463,FishGame,2022.1.1,59.83452164768092,
,24,넌 통찰력있어,2,Orange,A,6.5,4.8,ScrollDown,ScrollUp,Orange.png,2,Positive,Congruent,0,0,0,0,,,,,,,,,,,,,,,,,0,23,23,23,,,,,,,,,,,,,,,,,,,,,,,,,,,,,,,,,,,,,,,,,,,,,,,,,,,,,,,,,,,,,,,,,,,,,,,,,,,,,,,,,1.0910493781169255,1.1316716000437737,326.26384819997475,None,ScrollDown,정답입니다,326.26384819997475,None,326.26384819997475,None,326.26384819997475,None,326.26384819997475,None,327.25094599998556,None,327.25094599998556,327.76330379996216,,,,,,,,,,,,,,,,109,2022-05-02_15h17.13.463,FishGame,2022.1.1,59.83452164768092,
,25,넌 경솔해,5,Green,B,2.458333333333333,2.266666666666667,ScrollUp,ScrollDown,Green.png,2,Negative,Congruent,0,0,0,0,,,,,,,,,,,,,,,,,0,24,24,24,,,,,,,,,,,,,,,,,,,,,,,,,,,,,,,,,,,,,,,,,,,,,,,,,,,,,,,,,,,,,,,,,,,,,,,,,,,,,,,,,2,1.118536900030449,328.3966728000087,None,ScrollUp,정답입니다,328.3966728000087,None,328.3966728000087,None,328.3966728000087,None,328.3966728000087,None,329.40996700001415,None,329.40996700001415,329.9136208000127,,,,,,,,,,,,,,,,109,2022-05-02_15h17.13.463,FishGame,2022.1.1,59.83452164768092,
,26,넌 초조해,4,Orange,A,2.916666666666667,3.133333333333333,ScrollDown,ScrollUp,Orange.png,2,Negative,Incongruent,0,0,0,0,,,,,,,,,,,,,,,,,0,25,25,25,,,,,,,,,,,,,,,,,,,,,,,,,,,,,,,,,,,,,,,,,,,,,,,,,,,,,,,,,,,,,,,,,,,,,,,,,,,,,,,,,1.115740751226743,1.1823377999826334,330.55753359996015,None,ScrollDown,정답입니다,330.55753359996015,None,330.55753359996015,None,330.55753359996015,None,330.55753359996015,None,331.6185248999973,None,331.6185248999973,332.1303480999777,,,,,,,,,,,,,,,,109,2022-05-02_15h17.13.463,FishGame,2022.1.1,59.83452164768092,
,27,넌 무관심해,4,Green,B,2.833333333333333,2.9,ScrollUp,ScrollDown,Green.png,2,Negative,Congruent,0,0,0,0,,,,,,,,,,,,,,,,,0,26,26,26,,,,,,,,,,,,,,,,,,,,,,,,,,,,,,,,,,,,,,,,,,,,,,,,,,,,,,,,,,,,,,,,,,,,,,,,,,,,,,,,,1.9614197711149852,1.1389663000009023,332.7637243999634,None,ScrollUp,정답입니다,332.7637243999634,None,332.7637243999634,None,332.7637243999634,None,332.7637243999634,None,333.7968335999758,None,333.7968335999758,334.2970144000137,,,,,,,,,,,,,,,,109,2022-05-02_15h17.13.463,FishGame,2022.1.1,59.83452164768092,
,28,넌 감성적이야,3,Green,B,4.125,4.166666666666667,ScrollUp,ScrollDown,Green.png,2,Neutral,Neutral,0,0,0,0,,,,,,,,,,,,,,,,,0,27,27,27,,,,,,,,,,,,,,,,,,,,,,,,,,,,,,,,,,,,,,,,,,,,,,,,,,,,,,,,,,,,,,,,,,,,,,,,,,,,,,,,,1.9521604875723522,1.1344162999885157,334.92744649999077,None,ScrollUp,정답입니다,334.92744649999077,None,334.92744649999077,None,334.92744649999077,None,334.92744649999077,None,335.9601668000105,None,335.9601668000105,336.4635246999678,,,,,,,,,,,,,,,,109,2022-05-02_15h17.13.463,FishGame,2022.1.1,59.83452164768092,
,29,넌 배려심있어,1,Orange,A,6.083333333333333,5.5,ScrollDown,ScrollUp,Orange.png,2,Positive,Congruent,0,0,0,0,,,,,,,,,,,,,,,,,0,28,28,28,,,,,,,,,,,,,,,,,,,,,,,,,,,,,,,,,,,,,,,,,,,,,,,,,,,,,,,,,,,,,,,,,,,,,,,,,,,,,,,,,1.1543209999799728,1.1465421000029892,337.1051170999999,None,ScrollDown,정답입니다,337.1051170999999,None,337.1051170999999,None,337.1051170999999,None,337.1051170999999,None,338.13472069997806,None,338.13472069997806,338.6470871999627,,,,,,,,,,,,,,,,109,2022-05-02_15h17.13.463,FishGame,2022.1.1,59.83452164768092,
,30,넌 숨김없어,3,Orange,A,4.5,4.933333333333334,ScrollDown,ScrollUp,Orange.png,2,Neutral,Neutral,0,0,0,0,,,,,,,,,,,,,,,,,0,29,29,29,,,,,,,,,,,,,,,,,,,,,,,,,,,,,,,,,,,,,,,,,,,,,,,,,,,,,,,,,,,,,,,,,,,,,,,,,,,,,,,,,1.0308642089366913,1.1578335000085644,339.2884982000105,None,ScrollDown,정답입니다,339.2884982000105,None,339.2884982000105,None,339.2884982000105,None,339.2884982000105,None,340.3301897000056,None,340.3301897000056,340.8304579000105,,,,,,,,,,,,,,,,109,2022-05-02_15h17.13.463,FishGame,2022.1.1,59.83452164768092,
,31,넌 훌륭해,2,Green,B,5.916666666666667,4.033333333333333,ScrollUp,ScrollDown,Green.png,2,Positive,Incongruent,0,0,0,0,,,,,,,,,,,,,,,,,0,30,30,30,,,,,,,,,,,,,,,,,,,,,,,,,,,,,,,,,,,,,,,,,,,,,,,,,,,,,,,,,,,,,,,,,,,,,,,,,,,,,,,,,1.743827154239019,1.2241200999706052,341.4681552000111,None,ScrollUp,정답입니다,341.4681552000111,None,341.4681552000111,None,341.4681552000111,None,341.4681552000111,None,342.57969069998944,None,342.57969069998944,343.0803536999738,,,,,,,,,,,,,,,,109,2022-05-02_15h17.13.463,FishGame,2022.1.1,59.83452164768092,
,32,넌 슬기로워,2,Orange,A,6.166666666666667,4.1,ScrollDown,ScrollUp,Orange.png,2,Positive,Congruent,0,0,0,0,,,,,,,,,,,,,,,,,0,31,31,31,,,,,,,,,,,,,,,,,,,,,,,,,,,,,,,,,,,,,,,,,,,,,,,,,,,,,,,,,,,,,,,,,,,,,,,,,,,,,,,,,1.1836419651905696,1.0319716000230983,343.7207300000009,None,ScrollDown,정답입니다,343.7207300000009,None,343.7207300000009,None,343.7207300000009,None,343.7207300000009,None,344.634974399989,None,344.634974399989,345.147564999992,,,,,,,,,,,,,,,,109,2022-05-02_15h17.13.463,FishGame,2022.1.1,59.83452164768092,
,33,넌 냉혹해,5,Orange,A,2.583333333333333,2.1,ScrollDown,ScrollUp,Orange.png,2,Negative,Incongruent,0,0,0,0,,,,,,,,,,,,,,,,,0,32,32,32,,,,,,,,,,,,,,,,,,,,,,,,,,,,,,,,,,,,,,,,,,,,,,,,,,,,,,,,,,,,,,,,,,,,,,,,,,,,,,,,,1.1913580348094304,1.1248104000114836,345.78705439995974,None,ScrollDown,정답입니다,345.78705439995974,None,345.78705439995974,None,345.78705439995974,None,345.78705439995974,None,346.7970648999908,None,346.7970648999908,347.2973628999898,,,,,,,,,,,,,,,,109,2022-05-02_15h17.13.463,FishGame,2022.1.1,59.83452164768092,
,34,나를 데려가줘,6,Green,B,0,0,ScrollDown,ScrollUp,Green.png,2,NonTarget,NonTarget,0,0,0,0,,,,,,,,,,,,,,,,,0,33,33,33,,,,,,,,,,,,,,,,,,,,,,,,,,,,,,,,,,,,,,,,,,,,,,,,,,,,,,,,,,,,,,,,,,,,,,,,,,,,,,,,,1.1388888855775197,1.4256174000329338,347.9269360000035,None,ScrollDown,정답입니다,347.9269360000035,None,347.9269360000035,None,347.9269360000035,None,347.9269360000035,None,349.2470794999972,None,349.2470794999972,349.74726589996135,,,,,,,,,,,,,,,,109,2022-05-02_15h17.13.463,FishGame,2022.1.1,59.83452164768092,
,35,넌 편파적이야,5,Green,B,2.125,2,ScrollUp,ScrollDown,Green.png,2,Negative,Congruent,0,0,0,0,,,,,,,,,,,,,,,,,0,34,34,34,,,,,,,,,,,,,,,,,,,,,,,,,,,,,,,,,,,,,,,,,,,,,,,,,,,,,,,,,,,,,,,,,,,,,,,,,,,,,,,,,2,1.2021377999917604,350.38350699999137,None,ScrollUp,정답입니다,350.38350699999137,None,350.38350699999137,None,350.38350699999137,None,350.38350699999137,None,351.4769026999711,None,351.4769026999711,351.98053609998897,,,,,,,,,,,,,,,,109,2022-05-02_15h17.13.463,FishGame,2022.1.1,59.83452164768092,
,36,넌 슬퍼,4,Orange,A,2.583333333333333,3.066666666666667,ScrollDown,ScrollUp,Orange.png,2,Negative,Incongruent,0,0,0,0,,,,,,,,,,,,,,,,,0,35,35,35,,,,,,,,,,,,,,,,,,,,,,,,,,,,,,,,,,,,,,,,,,,,,,,,,,,,,,,,,,,,,,,,,,,,,,,,,,,,,,,,,1.0833333333333333,1.260250699997414,352.6124645000091,None,ScrollDown,정답입니다,352.6124645000091,None,352.6124645000091,None,352.6124645000091,None,352.6124645000091,None,353.76326169999084,None,353.76326169999084,354.26373439998133,,,,,,,,,,,,,,,,109,2022-05-02_15h17.13.463,FishGame,2022.1.1,59.83452164768092,
,37,나를 데려가줘,6,Green,B,0,0,ScrollDown,ScrollUp,Green.png,2,NonTarget,NonTarget,0,0,0,0,,,,,,,,,,,,,,,,,0,36,36,36,,,,,,,,,,,,,,,,,,,,,,,,,,,,,,,,,,,,,,,,,,,,,,,,,,,,,,,,,,,,,,,,,,,,,,,,,,,,,,,,,1.0324074228604634,1.2640950999921188,354.90012919995934,None,ScrollDown,정답입니다,354.90012919995934,None,354.90012919995934,None,354.90012919995934,None,354.90012919995934,None,356.0514579999726,None,356.0514579999726,356.56390369997825,,,,,,,,,,,,,,,,109,2022-05-02_15h17.13.463,FishGame,2022.1.1,59.83452164768092,
,38,넌 친절해,1,Green,B,6.041666666666667,5.533333333333333,ScrollUp,ScrollDown,Green.png,2,Positive,Incongruent,0,0,0,0,,,,,,,,,,,,,,,,,0,37,37,37,,,,,,,,,,,,,,,,,,,,,,,,,,,,,,,,,,,,,,,,,,,,,,,,,,,,,,,,,,,,,,,,,,,,,,,,,,,,,,,,,2,1.1647388999699615,357.2019663999672,None,ScrollUp,정답입니다,357.2019663999672,None,357.2019663999672,None,357.2019663999672,None,357.2019663999672,None,358.25196259998484,None,358.25196259998484,358.76474780001445,,,,,,,,,,,,,,,,109,2022-05-02_15h17.13.463,FishGame,2022.1.1,59.83452164768092,
,1,넌 엉성해,4,Orange,A,3,3.3,ScrollDown,ScrollUp,Orange.png,3,Negative,Incongruent,0,0,0,0,,,,,,,,,,,,,,,,,,,,,0,0,0,0,,,,,,,,,,,,,,,,,,,,,,,,,,,,,,,,,,,,390.8813120999839,392.3815217000083,392.4148042000015,393.36426920001395,393.41446130000986,394.3650977999787,394.3650977999787,None,,,,,,,,,,,,,,,,,,,,,,,,,,,,,,,,,,1.0817901194095612,1.5077658000518568,395.52735779999057,None,ScrollDown,정답입니다,395.52735779999057,None,395.52735779999057,None,395.52735779999057,None,395.52735779999057,None,396.8686816999689,None,396.8686816999689,397.38206360000186,359.26411340001505,None,359.26411340001505,None,0.094444446,-0.096296296,1,0,0,0.01621055998839438,None,389.264754200005,None,,,109,2022-05-02_15h17.13.463,FishGame,2022.1.1,59.83452164768092,
,2,나를 보내줘,6,Orange,A,0,0,ScrollUp,ScrollDown,Orange.png,3,NonTarget,NonTarget,0,0,0,0,,,,,,,,,,,,,,,,,,,,,0,1,1,1,,,,,,,,,,,,,,,,,,,,,,,,,,,,,,,,,,,,,,,,,,,,,,,,,,,,,,,,,,,,,,,,,,,,,,,,,,,,,1.9089506218830745,1.2882300000055693,398.0202230999712,None,ScrollUp,정답입니다,398.0202230999712,None,398.0202230999712,None,398.0202230999712,None,398.0202230999712,None,399.18814799998654,None,399.18814799998654,399.6983736999682,,,,,,,,,,,,,,,,109,2022-05-02_15h17.13.463,FishGame,2022.1.1,59.83452164768092,
,3,넌 활발해,1,Green,B,5.666666666666667,5.6,ScrollUp,ScrollDown,Green.png,3,Positive,Incongruent,0,0,0,0,,,,,,,,,,,,,,,,,,,,,0,2,2,2,,,,,,,,,,,,,,,,,,,,,,,,,,,,,,,,,,,,,,,,,,,,,,,,,,,,,,,,,,,,,,,,,,,,,,,,,,,,,1.7978395173947017,1.118465599953197,400.33688949997304,None,ScrollUp,정답입니다,400.33688949997304,None,400.33688949997304,None,400.33688949997304,None,400.33688949997304,None,401.33733629999915,None,401.33733629999915,401.84814019995974,,,,,,,,,,,,,,,,109,2022-05-02_15h17.13.463,FishGame,2022.1.1,59.83452164768092,
,4,넌 논리적이야,2,Orange,A,5.666666666666666,4.633333333333334,ScrollDown,ScrollUp,Orange.png,3,Positive,Congruent,0,0,0,0,,,,,,,,,,,,,,,,,,,,,0,3,3,3,,,,,,,,,,,,,,,,,,,,,,,,,,,,,,,,,,,,,,,,,,,,,,,,,,,,,,,,,,,,,,,,,,,,,,,,,,,,,1,1.2906099000247195,402.4843899999978,None,ScrollDown,정답입니다,402.4843899999978,None,402.4843899999978,None,402.4843899999978,None,402.4843899999978,None,403.6648271000013,None,403.6648271000013,404.16450529999565,,,,,,,,,,,,,,,,109,2022-05-02_15h17.13.463,FishGame,2022.1.1,59.83452164768092,
,5,넌 과묵해,3,Orange,A,3.875,4.4,ScrollDown,ScrollUp,Orange.png,3,Neutral,Neutral,0,0,0,0,,,,,,,,,,,,,,,,,,,,,0,4,4,4,,,,,,,,,,,,,,,,,,,,,,,,,,,,,,,,,,,,,,,,,,,,,,,,,,,,,,,,,,,,,,,,,,,,,,,,,,,,,1.1450617164373398,1.1026731000165455,404.803897899983,None,ScrollDown,정답입니다,404.803897899983,None,404.803897899983,None,404.803897899983,None,404.803897899983,None,405.7882824999979,None,405.7882824999979,406.29798450000817,,,,,,,,,,,,,,,,109,2022-05-02_15h17.13.463,FishGame,2022.1.1,59.83452164768092,
,6,나를 데려가줘,6,Green,B,0,0,ScrollDown,ScrollUp,Green.png,3,NonTarget,NonTarget,0,0,0,0,,,,,,,,,,,,,,,,,,,,,0,5,5,5,,,,,,,,,,,,,,,,,,,,,,,,,,,,,,,,,,,,,,,,,,,,,,,,,,,,,,,,,,,,,,,,,,,,,,,,,,,,,1.0324074228604634,1.1658482999773696,406.9274019000004,None,ScrollDown,정답입니다,406.9274019000004,None,406.9274019000004,None,406.9274019000004,None,406.9274019000004,None,407.98596209997777,None,407.98596209997777,408.49850370001514,,,,,,,,,,,,,,,,109,2022-05-02_15h17.13.463,FishGame,2022.1.1,59.83452164768092,
,7,넌 미숙해,4,Green,B,3,3,ScrollUp,ScrollDown,Green.png,3,Negative,Congruent,0,0,0,0,,,,,,,,,,,,,,,,,,,,,0,6,6,6,,,,,,,,,,,,,,,,,,,,,,,,,,,,,,,,,,,,,,,,,,,,,,,,,,,,,,,,,,,,,,,,,,,,,,,,,,,,,1.8101851791143417,0.9742930000065826,409.1281419000006,None,ScrollUp,정답입니다,409.1281419000006,None,409.1281419000006,None,409.1281419000006,None,409.1281419000006,None,409.99761729995953,None,409.99761729995953,410.4987829999882,,,,,,,,,,,,,,,,109,2022-05-02_15h17.13.463,FishGame,2022.1.1,59.83452164768092,
,8,나를 보내줘,6,Orange,A,0,0,ScrollUp,ScrollDown,Orange.png,3,NonTarget,NonTarget,0,0,0,0,,,,,,,,,,,,,,,,,,,,,0,7,7,7,,,,,,,,,,,,,,,,,,,,,,,,,,,,,,,,,,,,,,,,,,,,,,,,,,,,,,,,,,,,,,,,,,,,,,,,,,,,,1.6728395000100136,1.2345005999668501,411.13031199999386,None,ScrollUp,정답입니다,411.13031199999386,None,411.13031199999386,None,411.13031199999386,None,411.13031199999386,None,412.26117399998475,None,412.26117399998475,412.7649561999715,,,,,,,,,,,,,,,,109,2022-05-02_15h17.13.463,FishGame,2022.1.1,59.83452164768092,
,9,넌 자신만만해,3,Green,B,4.833333333333334,4.333333333333333,ScrollUp,ScrollDown,Green.png,3,Neutral,Neutral,0,0,0,0,,,,,,,,,,,,,,,,,,,,,0,8,8,8,,,,,,,,,,,,,,,,,,,,,,,,,,,,,,,,,,,,,,,,,,,,,,,,,,,,,,,,,,,,,,,,,,,,,,,,,,,,,1.733024681607882,1.3412667000084184,413.39105310000014,None,ScrollUp,정답입니다,413.39105310000014,None,413.39105310000014,None,413.39105310000014,None,413.39105310000014,None,414.6317914999672,None,414.6317914999672,415.1317597999587,,,,,,,,,,,,,,,,109,2022-05-02_15h17.13.463,FishGame,2022.1.1,59.83452164768092,
,10,넌 탐욕스러워,5,Orange,A,2.25,2.1,ScrollDown,ScrollUp,Orange.png,3,Negative,Incongruent,0,0,0,0,,,,,,,,,,,,,,,,,,,,,0,9,9,9,,,,,,,,,,,,,,,,,,,,,,,,,,,,,,,,,,,,,,,,,,,,,,,,,,,,,,,,,,,,,,,,,,,,,,,,,,,,,1.1280864129463832,1.1325404000235721,415.7777240999858,None,ScrollDown,정답입니다,415.7777240999858,None,415.7777240999858,None,415.7777240999858,None,415.7777240999858,None,416.78677389997756,None,416.78677389997756,417.2985520999646,,,,,,,,,,,,,,,,109,2022-05-02_15h17.13.463,FishGame,2022.1.1,59.83452164768092,
,11,넌 인기있어,2,Orange,A,5.458333333333333,4.5,ScrollDown,ScrollUp,Orange.png,3,Positive,Congruent,0,0,0,0,,,,,,,,,,,,,,,,,,,,,0,10,10,10,,,,,,,,,,,,,,,,,,,,,,,,,,,,,,,,,,,,,,,,,,,,,,,,,,,,,,,,,,,,,,,,,,,,,,,,,,,,,1.367283950249354,0.920579900033772,417.92950520000886,None,ScrollDown,정답입니다,417.92950520000886,None,417.92950520000886,None,417.92950520000886,None,417.92950520000886,None,418.7449379999889,None,418.7449379999889,419.2486763999914,,,,,,,,,,,,,,,,109,2022-05-02_15h17.13.463,FishGame,2022.1.1,59.83452164768092,
,12,나를 데려가줘,6,Green,B,0,0,ScrollDown,ScrollUp,Green.png,3,NonTarget,NonTarget,0,0,0,0,,,,,,,,,,,,,,,,,,,,,0,11,11,11,,,,,,,,,,,,,,,,,,,,,,,,,,,,,,,,,,,,,,,,,,,,,,,,,,,,,,,,,,,,,,,,,,,,,,,,,,,,,1.0632716019948323,1.2222347000497393,419.8776510999887,None,ScrollDown,정답입니다,419.8776510999887,None,419.8776510999887,None,419.8776510999887,None,419.8776510999887,None,420.9983542999835,None,420.9983542999835,421.498425400001,,,,,,,,,,,,,,,,109,2022-05-02_15h17.13.463,FishGame,2022.1.1,59.83452164768092,
,13,넌 뛰어나,2,Green,B,6.166666666666667,4,ScrollUp,ScrollDown,Green.png,3,Positive,Incongruent,0,0,0,0,,,,,,,,,,,,,,,,,,,,,0,12,12,12,,,,,,,,,,,,,,,,,,,,,,,,,,,,,,,,,,,,,,,,,,,,,,,,,,,,,,,,,,,,,,,,,,,,,,,,,,,,,1.6388888930281005,1.08391639997717,422.1345520999748,None,ScrollUp,정답입니다,422.1345520999748,None,422.1345520999748,None,422.1345520999748,None,422.1345520999748,None,423.10318039997946,None,423.10318039997946,423.6151820999803,,,,,,,,,,,,,,,,109,2022-05-02_15h17.13.463,FishGame,2022.1.1,59.83452164768092,
,14,넌 낙관적이야,1,Orange,A,5.75,5.8,ScrollDown,ScrollUp,Orange.png,3,Positive,Congruent,0,0,0,0,,,,,,,,,,,,,,,,,,,,,0,13,13,13,,,,,,,,,,,,,,,,,,,,,,,,,,,,,,,,,,,,,,,,,,,,,,,,,,,,,,,,,,,,,,,,,,,,,,,,,,,,,1.1836419651905696,0.9933598000206985,424.25399200001266,None,ScrollDown,정답입니다,424.25399200001266,None,424.25399200001266,None,424.25399200001266,None,424.25399200001266,None,425.1337928000139,None,425.1337928000139,425.64899730001343,,,,,,,,,,,,,,,,109,2022-05-02_15h17.13.463,FishGame,2022.1.1,59.83452164768092,
,15,넌 산만해,4,Green,B,2.695652173913043,3.033333333333333,ScrollUp,ScrollDown,Green.png,3,Negative,Congruent,0,0,0,0,,,,,,,,,,,,,,,,,,,,,0,14,14,14,,,,,,,,,,,,,,,,,,,,,,,,,,,,,,,,,,,,,,,,,,,,,,,,,,,,,,,,,,,,,,,,,,,,,,,,,,,,,1.6851851865649223,0.9728682999848388,426.28425779996905,None,ScrollUp,정답입니다,426.28425779996905,None,426.28425779996905,None,426.28425779996905,None,426.28425779996905,None,427.1481068999856,None,427.1481068999856,427.64909039996564,,,,,,,,,,,,,,,,109,2022-05-02_15h17.13.463,FishGame,2022.1.1,59.83452164768092,
,16,나를 보내줘,6,Orange,A,0,0,ScrollUp,ScrollDown,Orange.png,3,NonTarget,NonTarget,0,0,0,0,,,,,,,,,,,,,,,,,,,,,0,15,15,15,,,,,,,,,,,,,,,,,,,,,,,,,,,,,,,,,,,,,,,,,,,,,,,,,,,,,,,,,,,,,,,,,,,,,,,,,,,,,1.8888888905445735,1.2323959000059403,428.2817320000031,None,ScrollUp,정답입니다,428.2817320000031,None,428.2817320000031,None,428.2817320000031,None,428.2817320000031,None,429.4031543000019,None,429.4031543000019,429.9158478999743,,,,,,,,,,,,,,,,109,2022-05-02_15h17.13.463,FishGame,2022.1.1,59.83452164768092,
,17,넌 교활해,5,Green,B,2.333333333333333,2.133333333333333,ScrollUp,ScrollDown,Green.png,3,Negative,Congruent,0,0,0,0,,,,,,,,,,,,,,,,,,,,,0,16,16,16,,,,,,,,,,,,,,,,,,,,,,,,,,,,,,,,,,,,,,,,,,,,,,,,,,,,,,,,,,,,,,,,,,,,,,,,,,,,,1.658950611948967,0.953071900003124,430.5482958999928,None,ScrollUp,정답입니다,430.5482958999928,None,430.5482958999928,None,430.5482958999928,None,430.5482958999928,None,431.39518980000867,None,431.39518980000867,431.89931319997413,,,,,,,,,,,,,,,,109,2022-05-02_15h17.13.463,FishGame,2022.1.1,59.83452164768092,
,18,나를 보내줘,6,Orange,A,0,0,ScrollUp,ScrollDown,Orange.png,3,NonTarget,NonTarget,0,0,0,0,,,,,,,,,,,,,,,,,,,,,0,17,17,17,,,,,,,,,,,,,,,,,,,,,,,,,,,,,,,,,,,,,,,,,,,,,,,,,,,,,,,,,,,,,,,,,,,,,,,,,,,,,1.8302469104528427,1.2767119000200182,432.53197740000905,None,ScrollUp,정답입니다,432.53197740000905,None,432.53197740000905,None,432.53197740000905,None,432.53197740000905,None,433.6984037999646,None,433.6984037999646,434.1990942999837,,,,,,,,,,,,,,,,109,2022-05-02_15h17.13.463,FishGame,2022.1.1,59.83452164768092,
,19,넌 불친절해,5,Green,B,2.208333333333333,2.033333333333333,ScrollUp,ScrollDown,Green.png,3,Negative,Congruent,0,0,0,0,,,,,,,,,,,,,,,,,,,,,0,18,18,18,,,,,,,,,,,,,,,,,,,,,,,,,,,,,,,,,,,,,,,,,,,,,,,,,,,,,,,,,,,,,,,,,,,,,,,,,,,,,1.6265432064731917,1.2240585000254214,434.83314469998004,None,ScrollUp,정답입니다,434.83314469998004,None,434.83314469998004,None,434.83314469998004,None,434.83314469998004,None,435.94822429999476,None,435.94822429999476,436.4491708999849,,,,,,,,,,,,,,,,109,2022-05-02_15h17.13.463,FishGame,2022.1.1,59.83452164768092,
,20,넌 지적이야,2,Green,B,5.75,4.366666666666666,ScrollUp,ScrollDown,Green.png,3,Positive,Incongruent,0,0,0,0,,,,,,,,,,,,,,,,,,,,,0,19,19,19,,,,,,,,,,,,,,,,,,,,,,,,,,,,,,,,,,,,,,,,,,,,,,,,,,,,,,,,,,,,,,,,,,,,,,,,,,,,,1.7500000099341075,1.0655620999750681,437.0798729999806,None,ScrollUp,정답입니다,437.0798729999806,None,437.0798729999806,None,437.0798729999806,None,437.0798729999806,None,438.03642540000146,None,438.03642540000146,438.54883599997265,,,,,,,,,,,,,,,,109,2022-05-02_15h17.13.463,FishGame,2022.1.1,59.83452164768092,
,21,넌 우유부단해,4,Orange,A,2.666666666666667,3.166666666666667,ScrollDown,ScrollUp,Orange.png,3,Negative,Incongruent,0,0,0,0,,,,,,,,,,,,,,,,,,,,,0,20,20,20,,,,,,,,,,,,,,,,,,,,,,,,,,,,,,,,,,,,,,,,,,,,,,,,,,,,,,,,,,,,,,,,,,,,,,,,,,,,,1.0632716019948323,1.0629075000179,439.19585099996766,None,ScrollDown,정답입니다,439.19585099996766,None,439.19585099996766,None,439.19585099996766,None,439.19585099996766,None,440.137459199992,None,440.137459199992,440.6488948999904,,,,,,,,,,,,,,,,109,2022-05-02_15h17.13.463,FishGame,2022.1.1,59.83452164768092,
,22,나를 데려가줘,6,Green,B,0,0,ScrollDown,ScrollUp,Green.png,3,NonTarget,NonTarget,0,0,0,0,,,,,,,,,,,,,,,,,,,,,0,21,21,21,,,,,,,,,,,,,,,,,,,,,,,,,,,,,,,,,,,,,,,,,,,,,,,,,,,,,,,,,,,,,,,,,,,,,,,,,,,,,1.1512345721324284,1.2002378999604844,441.28291319997516,None,ScrollDown,정답입니다,441.28291319997516,None,441.28291319997516,None,441.28291319997516,None,441.28291319997516,None,442.36988899996504,None,442.36988899996504,442.8826689000125,,,,,,,,,,,,,,,,109,2022-05-02_15h17.13.463,FishGame,2022.1.1,59.83452164768092,
,23,넌 성실해,1,Green,B,6.041666666666666,5.7,ScrollUp,ScrollDown,Green.png,3,Positive,Incongruent,0,0,0,0,,,,,,,,,,,,,,,,,,,,,0,22,22,22,,,,,,,,,,,,,,,,,,,,,,,,,,,,,,,,,,,,,,,,,,,,,,,,,,,,,,,,,,,,,,,,,,,,,,,,,,,,,2,1.2717677999753505,443.51145059999544,None,ScrollUp,정답입니다,443.51145059999544,None,443.51145059999544,None,443.51145059999544,None,443.51145059999544,None,444.67882679996546,None,444.67882679996546,445.18290279997746,,,,,,,,,,,,,,,,109,2022-05-02_15h17.13.463,FishGame,2022.1.1,59.83452164768092,
,24,넌 현실주의적이야,3,Orange,A,4.625,4.4,ScrollDown,ScrollUp,Orange.png,3,Neutral,Neutral,0,0,0,0,,,,,,,,,,,,,,,,,,,,,0,23,23,23,,,,,,,,,,,,,,,,,,,,,,,,,,,,,,,,,,,,,,,,,,,,,,,,,,,,,,,,,,,,,,,,,,,,,,,,,,,,,1.121913582086563,1.0581178999855183,445.8166863999795,None,ScrollDown,정답입니다,445.8166863999795,None,445.8166863999795,None,445.8166863999795,None,445.8166863999795,None,446.76510949997464,None,446.76510949997464,447.2659265999682,,,,,,,,,,,,,,,,109,2022-05-02_15h17.13.463,FishGame,2022.1.1,59.83452164768092,
,25,넌 진실돼,1,Orange,A,6.625,5.566666666666666,ScrollDown,ScrollUp,Orange.png,3,Positive,Congruent,0,0,0,0,,,,,,,,,,,,,,,,,,,,,0,24,24,24,,,,,,,,,,,,,,,,,,,,,,,,,,,,,,,,,,,,,,,,,,,,,,,,,,,,,,,,,,,,,,,,,,,,,,,,,,,,,1.1882716069618862,1.1561149999615736,447.90375679999124,None,ScrollDown,정답입니다,447.90375679999124,None,447.90375679999124,None,447.90375679999124,None,447.90375679999124,None,448.9489082999644,None,448.9489082999644,449.4490305999643,,,,,,,,,,,,,,,,109,2022-05-02_15h17.13.463,FishGame,2022.1.1,59.83452164768092,
,26,넌 천진난만해,3,Green,B,4.958333333333334,4.833333333333333,ScrollUp,ScrollDown,Green.png,3,Neutral,Neutral,0,0,0,0,,,,,,,,,,,,,,,,,,,,,0,25,25,25,,,,,,,,,,,,,,,,,,,,,,,,,,,,,,,,,,,,,,,,,,,,,,,,,,,,,,,,,,,,,,,,,,,,,,,,,,,,,1.6466049378116927,0.975966400001198,450.08644029998686,None,ScrollUp,정답입니다,450.08644029998686,None,450.08644029998686,None,450.08644029998686,None,450.08644029998686,None,450.9484089000034,None,450.9484089000034,451.44928050000453,,,,,,,,,,,,,,,,109,2022-05-02_15h17.13.463,FishGame,2022.1.1,59.83452164768092,
,27,넌 교양없어,5,Orange,A,2.416666666666667,2.2,ScrollDown,ScrollUp,Orange.png,3,Negative,Incongruent,0,0,0,0,,,,,,,,,,,,,,,,,,,,,0,26,26,26,,,,,,,,,,,,,,,,,,,,,,,,,,,,,,,,,,,,,,,,,,,,,,,,,,,,,,,,,,,,,,,,,,,,,,,,,,,,,1.0879629751046498,1.0888031999929808,452.09221639996395,None,ScrollDown,정답입니다,452.09221639996395,None,452.09221639996395,None,452.09221639996395,None,452.09221639996395,None,453.0656900999602,None,453.0656900999602,453.56601129996125,,,,,,,,,,,,,,,,109,2022-05-02_15h17.13.463,FishGame,2022.1.1,59.83452164768092,
,28,나를 보내줘,6,Orange,A,0,0,ScrollUp,ScrollDown,Orange.png,3,NonTarget,NonTarget,0,0,0,0,,,,,,,,,,,,,,,,,,,,,0,27,27,27,,,,,,,,,,,,,,,,,,,,,,,,,,,,,,,,,,,,,,,,,,,,,,,,,,,,,,,,,,,,,,,,,,,,,,,,,,,,,1.904320980111758,1.2083196999737993,454.19925149995834,None,ScrollUp,정답입니다,454.19925149995834,None,454.19925149995834,None,454.19925149995834,None,454.19925149995834,None,455.29924580000807,None,455.29924580000807,455.799903600011,,,,,,,,,,,,,,,,109,2022-05-02_15h17.13.463,FishGame,2022.1.1,59.83452164768092,
,29,넌 엉뚱스러워,3,Orange,A,4.166666666666667,4.133333333333334,ScrollDown,ScrollUp,Orange.png,3,Neutral,Neutral,0,0,0,0,,,,,,,,,,,,,,,,,,,,,0,28,28,28,,,,,,,,,,,,,,,,,,,,,,,,,,,,,,,,,,,,,,,,,,,,,,,,,,,,,,,,,,,,,,,,,,,,,,,,,,,,,1,1.1572094999719411,456.45654679997824,None,ScrollDown,정답입니다,456.45654679997824,None,456.45654679997824,None,456.45654679997824,None,456.45654679997824,None,457.4828940000152,None,457.4828940000152,457.98314149997896,,,,,,,,,,,,,,,,109,2022-05-02_15h17.13.463,FishGame,2022.1.1,59.83452164768092,
,30,넌 무지해,4,Green,B,2.541666666666667,3.066666666666667,ScrollUp,ScrollDown,Green.png,3,Negative,Congruent,0,0,0,0,,,,,,,,,,,,,,,,,,,,,0,29,29,29,,,,,,,,,,,,,,,,,,,,,,,,,,,,,,,,,,,,,,,,,,,,,,,,,,,,,,,,,,,,,,,,,,,,,,,,,,,,,1.9012345770994823,1.097705300024245,458.61176369996974,None,ScrollUp,정답입니다,458.61176369996974,None,458.61176369996974,None,458.61176369996974,None,458.61176369996974,None,459.6035804999992,None,459.6035804999992,460.11643499997444,,,,,,,,,,,,,,,,109,2022-05-02_15h17.13.463,FishGame,2022.1.1,59.83452164768092,
,31,넌 음울해,5,Green,B,2.25,2.233333333333333,ScrollUp,ScrollDown,Green.png,3,Negative,Congruent,0,0,0,0,,,,,,,,,,,,,,,,,,,,,0,30,30,30,,,,,,,,,,,,,,,,,,,,,,,,,,,,,,,,,,,,,,,,,,,,,,,,,,,,,,,,,,,,,,,,,,,,,,,,,,,,,1.765432099501292,1.0403632000088692,460.7667930999887,None,ScrollUp,정답입니다,460.7667930999887,None,460.7667930999887,None,460.7667930999887,None,460.7667930999887,None,461.68270130001474,None,461.68270130001474,462.1828498999821,,,,,,,,,,,,,,,,109,2022-05-02_15h17.13.463,FishGame,2022.1.1,59.83452164768092,
,32,넌 냉소적이야,5,Orange,A,2.916666666666667,2.4,ScrollDown,ScrollUp,Orange.png,3,Negative,Incongruent,0,0,0,0,,,,,,,,,,,,,,,,,,,,,0,31,31,31,,,,,,,,,,,,,,,,,,,,,,,,,,,,,,,,,,,,,,,,,,,,,,,,,,,,,,,,,,,,,,,,,,,,,,,,,,,,,1.115740751226743,1.2166926000500098,462.81937939999625,None,ScrollDown,정답입니다,462.81937939999625,None,462.81937939999625,None,462.81937939999625,None,462.81937939999625,None,463.92058869998436,None,463.92058869998436,464.4327298999997,,,,,,,,,,,,,,,,109,2022-05-02_15h17.13.463,FishGame,2022.1.1,59.83452164768092,
,33,나를 데려가줘,6,Green,B,0,0,ScrollDown,ScrollUp,Green.png,3,NonTarget,NonTarget,0,0,0,0,,,,,,,,,,,,,,,,,,,,,0,32,32,32,,,,,,,,,,,,,,,,,,,,,,,,,,,,,,,,,,,,,,,,,,,,,,,,,,,,,,,,,,,,,,,,,,,,,,,,,,,,,1.0709876716136932,1.6936286000418477,465.06546409998555,None,ScrollDown,정답입니다,465.06546409998555,None,465.06546409998555,None,465.06546409998555,None,465.06546409998555,None,466.64925109996693,None,466.64925109996693,467.150243400014,,,,,,,,,,,,,,,,109,2022-05-02_15h17.13.463,FishGame,2022.1.1,59.83452164768092,
,34,넌 쾌활해,1,Orange,A,5.541666666666666,5.733333333333333,ScrollDown,ScrollUp,Orange.png,3,Positive,Congruent,0,0,0,0,,,,,,,,,,,,,,,,,,,,,0,33,33,33,,,,,,,,,,,,,,,,,,,,,,,,,,,,,,,,,,,,,,,,,,,,,,,,,,,,,,,,,,,,,,,,,,,,,,,,,,,,,1.1342592686414719,1.135475100018084,467.7917203999823,None,ScrollDown,정답입니다,467.7917203999823,None,467.7917203999823,None,467.7917203999823,None,467.7917203999823,None,468.806963799987,None,468.806963799987,469.31625269999495,,,,,,,,,,,,,,,,109,2022-05-02_15h17.13.463,FishGame,2022.1.1,59.83452164768092,
,35,나를 보내줘,6,Orange,A,0,0,ScrollUp,ScrollDown,Orange.png,3,NonTarget,NonTarget,0,0,0,0,,,,,,,,,,,,,,,,,,,,,0,34,34,34,,,,,,,,,,,,,,,,,,,,,,,,,,,,,,,,,,,,,,,,,,,,,,,,,,,,,,,,,,,,,,,,,,,,,,,,,,,,,1.9120370248953502,1.0898519000038505,469.9463691000128,None,ScrollUp,정답입니다,469.9463691000128,None,469.9463691000128,None,469.9463691000128,None,469.9463691000128,None,470.93285699997796,None,470.93285699997796,471.43314029998146,,,,,,,,,,,,,,,,109,2022-05-02_15h17.13.463,FishGame,2022.1.1,59.83452164768092,
,36,넌 명랑해,1,Green,B,5.739130434782609,5.666666666666667,ScrollUp,ScrollDown,Green.png,3,Positive,Incongruent,0,0,0,0,,,,,,,,,,,,,,,,,,,,,0,35,35,35,,,,,,,,,,,,,,,,,,,,,,,,,,,,,,,,,,,,,,,,,,,,,,,,,,,,,,,,,,,,,,,,,,,,,,,,,,,,,1.7206790198882422,1.0684149999869987,472.06875689997105,None,ScrollUp,정답입니다,472.06875689997105,None,472.06875689997105,None,472.06875689997105,None,472.06875689997105,None,473.0295623000129,None,473.0295623000129,473.532782699971,,,,,,,,,,,,,,,,109,2022-05-02_15h17.13.463,FishGame,2022.1.1,59.83452164768092,
,37,넌 멍해,4,Orange,A,2.833333333333333,3.4,ScrollDown,ScrollUp,Orange.png,3,Negative,Incongruent,0,0,0,0,,,,,,,,,,,,,,,,,,,,,0,36,36,36,,,,,,,,,,,,,,,,,,,,,,,,,,,,,,,,,,,,,,,,,,,,,,,,,,,,,,,,,,,,,,,,,,,,,,,,,,,,,1.0817901194095612,1.0305675000417978,474.17077969998354,None,ScrollDown,정답입니다,474.17077969998354,None,474.17077969998354,None,474.17077969998354,None,474.17077969998354,None,475.0870176999597,None,475.0870176999597,475.59978829999454,,,,,,,,,,,,,,,,109,2022-05-02_15h17.13.463,FishGame,2022.1.1,59.83452164768092,
,38,나를 데려가줘,6,Green,B,0,0,ScrollDown,ScrollUp,Green.png,3,NonTarget,NonTarget,0,0,0,0,,,,,,,,,,,,,,,,,,,,,0,37,37,37,,,,,,,,,,,,,,,,,,,,,,,,,,,,,,,,,,,,,,,,,,,,,,,,,,,,,,,,,,,,,,,,,,,,,,,,,,,,,1.2314814726511638,1.1426262000459246,476.2342927000136,None,ScrollDown,정답입니다,476.2342927000136,None,476.2342927000136,None,476.2342927000136,None,476.2342927000136,None,477.26619609998306,None,477.26619609998306,477.7659535999992,,,,,,,,,,,,,,,,109,2022-05-02_15h17.13.463,FishGame,2022.1.1,59.83452164768092,
,39,넌 현명해,2,Orange,A,6.541666666666666,4.533333333333333,ScrollDown,ScrollUp,Orange.png,3,Positive,Congruent,0,0,0,0,,,,,,,,,,,,,,,,,,,,,0,38,38,38,,,,,,,,,,,,,,,,,,,,,,,,,,,,,,,,,,,,,,,,,,,,,,,,,,,,,,,,,,,,,,,,,,,,,,,,,,,,,1.180555562178294,0.9606067000422627,478.4067868000129,None,ScrollDown,정답입니다,478.4067868000129,None,478.4067868000129,None,478.4067868000129,None,478.4067868000129,None,479.2531157999765,None,479.2531157999765,479.766455999983,,,,,,,,,,,,,,,,109,2022-05-02_15h17.13.463,FishGame,2022.1.1,59.83452164768092,
,40,넌 수줍어,3,Green,B,3.541666666666666,4.366666666666666,ScrollUp,ScrollDown,Green.png,3,Neutral,Neutral,0,0,0,0,,,,,,,,,,,,,,,,,,,,,0,39,39,39,,,,,,,,,,,,,,,,,,,,,,,,,,,,,,,,,,,,,,,,,,,,,,,,,,,,,,,,,,,,,,,,,,,,,,,,,,,,,1.6944444452722869,0.9844028999796137,480.4050814000075,None,ScrollUp,정답입니다,480.4050814000075,None,480.4050814000075,None,480.4050814000075,None,480.4050814000075,None,481.2706770999939,None,481.2706770999939,481.7835311999661,,,,,,,,,,,,,,,,109,2022-05-02_15h17.13.463,FishGame,2022.1.1,59.83452164768092,
,41,나를 데려가줘,6,Green,B,0,0,ScrollDown,ScrollUp,Green.png,3,NonTarget,NonTarget,0,0,0,0,,,,,,,,,,,,,,,,,,,,,0,40,40,40,,,,,,,,,,,,,,,,,,,,,,,,,,,,,,,,,,,,,,,,,,,,,,,,,,,,,,,,,,,,,,,,,,,,,,,,,,,,,1.1728395173947017,1.1426789000397548,482.41895510000177,None,ScrollDown,정답입니다,482.41895510000177,None,482.41895510000177,None,482.41895510000177,None,482.41895510000177,None,483.4494035000098,None,483.4494035000098,483.9499244999606,,,,,,,,,,,,,,,,109,2022-05-02_15h17.13.463,FishGame,2022.1.1,59.83452164768092,
,42,넌 성숙해,2,Green,B,5.833333333333333,4.533333333333333,ScrollUp,ScrollDown,Green.png,3,Positive,Incongruent,0,0,0,0,,,,,,,,,,,,,,,,,,,,,0,41,41,41,,,,,,,,,,,,,,,,,,,,,,,,,,,,,,,,,,,,,,,,,,,,,,,,,,,,,,,,,,,,,,,,,,,,,,,,,,,,,1.837962955236435,0.9402681000065058,484.57882709999103,None,ScrollUp,정답입니다,484.57882709999103,None,484.57882709999103,None,484.57882709999103,None,484.57882709999103,None,485.41599740000675,None,485.41599740000675,485.91701049997937,,,,,,,,,,,,,,,,109,2022-05-02_15h17.13.463,FishGame,2022.1.1,59.83452164768092,
,1,넌 매력적이야,2,Green,B,6.125,4.666666666666667,ScrollUp,ScrollDown,Green.png,4,Positive,Incongruent,0,0,0,0,,,,,,,,,,,,,,,,,,,,,,,,,0,0,0,0,,,,,,,,,,,,,,,,,,,,,,,,,,,,,,,,518.1170052000089,519.6171662000124,519.651170099969,520.6004925000016,520.6504477999988,521.6006064999965,521.6006064999965,None,,,,,,,,,,,,,,,,,,,,,,,,,,,,,,,,,,1.8672839452823002,1.3531914000050165,522.7660887999809,None,ScrollUp,정답입니다,522.7660887999809,None,522.7660887999809,None,522.7660887999809,None,522.7660887999809,None,523.9502999999677,None,523.9502999999677,524.4509728999692,486.416793100012,None,486.416793100012,None,0.10277778,-0.10092592,1,0,0,0.016267960018012673,None,516.4170166999684,None,,,109,2022-05-02_15h17.13.463,FishGame,2022.1.1,59.83452164768092,
,2,나를 보내줘,6,Orange,A,0,0,ScrollUp,ScrollDown,Orange.png,4,NonTarget,NonTarget,0,0,0,0,,,,,,,,,,,,,,,,,,,,,,,,,0,1,1,1,,,,,,,,,,,,,,,,,,,,,,,,,,,,,,,,,,,,,,,,,,,,,,,,,,,,,,,,,,,,,,,,,,,,,,,,,2,1.441444700001739,525.0828700999846,None,ScrollUp,정답입니다,525.0828700999846,None,525.0828700999846,None,525.0828700999846,None,525.0828700999846,None,526.4168711999664,None,526.4168711999664,526.9176135999733,,,,,,,,,,,,,,,,109,2022-05-02_15h17.13.463,FishGame,2022.1.1,59.83452164768092,
,3,넌 조심스러워,3,Orange,A,4.791666666666666,4.666666666666667,ScrollDown,ScrollUp,Orange.png,4,Neutral,Neutral,0,0,0,0,,,,,,,,,,,,,,,,,,,,,,,,,0,2,2,2,,,,,,,,,,,,,,,,,,,,,,,,,,,,,,,,,,,,,,,,,,,,,,,,,,,,,,,,,,,,,,,,,,,,,,,,,1.3348765447735786,1.535466599976644,527.5521196000045,None,ScrollDown,정답입니다,527.5521196000045,None,527.5521196000045,None,527.5521196000045,None,527.5521196000045,None,528.9802013000008,None,528.9802013000008,529.4839134999784,,,,,,,,,,,,,,,,109,2022-05-02_15h17.13.463,FishGame,2022.1.1,59.83452164768092,
,4,넌 철학적이야,3,Green,B,4.5,4.266666666666667,ScrollUp,ScrollDown,Green.png,4,Neutral,Neutral,0,0,0,0,,,,,,,,,,,,,,,,,,,,,,,,,0,3,3,3,,,,,,,,,,,,,,,,,,,,,,,,,,,,,,,,,,,,,,,,,,,,,,,,,,,,,,,,,,,,,,,,,,,,,,,,,1.7083333333333335,0.8843025999958627,530.1241656999919,None,ScrollUp,정답입니다,530.1241656999919,None,530.1241656999919,None,530.1241656999919,None,530.1241656999919,None,530.8968370999792,None,530.8968370999792,531.4012502999976,,,,,,,,,,,,,,,,109,2022-05-02_15h17.13.463,FishGame,2022.1.1,59.83452164768092,
,5,넌 쩨쩨해,5,Orange,A,2.375,2.133333333333333,ScrollDown,ScrollUp,Orange.png,4,Negative,Incongruent,0,0,0,0,,,,,,,,,,,,,,,,,,,,,,,,,0,4,4,4,,,,,,,,,,,,,,,,,,,,,,,,,,,,,,,,,,,,,,,,,,,,,,,,,,,,,,,,,,,,,,,,,,,,,,,,,1.2253086417913437,1.0023282999754883,532.0399688999751,None,ScrollDown,정답입니다,532.0399688999751,None,532.0399688999751,None,532.0399688999751,None,532.0399688999751,None,532.9303965999861,None,532.9303965999861,533.4342054000008,,,,,,,,,,,,,,,,109,2022-05-02_15h17.13.463,FishGame,2022.1.1,59.83452164768092,
,6,나를 데려가줘,6,Green,B,0,0,ScrollDown,ScrollUp,Green.png,4,NonTarget,NonTarget,0,0,0,0,,,,,,,,,,,,,,,,,,,,,,,,,0,5,5,5,,,,,,,,,,,,,,,,,,,,,,,,,,,,,,,,,,,,,,,,,,,,,,,,,,,,,,,,,,,,,,,,,,,,,,,,,1.0787036915620167,1.7559723999584094,534.0599105999572,None,ScrollDown,정답입니다,534.0599105999572,None,534.0599105999572,None,534.0599105999572,None,534.0599105999572,None,535.7174635999836,None,535.7174635999836,536.2180113999639,,,,,,,,,,,,,,,,109,2022-05-02_15h17.13.463,FishGame,2022.1.1,59.83452164768092,
,7,넌 고집불통이야,5,Green,B,2.875,2,ScrollUp,ScrollDown,Green.png,4,Negative,Congruent,0,0,0,0,,,,,,,,,,,,,,,,,,,,,,,,,0,6,6,6,,,,,,,,,,,,,,,,,,,,,,,,,,,,,,,,,,,,,,,,,,,,,,,,,,,,,,,,,,,,,,,,,,,,,,,,,1.9922839502493541,0.9715142999775708,536.8569450000068,None,ScrollUp,정답입니다,536.8569450000068,None,536.8569450000068,None,536.8569450000068,None,536.8569450000068,None,537.7136899000034,None,537.7136899000034,538.2176304999739,,,,,,,,,,,,,,,,109,2022-05-02_15h17.13.463,FishGame,2022.1.1,59.83452164768092,
,8,넌 무심해,4,Orange,A,2.875,3.2,ScrollDown,ScrollUp,Orange.png,4,Negative,Incongruent,0,0,0,0,,,,,,,,,,,,,,,,,,,,,,,,,0,7,7,7,,,,,,,,,,,,,,,,,,,,,,,,,,,,,,,,,,,,,,,,,,,,,,,,,,,,,,,,,,,,,,,,,,,,,,,,,1.1697530895471573,0.9349962000269443,538.8602086000028,None,ScrollDown,정답입니다,538.8602086000028,None,538.8602086000028,None,538.8602086000028,None,538.8602086000028,None,539.67232839996,None,539.67232839996,540.183871999965,,,,,,,,,,,,,,,,109,2022-05-02_15h17.13.463,FishGame,2022.1.1,59.83452164768092,
,9,넌 정겨워,1,Orange,A,5.791666666666667,5.666666666666667,ScrollDown,ScrollUp,Orange.png,4,Positive,Congruent,0,0,0,0,,,,,,,,,,,,,,,,,,,,,,,,,0,8,8,8,,,,,,,,,,,,,,,,,,,,,,,,,,,,,,,,,,,,,,,,,,,,,,,,,,,,,,,,,,,,,,,,,,,,,,,,,1.1496913582086563,0.8793770000338554,540.8259206999792,None,ScrollDown,정답입니다,540.8259206999792,None,540.8259206999792,None,540.8259206999792,None,540.8259206999792,None,541.5892672999762,None,541.5892672999762,542.1011302999686,,,,,,,,,,,,,,,,109,2022-05-02_15h17.13.463,FishGame,2022.1.1,59.83452164768092,
,10,나를 데려가줘,6,Green,B,0,0,ScrollDown,ScrollUp,Green.png,4,NonTarget,NonTarget,0,0,0,0,,,,,,,,,,,,,,,,,,,,,,,,,0,9,9,9,,,,,,,,,,,,,,,,,,,,,,,,,,,,,,,,,,,,,,,,,,,,,,,,,,,,,,,,,,,,,,,,,,,,,,,,,1.1049382785956066,1.1329187999945134,542.7438311000005,None,ScrollDown,정답입니다,542.7438311000005,None,542.7438311000005,None,542.7438311000005,None,542.7438311000005,None,543.7552019999712,None,543.7552019999712,544.2674568999792,,,,,,,,,,,,,,,,109,2022-05-02_15h17.13.463,FishGame,2022.1.1,59.83452164768092,
,11,넌 체제순응적이야,4,Green,B,3,3.6,ScrollUp,ScrollDown,Green.png,4,Negative,Congruent,0,0,0,0,,,,,,,,,,,,,,,,,,,,,,,,,0,10,10,10,,,,,,,,,,,,,,,,,,,,,,,,,,,,,,,,,,,,,,,,,,,,,,,,,,,,,,,,,,,,,,,,,,,,,,,,,1.8626543283462524,0.9741185000166297,544.9115225999849,None,ScrollUp,정답입니다,544.9115225999849,None,544.9115225999849,None,544.9115225999849,None,544.9115225999849,None,545.7676762999617,None,545.7676762999617,546.2680890999618,,,,,,,,,,,,,,,,109,2022-05-02_15h17.13.463,FishGame,2022.1.1,59.83452164768092,
,12,나를 보내줘,6,Orange,A,0,0,ScrollUp,ScrollDown,Orange.png,4,NonTarget,NonTarget,0,0,0,0,,,,,,,,,,,,,,,,,,,,,,,,,0,11,11,11,,,,,,,,,,,,,,,,,,,,,,,,,,,,,,,,,,,,,,,,,,,,,,,,,,,,,,,,,,,,,,,,,,,,,,,,,1.8086419651905696,1.1482631999533623,546.9028691999847,None,ScrollUp,정답입니다,546.9028691999847,None,546.9028691999847,None,546.9028691999847,None,546.9028691999847,None,547.9390473999665,None,547.9390473999665,548.4514669000055,,,,,,,,,,,,,,,,109,2022-05-02_15h17.13.463,FishGame,2022.1.1,59.83452164768092,
,13,넌 박식해,2,Orange,A,5.625,3.933333333333333,ScrollDown,ScrollUp,Orange.png,4,Positive,Congruent,0,0,0,0,,,,,,,,,,,,,,,,,,,,,,,,,0,12,12,12,,,,,,,,,,,,,,,,,,,,,,,,,,,,,,,,,,,,,,,,,,,,,,,,,,,,,,,,,,,,,,,,,,,,,,,,,1.0138889054457347,1.0412435000180267,549.0971206999966,None,ScrollDown,정답입니다,549.0971206999966,None,549.0971206999966,None,549.0971206999966,None,549.0971206999966,None,550.0174959999858,None,550.0174959999858,550.5177751999581,,,,,,,,,,,,,,,,109,2022-05-02_15h17.13.463,FishGame,2022.1.1,59.83452164768092,
,14,나를 보내줘,6,Orange,A,0,0,ScrollUp,ScrollDown,Orange.png,4,NonTarget,NonTarget,0,0,0,0,,,,,,,,,,,,,,,,,,,,,,,,,0,13,13,13,,,,,,,,,,,,,,,,,,,,,,,,,,,,,,,,,,,,,,,,,,,,,,,,,,,,,,,,,,,,,,,,,,,,,,,,,1.9135802388191223,1.0626214999938384,551.1555136999814,None,ScrollUp,정답입니다,551.1555136999814,None,551.1555136999814,None,551.1555136999814,None,551.1555136999814,None,552.1060766999726,None,552.1060766999726,552.6175385999959,,,,,,,,,,,,,,,,109,2022-05-02_15h17.13.463,FishGame,2022.1.1,59.83452164768092,
,15,넌 침착해,1,Green,B,5.458333333333333,5.566666666666666,ScrollUp,ScrollDown,Green.png,4,Positive,Incongruent,0,0,0,0,,,,,,,,,,,,,,,,,,,,,,,,,0,14,14,14,,,,,,,,,,,,,,,,,,,,,,,,,,,,,,,,,,,,,,,,,,,,,,,,,,,,,,,,,,,,,,,,,,,,,,,,,1.5864197500050068,0.9637227000202984,553.2561056999839,None,ScrollUp,정답입니다,553.2561056999839,None,553.2561056999839,None,553.2561056999839,None,553.2561056999839,None,554.1060530999675,None,554.1060530999675,554.6177780000144,,,,,,,,,,,,,,,,109,2022-05-02_15h17.13.463,FishGame,2022.1.1,59.83452164768092,
,16,나를 데려가줘,6,Green,B,0,0,ScrollDown,ScrollUp,Green.png,4,NonTarget,NonTarget,0,0,0,0,,,,,,,,,,,,,,,,,,,,,,,,,0,15,15,15,,,,,,,,,,,,,,,,,,,,,,,,,,,,,,,,,,,,,,,,,,,,,,,,,,,,,,,,,,,,,,,,,,,,,,,,,1.3101851840813956,1.1984808999695815,555.25069299998,None,ScrollDown,정답입니다,555.25069299998,None,555.25069299998,None,555.25069299998,None,555.25069299998,None,556.3389963000081,None,556.3389963000081,556.8514168999973,,,,,,,,,,,,,,,,109,2022-05-02_15h17.13.463,FishGame,2022.1.1,59.83452164768092,
,17,넌 행복해,1,Orange,A,6.416666666666666,6.166666666666667,ScrollDown,ScrollUp,Orange.png,4,Positive,Congruent,0,0,0,0,,,,,,,,,,,,,,,,,,,,,,,,,0,16,16,16,,,,,,,,,,,,,,,,,,,,,,,,,,,,,,,,,,,,,,,,,,,,,,,,,,,,,,,,,,,,,,,,,,,,,,,,,1.1574074029922485,0.9973961999639869,557.4951216999907,None,ScrollDown,정답입니다,557.4951216999907,None,557.4951216999907,None,557.4951216999907,None,557.4951216999907,None,558.3720671999617,None,558.3720671999617,558.8847402000101,,,,,,,,,,,,,,,,109,2022-05-02_15h17.13.463,FishGame,2022.1.1,59.83452164768092,
,18,넌 겸손해,2,Green,B,5.791666666666667,4.766666666666667,ScrollUp,ScrollDown,Green.png,4,Positive,Incongruent,0,0,0,0,,,,,,,,,,,,,,,,,,,,,,,,,0,17,17,17,,,,,,,,,,,,,,,,,,,,,,,,,,,,,,,,,,,,,,,,,,,,,,,,,,,,,,,,,,,,,,,,,,,,,,,,,1.785493830839793,0.9936533999862149,559.5255351999658,None,ScrollUp,정답입니다,559.5255351999658,None,559.5255351999658,None,559.5255351999658,None,559.5255351999658,None,560.403290599992,None,560.403290599992,560.9181065000012,,,,,,,,,,,,,,,,109,2022-05-02_15h17.13.463,FishGame,2022.1.1,59.83452164768092,
,19,나를 보내줘,6,Orange,A,0,0,ScrollUp,ScrollDown,Orange.png,4,NonTarget,NonTarget,0,0,0,0,,,,,,,,,,,,,,,,,,,,,,,,,0,18,18,18,,,,,,,,,,,,,,,,,,,,,,,,,,,,,,,,,,,,,,,,,,,,,,,,,,,,,,,,,,,,,,,,,,,,,,,,,1.8441358109315236,1.2064308000262827,561.5509617999778,None,ScrollUp,정답입니다,561.5509617999778,None,561.5509617999778,None,561.5509617999778,None,561.5509617999778,None,562.650999000005,None,562.650999000005,563.1514599999646,,,,,,,,,,,,,,,,109,2022-05-02_15h17.13.463,FishGame,2022.1.1,59.83452164768092,
,20,넌 의심없어,3,Orange,A,4.166666666666667,4.6,ScrollDown,ScrollUp,Orange.png,4,Neutral,Neutral,0,0,0,0,,,,,,,,,,,,,,,,,,,,,,,,,0,19,19,19,,,,,,,,,,,,,,,,,,,,,,,,,,,,,,,,,,,,,,,,,,,,,,,,,,,,,,,,,,,,,,,,,,,,,,,,,1.2453703731298447,0.9783523000078276,563.7862230999744,None,ScrollDown,정답입니다,563.7862230999744,None,563.7862230999744,None,563.7862230999744,None,563.7862230999744,None,564.650948799972,None,564.650948799972,565.1516100000008,,,,,,,,,,,,,,,,109,2022-05-02_15h17.13.463,FishGame,2022.1.1,59.83452164768092,
,21,넌 시시해,4,Orange,A,2.666666666666667,2.966666666666667,ScrollDown,ScrollUp,Orange.png,4,Negative,Incongruent,0,0,0,0,,,,,,,,,,,,,,,,,,,,,,,,,0,20,20,20,,,,,,,,,,,,,,,,,,,,,,,,,,,,,,,,,,,,,,,,,,,,,,,,,,,,,,,,,,,,,,,,,,,,,,,,,1.2391975422700245,1.5651325000217184,565.7867192999693,None,ScrollDown,정답입니다,565.7867192999693,None,565.7867192999693,None,565.7867192999693,None,565.7867192999693,None,567.2395688999677,None,567.2395688999677,567.7513702000142,,,,,,,,,,,,,,,,109,2022-05-02_15h17.13.463,FishGame,2022.1.1,59.83452164768092,
,22,나를 데려가줘,6,Green,B,0,0,ScrollDown,ScrollUp,Green.png,4,NonTarget,NonTarget,0,0,0,0,,,,,,,,,,,,,,,,,,,,,,,,,0,21,21,21,,,,,,,,,,,,,,,,,,,,,,,,,,,,,,,,,,,,,,,,,,,,,,,,,,,,,,,,,,,,,,,,,,,,,,,,,1,1.3395474999560975,568.3822408000124,None,ScrollDown,정답입니다,568.3822408000124,None,568.3822408000124,None,568.3822408000124,None,568.3822408000124,None,569.618221999961,None,569.618221999961,570.1185391999898,,,,,,,,,,,,,,,,109,2022-05-02_15h17.13.463,FishGame,2022.1.1,59.83452164768092,
,23,넌 무정해,5,Orange,A,2.5,2.2,ScrollDown,ScrollUp,Orange.png,4,Negative,Incongruent,0,0,0,0,,,,,,,,,,,,,,,,,,,,,,,,,0,22,22,22,,,,,,,,,,,,,,,,,,,,,,,,,,,,,,,,,,,,,,,,,,,,,,,,,,,,,,,,,,,,,,,,,,,,,,,,,1.256172845760981,0.9327837000018917,570.7534861000022,None,ScrollDown,정답입니다,570.7534861000022,None,570.7534861000022,None,570.7534861000022,None,570.7534861000022,None,571.5721355999704,None,571.5721355999704,572.0847447999986,,,,,,,,,,,,,,,,109,2022-05-02_15h17.13.463,FishGame,2022.1.1,59.83452164768092,
,24,넌 긍정적이야,1,Green,B,6.041666666666667,6.066666666666666,ScrollUp,ScrollDown,Green.png,4,Positive,Incongruent,0,0,0,0,,,,,,,,,,,,,,,,,,,,,,,,,0,23,23,23,,,,,,,,,,,,,,,,,,,,,,,,,,,,,,,,,,,,,,,,,,,,,,,,,,,,,,,,,,,,,,,,,,,,,,,,,1.9336419701576233,1.1321062999777496,572.7318136999966,None,ScrollUp,정답입니다,572.7318136999966,None,572.7318136999966,None,572.7318136999966,None,572.7318136999966,None,573.7395021999837,None,573.7395021999837,574.2517268999945,,,,,,,,,,,,,,,,109,2022-05-02_15h17.13.463,FishGame,2022.1.1,59.83452164768092,
,25,나를 보내줘,6,Orange,A,0,0,ScrollUp,ScrollDown,Orange.png,4,NonTarget,NonTarget,0,0,0,0,,,,,,,,,,,,,,,,,,,,,,,,,0,24,24,24,,,,,,,,,,,,,,,,,,,,,,,,,,,,,,,,,,,,,,,,,,,,,,,,,,,,,,,,,,,,,,,,,,,,,,,,,1.634259263674418,1.1256988000241108,574.8863993000123,None,ScrollUp,정답입니다,574.8863993000123,None,574.8863993000123,None,574.8863993000123,None,574.8863993000123,None,575.9009320999612,None,575.9009320999612,576.401876399992,,,,,,,,,,,,,,,,109,2022-05-02_15h17.13.463,FishGame,2022.1.1,59.83452164768092,
,26,넌 시기심이 많아,5,Green,B,2.458333333333333,2.233333333333333,ScrollUp,ScrollDown,Green.png,4,Negative,Congruent,0,0,0,0,,,,,,,,,,,,,,,,,,,,,,,,,0,25,25,25,,,,,,,,,,,,,,,,,,,,,,,,,,,,,,,,,,,,,,,,,,,,,,,,,,,,,,,,,,,,,,,,,,,,,,,,,1.6929012313485146,1.0000393000082113,577.0419856999652,None,ScrollUp,정답입니다,577.0419856999652,None,577.0419856999652,None,577.0419856999652,None,577.0419856999652,None,577.9225231999881,None,577.9225231999881,578.4349892999744,,,,,,,,,,,,,,,,109,2022-05-02_15h17.13.463,FishGame,2022.1.1,59.83452164768092,
,27,넌 탁월해,2,Orange,A,5.708333333333334,4.5,ScrollDown,ScrollUp,Orange.png,4,Positive,Congruent,0,0,0,0,,,,,,,,,,,,,,,,,,,,,,,,,0,26,26,26,,,,,,,,,,,,,,,,,,,,,,,,,,,,,,,,,,,,,,,,,,,,,,,,,,,,,,,,,,,,,,,,,,,,,,,,,1.2638888905445733,1.0384271999937482,579.0769406000036,None,ScrollDown,정답입니다,579.0769406000036,None,579.0769406000036,None,579.0769406000036,None,579.0769406000036,None,580.0016072000144,None,580.0016072000144,580.5020105000003,,,,,,,,,,,,,,,,109,2022-05-02_15h17.13.463,FishGame,2022.1.1,59.83452164768092,
,28,나를 데려가줘,6,Green,B,0,0,ScrollDown,ScrollUp,Green.png,4,NonTarget,NonTarget,0,0,0,0,,,,,,,,,,,,,,,,,,,,,,,,,0,27,27,27,,,,,,,,,,,,,,,,,,,,,,,,,,,,,,,,,,,,,,,,,,,,,,,,,,,,,,,,,,,,,,,,,,,,,,,,,1.2685185074806213,1.1916692999657243,581.1306081999792,None,ScrollDown,정답입니다,581.1306081999792,None,581.1306081999792,None,581.1306081999792,None,581.1306081999792,None,582.218254700012,None,582.218254700012,582.7187787999865,,,,,,,,,,,,,,,,109,2022-05-02_15h17.13.463,FishGame,2022.1.1,59.83452164768092,
,29,넌 조용해,3,Green,B,4.333333333333333,4.166666666666667,ScrollUp,ScrollDown,Green.png,4,Neutral,Neutral,0,0,0,0,,,,,,,,,,,,,,,,,,,,,,,,,0,28,28,28,,,,,,,,,,,,,,,,,,,,,,,,,,,,,,,,,,,,,,,,,,,,,,,,,,,,,,,,,,,,,,,,,,,,,,,,,1.7777777860562007,0.8744802000001073,583.3553747999831,None,ScrollUp,정답입니다,583.3553747999831,None,583.3553747999831,None,583.3553747999831,None,583.3553747999831,None,584.118572300009,None,584.118572300009,584.6187504999689,,,,,,,,,,,,,,,,109,2022-05-02_15h17.13.463,FishGame,2022.1.1,59.83452164768092,
,30,넌 다정해,1,Orange,A,5.833333333333334,5.7,ScrollDown,ScrollUp,Orange.png,4,Positive,Congruent,0,0,0,0,,,,,,,,,,,,,,,,,,,,,,,,,0,29,29,29,,,,,,,,,,,,,,,,,,,,,,,,,,,,,,,,,,,,,,,,,,,,,,,,,,,,,,,,,,,,,,,,,,,,,,,,,1.2947530820965767,0.9318195999949239,585.2579739000066,None,ScrollDown,정답입니다,585.2579739000066,None,585.2579739000066,None,585.2579739000066,None,585.2579739000066,None,586.07322999998,None,586.07322999998,586.5851915999665,,,,,,,,,,,,,,,,109,2022-05-02_15h17.13.463,FishGame,2022.1.1,59.83452164768092,
,31,넌 능력있어,2,Green,B,6.166666666666666,4.6,ScrollUp,ScrollDown,Green.png,4,Positive,Incongruent,0,0,0,0,,,,,,,,,,,,,,,,,,,,,,,,,0,30,30,30,,,,,,,,,,,,,,,,,,,,,,,,,,,,,,,,,,,,,,,,,,,,,,,,,,,,,,,,,,,,,,,,,,,,,,,,,1.9614197711149852,1.038718499999959,587.2145720999688,None,ScrollUp,정답입니다,587.2145720999688,None,587.2145720999688,None,587.2145720999688,None,587.2145720999688,None,588.1517518999754,None,588.1517518999754,588.6522882999852,,,,,,,,,,,,,,,,109,2022-05-02_15h17.13.463,FishGame,2022.1.1,59.83452164768092,
,32,넌 불쾌해,5,Orange,A,2.125,1.933333333333333,ScrollDown,ScrollUp,Orange.png,4,Negative,Incongruent,0,0,0,0,,,,,,,,,,,,,,,,,,,,,,,,,0,31,31,31,,,,,,,,,,,,,,,,,,,,,,,,,,,,,,,,,,,,,,,,,,,,,,,,,,,,,,,,,,,,,,,,,,,,,,,,,1.0833333333333333,0.7997729000053369,589.286025599984,None,ScrollDown,정답입니다,589.286025599984,None,589.286025599984,None,589.286025599984,None,589.286025599984,None,589.9729364999803,None,589.9729364999803,590.4854867999675,,,,,,,,,,,,,,,,109,2022-05-02_15h17.13.463,FishGame,2022.1.1,59.83452164768092,
,33,나를 데려가줘,6,Green,B,0,0,ScrollDown,ScrollUp,Green.png,4,NonTarget,NonTarget,0,0,0,0,,,,,,,,,,,,,,,,,,,,,,,,,0,32,32,32,,,,,,,,,,,,,,,,,,,,,,,,,,,,,,,,,,,,,,,,,,,,,,,,,,,,,,,,,,,,,,,,,,,,,,,,,1.182098776102066,1.1327482999768108,591.1113289999776,None,ScrollDown,정답입니다,591.1113289999776,None,591.1113289999776,None,591.1113289999776,None,591.1113289999776,None,592.1402485999861,None,592.1402485999861,592.6521795999724,,,,,,,,,,,,,,,,109,2022-05-02_15h17.13.463,FishGame,2022.1.1,59.83452164768092,
,34,넌 유순해,3,Orange,A,4.458333333333333,5,ScrollDown,ScrollUp,Orange.png,4,Neutral,Neutral,0,0,0,0,,,,,,,,,,,,,,,,,,,,,,,,,0,33,33,33,,,,,,,,,,,,,,,,,,,,,,,,,,,,,,,,,,,,,,,,,,,,,,,,,,,,,,,,,,,,,,,,,,,,,,,,,1,0.9747606000164524,593.2851707999944,None,ScrollDown,정답입니다,593.2851707999944,None,593.2851707999944,None,593.2851707999944,None,593.2851707999944,None,594.152038500004,None,594.152038500004,594.6524812999996,,,,,,,,,,,,,,,,109,2022-05-02_15h17.13.463,FishGame,2022.1.1,59.83452164768092,
,35,넌 근심스러워,4,Green,B,2.708333333333333,3.133333333333333,ScrollUp,ScrollDown,Green.png,4,Negative,Congruent,0,0,0,0,,,,,,,,,,,,,,,,,,,,,,,,,0,34,34,34,,,,,,,,,,,,,,,,,,,,,,,,,,,,,,,,,,,,,,,,,,,,,,,,,,,,,,,,,,,,,,,,,,,,,,,,,1.787037044763565,1.0844018000061624,595.2883880999871,None,ScrollUp,정답입니다,595.2883880999871,None,595.2883880999871,None,595.2883880999871,None,595.2883880999871,None,596.2649754000013,None,596.2649754000013,596.7682544999989,,,,,,,,,,,,,,,,109,2022-05-02_15h17.13.463,FishGame,2022.1.1,59.83452164768092,
,36,넌 세련되었어,2,Orange,A,5.5,4.6,ScrollDown,ScrollUp,Orange.png,4,Positive,Congruent,0,0,0,0,,,,,,,,,,,,,,,,,,,,,,,,,0,35,35,35,,,,,,,,,,,,,,,,,,,,,,,,,,,,,,,,,,,,,,,,,,,,,,,,,,,,,,,,,,,,,,,,,,,,,,,,,1.2469135870536168,1.005658600013703,597.4187204999616,None,ScrollDown,정답입니다,597.4187204999616,None,597.4187204999616,None,597.4187204999616,None,597.4187204999616,None,598.3018941999762,None,598.3018941999762,598.8025826999801,,,,,,,,,,,,,,,,109,2022-05-02_15h17.13.463,FishGame,2022.1.1,59.83452164768092,
,37,나를 보내줘,6,Orange,A,0,0,ScrollUp,ScrollDown,Orange.png,4,NonTarget,NonTarget,0,0,0,0,,,,,,,,,,,,,,,,,,,,,,,,,0,36,36,36,,,,,,,,,,,,,,,,,,,,,,,,,,,,,,,,,,,,,,,,,,,,,,,,,,,,,,,,,,,,,,,,,,,,,,,,,1.7577160547176998,1.0727537999628112,599.433677699999,None,ScrollUp,정답입니다,599.433677699999,None,599.433677699999,None,599.433677699999,None,599.433677699999,None,600.4020997000043,None,600.4020997000043,600.902431799972,,,,,,,,,,,,,,,,109,2022-05-02_15h17.13.463,FishGame,2022.1.1,59.83452164768092,
,38,넌 확고해,3,Green,B,4.708333333333334,4.566666666666666,ScrollUp,ScrollDown,Green.png,4,Neutral,Neutral,0,0,0,0,,,,,,,,,,,,,,,,,,,,,,,,,0,37,37,37,,,,,,,,,,,,,,,,,,,,,,,,,,,,,,,,,,,,,,,,,,,,,,,,,,,,,,,,,,,,,,,,,,,,,,,,,1.6496913532416024,1.0660159999970347,601.5372300999588,None,ScrollUp,정답입니다,601.5372300999588,None,601.5372300999588,None,601.5372300999588,None,601.5372300999588,None,602.4900341999601,None,602.4900341999601,603.0027115999837,,,,,,,,,,,,,,,,109,2022-05-02_15h17.13.463,FishGame,2022.1.1,59.83452164768092,
,39,넌 이해심이 많아,1,Green,B,6.041666666666668,5.533333333333333,ScrollUp,ScrollDown,Green.png,4,Positive,Incongruent,0,0,0,0,,,,,,,,,,,,,,,,,,,,,,,,,0,38,38,38,,,,,,,,,,,,,,,,,,,,,,,,,,,,,,,,,,,,,,,,,,,,,,,,,,,,,,,,,,,,,,,,,,,,,,,,,1.7299382785956063,1.061822800023947,603.6358099000063,None,ScrollUp,정답입니다,603.6358099000063,None,603.6358099000063,None,603.6358099000063,None,603.6358099000063,None,604.5903527999762,None,604.5903527999762,605.1024526999681,,,,,,,,,,,,,,,,109,2022-05-02_15h17.13.463,FishGame,2022.1.1,59.83452164768092,
,40,나를 보내줘,6,Orange,A,0,0,ScrollUp,ScrollDown,Orange.png,4,NonTarget,NonTarget,0,0,0,0,,,,,,,,,,,,,,,,,,,,,,,,,0,39,39,39,,,,,,,,,,,,,,,,,,,,,,,,,,,,,,,,,,,,,,,,,,,,,,,,,,,,,,,,,,,,,,,,,,,,,,,,,1.7916666616996129,1.0965539999888279,605.7392631999683,None,ScrollUp,정답입니다,605.7392631999683,None,605.7392631999683,None,605.7392631999683,None,605.7392631999683,None,606.7235108999885,None,606.7235108999885,607.2356985000079,,,,,,,,,,,,,,,,109,2022-05-02_15h17.13.463,FishGame,2022.1.1,59.83452164768092,
,41,넌 거칠어,4,Orange,A,2.625,3.033333333333333,ScrollDown,ScrollUp,Orange.png,4,Negative,Incongruent,0,0,0,0,,,,,,,,,,,,,,,,,,,,,,,,,0,40,40,40,,,,,,,,,,,,,,,,,,,,,,,,,,,,,,,,,,,,,,,,,,,,,,,,,,,,,,,,,,,,,,,,,,,,,,,,,1.1697530895471573,1.0000888999784365,607.8759273999603,None,ScrollDown,정답입니다,607.8759273999603,None,607.8759273999603,None,607.8759273999603,None,607.8759273999603,None,608.7564225000096,None,608.7564225000096,609.2693965999642,,,,,,,,,,,,,,,,109,2022-05-02_15h17.13.463,FishGame,2022.1.1,59.83452164768092,
,42,넌 변덕맞아,5,Green,B,2.75,2.166666666666667,ScrollUp,ScrollDown,Green.png,4,Negative,Congruent,0,0,0,0,,,,,,,,,,,,,,,,,,,,,,,,,0,41,41,41,,,,,,,,,,,,,,,,,,,,,,,,,,,,,,,,,,,,,,,,,,,,,,,,,,,,,,,,,,,,,,,,,,,,,,,,,1.7345678955316544,1.2557095999945886,609.9160441000131,None,ScrollUp,정답입니다,609.9160441000131,None,609.9160441000131,None,609.9160441000131,None,609.9160441000131,None,611.0520437000087,None,611.0520437000087,611.5523503999575,,,,,,,,,,,,,,,,109,2022-05-02_15h17.13.463,FishGame,2022.1.1,59.83452164768092,
,43,나를 데려가줘,6,Green,B,0,0,ScrollDown,ScrollUp,Green.png,4,NonTarget,NonTarget,0,0,0,0,,,,,,,,,,,,,,,,,,,,,,,,,0,42,42,42,,,,,,,,,,,,,,,,,,,,,,,,,,,,,,,,,,,,,,,,,,,,,,,,,,,,,,,,,,,,,,,,,,,,,,,,,1.248456800977389,1.2617544999811798,612.1838592999848,None,ScrollDown,정답입니다,612.1838592999848,None,612.1838592999848,None,612.1838592999848,None,612.1838592999848,None,613.3402951000025,None,613.3402951000025,613.8522723999922,,,,,,,,,,,,,,,,109,2022-05-02_15h17.13.463,FishGame,2022.1.1,59.83452164768092,
,44,넌 외로워,4,Green,B,2.833333333333333,3.3,ScrollUp,ScrollDown,Green.png,4,Negative,Congruent,0,0,0,0,,,,,,,,,,,,,,,,,,,,,,,,,0,43,43,43,,,,,,,,,,,,,,,,,,,,,,,,,,,,,,,,,,,,,,,,,,,,,,,,,,,,,,,,,,,,,,,,,,,,,,,,,1.5216049375012517,1.005789700022433,614.4858985999599,None,NoResponse,무응답입니다,614.4858985999599,None,614.4858985999599,None,614.4858985999599,None,614.4858985999599,None,615.3794297999702,None,615.3794297999702,615.8855944999959,,,,,,,,,,,,,,,,109,2022-05-02_15h17.13.463,FishGame,2022.1.1,59.83452164768092,
,1,넌 불평스러워,5,Orange,A,2.25,2.066666666666667,ScrollDown,ScrollUp,Orange.png,5,Negative,Incongruent,0,0,0,0,,,,,,,,,,,,,,,,,,,,,,,,,,,,,0,0,0,0,,,,,,,,,,,,,,,,,,,,,,,,,,,,648.6532015000121,650.1530701000011,650.1866109999828,651.1371163000003,651.186590199999,652.1366378999664,652.1366378999664,None,,,,,,,,,,,,,,,,,,,,,,,,,,,,,,,,,,1.2932098805904388,1.2041021999903023,653.2930773000116,None,ScrollDown,정답입니다,653.2930773000116,None,653.2930773000116,None,653.2930773000116,None,653.2930773000116,None,654.3314885,None,654.3314885,654.8364816000103,616.3860954999691,None,616.3860954999691,None,0.094444446,-0.11388889,1,0,0,0.016233260044828057,None,646.3869180000038,None,,,109,2022-05-02_15h17.13.463,FishGame,2022.1.1,59.83452164768092,
,2,나를 보내줘,6,Orange,A,0,0,ScrollUp,ScrollDown,Orange.png,5,NonTarget,NonTarget,0,0,0,0,,,,,,,,,,,,,,,,,,,,,,,,,,,,,0,1,1,1,,,,,,,,,,,,,,,,,,,,,,,,,,,,,,,,,,,,,,,,,,,,,,,,,,,,,,,,,,,,,,,,,,,,,1.6033950597047806,1.1599883000017144,655.4673371000099,None,ScrollUp,정답입니다,655.4673371000099,None,655.4673371000099,None,655.4673371000099,None,655.4673371000099,None,656.5221510999836,None,656.5221510999836,657.0372489999863,,,,,,,,,,,,,,,,109,2022-05-02_15h17.13.463,FishGame,2022.1.1,59.83452164768092,
,3,넌 다재다능해,2,Green,B,6.208333333333333,4.5,ScrollUp,ScrollDown,Green.png,5,Positive,Incongruent,0,0,0,0,,,,,,,,,,,,,,,,,,,,,,,,,,,,,0,2,2,2,,,,,,,,,,,,,,,,,,,,,,,,,,,,,,,,,,,,,,,,,,,,,,,,,,,,,,,,,,,,,,,,,,,,,1.594135800997416,0.9083235999569297,657.6647647999926,None,ScrollUp,정답입니다,657.6647647999926,None,657.6647647999926,None,657.6647647999926,None,657.6647647999926,None,658.4697865999769,None,658.4697865999769,658.9700201000087,,,,,,,,,,,,,,,,109,2022-05-02_15h17.13.463,FishGame,2022.1.1,59.83452164768092,
,4,넌 과감해,3,Orange,A,4.833333333333334,4.6,ScrollDown,ScrollUp,Orange.png,5,Neutral,Neutral,0,0,0,0,,,,,,,,,,,,,,,,,,,,,,,,,,,,,0,3,3,3,,,,,,,,,,,,,,,,,,,,,,,,,,,,,,,,,,,,,,,,,,,,,,,,,,,,,,,,,,,,,,,,,,,,,1.1234567960103352,0.8655177000327967,659.6072007999755,None,ScrollDown,정답입니다,659.6072007999755,None,659.6072007999755,None,659.6072007999755,None,659.6072007999755,None,660.3582510999986,None,660.3582510999986,660.8702890999848,,,,,,,,,,,,,,,,109,2022-05-02_15h17.13.463,FishGame,2022.1.1,59.83452164768092,
,5,넌 고분고분해,3,Green,B,3.75,4.033333333333333,ScrollUp,ScrollDown,Green.png,5,Neutral,Neutral,0,0,0,0,,,,,,,,,,,,,,,,,,,,,,,,,,,,,0,4,4,4,,,,,,,,,,,,,,,,,,,,,,,,,,,,,,,,,,,,,,,,,,,,,,,,,,,,,,,,,,,,,,,,,,,,,1.6759259278575578,0.9014030999969691,661.5095456999843,None,ScrollUp,정답입니다,661.5095456999843,None,661.5095456999843,None,661.5095456999843,None,661.5095456999843,None,662.291239299986,None,662.291239299986,662.802991900011,,,,,,,,,,,,,,,,109,2022-05-02_15h17.13.463,FishGame,2022.1.1,59.83452164768092,
,6,나를 보내줘,6,Orange,A,0,0,ScrollUp,ScrollDown,Orange.png,5,NonTarget,NonTarget,0,0,0,0,,,,,,,,,,,,,,,,,,,,,,,,,,,,,0,5,5,5,,,,,,,,,,,,,,,,,,,,,,,,,,,,,,,,,,,,,,,,,,,,,,,,,,,,,,,,,,,,,,,,,,,,,1.6311728358268738,1.133815200009849,663.4360023000045,None,ScrollUp,정답입니다,663.4360023000045,None,663.4360023000045,None,663.4360023000045,None,663.4360023000045,None,664.4576317999745,None,664.4576317999745,664.9699596000137,,,,,,,,,,,,,,,,109,2022-05-02_15h17.13.463,FishGame,2022.1.1,59.83452164768092,
,7,넌 잘 잊어,4,Orange,A,3,3.7,ScrollDown,ScrollUp,Orange.png,5,Negative,Incongruent,0,0,0,0,,,,,,,,,,,,,,,,,,,,,,,,,,,,,0,6,6,6,,,,,,,,,,,,,,,,,,,,,,,,,,,,,,,,,,,,,,,,,,,,,,,,,,,,,,,,,,,,,,,,,,,,,1.1280864129463832,0.9451379000092857,665.6111668999656,None,ScrollDown,정답입니다,665.6111668999656,None,665.6111668999656,None,665.6111668999656,None,665.6111668999656,None,666.4404486999847,None,666.4404486999847,666.9533506999724,,,,,,,,,,,,,,,,109,2022-05-02_15h17.13.463,FishGame,2022.1.1,59.83452164768092,
,8,넌 탐구심이없어,4,Green,B,2.833333333333333,3.066666666666667,ScrollUp,ScrollDown,Green.png,5,Negative,Congruent,0,0,0,0,,,,,,,,,,,,,,,,,,,,,,,,,,,,,0,7,7,7,,,,,,,,,,,,,,,,,,,,,,,,,,,,,,,,,,,,,,,,,,,,,,,,,,,,,,,,,,,,,,,,,,,,,1.878086417913437,1.189037800009828,667.5892806999618,None,ScrollUp,정답입니다,667.5892806999618,None,667.5892806999618,None,667.5892806999618,None,667.5892806999618,None,668.6700347000151,None,668.6700347000151,669.1705714999698,,,,,,,,,,,,,,,,109,2022-05-02_15h17.13.463,FishGame,2022.1.1,59.83452164768092,
,9,나를 데려가줘,6,Green,B,0,0,ScrollDown,ScrollUp,Green.png,5,NonTarget,NonTarget,0,0,0,0,,,,,,,,,,,,,,,,,,,,,,,,,,,,,0,8,8,8,,,,,,,,,,,,,,,,,,,,,,,,,,,,,,,,,,,,,,,,,,,,,,,,,,,,,,,,,,,,,,,,,,,,,1.095679019888242,1.0921001000097021,669.797020900005,None,ScrollDown,정답입니다,669.797020900005,None,669.797020900005,None,669.797020900005,None,669.797020900005,None,670.7865231999895,None,670.7865231999895,671.2871935999719,,,,,,,,,,,,,,,,109,2022-05-02_15h17.13.463,FishGame,2022.1.1,59.83452164768092,
,10,넌 참되어,2,Orange,A,6.041666666666664,4.733333333333333,ScrollDown,ScrollUp,Orange.png,5,Positive,Congruent,0,0,0,0,,,,,,,,,,,,,,,,,,,,,,,,,,,,,0,9,9,9,,,,,,,,,,,,,,,,,,,,,,,,,,,,,,,,,,,,,,,,,,,,,,,,,,,,,,,,,,,,,,,,,,,,,1.1882716069618862,1.1808877000003122,671.9270417999942,None,ScrollDown,정답입니다,671.9270417999942,None,671.9270417999942,None,671.9270417999942,None,671.9270417999942,None,672.9911807999597,None,672.9911807999597,673.5035379999899,,,,,,,,,,,,,,,,109,2022-05-02_15h17.13.463,FishGame,2022.1.1,59.83452164768092,
,11,넌 생기있어,1,Green,B,5.875,5.633333333333334,ScrollUp,ScrollDown,Green.png,5,Positive,Incongruent,0,0,0,0,,,,,,,,,,,,,,,,,,,,,,,,,,,,,0,10,10,10,,,,,,,,,,,,,,,,,,,,,,,,,,,,,,,,,,,,,,,,,,,,,,,,,,,,,,,,,,,,,,,,,,,,,2,1.0528361999895424,674.1402326999814,None,ScrollUp,정답입니다,674.1402326999814,None,674.1402326999814,None,674.1402326999814,None,674.1402326999814,None,675.0835579999839,None,675.0835579999839,675.5870617000037,,,,,,,,,,,,,,,,109,2022-05-02_15h17.13.463,FishGame,2022.1.1,59.83452164768092,
,12,넌 비사교적이야,4,Green,B,2.875,2.9,ScrollUp,ScrollDown,Green.png,5,Negative,Congruent,0,0,0,0,,,,,,,,,,,,,,,,,,,,,,,,,,,,,0,11,11,11,,,,,,,,,,,,,,,,,,,,,,,,,,,,,,,,,,,,,,,,,,,,,,,,,,,,,,,,,,,,,,,,,,,,,1.544753085821867,0.9337000999948941,676.2170561999665,None,NoResponse,무응답입니다,676.2170561999665,None,676.2170561999665,None,676.2170561999665,None,676.2170561999665,None,677.0430926000117,None,677.0430926000117,677.5538701000041,,,,,,,,,,,,,,,,109,2022-05-02_15h17.13.463,FishGame,2022.1.1,59.83452164768092,
,13,나를 데려가줘,6,Green,B,0,0,ScrollDown,ScrollUp,Green.png,5,NonTarget,NonTarget,0,0,0,0,,,,,,,,,,,,,,,,,,,,,,,,,,,,,0,12,12,12,,,,,,,,,,,,,,,,,,,,,,,,,,,,,,,,,,,,,,,,,,,,,,,,,,,,,,,,,,,,,,,,,,,,,1.0987654229005177,1.3508096999721602,678.1839514999883,None,ScrollDown,정답입니다,678.1839514999883,None,678.1839514999883,None,678.1839514999883,None,678.1839514999883,None,679.426270099997,None,679.426270099997,679.9369238999789,,,,,,,,,,,,,,,,109,2022-05-02_15h17.13.463,FishGame,2022.1.1,59.83452164768092,
,14,넌 고독해,4,Orange,A,2.916666666666667,3.233333333333333,ScrollDown,ScrollUp,Orange.png,5,Negative,Incongruent,0,0,0,0,,,,,,,,,,,,,,,,,,,,,,,,,,,,,0,13,13,13,,,,,,,,,,,,,,,,,,,,,,,,,,,,,,,,,,,,,,,,,,,,,,,,,,,,,,,,,,,,,,,,,,,,,1.3024691392978034,0.9704519000370055,680.5751421999885,None,ScrollDown,정답입니다,680.5751421999885,None,680.5751421999885,None,680.5751421999885,None,680.5751421999885,None,681.4370257999981,None,681.4370257999981,681.9371512999642,,,,,,,,,,,,,,,,109,2022-05-02_15h17.13.463,FishGame,2022.1.1,59.83452164768092,
,15,넌 신경질적이야,5,Green,B,2.375,2.233333333333333,ScrollUp,ScrollDown,Green.png,5,Negative,Congruent,0,0,0,0,,,,,,,,,,,,,,,,,,,,,,,,,,,,,0,14,14,14,,,,,,,,,,,,,,,,,,,,,,,,,,,,,,,,,,,,,,,,,,,,,,,,,,,,,,,,,,,,,,,,,,,,,1.7546296268701553,1.0670245999936014,682.5734813999734,None,ScrollUp,정답입니다,682.5734813999734,None,682.5734813999734,None,682.5734813999734,None,682.5734813999734,None,683.5248492999817,None,683.5248492999817,684.0374269000022,,,,,,,,,,,,,,,,109,2022-05-02_15h17.13.463,FishGame,2022.1.1,59.83452164768092,
,16,넌 똑똑해,2,Green,B,5.666666666666667,3.966666666666667,ScrollUp,ScrollDown,Green.png,5,Positive,Incongruent,0,0,0,0,,,,,,,,,,,,,,,,,,,,,,,,,,,,,0,15,15,15,,,,,,,,,,,,,,,,,,,,,,,,,,,,,,,,,,,,,,,,,,,,,,,,,,,,,,,,,,,,,,,,,,,,,2,1.1389057000051253,684.6698272000067,None,ScrollUp,정답입니다,684.6698272000067,None,684.6698272000067,None,684.6698272000067,None,684.6698272000067,None,685.7035906999954,None,685.7035906999954,686.2034175999579,,,,,,,,,,,,,,,,109,2022-05-02_15h17.13.463,FishGame,2022.1.1,59.83452164768092,
,17,나를 보내줘,6,Orange,A,0,0,ScrollUp,ScrollDown,Orange.png,5,NonTarget,NonTarget,0,0,0,0,,,,,,,,,,,,,,,,,,,,,,,,,,,,,0,16,16,16,,,,,,,,,,,,,,,,,,,,,,,,,,,,,,,,,,,,,,,,,,,,,,,,,,,,,,,,,,,,,,,,,,,,,1.9891975224018097,1.2658002999960445,686.8409074000083,None,ScrollUp,정답입니다,686.8409074000083,None,686.8409074000083,None,686.8409074000083,None,686.8409074000083,None,687.9916949999752,None,687.9916949999752,688.5038925000117,,,,,,,,,,,,,,,,109,2022-05-02_15h17.13.463,FishGame,2022.1.1,59.83452164768092,
,18,넌 협조적이야,1,Orange,A,5.625,5.666666666666667,ScrollDown,ScrollUp,Orange.png,5,Positive,Congruent,0,0,0,0,,,,,,,,,,,,,,,,,,,,,,,,,,,,,0,17,17,17,,,,,,,,,,,,,,,,,,,,,,,,,,,,,,,,,,,,,,,,,,,,,,,,,,,,,,,,,,,,,,,,,,,,,1.2083333383003871,0.9581954999594018,689.1358653999632,None,ScrollDown,정답입니다,689.1358653999632,None,689.1358653999632,None,689.1358653999632,None,689.1358653999632,None,689.9869978000061,None,689.9869978000061,690.4872371999663,,,,,,,,,,,,,,,,109,2022-05-02_15h17.13.463,FishGame,2022.1.1,59.83452164768092,
,19,나를 데려가줘,6,Green,B,0,0,ScrollDown,ScrollUp,Green.png,5,NonTarget,NonTarget,0,0,0,0,,,,,,,,,,,,,,,,,,,,,,,,,,,,,0,18,18,18,,,,,,,,,,,,,,,,,,,,,,,,,,,,,,,,,,,,,,,,,,,,,,,,,,,,,,,,,,,,,,,,,,,,,1.0910493781169255,1.1826722999685444,691.120065999974,None,ScrollDown,정답입니다,691.120065999974,None,691.120065999974,None,691.120065999974,None,691.120065999974,None,692.1915191999869,None,692.1915191999869,692.7042887000134,,,,,,,,,,,,,,,,109,2022-05-02_15h17.13.463,FishGame,2022.1.1,59.83452164768092,
,20,넌 몰인정해,5,Green,B,2.541666666666667,2.066666666666667,ScrollUp,ScrollDown,Green.png,5,Negative,Congruent,0,0,0,0,,,,,,,,,,,,,,,,,,,,,,,,,,,,,0,19,19,19,,,,,,,,,,,,,,,,,,,,,,,,,,,,,,,,,,,,,,,,,,,,,,,,,,,,,,,,,,,,,,,,,,,,,1.7546296268701553,0.9396979999728501,693.3473067999585,None,ScrollUp,정답입니다,693.3473067999585,None,693.3473067999585,None,693.3473067999585,None,693.3473067999585,None,694.1703917999985,None,694.1703917999985,694.6707543999655,,,,,,,,,,,,,,,,109,2022-05-02_15h17.13.463,FishGame,2022.1.1,59.83452164768092,
,21,나를 데려가줘,6,Green,B,0,0,ScrollDown,ScrollUp,Green.png,5,NonTarget,NonTarget,0,0,0,0,,,,,,,,,,,,,,,,,,,,,,,,,,,,,0,20,20,20,,,,,,,,,,,,,,,,,,,,,,,,,,,,,,,,,,,,,,,,,,,,,,,,,,,,,,,,,,,,,,,,,,,,,1.1388888855775197,1.1093355999910273,695.3038202999742,None,ScrollDown,정답입니다,695.3038202999742,None,695.3038202999742,None,695.3038202999742,None,695.3038202999742,None,696.303992000001,None,696.303992000001,696.8045147999655,,,,,,,,,,,,,,,,109,2022-05-02_15h17.13.463,FishGame,2022.1.1,59.83452164768092,
,22,넌 순진해,3,Green,B,4.125,4.166666666666667,ScrollUp,ScrollDown,Green.png,5,Neutral,Neutral,0,0,0,0,,,,,,,,,,,,,,,,,,,,,,,,,,,,,0,21,21,21,,,,,,,,,,,,,,,,,,,,,,,,,,,,,,,,,,,,,,,,,,,,,,,,,,,,,,,,,,,,,,,,,,,,,1.9382716119289398,1.041454199992586,697.4318558999803,None,ScrollUp,정답입니다,697.4318558999803,None,697.4318558999803,None,697.4318558999803,None,697.4318558999803,None,698.3706643999903,None,698.3706643999903,698.8711118999636,,,,,,,,,,,,,,,,109,2022-05-02_15h17.13.463,FishGame,2022.1.1,59.83452164768092,
