name,TrialNum,Word,WordCategory,FishType,WordList,WordValence,WordReputation,CorrectResp,IncorrectResp,FishTypeFile,Round,WordType,Condition,LoopforOrange.thisRepN,LoopforOrange.thisTrialN,LoopforOrange.thisN,LoopforOrange.thisIndex,LoopForGreen.thisRepN,LoopForGreen.thisTrialN,LoopForGreen.thisN,LoopForGreen.thisIndex,GreenInstLoop.thisRepN,GreenInstLoop.thisTrialN,GreenInstLoop.thisN,GreenInstLoop.thisIndex,GreenPrac.thisRepN,GreenPrac.thisTrialN,GreenPrac.thisN,GreenPrac.thisIndex,trials_2.thisRepN,trials_2.thisTrialN,trials_2.thisN,trials_2.thisIndex,GreenRound1.thisRepN,GreenRound1.thisTrialN,GreenRound1.thisN,GreenRound1.thisIndex,GreenRound2.thisRepN,GreenRound2.thisTrialN,GreenRound2.thisN,GreenRound2.thisIndex,GreenRound3.thisRepN,GreenRound3.thisTrialN,GreenRound3.thisN,GreenRound3.thisIndex,GreenRound4.thisRepN,GreenRound4.thisTrialN,GreenRound4.thisN,GreenRound4.thisIndex,GreenRound5.thisRepN,GreenRound5.thisTrialN,GreenRound5.thisN,GreenRound5.thisIndex,text_2.started,text_2.stopped,text_3.started,text_3.stopped,key_resp.keys,key_resp.rt,key_resp.started,key_resp.stopped,PassI.started,PassI.stopped,PassInst.keys,PassInst.rt,PassInst.started,PassInst.stopped,mouse_2.x,mouse_2.y,mouse_2.leftButton,mouse_2.midButton,mouse_2.rightButton,mouse_2.started,mouse_2.stopped,image.started,image.stopped,text_5.started,text_5.stopped,text_6.started,text_6.stopped,text_7.started,text_7.stopped,text_8.started,text_8.stopped,slider_3.response,slider_3.rt,slider_3.started,slider_3.stopped,Response_3,Feedback_3,BackGround_3.started,BackGround_3.stopped,Fish_3.started,Fish_3.stopped,WordBox_3.started,WordBox_3.stopped,Words_3.started,Words_3.stopped,BackGround_Feedback_3.started,BackGround_Feedback_3.stopped,Feedbacks_3.started,Feedbacks_3.stopped,Continue_or_not_2.keys,Continue_or_not_2.rt,Continue_or_not_2.started,Continue_or_not_2.stopped,image_4.started,image_4.stopped,mouse_3.x,mouse_3.y,mouse_3.leftButton,mouse_3.midButton,mouse_3.rightButton,mouse_3.started,mouse_3.stopped,startmain.started,startmain.stopped,slider_4.response,slider_4.rt,slider_4.started,slider_4.stopped,Response_4,Feedback_4,BackGround_4.started,BackGround_4.stopped,Fish_4.started,Fish_4.stopped,WordBox_4.started,WordBox_4.stopped,Words_4.started,Words_4.stopped,BackGround_Feedback_4.started,BackGround_Feedback_4.stopped,Feedbacks_4.started,Feedbacks_4.stopped,text.started,text.stopped,break_interval.started,break_interval.stopped,mouse.x,mouse.y,mouse.leftButton,mouse.midButton,mouse.rightButton,mouse.started,mouse.stopped,stratnextround.started,stratnextround.stopped,endgame.started,endgame.stopped,participant,date,expName,psychopyVersion,frameRate,
,,,,,,,,,,,,,,,,,,,,,,,,,,,,,,,,,,,,,,,,,,,,,,,,,,,,,,30.07977130000654,None,30.07977130000654,None,space,11.00404929999786,30.53269000000728,None,,,,,,,,,,,,,,,,,,,,,,,,,,,,,,,,,,,,,,,,,,,,,,,,,,,,,,,,,,,,,,,,,,,,,,,,,,,,,,,,,,,,,,,,,,110,2022-05-03_16h43.10.489,FishGame,2022.1.1,60.17462676908364,
물고기과제_instruction(참가자용)GreenVersion.mp4,,,,,,,,,,,,,,,,,,0,0,0,0,0,0,0,0,,,,,,,,,,,,,,,,,,,,,,,,,,,,,,,,,,,,,108.6296127000096,None,n,5.493791200002306,108.6296127000096,None,,,,,,,,,,,,,,,,,,,,,,,,,,,,,,,,,,,,,,,,,,,,,,,,,,,,,,,,,,,,,,,,,,,,,,,,,,,,,,,,,,,,110,2022-05-03_16h43.10.489,FishGame,2022.1.1,60.17462676908364,
,1,넌 교활해,5,Orange,B,2.333333333333333,2.133333333333333,ScrollUp,ScrollDown,Orange.png,practice,,,,,,,0,0,0,0,,,,,0,0,0,0,0,0,0,0,,,,,,,,,,,,,,,,,,,,,,,,,,,,,,,,,,,0.062962964,-0.19351852,1,0,0,0.5135198800126091,None,114.15106380000361,None,132.08499660000962,133.58449459999974,133.6181154000078,134.56859500000428,134.6179681000067,135.5685211000091,135.5685211000091,None,2,1.4577904999896418,136.73291420000896,None,ScrollUp,정답입니다,136.73291420000896,None,136.73291420000896,None,136.73291420000896,None,136.73291420000896,None,138.01953479999793,None,138.01953479999793,138.5348374000023,,,,,,,,,,,,,,,,,,,,,,,,,,,,,,,,,,,,,,,,,,,,,,,,,110,2022-05-03_16h43.10.489,FishGame,2022.1.1,60.17462676908364,
,2,넌 슬기로워,2,Green,A,6.166666666666667,4.1,ScrollDown,ScrollUp,Green.png,practice,,,,,,,0,0,0,0,,,,,0,0,0,0,0,1,1,1,,,,,,,,,,,,,,,,,,,,,,,,,,,,,,,,,,,,,,,,,,,,,,,,,,,,1,1.1100406000041403,139.1590470000083,None,ScrollDown,정답입니다,139.1590470000083,None,139.1590470000083,None,139.1590470000083,None,139.1590470000083,None,140.15126680000685,None,140.15126680000685,140.65169840000453,,,,,,,,,,,,,,,,,,,,,,,,,,,,,,,,,,,,,,,,,,,,,,,,,110,2022-05-03_16h43.10.489,FishGame,2022.1.1,60.17462676908364,
,3,나를 보내줘,6,Green,A,0,0,ScrollUp,ScrollDown,Green.png,practice,,,,,,,0,0,0,0,,,,,0,0,0,0,0,2,2,2,,,,,,,,,,,,,,,,,,,,,,,,,,,,,,,,,,,,,,,,,,,,,,,,,,,,2,1.3456268000009004,141.2825073999993,None,ScrollUp,정답입니다,141.2825073999993,None,141.2825073999993,None,141.2825073999993,None,141.2825073999993,None,142.51811669999734,None,142.51811669999734,143.01855010000872,,,,,,,,,,,,,,,,,,,,,,,,,,,,,,,,,,,,,,,,,,,,,,,,,110,2022-05-03_16h43.10.489,FishGame,2022.1.1,60.17462676908364,
,4,나를 데려가줘,6,Orange,B,0,0,ScrollDown,ScrollUp,Orange.png,practice,,,,,,,0,0,0,0,,,,,0,0,0,0,0,3,3,3,,,,,,,,,,,,,,,,,,,,,,,,,,,,,,,,,,,,,,,,,,,,,,,,,,,,1,1.337219399996684,143.65287669999816,None,ScrollDown,정답입니다,143.65287669999816,None,143.65287669999816,None,143.65287669999816,None,143.65287669999816,None,144.88304939999944,None,144.88304939999944,145.38487110000278,,,,,,,,,,,,,,,,,,,,,,,,,,,,,,,,,,,,,,,,,,,,,,,,,110,2022-05-03_16h43.10.489,FishGame,2022.1.1,60.17462676908364,
,1,넌 교활해,5,Orange,B,2.333333333333333,2.133333333333333,ScrollUp,ScrollDown,Orange.png,practice,,,,,,,0,0,0,0,,,,,0,0,0,0,,,,,,,,,,,,,,,,,,,,,,,,,,,,,,,,,,,,,,,,,,,,,,,,,,,,,,,,,,,,,,,,,,,,,,,,,,n,15.440933299993048,145.8849377000006,None,145.8849377000006,None,,,,,,,,,,,,,,,,,,,,,,,,,,,,,,,,,,,,,,,,,,,110,2022-05-03_16h43.10.489,FishGame,2022.1.1,60.17462676908364,
,1,넌 따뜻해,1,Orange,B,6.083333333333333,5.6,ScrollUp,ScrollDown,Orange.png,1,Positive,Incongruent,,,,,0,0,0,0,,,,,,,,,,,,,0,0,0,0,,,,,,,,,,,,,,,,,,,,,,,,,,,,,,,,,,,,,,,,163.41904120000254,164.91906030000246,164.9519250000012,165.9024672000087,165.95215320000716,166.90231970000605,166.90231970000605,None,,,,,,,,,,,,,,,,,,,,,,,,,0.11666667,-0.15092592,1,0,0,0.3136196800041944,None,161.3516754000011,None,2,1.3816714999993565,168.06648150000547,None,ScrollUp,정답입니다,168.06648150000547,None,168.06648150000547,None,168.06648150000547,None,168.06648150000547,None,169.28224749999936,None,169.28224749999936,169.7856160000083,,,,,,,,,,,,,,,,110,2022-05-03_16h43.10.489,FishGame,2022.1.1,60.17462676908364,
,2,넌 기품있어,2,Orange,B,5.791666666666668,4.5,ScrollUp,ScrollDown,Orange.png,1,Positive,Incongruent,,,,,0,0,0,0,,,,,,,,,,,,,0,1,1,1,,,,,,,,,,,,,,,,,,,,,,,,,,,,,,,,,,,,,,,,,,,,,,,,,,,,,,,,,,,,,,,,,,,,,,,,,,,,,,,,,1.785493830839793,1.0182043999957386,170.43137550000392,None,ScrollUp,정답입니다,170.43137550000392,None,170.43137550000392,None,170.43137550000392,None,170.43137550000392,None,171.3235879999993,None,171.3235879999993,171.83576060000632,,,,,,,,,,,,,,,,110,2022-05-03_16h43.10.489,FishGame,2022.1.1,60.17462676908364,
,3,나를 보내줘,6,Green,A,0,0,ScrollUp,ScrollDown,Green.png,1,NonTarget,NonTarget,,,,,0,0,0,0,,,,,,,,,,,,,0,2,2,2,,,,,,,,,,,,,,,,,,,,,,,,,,,,,,,,,,,,,,,,,,,,,,,,,,,,,,,,,,,,,,,,,,,,,,,,,,,,,,,,,2,1.3675208000058774,172.47281420000945,None,ScrollUp,정답입니다,172.47281420000945,None,172.47281420000945,None,172.47281420000945,None,172.47281420000945,None,173.72275990000344,None,173.72275990000344,174.23555009999836,,,,,,,,,,,,,,,,110,2022-05-03_16h43.10.489,FishGame,2022.1.1,60.17462676908364,
,4,넌 수동적이야,4,Green,A,2.833333333333333,2.933333333333333,ScrollDown,ScrollUp,Green.png,1,Negative,Incongruent,,,,,0,0,0,0,,,,,,,,,,,,,0,3,3,3,,,,,,,,,,,,,,,,,,,,,,,,,,,,,,,,,,,,,,,,,,,,,,,,,,,,,,,,,,,,,,,,,,,,,,,,,,,,,,,,,1,1.2897570000059204,174.8785387000098,None,ScrollDown,정답입니다,174.8785387000098,None,174.8785387000098,None,174.8785387000098,None,174.8785387000098,None,176.05022530000133,None,176.05022530000133,176.55238290000125,,,,,,,,,,,,,,,,110,2022-05-03_16h43.10.489,FishGame,2022.1.1,60.17462676908364,
,5,넌 사심이 없어,3,Orange,B,4.916666666666666,4.333333333333333,ScrollUp,ScrollDown,Orange.png,1,Neutral,Neutral,,,,,0,0,0,0,,,,,,,,,,,,,0,4,4,4,,,,,,,,,,,,,,,,,,,,,,,,,,,,,,,,,,,,,,,,,,,,,,,,,,,,,,,,,,,,,,,,,,,,,,,,,,,,,,,,,1.9660493632157643,1.0185729999939213,177.19505500000378,None,ScrollUp,정답입니다,177.19505500000378,None,177.19505500000378,None,177.19505500000378,None,177.19505500000378,None,178.09034110000357,None,178.09034110000357,178.6022193999961,,,,,,,,,,,,,,,,110,2022-05-03_16h43.10.489,FishGame,2022.1.1,60.17462676908364,
,6,넌 헤퍼,5,Green,A,2.458333333333334,2.233333333333333,ScrollDown,ScrollUp,Green.png,1,Negative,Incongruent,,,,,0,0,0,0,,,,,,,,,,,,,0,5,5,5,,,,,,,,,,,,,,,,,,,,,,,,,,,,,,,,,,,,,,,,,,,,,,,,,,,,,,,,,,,,,,,,,,,,,,,,,,,,,,,,,1.140432099501292,1.250555999999051,179.2340450000047,None,ScrollDown,정답입니다,179.2340450000047,None,179.2340450000047,None,179.2340450000047,None,179.2340450000047,None,180.37326670000039,None,180.37326670000039,180.88579100000788,,,,,,,,,,,,,,,,110,2022-05-03_16h43.10.489,FishGame,2022.1.1,60.17462676908364,
,7,넌 말쑥해,3,Green,A,4.833333333333334,4.333333333333333,ScrollDown,ScrollUp,Green.png,1,Neutral,Neutral,,,,,0,0,0,0,,,,,,,,,,,,,0,6,6,6,,,,,,,,,,,,,,,,,,,,,,,,,,,,,,,,,,,,,,,,,,,,,,,,,,,,,,,,,,,,,,,,,,,,,,,,,,,,,,,,,1,1.0526727999967989,181.51896120001038,None,ScrollDown,정답입니다,181.51896120001038,None,181.51896120001038,None,181.51896120001038,None,181.51896120001038,None,182.46697960000893,None,182.46697960000893,182.9693178000016,,,,,,,,,,,,,,,,110,2022-05-03_16h43.10.489,FishGame,2022.1.1,60.17462676908364,
,8,넌 투덜거려,5,Orange,B,2.541666666666667,2.266666666666667,ScrollUp,ScrollDown,Orange.png,1,Negative,Congruent,,,,,0,0,0,0,,,,,,,,,,,,,0,7,7,7,,,,,,,,,,,,,,,,,,,,,,,,,,,,,,,,,,,,,,,,,,,,,,,,,,,,,,,,,,,,,,,,,,,,,,,,,,,,,,,,,1.8672839452823002,1.0353529999993043,183.61309270000493,None,ScrollUp,정답입니다,183.61309270000493,None,183.61309270000493,None,183.61309270000493,None,183.61309270000493,None,184.52378879999742,None,184.52378879999742,185.0359196000063,,,,,,,,,,,,,,,,110,2022-05-03_16h43.10.489,FishGame,2022.1.1,60.17462676908364,
,9,넌 적극적이야,1,Green,A,5.708333333333333,5.533333333333333,ScrollDown,ScrollUp,Green.png,1,Positive,Congruent,,,,,0,0,0,0,,,,,,,,,,,,,0,8,8,8,,,,,,,,,,,,,,,,,,,,,,,,,,,,,,,,,,,,,,,,,,,,,,,,,,,,,,,,,,,,,,,,,,,,,,,,,,,,,,,,,1.1296296268701553,1.130130100005772,185.6676690000022,None,ScrollDown,정답입니다,185.6676690000022,None,185.6676690000022,None,185.6676690000022,None,185.6676690000022,None,186.68562070000917,None,186.68562070000917,187.18545269999595,,,,,,,,,,,,,,,,110,2022-05-03_16h43.10.489,FishGame,2022.1.1,60.17462676908364,
,10,넌 재미없어,4,Orange,B,2.625,2.966666666666667,ScrollUp,ScrollDown,Orange.png,1,Negative,Congruent,,,,,0,0,0,0,,,,,,,,,,,,,0,9,9,9,,,,,,,,,,,,,,,,,,,,,,,,,,,,,,,,,,,,,,,,,,,,,,,,,,,,,,,,,,,,,,,,,,,,,,,,,,,,,,,,,1.9938271641731262,0.9729063000122551,187.82461080000212,None,ScrollUp,정답입니다,187.82461080000212,None,187.82461080000212,None,187.82461080000212,None,187.82461080000212,None,188.68423320000875,None,188.68423320000875,189.18635910000012,,,,,,,,,,,,,,,,110,2022-05-03_16h43.10.489,FishGame,2022.1.1,60.17462676908364,
,11,넌 명석해,2,Green,A,5.875,4.033333333333333,ScrollDown,ScrollUp,Green.png,1,Positive,Congruent,,,,,0,0,0,0,,,,,,,,,,,,,0,10,10,10,,,,,,,,,,,,,,,,,,,,,,,,,,,,,,,,,,,,,,,,,,,,,,,,,,,,,,,,,,,,,,,,,,,,,,,,,,,,,,,,,1.0910493781169255,0.9772092000057455,189.81664720000117,None,ScrollDown,정답입니다,189.81664720000117,None,189.81664720000117,None,189.81664720000117,None,189.81664720000117,None,190.68628880000324,None,190.68628880000324,191.18603840000287,,,,,,,,,,,,,,,,110,2022-05-03_16h43.10.489,FishGame,2022.1.1,60.17462676908364,
,12,나를 데려가줘,6,Orange,B,0,0,ScrollDown,ScrollUp,Orange.png,1,NonTarget,NonTarget,,,,,0,0,0,0,,,,,,,,,,,,,0,11,11,11,,,,,,,,,,,,,,,,,,,,,,,,,,,,,,,,,,,,,,,,,,,,,,,,,,,,,,,,,,,,,,,,,,,,,,,,,,,,,,,,,1.0077160497506459,1.2418246000015642,191.82403540000087,None,ScrollDown,정답입니다,191.82403540000087,None,191.82403540000087,None,191.82403540000087,None,191.82403540000087,None,192.9523249000049,None,192.9523249000049,193.45279819999996,,,,,,,,,,,,,,,,110,2022-05-03_16h43.10.489,FishGame,2022.1.1,60.17462676908364,
,13,넌 소심해,4,Green,A,3,3.1,ScrollDown,ScrollUp,Green.png,1,Negative,Incongruent,,,,,0,0,0,0,,,,,,,,,,,,,0,12,12,12,,,,,,,,,,,,,,,,,,,,,,,,,,,,,,,,,,,,,,,,,,,,,,,,,,,,,,,,,,,,,,,,,,,,,,,,,,,,,,,,,1.1234567960103352,1.249353000006522,194.0825724000024,None,ScrollDown,정답입니다,194.0825724000024,None,194.0825724000024,None,194.0825724000024,None,194.0825724000024,None,195.22381609999866,None,195.22381609999866,195.73622340000293,,,,,,,,,,,,,,,,110,2022-05-03_16h43.10.489,FishGame,2022.1.1,60.17462676908364,
,14,넌 합리적이야,2,Green,A,5.583333333333333,4.733333333333333,ScrollDown,ScrollUp,Green.png,1,Positive,Congruent,,,,,0,0,0,0,,,,,,,,,,,,,0,13,13,13,,,,,,,,,,,,,,,,,,,,,,,,,,,,,,,,,,,,,,,,,,,,,,,,,,,,,,,,,,,,,,,,,,,,,,,,,,,,,,,,,1.0046296219031017,1.009285699998145,196.37354260000575,None,ScrollDown,정답입니다,196.37354260000575,None,196.37354260000575,None,196.37354260000575,None,196.37354260000575,None,197.26958279999963,None,197.26958279999963,197.7692956999963,,,,,,,,,,,,,,,,110,2022-05-03_16h43.10.489,FishGame,2022.1.1,60.17462676908364,
,15,넌 무자비해,5,Orange,B,2.333333333333333,2.1,ScrollUp,ScrollDown,Orange.png,1,Negative,Congruent,,,,,0,0,0,0,,,,,,,,,,,,,0,14,14,14,,,,,,,,,,,,,,,,,,,,,,,,,,,,,,,,,,,,,,,,,,,,,,,,,,,,,,,,,,,,,,,,,,,,,,,,,,,,,,,,,2,1.0734992999932729,198.40986250000424,None,ScrollUp,정답입니다,198.40986250000424,None,198.40986250000424,None,198.40986250000424,None,198.40986250000424,None,199.36826570000267,None,199.36826570000267,199.87017970001034,,,,,,,,,,,,,,,,110,2022-05-03_16h43.10.489,FishGame,2022.1.1,60.17462676908364,
,16,나를 보내줘,6,Green,A,0,0,ScrollUp,ScrollDown,Green.png,1,NonTarget,NonTarget,,,,,0,0,0,0,,,,,,,,,,,,,0,15,15,15,,,,,,,,,,,,,,,,,,,,,,,,,,,,,,,,,,,,,,,,,,,,,,,,,,,,,,,,,,,,,,,,,,,,,,,,,,,,,,,,,1.8564814726511638,1.1072732000029646,200.4930267000018,None,ScrollUp,정답입니다,200.4930267000018,None,200.4930267000018,None,200.4930267000018,None,200.4930267000018,None,201.50122710000142,None,201.50122710000142,202.00263030000497,,,,,,,,,,,,,,,,110,2022-05-03_16h43.10.489,FishGame,2022.1.1,60.17462676908364,
,17,넌 현실적이야,3,Orange,B,4.608695652173913,4.766666666666667,ScrollUp,ScrollDown,Orange.png,1,Neutral,Neutral,,,,,0,0,0,0,,,,,,,,,,,,,0,16,16,16,,,,,,,,,,,,,,,,,,,,,,,,,,,,,,,,,,,,,,,,,,,,,,,,,,,,,,,,,,,,,,,,,,,,,,,,,,,,,,,,,2,1.2786868999974104,202.64720829999715,None,ScrollUp,정답입니다,202.64720829999715,None,202.64720829999715,None,202.64720829999715,None,202.64720829999715,None,203.80285040001036,None,203.80285040001036,204.30297129999963,,,,,,,,,,,,,,,,110,2022-05-03_16h43.10.489,FishGame,2022.1.1,60.17462676908364,
,18,넌 의리있어,1,Orange,B,5.833333333333334,5.633333333333334,ScrollUp,ScrollDown,Orange.png,1,Positive,Incongruent,,,,,0,0,0,0,,,,,,,,,,,,,0,17,17,17,,,,,,,,,,,,,,,,,,,,,,,,,,,,,,,,,,,,,,,,,,,,,,,,,,,,,,,,,,,,,,,,,,,,,,,,,,,,,,,,,2,1.0122454999946058,204.93828210000356,None,ScrollUp,정답입니다,204.93828210000356,None,204.93828210000356,None,204.93828210000356,None,204.93828210000356,None,205.83634470000106,None,205.83634470000106,206.3368879000045,,,,,,,,,,,,,,,,110,2022-05-03_16h43.10.489,FishGame,2022.1.1,60.17462676908364,
,19,넌 신경과민이야,5,Green,A,2.541666666666667,2.166666666666667,ScrollDown,ScrollUp,Green.png,1,Negative,Incongruent,,,,,0,0,0,0,,,,,,,,,,,,,0,18,18,18,,,,,,,,,,,,,,,,,,,,,,,,,,,,,,,,,,,,,,,,,,,,,,,,,,,,,,,,,,,,,,,,,,,,,,,,,,,,,,,,,1.0262345671653748,1.0763895000127377,206.9774546999979,None,ScrollDown,정답입니다,206.9774546999979,None,206.9774546999979,None,206.9774546999979,None,206.9774546999979,None,207.93691610000678,None,207.93691610000678,208.43619720000424,,,,,,,,,,,,,,,,110,2022-05-03_16h43.10.489,FishGame,2022.1.1,60.17462676908364,
,20,넌 편안해,1,Green,A,5.916666666666666,5.866666666666666,ScrollDown,ScrollUp,Green.png,1,Positive,Congruent,,,,,0,0,0,0,,,,,,,,,,,,,0,19,19,19,,,,,,,,,,,,,,,,,,,,,,,,,,,,,,,,,,,,,,,,,,,,,,,,,,,,,,,,,,,,,,,,,,,,,,,,,,,,,,,,,1,1.0509802000015043,209.07134619999852,None,ScrollDown,정답입니다,209.07134619999852,None,209.07134619999852,None,209.07134619999852,None,209.07134619999852,None,210.00788710000052,None,210.00788710000052,210.5197807000077,,,,,,,,,,,,,,,,110,2022-05-03_16h43.10.489,FishGame,2022.1.1,60.17462676908364,
,21,넌 품위있어,2,Orange,B,5.291666666666666,4.466666666666667,ScrollUp,ScrollDown,Orange.png,1,Positive,Incongruent,,,,,0,0,0,0,,,,,,,,,,,,,0,20,20,20,,,,,,,,,,,,,,,,,,,,,,,,,,,,,,,,,,,,,,,,,,,,,,,,,,,,,,,,,,,,,,,,,,,,,,,,,,,,,,,,,2,0.9816318999946816,211.1547830000054,None,ScrollUp,정답입니다,211.1547830000054,None,211.1547830000054,None,211.1547830000054,None,211.1547830000054,None,212.0216400000063,None,212.0216400000063,212.53658749999886,,,,,,,,,,,,,,,,110,2022-05-03_16h43.10.489,FishGame,2022.1.1,60.17462676908364,
,22,넌 빈틈없어,3,Green,A,4.833333333333333,3.966666666666667,ScrollDown,ScrollUp,Green.png,1,Neutral,Neutral,,,,,0,0,0,0,,,,,,,,,,,,,0,21,21,21,,,,,,,,,,,,,,,,,,,,,,,,,,,,,,,,,,,,,,,,,,,,,,,,,,,,,,,,,,,,,,,,,,,,,,,,,,,,,,,,,1,1.0594601999910083,213.17098000000988,None,ScrollDown,정답입니다,213.17098000000988,None,213.17098000000988,None,213.17098000000988,None,213.17098000000988,None,214.11957080000138,None,214.11957080000138,214.61993290000828,,,,,,,,,,,,,,,,110,2022-05-03_16h43.10.489,FishGame,2022.1.1,60.17462676908364,
,23,넌 상상력없어,4,Orange,B,2.833333333333333,3.133333333333333,ScrollUp,ScrollDown,Orange.png,1,Negative,Congruent,,,,,0,0,0,0,,,,,,,,,,,,,0,22,22,22,,,,,,,,,,,,,,,,,,,,,,,,,,,,,,,,,,,,,,,,,,,,,,,,,,,,,,,,,,,,,,,,,,,,,,,,,,,,,,,,,1.9490740597248077,1.066949800006114,215.25854320000508,None,ScrollUp,정답입니다,215.25854320000508,None,215.25854320000508,None,215.25854320000508,None,215.25854320000508,None,216.20886959999916,None,216.20886959999916,216.72021559999848,,,,,,,,,,,,,,,,110,2022-05-03_16h43.10.489,FishGame,2022.1.1,60.17462676908364,
,24,넌 지혜로워,2,Orange,B,6.333333333333334,4.633333333333334,ScrollUp,ScrollDown,Orange.png,1,Positive,Incongruent,,,,,0,0,0,0,,,,,,,,,,,,,0,23,23,23,,,,,,,,,,,,,,,,,,,,,,,,,,,,,,,,,,,,,,,,,,,,,,,,,,,,,,,,,,,,,,,,,,,,,,,,,,,,,,,,,2,1.090448099988862,217.36652460000187,None,ScrollUp,정답입니다,217.36652460000187,None,217.36652460000187,None,217.36652460000187,None,217.36652460000187,None,218.33442739999737,None,218.33442739999737,218.8365102000098,,,,,,,,,,,,,,,,110,2022-05-03_16h43.10.489,FishGame,2022.1.1,60.17462676908364,
,25,넌 시끄러워,4,Green,A,2.833333333333333,3.033333333333333,ScrollDown,ScrollUp,Green.png,1,Negative,Incongruent,,,,,0,0,0,0,,,,,,,,,,,,,0,24,24,24,,,,,,,,,,,,,,,,,,,,,,,,,,,,,,,,,,,,,,,,,,,,,,,,,,,,,,,,,,,,,,,,,,,,,,,,,,,,,,,,,1,0.9919235999986995,219.4747378000029,None,ScrollDown,정답입니다,219.4747378000029,None,219.4747378000029,None,219.4747378000029,None,219.4747378000029,None,220.35363860000507,None,220.35363860000507,220.85368139999628,,,,,,,,,,,,,,,,110,2022-05-03_16h43.10.489,FishGame,2022.1.1,60.17462676908364,
,26,넌 만사태평이야,3,Orange,B,4,4.333333333333333,ScrollUp,ScrollDown,Orange.png,1,Neutral,Neutral,,,,,0,0,0,0,,,,,,,,,,,,,0,25,25,25,,,,,,,,,,,,,,,,,,,,,,,,,,,,,,,,,,,,,,,,,,,,,,,,,,,,,,,,,,,,,,,,,,,,,,,,,,,,,,,,,2,0.9355502999969758,221.49430000000575,None,ScrollUp,정답입니다,221.49430000000575,None,221.49430000000575,None,221.49430000000575,None,221.49430000000575,None,222.31797420000657,None,222.31797420000657,222.81991879999987,,,,,,,,,,,,,,,,110,2022-05-03_16h43.10.489,FishGame,2022.1.1,60.17462676908364,
,27,넌 붙임성있어,1,Green,A,5.708333333333333,5.633333333333334,ScrollDown,ScrollUp,Green.png,1,Positive,Congruent,,,,,0,0,0,0,,,,,,,,,,,,,0,26,26,26,,,,,,,,,,,,,,,,,,,,,,,,,,,,,,,,,,,,,,,,,,,,,,,,,,,,,,,,,,,,,,,,,,,,,,,,,,,,,,,,,1,1.072781599999871,223.45616660000815,None,ScrollDown,정답입니다,223.45616660000815,None,223.45616660000815,None,223.45616660000815,None,223.45616660000815,None,224.4182118000026,None,224.4182118000026,224.91979240000364,,,,,,,,,,,,,,,,110,2022-05-03_16h43.10.489,FishGame,2022.1.1,60.17462676908364,
,28,넌 영리해,2,Green,A,6,4.033333333333333,ScrollDown,ScrollUp,Green.png,1,Positive,Congruent,,,,,0,0,0,0,,,,,,,,,,,,,0,27,27,27,,,,,,,,,,,,,,,,,,,,,,,,,,,,,,,,,,,,,,,,,,,,,,,,,,,,,,,,,,,,,,,,,,,,,,,,,,,,,,,,,1.0817901194095612,0.9135391000017989,225.5496598000027,None,ScrollDown,정답입니다,225.5496598000027,None,225.5496598000027,None,225.5496598000027,None,225.5496598000027,None,226.35314520000247,None,226.35314520000247,226.85330810000596,,,,,,,,,,,,,,,,110,2022-05-03_16h43.10.489,FishGame,2022.1.1,60.17462676908364,
,29,넌 열심이야,1,Orange,B,6.041666666666667,5.833333333333333,ScrollUp,ScrollDown,Orange.png,1,Positive,Incongruent,,,,,0,0,0,0,,,,,,,,,,,,,0,28,28,28,,,,,,,,,,,,,,,,,,,,,,,,,,,,,,,,,,,,,,,,,,,,,,,,,,,,,,,,,,,,,,,,,,,,,,,,,,,,,,,,,2,0.9855480999976862,227.49479240000073,None,ScrollUp,정답입니다,227.49479240000073,None,227.49479240000073,None,227.49479240000073,None,227.49479240000073,None,228.3581181000045,None,228.3581181000045,228.86993030000303,,,,,,,,,,,,,,,,110,2022-05-03_16h43.10.489,FishGame,2022.1.1,60.17462676908364,
,30,넌 인기없어,4,Orange,B,3,3.3,ScrollUp,ScrollDown,Orange.png,1,Negative,Congruent,,,,,0,0,0,0,,,,,,,,,,,,,0,29,29,29,,,,,,,,,,,,,,,,,,,,,,,,,,,,,,,,,,,,,,,,,,,,,,,,,,,,,,,,,,,,,,,,,,,,,,,,,,,,,,,,,2,0.9621451000130037,229.5075031000015,None,ScrollUp,정답입니다,229.5075031000015,None,229.5075031000015,None,229.5075031000015,None,229.5075031000015,None,230.35305700000026,None,230.35305700000026,230.85372710000956,,,,,,,,,,,,,,,,110,2022-05-03_16h43.10.489,FishGame,2022.1.1,60.17462676908364,
,31,넌 익살스러워,3,Green,A,4.708333333333334,4.833333333333333,ScrollDown,ScrollUp,Green.png,1,Neutral,Neutral,,,,,0,0,0,0,,,,,,,,,,,,,0,30,30,30,,,,,,,,,,,,,,,,,,,,,,,,,,,,,,,,,,,,,,,,,,,,,,,,,,,,,,,,,,,,,,,,,,,,,,,,,,,,,,,,,1,1.01905469999474,231.49073570000473,None,ScrollDown,정답입니다,231.49073570000473,None,231.49073570000473,None,231.49073570000473,None,231.49073570000473,None,232.4017909999966,None,232.4017909999966,232.90342709999823,,,,,,,,,,,,,,,,110,2022-05-03_16h43.10.489,FishGame,2022.1.1,60.17462676908364,
,32,넌 이기적이야,5,Orange,B,2.291666666666667,2.333333333333333,ScrollUp,ScrollDown,Orange.png,1,Negative,Congruent,,,,,0,0,0,0,,,,,,,,,,,,,0,31,31,31,,,,,,,,,,,,,,,,,,,,,,,,,,,,,,,,,,,,,,,,,,,,,,,,,,,,,,,,,,,,,,,,,,,,,,,,,,,,,,,,,2,1.0016062000067905,233.53580409999995,None,ScrollUp,정답입니다,233.53580409999995,None,233.53580409999995,None,233.53580409999995,None,233.53580409999995,None,234.42475040000863,None,234.42475040000863,234.93684599999688,,,,,,,,,,,,,,,,110,2022-05-03_16h43.10.489,FishGame,2022.1.1,60.17462676908364,
,33,나를 데려가줘,6,Orange,B,0,0,ScrollDown,ScrollUp,Orange.png,1,NonTarget,NonTarget,,,,,0,0,0,0,,,,,,,,,,,,,0,32,32,32,,,,,,,,,,,,,,,,,,,,,,,,,,,,,,,,,,,,,,,,,,,,,,,,,,,,,,,,,,,,,,,,,,,,,,,,,,,,,,,,,1,1.4066902000049595,235.57115600000543,None,ScrollDown,정답입니다,235.57115600000543,None,235.57115600000543,None,235.57115600000543,None,235.57115600000543,None,236.86850330000743,None,236.86850330000743,237.37003570000525,,,,,,,,,,,,,,,,110,2022-05-03_16h43.10.489,FishGame,2022.1.1,60.17462676908364,
,34,넌 기회주의자야,5,Green,A,2.875,2.133333333333333,ScrollDown,ScrollUp,Green.png,1,Negative,Incongruent,,,,,0,0,0,0,,,,,,,,,,,,,0,33,33,33,,,,,,,,,,,,,,,,,,,,,,,,,,,,,,,,,,,,,,,,,,,,,,,,,,,,,,,,,,,,,,,,,,,,,,,,,,,,,,,,,1.0046296219031017,1.0340740000101505,238.00869780000357,None,ScrollDown,정답입니다,238.00869780000357,None,238.00869780000357,None,238.00869780000357,None,238.00869780000357,None,238.92494900000747,None,238.92494900000747,239.43744920000609,,,,,,,,,,,,,,,,110,2022-05-03_16h43.10.489,FishGame,2022.1.1,60.17462676908364,
,1,넌 미성숙해,4,Green,A,3,3.2,ScrollDown,ScrollUp,Green.png,2,Negative,Incongruent,,,,,0,0,0,0,,,,,,,,,,,,,,,,,0,0,0,0,,,,,,,,,,,,,,,,,,,,,,,,,,,,,,,,,,,,273.97118770000816,275.4710386000079,275.50478380000277,276.45421370000986,276.5044656999962,277.4547583000094,277.4547583000094,None,,,,,,,,,,,,,,,,,,,,,,,,,,,,,,,,,,1,1.0938652000040747,278.5986288999993,None,ScrollDown,정답입니다,278.5986288999993,None,278.5986288999993,None,278.5986288999993,None,278.5986288999993,None,279.53883780000615,None,279.53883780000615,280.03810620000877,239.93705740000587,None,239.93705740000587,None,0.1037037,-0.17314816,1,0,0,0.016041280003264546,None,269.9377172000095,None,,,110,2022-05-03_16h43.10.489,FishGame,2022.1.1,60.17462676908364,
,2,넌 반사회적이야,5,Orange,B,2.416666666666667,2.033333333333333,ScrollUp,ScrollDown,Orange.png,2,Negative,Congruent,,,,,0,0,0,0,,,,,,,,,,,,,,,,,0,1,1,1,,,,,,,,,,,,,,,,,,,,,,,,,,,,,,,,,,,,,,,,,,,,,,,,,,,,,,,,,,,,,,,,,,,,,,,,,,,,,1.9012345770994823,1.0782594000047538,280.6759504000074,None,ScrollUp,정답입니다,280.6759504000074,None,280.6759504000074,None,280.6759504000074,None,280.6759504000074,None,281.6372107000061,None,281.6372107000061,282.13802510000824,,,,,,,,,,,,,,,,110,2022-05-03_16h43.10.489,FishGame,2022.1.1,60.17462676908364,
,3,넌 유능해,2,Green,A,6.208333333333333,4.433333333333334,ScrollDown,ScrollUp,Green.png,2,Positive,Congruent,,,,,0,0,0,0,,,,,,,,,,,,,,,,,0,2,2,2,,,,,,,,,,,,,,,,,,,,,,,,,,,,,,,,,,,,,,,,,,,,,,,,,,,,,,,,,,,,,,,,,,,,,,,,,,,,,1.126543199022611,0.9353052999940701,282.77168520000123,None,ScrollDown,정답입니다,282.77168520000123,None,282.77168520000123,None,282.77168520000123,None,282.77168520000123,None,283.6028813000012,None,283.6028813000012,284.10478599999624,,,,,,,,,,,,,,,,110,2022-05-03_16h43.10.489,FishGame,2022.1.1,60.17462676908364,
,4,넌 능숙해,2,Orange,B,5.666666666666667,4.733333333333333,ScrollUp,ScrollDown,Orange.png,2,Positive,Incongruent,,,,,0,0,0,0,,,,,,,,,,,,,,,,,0,3,3,3,,,,,,,,,,,,,,,,,,,,,,,,,,,,,,,,,,,,,,,,,,,,,,,,,,,,,,,,,,,,,,,,,,,,,,,,,,,,,2,0.9467803000006825,284.7344572000002,None,ScrollUp,정답입니다,284.7344572000002,None,284.7344572000002,None,284.7344572000002,None,284.7344572000002,None,285.5711769000045,None,285.5711769000045,286.07144909999624,,,,,,,,,,,,,,,,110,2022-05-03_16h43.10.489,FishGame,2022.1.1,60.17462676908364,
,5,넌 진부해,4,Orange,B,2.458333333333333,3.166666666666667,ScrollUp,ScrollDown,Orange.png,2,Negative,Congruent,,,,,0,0,0,0,,,,,,,,,,,,,,,,,0,4,4,4,,,,,,,,,,,,,,,,,,,,,,,,,,,,,,,,,,,,,,,,,,,,,,,,,,,,,,,,,,,,,,,,,,,,,,,,,,,,,2,1.0158663999900455,286.7077481000015,None,ScrollUp,정답입니다,286.7077481000015,None,286.7077481000015,None,286.7077481000015,None,286.7077481000015,None,287.6090935000102,None,287.6090935000102,288.12153899999976,,,,,,,,,,,,,,,,110,2022-05-03_16h43.10.489,FishGame,2022.1.1,60.17462676908364,
,6,나를 보내줘,6,Green,A,0,0,ScrollUp,ScrollDown,Green.png,2,NonTarget,NonTarget,,,,,0,0,0,0,,,,,,,,,,,,,,,,,0,5,5,5,,,,,,,,,,,,,,,,,,,,,,,,,,,,,,,,,,,,,,,,,,,,,,,,,,,,,,,,,,,,,,,,,,,,,,,,,,,,,1.9737654328346252,1.016791000001831,288.7453807999991,None,ScrollUp,정답입니다,288.7453807999991,None,288.7453807999991,None,288.7453807999991,None,288.7453807999991,None,289.6592165000038,None,289.6592165000038,290.1717101000104,,,,,,,,,,,,,,,,110,2022-05-03_16h43.10.489,FishGame,2022.1.1,60.17462676908364,
,7,넌 엄격해,3,Green,A,4.166666666666666,4.1,ScrollDown,ScrollUp,Green.png,2,Neutral,Neutral,,,,,0,0,0,0,,,,,,,,,,,,,,,,,0,6,6,6,,,,,,,,,,,,,,,,,,,,,,,,,,,,,,,,,,,,,,,,,,,,,,,,,,,,,,,,,,,,,,,,,,,,,,,,,,,,,1.2160493830839794,1.0539692000020295,290.8049081000063,None,ScrollDown,정답입니다,290.8049081000063,None,290.8049081000063,None,290.8049081000063,None,290.8049081000063,None,291.7527693000011,None,291.7527693000011,292.25477640000463,,,,,,,,,,,,,,,,110,2022-05-03_16h43.10.489,FishGame,2022.1.1,60.17462676908364,
,8,나를 보내줘,6,Green,A,0,0,ScrollUp,ScrollDown,Green.png,2,NonTarget,NonTarget,,,,,0,0,0,0,,,,,,,,,,,,,,,,,0,7,7,7,,,,,,,,,,,,,,,,,,,,,,,,,,,,,,,,,,,,,,,,,,,,,,,,,,,,,,,,,,,,,,,,,,,,,,,,,,,,,1.9259259502092998,0.9298872000072151,292.8828893000027,None,ScrollUp,정답입니다,292.8828893000027,None,292.8828893000027,None,292.8828893000027,None,292.8828893000027,None,293.70595299999695,None,293.70595299999695,294.204985999997,,,,,,,,,,,,,,,,110,2022-05-03_16h43.10.489,FishGame,2022.1.1,60.17462676908364,
,9,넌 대담해,3,Orange,B,4.875,4.866666666666666,ScrollUp,ScrollDown,Orange.png,2,Neutral,Neutral,,,,,0,0,0,0,,,,,,,,,,,,,,,,,0,8,8,8,,,,,,,,,,,,,,,,,,,,,,,,,,,,,,,,,,,,,,,,,,,,,,,,,,,,,,,,,,,,,,,,,,,,,,,,,,,,,1.9243827362855275,1.0241075999947498,294.8417948999995,None,ScrollUp,정답입니다,294.8417948999995,None,294.8417948999995,None,294.8417948999995,None,294.8417948999995,None,295.7530714000022,None,295.7530714000022,296.25479800000903,,,,,,,,,,,,,,,,110,2022-05-03_16h43.10.489,FishGame,2022.1.1,60.17462676908364,
,10,넌 꾸준해,1,Green,A,5.916666666666668,5.8,ScrollDown,ScrollUp,Green.png,2,Positive,Congruent,,,,,0,0,0,0,,,,,,,,,,,,,,,,,0,9,9,9,,,,,,,,,,,,,,,,,,,,,,,,,,,,,,,,,,,,,,,,,,,,,,,,,,,,,,,,,,,,,,,,,,,,,,,,,,,,,1.2515432039896646,0.9044083000044338,296.89075770000636,None,ScrollDown,정답입니다,296.89075770000636,None,296.89075770000636,None,296.89075770000636,None,296.89075770000636,None,297.6862817000074,None,297.6862817000074,298.1888609000016,,,,,,,,,,,,,,,,110,2022-05-03_16h43.10.489,FishGame,2022.1.1,60.17462676908364,
,11,나를 데려가줘,6,Orange,B,0,0,ScrollDown,ScrollUp,Orange.png,2,NonTarget,NonTarget,,,,,0,0,0,0,,,,,,,,,,,,,,,,,0,10,10,10,,,,,,,,,,,,,,,,,,,,,,,,,,,,,,,,,,,,,,,,,,,,,,,,,,,,,,,,,,,,,,,,,,,,,,,,,,,,,1.1234567960103352,1.0588609999977052,298.82043310000154,None,ScrollDown,정답입니다,298.82043310000154,None,298.82043310000154,None,298.82043310000154,None,298.82043310000154,None,299.77166680000664,None,299.77166680000664,300.2718395999982,,,,,,,,,,,,,,,,110,2022-05-03_16h43.10.489,FishGame,2022.1.1,60.17462676908364,
,12,넌 독선적이야,5,Green,A,2.458333333333333,1.933333333333333,ScrollDown,ScrollUp,Green.png,2,Negative,Incongruent,,,,,0,0,0,0,,,,,,,,,,,,,,,,,0,11,11,11,,,,,,,,,,,,,,,,,,,,,,,,,,,,,,,,,,,,,,,,,,,,,,,,,,,,,,,,,,,,,,,,,,,,,,,,,,,,,1.0987654229005177,0.9320267000002787,300.9092764000088,None,ScrollDown,정답입니다,300.9092764000088,None,300.9092764000088,None,300.9092764000088,None,300.9092764000088,None,301.72611220000545,None,301.72611220000545,302.23852660000557,,,,,,,,,,,,,,,,110,2022-05-03_16h43.10.489,FishGame,2022.1.1,60.17462676908364,
,13,나를 보내줘,6,Green,A,0,0,ScrollUp,ScrollDown,Green.png,2,NonTarget,NonTarget,,,,,0,0,0,0,,,,,,,,,,,,,,,,,0,12,12,12,,,,,,,,,,,,,,,,,,,,,,,,,,,,,,,,,,,,,,,,,,,,,,,,,,,,,,,,,,,,,,,,,,,,,,,,,,,,,1.6620370397965112,0.9427603000076488,302.8700899999967,None,ScrollUp,정답입니다,302.8700899999967,None,302.8700899999967,None,302.8700899999967,None,302.8700899999967,None,303.70496730000013,None,303.70496730000013,304.2050350000063,,,,,,,,,,,,,,,,110,2022-05-03_16h43.10.489,FishGame,2022.1.1,60.17462676908364,
,14,넌 책임감있어,1,Orange,B,6.347826086956522,6,ScrollUp,ScrollDown,Orange.png,2,Positive,Incongruent,,,,,0,0,0,0,,,,,,,,,,,,,,,,,0,13,13,13,,,,,,,,,,,,,,,,,,,,,,,,,,,,,,,,,,,,,,,,,,,,,,,,,,,,,,,,,,,,,,,,,,,,,,,,,,,,,1.6882716019948325,0.9202396999899065,304.8475699999981,None,ScrollUp,정답입니다,304.8475699999981,None,304.8475699999981,None,304.8475699999981,None,304.8475699999981,None,305.6444128000003,None,305.6444128000003,306.15502010000637,,,,,,,,,,,,,,,,110,2022-05-03_16h43.10.489,FishGame,2022.1.1,60.17462676908364,
,15,넌 문학적이야,3,Green,A,4.708333333333334,4.333333333333333,ScrollDown,ScrollUp,Green.png,2,Neutral,Neutral,,,,,0,0,0,0,,,,,,,,,,,,,,,,,0,14,14,14,,,,,,,,,,,,,,,,,,,,,,,,,,,,,,,,,,,,,,,,,,,,,,,,,,,,,,,,,,,,,,,,,,,,,,,,,,,,,1,1.1114231000101427,306.79074320000655,None,ScrollDown,정답입니다,306.79074320000655,None,306.79074320000655,None,306.79074320000655,None,306.79074320000655,None,307.78865990000486,None,307.78865990000486,308.28821140000946,,,,,,,,,,,,,,,,110,2022-05-03_16h43.10.489,FishGame,2022.1.1,60.17462676908364,
,16,넌 재미있어,1,Orange,B,5.875,5.7,ScrollUp,ScrollDown,Orange.png,2,Positive,Incongruent,,,,,0,0,0,0,,,,,,,,,,,,,,,,,0,15,15,15,,,,,,,,,,,,,,,,,,,,,,,,,,,,,,,,,,,,,,,,,,,,,,,,,,,,,,,,,,,,,,,,,,,,,,,,,,,,,1.8719135870536168,1.1714977000083309,308.94097239999974,None,ScrollUp,정답입니다,308.94097239999974,None,308.94097239999974,None,308.94097239999974,None,308.94097239999974,None,309.98642810000456,None,309.98642810000456,310.4881419000012,,,,,,,,,,,,,,,,110,2022-05-03_16h43.10.489,FishGame,2022.1.1,60.17462676908364,
,17,나를 데려가줘,6,Orange,B,0,0,ScrollDown,ScrollUp,Orange.png,2,NonTarget,NonTarget,,,,,0,0,0,0,,,,,,,,,,,,,,,,,0,16,16,16,,,,,,,,,,,,,,,,,,,,,,,,,,,,,,,,,,,,,,,,,,,,,,,,,,,,,,,,,,,,,,,,,,,,,,,,,,,,,1.095679019888242,1.0764595000073314,311.1332853000058,None,ScrollDown,정답입니다,311.1332853000058,None,311.1332853000058,None,311.1332853000058,None,311.1332853000058,None,312.08820739999646,None,312.08820739999646,312.58833530000993,,,,,,,,,,,,,,,,110,2022-05-03_16h43.10.489,FishGame,2022.1.1,60.17462676908364,
,18,넌 협력적이야,1,Green,A,5.625,5.633333333333334,ScrollDown,ScrollUp,Green.png,2,Positive,Congruent,,,,,0,0,0,0,,,,,,,,,,,,,,,,,0,17,17,17,,,,,,,,,,,,,,,,,,,,,,,,,,,,,,,,,,,,,,,,,,,,,,,,,,,,,,,,,,,,,,,,,,,,,,,,,,,,,1.0308642089366913,0.9172818999941228,313.22495190000336,None,ScrollDown,정답입니다,313.22495190000336,None,313.22495190000336,None,313.22495190000336,None,313.22495190000336,None,314.02707219999866,None,314.02707219999866,314.5385918000102,,,,,,,,,,,,,,,,110,2022-05-03_16h43.10.489,FishGame,2022.1.1,60.17462676908364,
,19,넌 평범해,3,Orange,B,4.333333333333332,4.233333333333333,ScrollUp,ScrollDown,Orange.png,2,Neutral,Neutral,,,,,0,0,0,0,,,,,,,,,,,,,,,,,0,18,18,18,,,,,,,,,,,,,,,,,,,,,,,,,,,,,,,,,,,,,,,,,,,,,,,,,,,,,,,,,,,,,,,,,,,,,,,,,,,,,2,1.1271543999901041,315.17632300000696,None,ScrollUp,정답입니다,315.17632300000696,None,315.17632300000696,None,315.17632300000696,None,315.17632300000696,None,316.188415800003,None,316.188415800003,316.6886263000051,,,,,,,,,,,,,,,,110,2022-05-03_16h43.10.489,FishGame,2022.1.1,60.17462676908364,
,20,넌 오만해,5,Green,A,2.333333333333333,2,ScrollDown,ScrollUp,Green.png,2,Negative,Incongruent,,,,,0,0,0,0,,,,,,,,,,,,,,,,,0,19,19,19,,,,,,,,,,,,,,,,,,,,,,,,,,,,,,,,,,,,,,,,,,,,,,,,,,,,,,,,,,,,,,,,,,,,,,,,,,,,,1.1851851791143417,0.9070938999939244,317.3226608999976,None,ScrollDown,정답입니다,317.3226608999976,None,317.3226608999976,None,317.3226608999976,None,317.3226608999976,None,318.1217928999977,None,318.1217928999977,318.6225620000041,,,,,,,,,,,,,,,,110,2022-05-03_16h43.10.489,FishGame,2022.1.1,60.17462676908364,
,21,넌 운이없어,4,Orange,B,3,3.466666666666667,ScrollUp,ScrollDown,Orange.png,2,Negative,Congruent,,,,,0,0,0,0,,,,,,,,,,,,,,,,,0,20,20,20,,,,,,,,,,,,,,,,,,,,,,,,,,,,,,,,,,,,,,,,,,,,,,,,,,,,,,,,,,,,,,,,,,,,,,,,,,,,,1.7422839403152466,0.9527654000121402,319.2564229999989,None,ScrollUp,정답입니다,319.2564229999989,None,319.2564229999989,None,319.2564229999989,None,319.2564229999989,None,320.0942161999992,None,320.0942161999992,320.60591959999874,,,,,,,,,,,,,,,,110,2022-05-03_16h43.10.489,FishGame,2022.1.1,60.17462676908364,
,22,넌 창조적이야,2,Orange,B,6.125,4.633333333333334,ScrollUp,ScrollDown,Orange.png,2,Positive,Incongruent,,,,,0,0,0,0,,,,,,,,,,,,,,,,,0,21,21,21,,,,,,,,,,,,,,,,,,,,,,,,,,,,,,,,,,,,,,,,,,,,,,,,,,,,,,,,,,,,,,,,,,,,,,,,,,,,,1.9629629850387573,0.9130389000056311,321.2414034999965,None,ScrollUp,정답입니다,321.2414034999965,None,321.2414034999965,None,321.2414034999965,None,321.2414034999965,None,322.038741700002,None,322.038741700002,322.5389850000065,,,,,,,,,,,,,,,,110,2022-05-03_16h43.10.489,FishGame,2022.1.1,60.17462676908364,
,23,나를 보내줘,6,Green,A,0,0,ScrollUp,ScrollDown,Green.png,2,NonTarget,NonTarget,,,,,0,0,0,0,,,,,,,,,,,,,,,,,0,22,22,22,,,,,,,,,,,,,,,,,,,,,,,,,,,,,,,,,,,,,,,,,,,,,,,,,,,,,,,,,,,,,,,,,,,,,,,,,,,,,1.6157407462596893,0.9880266999971354,323.16556090000086,None,ScrollUp,정답입니다,323.16556090000086,None,323.16556090000086,None,323.16556090000086,None,323.16556090000086,None,324.0539739000087,None,324.0539739000087,324.5557731000008,,,,,,,,,,,,,,,,110,2022-05-03_16h43.10.489,FishGame,2022.1.1,60.17462676908364,
,24,넌 통찰력있어,2,Green,A,6.5,4.8,ScrollDown,ScrollUp,Green.png,2,Positive,Congruent,,,,,0,0,0,0,,,,,,,,,,,,,,,,,0,23,23,23,,,,,,,,,,,,,,,,,,,,,,,,,,,,,,,,,,,,,,,,,,,,,,,,,,,,,,,,,,,,,,,,,,,,,,,,,,,,,1,1.1013740999915171,325.1866909000091,None,ScrollDown,정답입니다,325.1866909000091,None,325.1866909000091,None,325.1866909000091,None,325.1866909000091,None,326.1777751000045,None,326.1777751000045,326.6888128999999,,,,,,,,,,,,,,,,110,2022-05-03_16h43.10.489,FishGame,2022.1.1,60.17462676908364,
,25,넌 경솔해,5,Orange,B,2.458333333333333,2.266666666666667,ScrollUp,ScrollDown,Orange.png,2,Negative,Congruent,,,,,0,0,0,0,,,,,,,,,,,,,,,,,0,24,24,24,,,,,,,,,,,,,,,,,,,,,,,,,,,,,,,,,,,,,,,,,,,,,,,,,,,,,,,,,,,,,,,,,,,,,,,,,,,,,1.9182098805904388,1.089215600004536,327.32800999999745,None,ScrollUp,정답입니다,327.32800999999745,None,327.32800999999745,None,327.32800999999745,None,327.32800999999745,None,328.30589420000615,None,328.30589420000615,328.8060909000051,,,,,,,,,,,,,,,,110,2022-05-03_16h43.10.489,FishGame,2022.1.1,60.17462676908364,
,26,넌 초조해,4,Green,A,2.916666666666667,3.133333333333333,ScrollDown,ScrollUp,Green.png,2,Negative,Incongruent,,,,,0,0,0,0,,,,,,,,,,,,,,,,,0,25,25,25,,,,,,,,,,,,,,,,,,,,,,,,,,,,,,,,,,,,,,,,,,,,,,,,,,,,,,,,,,,,,,,,,,,,,,,,,,,,,1,0.9559550999983912,329.4334087000025,None,ScrollDown,정답입니다,329.4334087000025,None,329.4334087000025,None,329.4334087000025,None,329.4334087000025,None,330.2871374999959,None,330.2871374999959,330.7892647999979,,,,,,,,,,,,,,,,110,2022-05-03_16h43.10.489,FishGame,2022.1.1,60.17462676908364,
,27,넌 무관심해,4,Orange,B,2.833333333333333,2.9,ScrollUp,ScrollDown,Orange.png,2,Negative,Congruent,,,,,0,0,0,0,,,,,,,,,,,,,,,,,0,26,26,26,,,,,,,,,,,,,,,,,,,,,,,,,,,,,,,,,,,,,,,,,,,,,,,,,,,,,,,,,,,,,,,,,,,,,,,,,,,,,1.7824074029922485,0.9796465000108583,331.4270661000046,None,ScrollUp,정답입니다,331.4270661000046,None,331.4270661000046,None,331.4270661000046,None,331.4270661000046,None,332.28894900000887,None,332.28894900000887,332.7888340000063,,,,,,,,,,,,,,,,110,2022-05-03_16h43.10.489,FishGame,2022.1.1,60.17462676908364,
,28,넌 감성적이야,3,Orange,B,4.125,4.166666666666667,ScrollUp,ScrollDown,Orange.png,2,Neutral,Neutral,,,,,0,0,0,0,,,,,,,,,,,,,,,,,0,27,27,27,,,,,,,,,,,,,,,,,,,,,,,,,,,,,,,,,,,,,,,,,,,,,,,,,,,,,,,,,,,,,,,,,,,,,,,,,,,,,1.9027777661879857,0.9684012000070652,333.42284660000587,None,ScrollUp,정답입니다,333.42284660000587,None,333.42284660000587,None,333.42284660000587,None,333.42284660000587,None,334.2766985000053,None,334.2766985000053,334.7891460999963,,,,,,,,,,,,,,,,110,2022-05-03_16h43.10.489,FishGame,2022.1.1,60.17462676908364,
,29,넌 배려심있어,1,Green,A,6.083333333333333,5.5,ScrollDown,ScrollUp,Green.png,2,Positive,Congruent,,,,,0,0,0,0,,,,,,,,,,,,,,,,,0,28,28,28,,,,,,,,,,,,,,,,,,,,,,,,,,,,,,,,,,,,,,,,,,,,,,,,,,,,,,,,,,,,,,,,,,,,,,,,,,,,,1,0.9539651999948546,335.42316390000633,None,ScrollDown,정답입니다,335.42316390000633,None,335.42316390000633,None,335.42316390000633,None,335.42316390000633,None,336.27037910000945,None,336.27037910000945,336.7724043000053,,,,,,,,,,,,,,,,110,2022-05-03_16h43.10.489,FishGame,2022.1.1,60.17462676908364,
,30,넌 숨김없어,3,Green,A,4.5,4.933333333333334,ScrollDown,ScrollUp,Green.png,2,Neutral,Neutral,,,,,0,0,0,0,,,,,,,,,,,,,,,,,0,29,29,29,,,,,,,,,,,,,,,,,,,,,,,,,,,,,,,,,,,,,,,,,,,,,,,,,,,,,,,,,,,,,,,,,,,,,,,,,,,,,1.0308642089366913,0.9273299999913434,337.41018410000834,None,ScrollDown,정답입니다,337.41018410000834,None,337.41018410000834,None,337.41018410000834,None,337.41018410000834,None,338.2220651000098,None,338.2220651000098,338.72219670000777,,,,,,,,,,,,,,,,110,2022-05-03_16h43.10.489,FishGame,2022.1.1,60.17462676908364,
,31,넌 훌륭해,2,Orange,B,5.916666666666667,4.033333333333333,ScrollUp,ScrollDown,Orange.png,2,Positive,Incongruent,,,,,0,0,0,0,,,,,,,,,,,,,,,,,0,30,30,30,,,,,,,,,,,,,,,,,,,,,,,,,,,,,,,,,,,,,,,,,,,,,,,,,,,,,,,,,,,,,,,,,,,,,,,,,,,,,2,0.9580882000009296,339.37885330000427,None,ScrollUp,정답입니다,339.37885330000427,None,339.37885330000427,None,339.37885330000427,None,339.37885330000427,None,340.205813499997,None,340.205813499997,340.7061718000041,,,,,,,,,,,,,,,,110,2022-05-03_16h43.10.489,FishGame,2022.1.1,60.17462676908364,
,32,넌 슬기로워,2,Green,A,6.166666666666667,4.1,ScrollDown,ScrollUp,Green.png,2,Positive,Congruent,,,,,0,0,0,0,,,,,,,,,,,,,,,,,0,31,31,31,,,,,,,,,,,,,,,,,,,,,,,,,,,,,,,,,,,,,,,,,,,,,,,,,,,,,,,,,,,,,,,,,,,,,,,,,,,,,1,0.9461259000090649,341.3379045000038,None,ScrollDown,정답입니다,341.3379045000038,None,341.3379045000038,None,341.3379045000038,None,341.3379045000038,None,342.17501679999987,None,342.17501679999987,342.6894333000091,,,,,,,,,,,,,,,,110,2022-05-03_16h43.10.489,FishGame,2022.1.1,60.17462676908364,
,33,넌 냉혹해,5,Green,A,2.583333333333333,2.1,ScrollDown,ScrollUp,Green.png,2,Negative,Incongruent,,,,,0,0,0,0,,,,,,,,,,,,,,,,,0,32,32,32,,,,,,,,,,,,,,,,,,,,,,,,,,,,,,,,,,,,,,,,,,,,,,,,,,,,,,,,,,,,,,,,,,,,,,,,,,,,,1,0.9963883000018541,343.3218618999963,None,ScrollDown,정답입니다,343.3218618999963,None,343.3218618999963,None,343.3218618999963,None,343.3218618999963,None,344.20694590000494,None,344.20694590000494,344.7064287000103,,,,,,,,,,,,,,,,110,2022-05-03_16h43.10.489,FishGame,2022.1.1,60.17462676908364,
,34,나를 데려가줘,6,Orange,B,0,0,ScrollDown,ScrollUp,Orange.png,2,NonTarget,NonTarget,,,,,0,0,0,0,,,,,,,,,,,,,,,,,0,33,33,33,,,,,,,,,,,,,,,,,,,,,,,,,,,,,,,,,,,,,,,,,,,,,,,,,,,,,,,,,,,,,,,,,,,,,,,,,,,,,1.0416666567325592,1.0656477000011364,345.3357810000016,None,ScrollDown,정답입니다,345.3357810000016,None,345.3357810000016,None,345.3357810000016,None,345.3357810000016,None,346.2926617000048,None,346.2926617000048,346.8061740999983,,,,,,,,,,,,,,,,110,2022-05-03_16h43.10.489,FishGame,2022.1.1,60.17462676908364,
,35,넌 편파적이야,5,Orange,B,2.125,2,ScrollUp,ScrollDown,Orange.png,2,Negative,Congruent,,,,,0,0,0,0,,,,,,,,,,,,,,,,,0,34,34,34,,,,,,,,,,,,,,,,,,,,,,,,,,,,,,,,,,,,,,,,,,,,,,,,,,,,,,,,,,,,,,,,,,,,,,,,,,,,,1.9104938358068466,1.0670225000067148,347.4410432000004,None,ScrollUp,정답입니다,347.4410432000004,None,347.4410432000004,None,347.4410432000004,None,347.4410432000004,None,348.39411629999813,None,348.39411629999813,348.90632259999984,,,,,,,,,,,,,,,,110,2022-05-03_16h43.10.489,FishGame,2022.1.1,60.17462676908364,
,36,넌 슬퍼,4,Green,A,2.583333333333333,3.066666666666667,ScrollDown,ScrollUp,Green.png,2,Negative,Incongruent,,,,,0,0,0,0,,,,,,,,,,,,,,,,,0,35,35,35,,,,,,,,,,,,,,,,,,,,,,,,,,,,,,,,,,,,,,,,,,,,,,,,,,,,,,,,,,,,,,,,,,,,,,,,,,,,,1.10030863682429,0.896934100004728,349.5304601000098,None,ScrollDown,정답입니다,349.5304601000098,None,349.5304601000098,None,349.5304601000098,None,349.5304601000098,None,350.32305859999906,None,350.32305859999906,350.82265480000933,,,,,,,,,,,,,,,,110,2022-05-03_16h43.10.489,FishGame,2022.1.1,60.17462676908364,
,37,나를 데려가줘,6,Orange,B,0,0,ScrollDown,ScrollUp,Orange.png,2,NonTarget,NonTarget,,,,,0,0,0,0,,,,,,,,,,,,,,,,,0,36,36,36,,,,,,,,,,,,,,,,,,,,,,,,,,,,,,,,,,,,,,,,,,,,,,,,,,,,,,,,,,,,,,,,,,,,,,,,,,,,,1.1697530895471573,1.0369449999998324,351.4545993000065,None,ScrollDown,정답입니다,351.4545993000065,None,351.4545993000065,None,351.4545993000065,None,351.4545993000065,None,352.387490100009,None,352.387490100009,352.88940600000205,,,,,,,,,,,,,,,,110,2022-05-03_16h43.10.489,FishGame,2022.1.1,60.17462676908364,
,38,넌 친절해,1,Orange,B,6.041666666666667,5.533333333333333,ScrollUp,ScrollDown,Orange.png,2,Positive,Incongruent,,,,,0,0,0,0,,,,,,,,,,,,,,,,,0,37,37,37,,,,,,,,,,,,,,,,,,,,,,,,,,,,,,,,,,,,,,,,,,,,,,,,,,,,,,,,,,,,,,,,,,,,,,,,,,,,,1.8348765522241592,1.1583915000082925,353.5348326000094,None,ScrollUp,정답입니다,353.5348326000094,None,353.5348326000094,None,353.5348326000094,None,353.5348326000094,None,354.5731839000073,None,354.5731839000073,355.07326810000814,,,,,,,,,,,,,,,,110,2022-05-03_16h43.10.489,FishGame,2022.1.1,60.17462676908364,
,1,넌 엉성해,4,Green,A,3,3.3,ScrollDown,ScrollUp,Green.png,3,Negative,Incongruent,,,,,0,0,0,0,,,,,,,,,,,,,,,,,,,,,0,0,0,0,,,,,,,,,,,,,,,,,,,,,,,,,,,,,,,,386.55709200000274,388.0578588000062,388.09032479999587,389.0407348000008,389.0906393000041,390.0402050999983,390.0402050999983,None,,,,,,,,,,,,,,,,,,,,,,,,,,,,,,,,,,1.060185174147288,1.0543731000070693,391.1924338999961,None,ScrollDown,정답입니다,391.1924338999961,None,391.1924338999961,None,391.1924338999961,None,391.1924338999961,None,392.08868800000346,None,392.08868800000346,392.59033560000535,355.57342210000206,None,355.57342210000206,None,0.03888889,-0.175,1,0,0,0.016269380008452572,None,385.5736850999965,None,,,110,2022-05-03_16h43.10.489,FishGame,2022.1.1,60.17462676908364,
,2,나를 보내줘,6,Green,A,0,0,ScrollUp,ScrollDown,Green.png,3,NonTarget,NonTarget,,,,,0,0,0,0,,,,,,,,,,,,,,,,,,,,,0,1,1,1,,,,,,,,,,,,,,,,,,,,,,,,,,,,,,,,,,,,,,,,,,,,,,,,,,,,,,,,,,,,,,,,,,,,,,,,,1.8101851791143417,0.9289807999884943,393.2198681000009,None,ScrollUp,정답입니다,393.2198681000009,None,393.2198681000009,None,393.2198681000009,None,393.2198681000009,None,394.0407094999973,None,394.0407094999973,394.5406296000001,,,,,,,,,,,,,,,,110,2022-05-03_16h43.10.489,FishGame,2022.1.1,60.17462676908364,
,3,넌 활발해,1,Orange,B,5.666666666666667,5.6,ScrollUp,ScrollDown,Orange.png,3,Positive,Incongruent,,,,,0,0,0,0,,,,,,,,,,,,,,,,,,,,,0,2,2,2,,,,,,,,,,,,,,,,,,,,,,,,,,,,,,,,,,,,,,,,,,,,,,,,,,,,,,,,,,,,,,,,,,,,,,,,,1.819444437821706,0.8574346000095829,395.1788835000043,None,ScrollUp,정답입니다,395.1788835000043,None,395.1788835000043,None,395.1788835000043,None,395.1788835000043,None,395.9236537999968,None,395.9236537999968,396.4239996999968,,,,,,,,,,,,,,,,110,2022-05-03_16h43.10.489,FishGame,2022.1.1,60.17462676908364,
,4,넌 논리적이야,2,Green,A,5.666666666666666,4.633333333333334,ScrollDown,ScrollUp,Green.png,3,Positive,Congruent,,,,,0,0,0,0,,,,,,,,,,,,,,,,,,,,,0,3,3,3,,,,,,,,,,,,,,,,,,,,,,,,,,,,,,,,,,,,,,,,,,,,,,,,,,,,,,,,,,,,,,,,,,,,,,,,,1.162037044763565,0.7968136999988928,397.05785920000926,None,ScrollDown,정답입니다,397.05785920000926,None,397.05785920000926,None,397.05785920000926,None,397.05785920000926,None,397.74209580000024,None,397.74209580000024,398.2571336999972,,,,,,,,,,,,,,,,110,2022-05-03_16h43.10.489,FishGame,2022.1.1,60.17462676908364,
,5,넌 과묵해,3,Green,A,3.875,4.4,ScrollDown,ScrollUp,Green.png,3,Neutral,Neutral,,,,,0,0,0,0,,,,,,,,,,,,,,,,,,,,,0,4,4,4,,,,,,,,,,,,,,,,,,,,,,,,,,,,,,,,,,,,,,,,,,,,,,,,,,,,,,,,,,,,,,,,,,,,,,,,,1.1651234477758408,0.8099859000067227,398.8915333000041,None,ScrollDown,정답입니다,398.8915333000041,None,398.8915333000041,None,398.8915333000041,None,398.8915333000041,None,399.58619010000257,None,399.58619010000257,400.0904567999969,,,,,,,,,,,,,,,,110,2022-05-03_16h43.10.489,FishGame,2022.1.1,60.17462676908364,
,6,나를 데려가줘,6,Orange,B,0,0,ScrollDown,ScrollUp,Orange.png,3,NonTarget,NonTarget,,,,,0,0,0,0,,,,,,,,,,,,,,,,,,,,,0,5,5,5,,,,,,,,,,,,,,,,,,,,,,,,,,,,,,,,,,,,,,,,,,,,,,,,,,,,,,,,,,,,,,,,,,,,,,,,,1.1450617164373398,0.9398131000052672,400.7243814000103,None,ScrollDown,정답입니다,400.7243814000103,None,400.7243814000103,None,400.7243814000103,None,400.7243814000103,None,401.55814459999965,None,401.55814459999965,402.0577959000075,,,,,,,,,,,,,,,,110,2022-05-03_16h43.10.489,FishGame,2022.1.1,60.17462676908364,
,7,넌 미숙해,4,Orange,B,3,3,ScrollUp,ScrollDown,Orange.png,3,Negative,Congruent,,,,,0,0,0,0,,,,,,,,,,,,,,,,,,,,,0,6,6,6,,,,,,,,,,,,,,,,,,,,,,,,,,,,,,,,,,,,,,,,,,,,,,,,,,,,,,,,,,,,,,,,,,,,,,,,,1.3333333308498063,0.8306823000020813,402.68565440000384,None,ScrollDown,오답입니다,402.68565440000384,None,402.68565440000384,None,402.68565440000384,None,402.68565440000384,None,403.41207440001017,None,403.41207440001017,403.923775999996,,,,,,,,,,,,,,,,110,2022-05-03_16h43.10.489,FishGame,2022.1.1,60.17462676908364,
,8,나를 보내줘,6,Green,A,0,0,ScrollUp,ScrollDown,Green.png,3,NonTarget,NonTarget,,,,,0,0,0,0,,,,,,,,,,,,,,,,,,,,,0,7,7,7,,,,,,,,,,,,,,,,,,,,,,,,,,,,,,,,,,,,,,,,,,,,,,,,,,,,,,,,,,,,,,,,,,,,,,,,,1.67746914178133,1.1079885000071954,404.5529391000018,None,ScrollUp,정답입니다,404.5529391000018,None,404.5529391000018,None,404.5529391000018,None,404.5529391000018,None,405.5573341999989,None,405.5573341999989,406.0574456000031,,,,,,,,,,,,,,,,110,2022-05-03_16h43.10.489,FishGame,2022.1.1,60.17462676908364,
,9,넌 자신만만해,3,Orange,B,4.833333333333334,4.333333333333333,ScrollUp,ScrollDown,Orange.png,3,Neutral,Neutral,,,,,0,0,0,0,,,,,,,,,,,,,,,,,,,,,0,8,8,8,,,,,,,,,,,,,,,,,,,,,,,,,,,,,,,,,,,,,,,,,,,,,,,,,,,,,,,,,,,,,,,,,,,,,,,,,1.6064814875523248,1.0733359000005294,406.68860629999836,None,ScrollUp,정답입니다,406.68860629999836,None,406.68860629999836,None,406.68860629999836,None,406.68860629999836,None,407.6583580000006,None,407.6583580000006,408.15742730000056,,,,,,,,,,,,,,,,110,2022-05-03_16h43.10.489,FishGame,2022.1.1,60.17462676908364,
,10,넌 탐욕스러워,5,Green,A,2.25,2.1,ScrollDown,ScrollUp,Green.png,3,Negative,Incongruent,,,,,0,0,0,0,,,,,,,,,,,,,,,,,,,,,0,9,9,9,,,,,,,,,,,,,,,,,,,,,,,,,,,,,,,,,,,,,,,,,,,,,,,,,,,,,,,,,,,,,,,,,,,,,,,,,1.2407407313585281,1.023409500005073,408.79281070000434,None,ScrollDown,정답입니다,408.79281070000434,None,408.79281070000434,None,408.79281070000434,None,408.79281070000434,None,409.7077169999975,None,409.7077169999975,410.2080552999978,,,,,,,,,,,,,,,,110,2022-05-03_16h43.10.489,FishGame,2022.1.1,60.17462676908364,
,11,넌 인기있어,2,Green,A,5.458333333333333,4.5,ScrollDown,ScrollUp,Green.png,3,Positive,Congruent,,,,,0,0,0,0,,,,,,,,,,,,,,,,,,,,,0,10,10,10,,,,,,,,,,,,,,,,,,,,,,,,,,,,,,,,,,,,,,,,,,,,,,,,,,,,,,,,,,,,,,,,,,,,,,,,,1.2283950696388881,1.244716300003347,410.8336510000081,None,ScrollDown,정답입니다,410.8336510000081,None,410.8336510000081,None,410.8336510000081,None,410.8336510000081,None,411.9712545000075,None,411.9712545000075,412.4742145000055,,,,,,,,,,,,,,,,110,2022-05-03_16h43.10.489,FishGame,2022.1.1,60.17462676908364,
,12,나를 데려가줘,6,Orange,B,0,0,ScrollDown,ScrollUp,Orange.png,3,NonTarget,NonTarget,,,,,0,0,0,0,,,,,,,,,,,,,,,,,,,,,0,11,11,11,,,,,,,,,,,,,,,,,,,,,,,,,,,,,,,,,,,,,,,,,,,,,,,,,,,,,,,,,,,,,,,,,,,,,,,,,1.3333333308498063,0.9466766999976244,413.1083112000051,None,ScrollDown,정답입니다,413.1083112000051,None,413.1083112000051,None,413.1083112000051,None,413.1083112000051,None,413.9422620999976,None,413.9422620999976,414.45804890000727,,,,,,,,,,,,,,,,110,2022-05-03_16h43.10.489,FishGame,2022.1.1,60.17462676908364,
,13,넌 뛰어나,2,Orange,B,6.166666666666667,4,ScrollUp,ScrollDown,Orange.png,3,Positive,Incongruent,,,,,0,0,0,0,,,,,,,,,,,,,,,,,,,,,0,12,12,12,,,,,,,,,,,,,,,,,,,,,,,,,,,,,,,,,,,,,,,,,,,,,,,,,,,,,,,,,,,,,,,,,,,,,,,,,1.4907407405165334,0.9812067999882856,415.09085980000964,None,NoResponse,무응답입니다,415.09085980000964,None,415.09085980000964,None,415.09085980000964,None,415.09085980000964,None,415.9633243999997,None,415.9633243999997,416.4742075000104,,,,,,,,,,,,,,,,110,2022-05-03_16h43.10.489,FishGame,2022.1.1,60.17462676908364,
,14,넌 낙관적이야,1,Green,A,5.75,5.8,ScrollDown,ScrollUp,Green.png,3,Positive,Congruent,,,,,0,0,0,0,,,,,,,,,,,,,,,,,,,,,0,13,13,13,,,,,,,,,,,,,,,,,,,,,,,,,,,,,,,,,,,,,,,,,,,,,,,,,,,,,,,,,,,,,,,,,,,,,,,,,1.120370368162791,1.308006799998111,417.10949940000137,None,ScrollDown,정답입니다,417.10949940000137,None,417.10949940000137,None,417.10949940000137,None,417.10949940000137,None,418.30788849999954,None,418.30788849999954,418.8081899000099,,,,,,,,,,,,,,,,110,2022-05-03_16h43.10.489,FishGame,2022.1.1,60.17462676908364,
,15,넌 산만해,4,Orange,B,2.695652173913043,3.033333333333333,ScrollUp,ScrollDown,Orange.png,3,Negative,Congruent,,,,,0,0,0,0,,,,,,,,,,,,,,,,,,,,,0,14,14,14,,,,,,,,,,,,,,,,,,,,,,,,,,,,,,,,,,,,,,,,,,,,,,,,,,,,,,,,,,,,,,,,,,,,,,,,,2,1.0863018999953056,419.4403972,None,ScrollUp,정답입니다,419.4403972,None,419.4403972,None,419.4403972,None,419.4403972,None,420.4226493000024,None,420.4226493000024,420.9242215999984,,,,,,,,,,,,,,,,110,2022-05-03_16h43.10.489,FishGame,2022.1.1,60.17462676908364,
,16,나를 보내줘,6,Green,A,0,0,ScrollUp,ScrollDown,Green.png,3,NonTarget,NonTarget,,,,,0,0,0,0,,,,,,,,,,,,,,,,,,,,,0,15,15,15,,,,,,,,,,,,,,,,,,,,,,,,,,,,,,,,,,,,,,,,,,,,,,,,,,,,,,,,,,,,,,,,,,,,,,,,,2,1.0571369999961462,421.5488203999994,None,ScrollUp,정답입니다,421.5488203999994,None,421.5488203999994,None,421.5488203999994,None,421.5488203999994,None,422.5061817000096,None,422.5061817000096,423.0080617000058,,,,,,,,,,,,,,,,110,2022-05-03_16h43.10.489,FishGame,2022.1.1,60.17462676908364,
,17,넌 교활해,5,Orange,B,2.333333333333333,2.133333333333333,ScrollUp,ScrollDown,Orange.png,3,Negative,Congruent,,,,,0,0,0,0,,,,,,,,,,,,,,,,,,,,,0,16,16,16,,,,,,,,,,,,,,,,,,,,,,,,,,,,,,,,,,,,,,,,,,,,,,,,,,,,,,,,,,,,,,,,,,,,,,,,,2,1.034622399994987,423.63974790000066,None,ScrollUp,정답입니다,423.63974790000066,None,423.63974790000066,None,423.63974790000066,None,423.63974790000066,None,424.56289300000935,None,424.56289300000935,425.07438390000607,,,,,,,,,,,,,,,,110,2022-05-03_16h43.10.489,FishGame,2022.1.1,60.17462676908364,
,18,나를 보내줘,6,Green,A,0,0,ScrollUp,ScrollDown,Green.png,3,NonTarget,NonTarget,,,,,0,0,0,0,,,,,,,,,,,,,,,,,,,,,0,17,17,17,,,,,,,,,,,,,,,,,,,,,,,,,,,,,,,,,,,,,,,,,,,,,,,,,,,,,,,,,,,,,,,,,,,,,,,,,2,1.0575221000035526,425.70646020000277,None,ScrollUp,정답입니다,425.70646020000277,None,425.70646020000277,None,425.70646020000277,None,425.70646020000277,None,426.6564145000011,None,426.6564145000011,427.15816160000395,,,,,,,,,,,,,,,,110,2022-05-03_16h43.10.489,FishGame,2022.1.1,60.17462676908364,
,19,넌 불친절해,5,Orange,B,2.208333333333333,2.033333333333333,ScrollUp,ScrollDown,Orange.png,3,Negative,Congruent,,,,,0,0,0,0,,,,,,,,,,,,,,,,,,,,,0,18,18,18,,,,,,,,,,,,,,,,,,,,,,,,,,,,,,,,,,,,,,,,,,,,,,,,,,,,,,,,,,,,,,,,,,,,,,,,,2,1.1055397000018274,427.7993911000085,None,ScrollUp,정답입니다,427.7993911000085,None,427.7993911000085,None,427.7993911000085,None,427.7993911000085,None,428.78944390000834,None,428.78944390000834,429.29134049999993,,,,,,,,,,,,,,,,110,2022-05-03_16h43.10.489,FishGame,2022.1.1,60.17462676908364,
,20,넌 지적이야,2,Orange,B,5.75,4.366666666666666,ScrollUp,ScrollDown,Orange.png,3,Positive,Incongruent,,,,,0,0,0,0,,,,,,,,,,,,,,,,,,,,,0,19,19,19,,,,,,,,,,,,,,,,,,,,,,,,,,,,,,,,,,,,,,,,,,,,,,,,,,,,,,,,,,,,,,,,,,,,,,,,,2,1.1656120999978157,429.91812810000556,None,ScrollUp,정답입니다,429.91812810000556,None,429.91812810000556,None,429.91812810000556,None,429.91812810000556,None,430.9770406000025,None,430.9770406000025,431.49143330000516,,,,,,,,,,,,,,,,110,2022-05-03_16h43.10.489,FishGame,2022.1.1,60.17462676908364,
,21,넌 우유부단해,4,Green,A,2.666666666666667,3.166666666666667,ScrollDown,ScrollUp,Green.png,3,Negative,Incongruent,,,,,0,0,0,0,,,,,,,,,,,,,,,,,,,,,0,20,20,20,,,,,,,,,,,,,,,,,,,,,,,,,,,,,,,,,,,,,,,,,,,,,,,,,,,,,,,,,,,,,,,,,,,,,,,,,1,1.0614590000041062,432.12799639999866,None,ScrollDown,정답입니다,432.12799639999866,None,432.12799639999866,None,432.12799639999866,None,432.12799639999866,None,433.0749998999963,None,433.0749998999963,433.57445559999906,,,,,,,,,,,,,,,,110,2022-05-03_16h43.10.489,FishGame,2022.1.1,60.17462676908364,
,22,나를 데려가줘,6,Orange,B,0,0,ScrollDown,ScrollUp,Orange.png,3,NonTarget,NonTarget,,,,,0,0,0,0,,,,,,,,,,,,,,,,,,,,,0,21,21,21,,,,,,,,,,,,,,,,,,,,,,,,,,,,,,,,,,,,,,,,,,,,,,,,,,,,,,,,,,,,,,,,,,,,,,,,,1,1.142918900004588,434.205695800003,None,ScrollDown,정답입니다,434.205695800003,None,434.205695800003,None,434.205695800003,None,434.205695800003,None,435.2416496000078,None,435.2416496000078,435.7415323000023,,,,,,,,,,,,,,,,110,2022-05-03_16h43.10.489,FishGame,2022.1.1,60.17462676908364,
,23,넌 성실해,1,Orange,B,6.041666666666666,5.7,ScrollUp,ScrollDown,Orange.png,3,Positive,Incongruent,,,,,0,0,0,0,,,,,,,,,,,,,,,,,,,,,0,22,22,22,,,,,,,,,,,,,,,,,,,,,,,,,,,,,,,,,,,,,,,,,,,,,,,,,,,,,,,,,,,,,,,,,,,,,,,,,2,1.0910932999977376,436.3756580000045,None,ScrollUp,정답입니다,436.3756580000045,None,436.3756580000045,None,436.3756580000045,None,436.3756580000045,None,437.35811820000526,None,437.35811820000526,437.85826680000173,,,,,,,,,,,,,,,,110,2022-05-03_16h43.10.489,FishGame,2022.1.1,60.17462676908364,
,24,넌 현실주의적이야,3,Green,A,4.625,4.4,ScrollDown,ScrollUp,Green.png,3,Neutral,Neutral,,,,,0,0,0,0,,,,,,,,,,,,,,,,,,,,,0,23,23,23,,,,,,,,,,,,,,,,,,,,,,,,,,,,,,,,,,,,,,,,,,,,,,,,,,,,,,,,,,,,,,,,,,,,,,,,,1,0.9598243999935221,438.4890049000096,None,ScrollDown,정답입니다,438.4890049000096,None,438.4890049000096,None,438.4890049000096,None,438.4890049000096,None,439.3416789000039,None,439.3416789000039,439.84140679999837,,,,,,,,,,,,,,,,110,2022-05-03_16h43.10.489,FishGame,2022.1.1,60.17462676908364,
,25,넌 진실돼,1,Green,A,6.625,5.566666666666666,ScrollDown,ScrollUp,Green.png,3,Positive,Congruent,,,,,0,0,0,0,,,,,,,,,,,,,,,,,,,,,0,24,24,24,,,,,,,,,,,,,,,,,,,,,,,,,,,,,,,,,,,,,,,,,,,,,,,,,,,,,,,,,,,,,,,,,,,,,,,,,1,0.9573825999977998,440.46937950000574,None,ScrollDown,정답입니다,440.46937950000574,None,440.46937950000574,None,440.46937950000574,None,440.46937950000574,None,441.32274920000054,None,441.32274920000054,441.8248001000029,,,,,,,,,,,,,,,,110,2022-05-03_16h43.10.489,FishGame,2022.1.1,60.17462676908364,
,26,넌 천진난만해,3,Orange,B,4.958333333333334,4.833333333333333,ScrollUp,ScrollDown,Orange.png,3,Neutral,Neutral,,,,,0,0,0,0,,,,,,,,,,,,,,,,,,,,,0,25,25,25,,,,,,,,,,,,,,,,,,,,,,,,,,,,,,,,,,,,,,,,,,,,,,,,,,,,,,,,,,,,,,,,,,,,,,,,,2,1.028048599997419,442.4682111000002,None,ScrollUp,정답입니다,442.4682111000002,None,442.4682111000002,None,442.4682111000002,None,442.4682111000002,None,443.3747394000093,None,443.3747394000093,443.8748113000038,,,,,,,,,,,,,,,,110,2022-05-03_16h43.10.489,FishGame,2022.1.1,60.17462676908364,
,27,넌 교양없어,5,Green,A,2.416666666666667,2.2,ScrollDown,ScrollUp,Green.png,3,Negative,Incongruent,,,,,0,0,0,0,,,,,,,,,,,,,,,,,,,,,0,26,26,26,,,,,,,,,,,,,,,,,,,,,,,,,,,,,,,,,,,,,,,,,,,,,,,,,,,,,,,,,,,,,,,,,,,,,,,,,1,1.0392265000118641,444.5085705000092,None,ScrollDown,정답입니다,444.5085705000092,None,444.5085705000092,None,444.5085705000092,None,444.5085705000092,None,445.4397059000039,None,445.4397059000039,445.94185040000593,,,,,,,,,,,,,,,,110,2022-05-03_16h43.10.489,FishGame,2022.1.1,60.17462676908364,
,28,나를 보내줘,6,Green,A,0,0,ScrollUp,ScrollDown,Green.png,3,NonTarget,NonTarget,,,,,0,0,0,0,,,,,,,,,,,,,,,,,,,,,0,27,27,27,,,,,,,,,,,,,,,,,,,,,,,,,,,,,,,,,,,,,,,,,,,,,,,,,,,,,,,,,,,,,,,,,,,,,,,,,2,0.9978337999928044,446.56704710000486,None,ScrollUp,정답입니다,446.56704710000486,None,446.56704710000486,None,446.56704710000486,None,446.56704710000486,None,447.46102220000466,None,447.46102220000466,447.97494339999685,,,,,,,,,,,,,,,,110,2022-05-03_16h43.10.489,FishGame,2022.1.1,60.17462676908364,
,29,넌 엉뚱스러워,3,Green,A,4.166666666666667,4.133333333333334,ScrollDown,ScrollUp,Green.png,3,Neutral,Neutral,,,,,0,0,0,0,,,,,,,,,,,,,,,,,,,,,0,28,28,28,,,,,,,,,,,,,,,,,,,,,,,,,,,,,,,,,,,,,,,,,,,,,,,,,,,,,,,,,,,,,,,,,,,,,,,,,1,1.0440581999864662,448.607940700007,None,ScrollDown,정답입니다,448.607940700007,None,448.607940700007,None,448.607940700007,None,448.607940700007,None,449.5419724000094,None,449.5419724000094,450.0415042000095,,,,,,,,,,,,,,,,110,2022-05-03_16h43.10.489,FishGame,2022.1.1,60.17462676908364,
,30,넌 무지해,4,Orange,B,2.541666666666667,3.066666666666667,ScrollUp,ScrollDown,Orange.png,3,Negative,Congruent,,,,,0,0,0,0,,,,,,,,,,,,,,,,,,,,,0,29,29,29,,,,,,,,,,,,,,,,,,,,,,,,,,,,,,,,,,,,,,,,,,,,,,,,,,,,,,,,,,,,,,,,,,,,,,,,,2,1.031443899992155,450.66731920000166,None,ScrollUp,정답입니다,450.66731920000166,None,450.66731920000166,None,450.66731920000166,None,450.66731920000166,None,451.5933406999975,None,451.5933406999975,452.108527400007,,,,,,,,,,,,,,,,110,2022-05-03_16h43.10.489,FishGame,2022.1.1,60.17462676908364,
,31,넌 음울해,5,Orange,B,2.25,2.233333333333333,ScrollUp,ScrollDown,Orange.png,3,Negative,Congruent,,,,,0,0,0,0,,,,,,,,,,,,,,,,,,,,,0,30,30,30,,,,,,,,,,,,,,,,,,,,,,,,,,,,,,,,,,,,,,,,,,,,,,,,,,,,,,,,,,,,,,,,,,,,,,,,,2,0.9847869999939576,452.7449682000006,None,ScrollUp,정답입니다,452.7449682000006,None,452.7449682000006,None,452.7449682000006,None,452.7449682000006,None,453.6130822999985,None,453.6130822999985,454.12477399999625,,,,,,,,,,,,,,,,110,2022-05-03_16h43.10.489,FishGame,2022.1.1,60.17462676908364,
,32,넌 냉소적이야,5,Green,A,2.916666666666667,2.4,ScrollDown,ScrollUp,Green.png,3,Negative,Incongruent,,,,,0,0,0,0,,,,,,,,,,,,,,,,,,,,,0,31,31,31,,,,,,,,,,,,,,,,,,,,,,,,,,,,,,,,,,,,,,,,,,,,,,,,,,,,,,,,,,,,,,,,,,,,,,,,,1,1.001569300002302,454.7538745000056,None,ScrollDown,정답입니다,454.7538745000056,None,454.7538745000056,None,454.7538745000056,None,454.7538745000056,None,455.646750800006,None,455.646750800006,456.15859099999943,,,,,,,,,,,,,,,,110,2022-05-03_16h43.10.489,FishGame,2022.1.1,60.17462676908364,
,33,나를 데려가줘,6,Orange,B,0,0,ScrollDown,ScrollUp,Orange.png,3,NonTarget,NonTarget,,,,,0,0,0,0,,,,,,,,,,,,,,,,,,,,,0,32,32,32,,,,,,,,,,,,,,,,,,,,,,,,,,,,,,,,,,,,,,,,,,,,,,,,,,,,,,,,,,,,,,,,,,,,,,,,,1,1.0284038999961922,456.7866253000102,None,ScrollDown,정답입니다,456.7866253000102,None,456.7866253000102,None,456.7866253000102,None,456.7866253000102,None,457.7082495000068,None,457.7082495000068,458.20855830000073,,,,,,,,,,,,,,,,110,2022-05-03_16h43.10.489,FishGame,2022.1.1,60.17462676908364,
,34,넌 쾌활해,1,Green,A,5.541666666666666,5.733333333333333,ScrollDown,ScrollUp,Green.png,3,Positive,Congruent,,,,,0,0,0,0,,,,,,,,,,,,,,,,,,,,,0,33,33,33,,,,,,,,,,,,,,,,,,,,,,,,,,,,,,,,,,,,,,,,,,,,,,,,,,,,,,,,,,,,,,,,,,,,,,,,,1.0972222338120143,0.9947921999992104,458.8372920999973,None,ScrollDown,정답입니다,458.8372920999973,None,458.8372920999973,None,458.8372920999973,None,458.8372920999973,None,459.7255124000076,None,459.7255124000076,460.22566700000607,,,,,,,,,,,,,,,,110,2022-05-03_16h43.10.489,FishGame,2022.1.1,60.17462676908364,
,35,나를 보내줘,6,Green,A,0,0,ScrollUp,ScrollDown,Green.png,3,NonTarget,NonTarget,,,,,0,0,0,0,,,,,,,,,,,,,,,,,,,,,0,34,34,34,,,,,,,,,,,,,,,,,,,,,,,,,,,,,,,,,,,,,,,,,,,,,,,,,,,,,,,,,,,,,,,,,,,,,,,,,2,0.9798633000027621,460.84784729999956,None,ScrollUp,정답입니다,460.84784729999956,None,460.84784729999956,None,460.84784729999956,None,460.84784729999956,None,461.7258259000082,None,461.7258259000082,462.2256908999989,,,,,,,,,,,,,,,,110,2022-05-03_16h43.10.489,FishGame,2022.1.1,60.17462676908364,
,36,넌 명랑해,1,Orange,B,5.739130434782609,5.666666666666667,ScrollUp,ScrollDown,Orange.png,3,Positive,Incongruent,,,,,0,0,0,0,,,,,,,,,,,,,,,,,,,,,0,35,35,35,,,,,,,,,,,,,,,,,,,,,,,,,,,,,,,,,,,,,,,,,,,,,,,,,,,,,,,,,,,,,,,,,,,,,,,,,2,0.9993954000092344,462.8579277999961,None,ScrollUp,정답입니다,462.8579277999961,None,462.8579277999961,None,462.8579277999961,None,462.8579277999961,None,463.747166000001,None,463.747166000001,464.2585306999972,,,,,,,,,,,,,,,,110,2022-05-03_16h43.10.489,FishGame,2022.1.1,60.17462676908364,
,37,넌 멍해,4,Green,A,2.833333333333333,3.4,ScrollDown,ScrollUp,Green.png,3,Negative,Incongruent,,,,,0,0,0,0,,,,,,,,,,,,,,,,,,,,,0,36,36,36,,,,,,,,,,,,,,,,,,,,,,,,,,,,,,,,,,,,,,,,,,,,,,,,,,,,,,,,,,,,,,,,,,,,,,,,,1,1.0236231000017142,464.8879350000061,None,ScrollDown,정답입니다,464.8879350000061,None,464.8879350000061,None,464.8879350000061,None,464.8879350000061,None,465.8070294000063,None,465.8070294000063,466.30900570000813,,,,,,,,,,,,,,,,110,2022-05-03_16h43.10.489,FishGame,2022.1.1,60.17462676908364,
,38,나를 데려가줘,6,Orange,B,0,0,ScrollDown,ScrollUp,Orange.png,3,NonTarget,NonTarget,,,,,0,0,0,0,,,,,,,,,,,,,,,,,,,,,0,37,37,37,,,,,,,,,,,,,,,,,,,,,,,,,,,,,,,,,,,,,,,,,,,,,,,,,,,,,,,,,,,,,,,,,,,,,,,,,1,1.0072723999910522,466.9388823000045,None,ScrollDown,정답입니다,466.9388823000045,None,466.9388823000045,None,466.9388823000045,None,466.9388823000045,None,467.8405483999959,None,467.8405483999959,468.3420677000104,,,,,,,,,,,,,,,,110,2022-05-03_16h43.10.489,FishGame,2022.1.1,60.17462676908364,
,39,넌 현명해,2,Green,A,6.541666666666666,4.533333333333333,ScrollDown,ScrollUp,Green.png,3,Positive,Congruent,,,,,0,0,0,0,,,,,,,,,,,,,,,,,,,,,0,38,38,38,,,,,,,,,,,,,,,,,,,,,,,,,,,,,,,,,,,,,,,,,,,,,,,,,,,,,,,,,,,,,,,,,,,,,,,,,1,0.9365570999943884,468.9617148999969,None,ScrollDown,정답입니다,468.9617148999969,None,468.9617148999969,None,468.9617148999969,None,468.9617148999969,None,469.8071956000058,None,469.8071956000058,470.3085857999977,,,,,,,,,,,,,,,,110,2022-05-03_16h43.10.489,FishGame,2022.1.1,60.17462676908364,
,40,넌 수줍어,3,Orange,B,3.541666666666666,4.366666666666666,ScrollUp,ScrollDown,Orange.png,3,Neutral,Neutral,,,,,0,0,0,0,,,,,,,,,,,,,,,,,,,,,0,39,39,39,,,,,,,,,,,,,,,,,,,,,,,,,,,,,,,,,,,,,,,,,,,,,,,,,,,,,,,,,,,,,,,,,,,,,,,,,1.9537037014961243,0.9200721999950474,470.9431482000073,None,ScrollUp,정답입니다,470.9431482000073,None,470.9431482000073,None,470.9431482000073,None,470.9431482000073,None,471.7466771000036,None,471.7466771000036,472.2591085000022,,,,,,,,,,,,,,,,110,2022-05-03_16h43.10.489,FishGame,2022.1.1,60.17462676908364,
,41,나를 데려가줘,6,Orange,B,0,0,ScrollDown,ScrollUp,Orange.png,3,NonTarget,NonTarget,,,,,0,0,0,0,,,,,,,,,,,,,,,,,,,,,0,40,40,40,,,,,,,,,,,,,,,,,,,,,,,,,,,,,,,,,,,,,,,,,,,,,,,,,,,,,,,,,,,,,,,,,,,,,,,,,1.060185174147288,0.9617351999913808,472.88937430000806,None,ScrollDown,정답입니다,472.88937430000806,None,472.88937430000806,None,472.88937430000806,None,472.88937430000806,None,473.7428032000025,None,473.7428032000025,474.2422230000084,,,,,,,,,,,,,,,,110,2022-05-03_16h43.10.489,FishGame,2022.1.1,60.17462676908364,
,42,넌 성숙해,2,Orange,B,5.833333333333333,4.533333333333333,ScrollUp,ScrollDown,Orange.png,3,Positive,Incongruent,,,,,0,0,0,0,,,,,,,,,,,,,,,,,,,,,0,41,41,41,,,,,,,,,,,,,,,,,,,,,,,,,,,,,,,,,,,,,,,,,,,,,,,,,,,,,,,,,,,,,,,,,,,,,,,,,1.9938271641731262,1.0434053000062704,474.86804060000577,None,ScrollUp,정답입니다,474.86804060000577,None,474.86804060000577,None,474.86804060000577,None,474.86804060000577,None,475.808640800009,None,475.808640800009,476.30859880000935,,,,,,,,,,,,,,,,110,2022-05-03_16h43.10.489,FishGame,2022.1.1,60.17462676908364,
,1,넌 매력적이야,2,Orange,B,6.125,4.666666666666667,ScrollUp,ScrollDown,Orange.png,4,Positive,Incongruent,,,,,0,0,0,0,,,,,,,,,,,,,,,,,,,,,,,,,0,0,0,0,,,,,,,,,,,,,,,,,,,,,,,,,,,,507.7266565000027,509.2266238000011,509.26015230000485,510.2097460000077,510.25972580000234,511.2097913000034,511.2097913000034,None,,,,,,,,,,,,,,,,,,,,,,,,,,,,,,,,,,2,1.161800799993216,512.368226599996,None,ScrollUp,정답입니다,512.368226599996,None,512.368226599996,None,512.368226599996,None,512.368226599996,None,513.3638589000038,None,513.3638589000038,513.8765063000028,476.8086106999981,None,476.8086106999981,None,0.041666668,-0.12314815,1,0,0,0.016149480012245476,None,506.80952520000574,None,,,110,2022-05-03_16h43.10.489,FishGame,2022.1.1,60.17462676908364,
,2,나를 보내줘,6,Green,A,0,0,ScrollUp,ScrollDown,Green.png,4,NonTarget,NonTarget,,,,,0,0,0,0,,,,,,,,,,,,,,,,,,,,,,,,,0,1,1,1,,,,,,,,,,,,,,,,,,,,,,,,,,,,,,,,,,,,,,,,,,,,,,,,,,,,,,,,,,,,,,,,,,,,,2,0.9957796999951825,514.4988683999982,None,ScrollUp,정답입니다,514.4988683999982,None,514.4988683999982,None,514.4988683999982,None,514.4988683999982,None,515.3930438000098,None,515.3930438000098,515.8931680000096,,,,,,,,,,,,,,,,110,2022-05-03_16h43.10.489,FishGame,2022.1.1,60.17462676908364,
,3,넌 조심스러워,3,Green,A,4.791666666666666,4.666666666666667,ScrollDown,ScrollUp,Green.png,4,Neutral,Neutral,,,,,0,0,0,0,,,,,,,,,,,,,,,,,,,,,,,,,0,2,2,2,,,,,,,,,,,,,,,,,,,,,,,,,,,,,,,,,,,,,,,,,,,,,,,,,,,,,,,,,,,,,,,,,,,,,1.1651234477758408,0.8083783000038238,516.5194727000053,None,ScrollDown,정답입니다,516.5194727000053,None,516.5194727000053,None,516.5194727000053,None,516.5194727000053,None,517.226324800009,None,517.226324800009,517.7269911000039,,,,,,,,,,,,,,,,110,2022-05-03_16h43.10.489,FishGame,2022.1.1,60.17462676908364,
,4,넌 철학적이야,3,Orange,B,4.5,4.266666666666667,ScrollUp,ScrollDown,Orange.png,4,Neutral,Neutral,,,,,0,0,0,0,,,,,,,,,,,,,,,,,,,,,,,,,0,3,3,3,,,,,,,,,,,,,,,,,,,,,,,,,,,,,,,,,,,,,,,,,,,,,,,,,,,,,,,,,,,,,,,,,,,,,2,0.8729021000035573,518.3648168000072,None,ScrollUp,정답입니다,518.3648168000072,None,518.3648168000072,None,518.3648168000072,None,518.3648168000072,None,519.125123100006,None,519.125123100006,519.6269947999972,,,,,,,,,,,,,,,,110,2022-05-03_16h43.10.489,FishGame,2022.1.1,60.17462676908364,
,5,넌 쩨쩨해,5,Green,A,2.375,2.133333333333333,ScrollDown,ScrollUp,Green.png,4,Negative,Incongruent,,,,,0,0,0,0,,,,,,,,,,,,,,,,,,,,,,,,,0,4,4,4,,,,,,,,,,,,,,,,,,,,,,,,,,,,,,,,,,,,,,,,,,,,,,,,,,,,,,,,,,,,,,,,,,,,,1,0.8766296999965562,520.2503769000032,None,ScrollDown,정답입니다,520.2503769000032,None,520.2503769000032,None,520.2503769000032,None,520.2503769000032,None,521.0268324000062,None,521.0268324000062,521.5270773000084,,,,,,,,,,,,,,,,110,2022-05-03_16h43.10.489,FishGame,2022.1.1,60.17462676908364,
,6,나를 데려가줘,6,Orange,B,0,0,ScrollDown,ScrollUp,Orange.png,4,NonTarget,NonTarget,,,,,0,0,0,0,,,,,,,,,,,,,,,,,,,,,,,,,0,5,5,5,,,,,,,,,,,,,,,,,,,,,,,,,,,,,,,,,,,,,,,,,,,,,,,,,,,,,,,,,,,,,,,,,,,,,1.0432098706563313,1.092582900004345,522.1563249000028,None,ScrollDown,정답입니다,522.1563249000028,None,522.1563249000028,None,522.1563249000028,None,522.1563249000028,None,523.1434360999992,None,523.1434360999992,523.6433859000099,,,,,,,,,,,,,,,,110,2022-05-03_16h43.10.489,FishGame,2022.1.1,60.17462676908364,
,7,넌 고집불통이야,5,Orange,B,2.875,2,ScrollUp,ScrollDown,Orange.png,4,Negative,Congruent,,,,,0,0,0,0,,,,,,,,,,,,,,,,,,,,,,,,,0,6,6,6,,,,,,,,,,,,,,,,,,,,,,,,,,,,,,,,,,,,,,,,,,,,,,,,,,,,,,,,,,,,,,,,,,,,,2,0.9649478999926941,524.2849014000094,None,ScrollUp,정답입니다,524.2849014000094,None,524.2849014000094,None,524.2849014000094,None,524.2849014000094,None,525.1282356000011,None,525.1282356000011,525.643748100003,,,,,,,,,,,,,,,,110,2022-05-03_16h43.10.489,FishGame,2022.1.1,60.17462676908364,
,8,넌 무심해,4,Green,A,2.875,3.2,ScrollDown,ScrollUp,Green.png,4,Negative,Incongruent,,,,,0,0,0,0,,,,,,,,,,,,,,,,,,,,,,,,,0,7,7,7,,,,,,,,,,,,,,,,,,,,,,,,,,,,,,,,,,,,,,,,,,,,,,,,,,,,,,,,,,,,,,,,,,,,,1.0725308855374653,0.8406684000074165,526.2518246999971,None,ScrollDown,정답입니다,526.2518246999971,None,526.2518246999971,None,526.2518246999971,None,526.2518246999971,None,526.9935803999979,None,526.9935803999979,527.4934833000007,,,,,,,,,,,,,,,,110,2022-05-03_16h43.10.489,FishGame,2022.1.1,60.17462676908364,
,9,넌 정겨워,1,Green,A,5.791666666666667,5.666666666666667,ScrollDown,ScrollUp,Green.png,4,Positive,Congruent,,,,,0,0,0,0,,,,,,,,,,,,,,,,,,,,,,,,,0,8,8,8,,,,,,,,,,,,,,,,,,,,,,,,,,,,,,,,,,,,,,,,,,,,,,,,,,,,,,,,,,,,,,,,,,,,,1.1296296268701553,0.8275858999986667,528.1215346999961,None,ScrollDown,정답입니다,528.1215346999961,None,528.1215346999961,None,528.1215346999961,None,528.1215346999961,None,528.8431668999983,None,528.8431668999983,529.3433240000013,,,,,,,,,,,,,,,,110,2022-05-03_16h43.10.489,FishGame,2022.1.1,60.17462676908364,
,10,나를 데려가줘,6,Orange,B,0,0,ScrollDown,ScrollUp,Orange.png,4,NonTarget,NonTarget,,,,,0,0,0,0,,,,,,,,,,,,,,,,,,,,,,,,,0,9,9,9,,,,,,,,,,,,,,,,,,,,,,,,,,,,,,,,,,,,,,,,,,,,,,,,,,,,,,,,,,,,,,,,,,,,,1.0509259402751923,0.9287600000097882,529.9742265000095,None,ScrollDown,정답입니다,529.9742265000095,None,529.9742265000095,None,529.9742265000095,None,529.9742265000095,None,530.7930897000042,None,530.7930897000042,531.2932355000084,,,,,,,,,,,,,,,,110,2022-05-03_16h43.10.489,FishGame,2022.1.1,60.17462676908364,
,11,넌 체제순응적이야,4,Orange,B,3,3.6,ScrollUp,ScrollDown,Orange.png,4,Negative,Congruent,,,,,0,0,0,0,,,,,,,,,,,,,,,,,,,,,,,,,0,10,10,10,,,,,,,,,,,,,,,,,,,,,,,,,,,,,,,,,,,,,,,,,,,,,,,,,,,,,,,,,,,,,,,,,,,,,1.904320980111758,0.9394940000056522,531.9395540999976,None,ScrollUp,정답입니다,531.9395540999976,None,531.9395540999976,None,531.9395540999976,None,531.9395540999976,None,532.7583545000089,None,532.7583545000089,533.2599884000083,,,,,,,,,,,,,,,,110,2022-05-03_16h43.10.489,FishGame,2022.1.1,60.17462676908364,
,12,나를 보내줘,6,Green,A,0,0,ScrollUp,ScrollDown,Green.png,4,NonTarget,NonTarget,,,,,0,0,0,0,,,,,,,,,,,,,,,,,,,,,,,,,0,11,11,11,,,,,,,,,,,,,,,,,,,,,,,,,,,,,,,,,,,,,,,,,,,,,,,,,,,,,,,,,,,,,,,,,,,,,2,1.0751826000050642,533.8893561000004,None,ScrollUp,정답입니다,533.8893561000004,None,533.8893561000004,None,533.8893561000004,None,533.8893561000004,None,534.858309999996,None,534.858309999996,535.3608000000095,,,,,,,,,,,,,,,,110,2022-05-03_16h43.10.489,FishGame,2022.1.1,60.17462676908364,
,13,넌 박식해,2,Green,A,5.625,3.933333333333333,ScrollDown,ScrollUp,Green.png,4,Positive,Congruent,,,,,0,0,0,0,,,,,,,,,,,,,,,,,,,,,,,,,0,12,12,12,,,,,,,,,,,,,,,,,,,,,,,,,,,,,,,,,,,,,,,,,,,,,,,,,,,,,,,,,,,,,,,,,,,,,1,0.8396713999973144,535.9882304000057,None,ScrollDown,정답입니다,535.9882304000057,None,535.9882304000057,None,535.9882304000057,None,535.9882304000057,None,536.7257301000063,None,536.7257301000063,537.2275138999976,,,,,,,,,,,,,,,,110,2022-05-03_16h43.10.489,FishGame,2022.1.1,60.17462676908364,
,14,나를 보내줘,6,Green,A,0,0,ScrollUp,ScrollDown,Green.png,4,NonTarget,NonTarget,,,,,0,0,0,0,,,,,,,,,,,,,,,,,,,,,,,,,0,13,13,13,,,,,,,,,,,,,,,,,,,,,,,,,,,,,,,,,,,,,,,,,,,,,,,,,,,,,,,,,,,,,,,,,,,,,1.9861110945542653,0.9420080999989295,537.8498819000088,None,ScrollUp,정답입니다,537.8498819000088,None,537.8498819000088,None,537.8498819000088,None,537.8498819000088,None,538.6935149000055,None,538.6935149000055,539.193941000005,,,,,,,,,,,,,,,,110,2022-05-03_16h43.10.489,FishGame,2022.1.1,60.17462676908364,
,15,넌 침착해,1,Orange,B,5.458333333333333,5.566666666666666,ScrollUp,ScrollDown,Orange.png,4,Positive,Incongruent,,,,,0,0,0,0,,,,,,,,,,,,,,,,,,,,,,,,,0,14,14,14,,,,,,,,,,,,,,,,,,,,,,,,,,,,,,,,,,,,,,,,,,,,,,,,,,,,,,,,,,,,,,,,,,,,,2,1.0764828999963356,539.8325140000088,None,ScrollUp,정답입니다,539.8325140000088,None,539.8325140000088,None,539.8325140000088,None,539.8325140000088,None,540.793937399998,None,540.793937399998,541.2942150000017,,,,,,,,,,,,,,,,110,2022-05-03_16h43.10.489,FishGame,2022.1.1,60.17462676908364,
,16,나를 데려가줘,6,Orange,B,0,0,ScrollDown,ScrollUp,Orange.png,4,NonTarget,NonTarget,,,,,0,0,0,0,,,,,,,,,,,,,,,,,,,,,,,,,0,15,15,15,,,,,,,,,,,,,,,,,,,,,,,,,,,,,,,,,,,,,,,,,,,,,,,,,,,,,,,,,,,,,,,,,,,,,1,0.9325047000020277,541.9239757000032,None,ScrollDown,정답입니다,541.9239757000032,None,541.9239757000032,None,541.9239757000032,None,541.9239757000032,None,542.7484637000016,None,542.7484637000016,543.2604950000095,,,,,,,,,,,,,,,,110,2022-05-03_16h43.10.489,FishGame,2022.1.1,60.17462676908364,
,17,넌 행복해,1,Green,A,6.416666666666666,6.166666666666667,ScrollDown,ScrollUp,Green.png,4,Positive,Congruent,,,,,0,0,0,0,,,,,,,,,,,,,,,,,,,,,,,,,0,16,16,16,,,,,,,,,,,,,,,,,,,,,,,,,,,,,,,,,,,,,,,,,,,,,,,,,,,,,,,,,,,,,,,,,,,,,1,1.0013840000028722,543.8915606000082,None,ScrollDown,정답입니다,543.8915606000082,None,543.8915606000082,None,543.8915606000082,None,543.8915606000082,None,544.7821877999959,None,544.7821877999959,545.2942954000027,,,,,,,,,,,,,,,,110,2022-05-03_16h43.10.489,FishGame,2022.1.1,60.17462676908364,
,18,넌 겸손해,2,Orange,B,5.791666666666667,4.766666666666667,ScrollUp,ScrollDown,Orange.png,4,Positive,Incongruent,,,,,0,0,0,0,,,,,,,,,,,,,,,,,,,,,,,,,0,17,17,17,,,,,,,,,,,,,,,,,,,,,,,,,,,,,,,,,,,,,,,,,,,,,,,,,,,,,,,,,,,,,,,,,,,,,1.9814815024534862,0.9864610000076937,545.927775300006,None,ScrollUp,정답입니다,545.927775300006,None,545.927775300006,None,545.927775300006,None,545.927775300006,None,546.7987604000082,None,546.7987604000082,547.310573900002,,,,,,,,,,,,,,,,110,2022-05-03_16h43.10.489,FishGame,2022.1.1,60.17462676908364,
,19,나를 보내줘,6,Green,A,0,0,ScrollUp,ScrollDown,Green.png,4,NonTarget,NonTarget,,,,,0,0,0,0,,,,,,,,,,,,,,,,,,,,,,,,,0,18,18,18,,,,,,,,,,,,,,,,,,,,,,,,,,,,,,,,,,,,,,,,,,,,,,,,,,,,,,,,,,,,,,,,,,,,,2,0.9922962999989977,547.9379451999994,None,ScrollUp,정답입니다,547.9379451999994,None,547.9379451999994,None,547.9379451999994,None,547.9379451999994,None,548.8271206000063,None,548.8271206000063,549.327718600005,,,,,,,,,,,,,,,,110,2022-05-03_16h43.10.489,FishGame,2022.1.1,60.17462676908364,
,20,넌 의심없어,3,Green,A,4.166666666666667,4.6,ScrollDown,ScrollUp,Green.png,4,Neutral,Neutral,,,,,0,0,0,0,,,,,,,,,,,,,,,,,,,,,,,,,0,19,19,19,,,,,,,,,,,,,,,,,,,,,,,,,,,,,,,,,,,,,,,,,,,,,,,,,,,,,,,,,,,,,,,,,,,,,1.0385802288850148,0.9475899999961257,549.9531292000029,None,ScrollDown,정답입니다,549.9531292000029,None,549.9531292000029,None,549.9531292000029,None,549.9531292000029,None,550.7973385000078,None,550.7973385000078,551.3110110999987,,,,,,,,,,,,,,,,110,2022-05-03_16h43.10.489,FishGame,2022.1.1,60.17462676908364,
,21,넌 시시해,4,Green,A,2.666666666666667,2.966666666666667,ScrollDown,ScrollUp,Green.png,4,Negative,Incongruent,,,,,0,0,0,0,,,,,,,,,,,,,,,,,,,,,,,,,0,20,20,20,,,,,,,,,,,,,,,,,,,,,,,,,,,,,,,,,,,,,,,,,,,,,,,,,,,,,,,,,,,,,,,,,,,,,1,0.8661507999931928,551.9317100000044,None,ScrollDown,정답입니다,551.9317100000044,None,551.9317100000044,None,551.9317100000044,None,551.9317100000044,None,552.6994134999986,None,552.6994134999986,553.2110097999976,,,,,,,,,,,,,,,,110,2022-05-03_16h43.10.489,FishGame,2022.1.1,60.17462676908364,
,22,나를 데려가줘,6,Orange,B,0,0,ScrollDown,ScrollUp,Orange.png,4,NonTarget,NonTarget,,,,,0,0,0,0,,,,,,,,,,,,,,,,,,,,,,,,,0,21,21,21,,,,,,,,,,,,,,,,,,,,,,,,,,,,,,,,,,,,,,,,,,,,,,,,,,,,,,,,,,,,,,,,,,,,,1,1.1186567999975523,553.8368208000029,None,ScrollDown,정답입니다,553.8368208000029,None,553.8368208000029,None,553.8368208000029,None,553.8368208000029,None,554.8495916000102,None,554.8495916000102,555.3606695000053,,,,,,,,,,,,,,,,110,2022-05-03_16h43.10.489,FishGame,2022.1.1,60.17462676908364,
,23,넌 무정해,5,Green,A,2.5,2.2,ScrollDown,ScrollUp,Green.png,4,Negative,Incongruent,,,,,0,0,0,0,,,,,,,,,,,,,,,,,,,,,,,,,0,22,22,22,,,,,,,,,,,,,,,,,,,,,,,,,,,,,,,,,,,,,,,,,,,,,,,,,,,,,,,,,,,,,,,,,,,,,1.0787036915620167,1.0679863999976078,555.9845122999977,None,ScrollDown,정답입니다,555.9845122999977,None,555.9845122999977,None,555.9845122999977,None,555.9845122999977,None,556.9492785000039,None,556.9492785000039,557.4605500000034,,,,,,,,,,,,,,,,110,2022-05-03_16h43.10.489,FishGame,2022.1.1,60.17462676908364,
,24,넌 긍정적이야,1,Orange,B,6.041666666666667,6.066666666666666,ScrollUp,ScrollDown,Orange.png,4,Positive,Incongruent,,,,,0,0,0,0,,,,,,,,,,,,,,,,,,,,,,,,,0,23,23,23,,,,,,,,,,,,,,,,,,,,,,,,,,,,,,,,,,,,,,,,,,,,,,,,,,,,,,,,,,,,,,,,,,,,,2,1.150776999988011,558.09869910001,None,ScrollUp,정답입니다,558.09869910001,None,558.09869910001,None,558.09869910001,None,558.09869910001,None,559.1321084000083,None,559.1321084000083,559.6442051000049,,,,,,,,,,,,,,,,110,2022-05-03_16h43.10.489,FishGame,2022.1.1,60.17462676908364,
,25,나를 보내줘,6,Green,A,0,0,ScrollUp,ScrollDown,Green.png,4,NonTarget,NonTarget,,,,,0,0,0,0,,,,,,,,,,,,,,,,,,,,,,,,,0,24,24,24,,,,,,,,,,,,,,,,,,,,,,,,,,,,,,,,,,,,,,,,,,,,,,,,,,,,,,,,,,,,,,,,,,,,,1.9660493632157643,1.0687996000051498,560.267259100001,None,ScrollUp,정답입니다,560.267259100001,None,560.267259100001,None,560.267259100001,None,560.267259100001,None,561.2323448000097,None,561.2323448000097,561.7439727000019,,,,,,,,,,,,,,,,110,2022-05-03_16h43.10.489,FishGame,2022.1.1,60.17462676908364,
,26,넌 시기심이 많아,5,Orange,B,2.458333333333333,2.233333333333333,ScrollUp,ScrollDown,Orange.png,4,Negative,Congruent,,,,,0,0,0,0,,,,,,,,,,,,,,,,,,,,,,,,,0,25,25,25,,,,,,,,,,,,,,,,,,,,,,,,,,,,,,,,,,,,,,,,,,,,,,,,,,,,,,,,,,,,,,,,,,,,,2,1.1450760000006994,562.3808760999964,None,ScrollUp,정답입니다,562.3808760999964,None,562.3808760999964,None,562.3808760999964,None,562.3808760999964,None,563.4107421000081,None,563.4107421000081,563.9107025999983,,,,,,,,,,,,,,,,110,2022-05-03_16h43.10.489,FishGame,2022.1.1,60.17462676908364,
,27,넌 탁월해,2,Green,A,5.708333333333334,4.5,ScrollDown,ScrollUp,Green.png,4,Positive,Congruent,,,,,0,0,0,0,,,,,,,,,,,,,,,,,,,,,,,,,0,26,26,26,,,,,,,,,,,,,,,,,,,,,,,,,,,,,,,,,,,,,,,,,,,,,,,,,,,,,,,,,,,,,,,,,,,,,1,0.9894998999952804,564.5434676000004,None,ScrollDown,정답입니다,564.5434676000004,None,564.5434676000004,None,564.5434676000004,None,564.5434676000004,None,565.4257289000088,None,565.4257289000088,565.9275684000022,,,,,,,,,,,,,,,,110,2022-05-03_16h43.10.489,FishGame,2022.1.1,60.17462676908364,
,28,나를 데려가줘,6,Orange,B,0,0,ScrollDown,ScrollUp,Orange.png,4,NonTarget,NonTarget,,,,,0,0,0,0,,,,,,,,,,,,,,,,,,,,,,,,,0,27,27,27,,,,,,,,,,,,,,,,,,,,,,,,,,,,,,,,,,,,,,,,,,,,,,,,,,,,,,,,,,,,,,,,,,,,,1,1.0078107000008458,566.5630172000092,None,ScrollDown,정답입니다,566.5630172000092,None,566.5630172000092,None,566.5630172000092,None,566.5630172000092,None,567.4607341000083,None,567.4607341000083,567.9607612999971,,,,,,,,,,,,,,,,110,2022-05-03_16h43.10.489,FishGame,2022.1.1,60.17462676908364,
,29,넌 조용해,3,Orange,B,4.333333333333333,4.166666666666667,ScrollUp,ScrollDown,Orange.png,4,Neutral,Neutral,,,,,0,0,0,0,,,,,,,,,,,,,,,,,,,,,,,,,0,28,28,28,,,,,,,,,,,,,,,,,,,,,,,,,,,,,,,,,,,,,,,,,,,,,,,,,,,,,,,,,,,,,,,,,,,,,2,0.9992244000022765,568.5941603999963,None,ScrollUp,정답입니다,568.5941603999963,None,568.5941603999963,None,568.5941603999963,None,568.5941603999963,None,569.4815307999961,None,569.4815307999961,569.9943656999967,,,,,,,,,,,,,,,,110,2022-05-03_16h43.10.489,FishGame,2022.1.1,60.17462676908364,
,30,넌 다정해,1,Green,A,5.833333333333334,5.7,ScrollDown,ScrollUp,Green.png,4,Positive,Congruent,,,,,0,0,0,0,,,,,,,,,,,,,,,,,,,,,,,,,0,29,29,29,,,,,,,,,,,,,,,,,,,,,,,,,,,,,,,,,,,,,,,,,,,,,,,,,,,,,,,,,,,,,,,,,,,,,1,1.0865488999988884,570.6187137000088,None,ScrollDown,정답입니다,570.6187137000088,None,570.6187137000088,None,570.6187137000088,None,570.6187137000088,None,571.6088863000041,None,571.6088863000041,572.110886399998,,,,,,,,,,,,,,,,110,2022-05-03_16h43.10.489,FishGame,2022.1.1,60.17462676908364,
,31,넌 능력있어,2,Orange,B,6.166666666666666,4.6,ScrollUp,ScrollDown,Orange.png,4,Positive,Incongruent,,,,,0,0,0,0,,,,,,,,,,,,,,,,,,,,,,,,,0,30,30,30,,,,,,,,,,,,,,,,,,,,,,,,,,,,,,,,,,,,,,,,,,,,,,,,,,,,,,,,,,,,,,,,,,,,,1.9537037014961243,1.0994817000027979,572.7459483999992,None,ScrollUp,정답입니다,572.7459483999992,None,572.7459483999992,None,572.7459483999992,None,572.7459483999992,None,573.7324556000094,None,573.7324556000094,574.2448268000007,,,,,,,,,,,,,,,,110,2022-05-03_16h43.10.489,FishGame,2022.1.1,60.17462676908364,
,32,넌 불쾌해,5,Green,A,2.125,1.933333333333333,ScrollDown,ScrollUp,Green.png,4,Negative,Incongruent,,,,,0,0,0,0,,,,,,,,,,,,,,,,,,,,,,,,,0,31,31,31,,,,,,,,,,,,,,,,,,,,,,,,,,,,,,,,,,,,,,,,,,,,,,,,,,,,,,,,,,,,,,,,,,,,,1.0231481393178303,0.9332823000004282,574.8695950999972,None,ScrollDown,정답입니다,574.8695950999972,None,574.8695950999972,None,574.8695950999972,None,574.8695950999972,None,575.7003975999978,None,575.7003975999978,576.2115227000031,,,,,,,,,,,,,,,,110,2022-05-03_16h43.10.489,FishGame,2022.1.1,60.17462676908364,
,33,나를 데려가줘,6,Orange,B,0,0,ScrollDown,ScrollUp,Orange.png,4,NonTarget,NonTarget,,,,,0,0,0,0,,,,,,,,,,,,,,,,,,,,,,,,,0,32,32,32,,,,,,,,,,,,,,,,,,,,,,,,,,,,,,,,,,,,,,,,,,,,,,,,,,,,,,,,,,,,,,,,,,,,,1,1.0511802000110038,576.8425544000056,None,ScrollDown,정답입니다,576.8425544000056,None,576.8425544000056,None,576.8425544000056,None,576.8425544000056,None,577.7825421000016,None,577.7825421000016,578.2950515999983,,,,,,,,,,,,,,,,110,2022-05-03_16h43.10.489,FishGame,2022.1.1,60.17462676908364,
,34,넌 유순해,3,Green,A,4.458333333333333,5,ScrollDown,ScrollUp,Green.png,4,Neutral,Neutral,,,,,0,0,0,0,,,,,,,,,,,,,,,,,,,,,,,,,0,33,33,33,,,,,,,,,,,,,,,,,,,,,,,,,,,,,,,,,,,,,,,,,,,,,,,,,,,,,,,,,,,,,,,,,,,,,1.0354938507080078,1.0222691999952076,578.9181377000059,None,ScrollDown,정답입니다,578.9181377000059,None,578.9181377000059,None,578.9181377000059,None,578.9181377000059,None,579.8426745000033,None,579.8426745000033,580.3444612000021,,,,,,,,,,,,,,,,110,2022-05-03_16h43.10.489,FishGame,2022.1.1,60.17462676908364,
,35,넌 근심스러워,4,Orange,B,2.708333333333333,3.133333333333333,ScrollUp,ScrollDown,Orange.png,4,Negative,Congruent,,,,,0,0,0,0,,,,,,,,,,,,,,,,,,,,,,,,,0,34,34,34,,,,,,,,,,,,,,,,,,,,,,,,,,,,,,,,,,,,,,,,,,,,,,,,,,,,,,,,,,,,,,,,,,,,,2,1.0272007000021404,580.9811243000004,None,ScrollUp,정답입니다,580.9811243000004,None,580.9811243000004,None,580.9811243000004,None,580.9811243000004,None,581.8940383000008,None,581.8940383000008,582.3944421000051,,,,,,,,,,,,,,,,110,2022-05-03_16h43.10.489,FishGame,2022.1.1,60.17462676908364,
,36,넌 세련되었어,2,Green,A,5.5,4.6,ScrollDown,ScrollUp,Green.png,4,Positive,Congruent,,,,,0,0,0,0,,,,,,,,,,,,,,,,,,,,,,,,,0,35,35,35,,,,,,,,,,,,,,,,,,,,,,,,,,,,,,,,,,,,,,,,,,,,,,,,,,,,,,,,,,,,,,,,,,,,,1.0787036915620167,0.9026750000048196,583.0357379000052,None,ScrollDown,정답입니다,583.0357379000052,None,583.0357379000052,None,583.0357379000052,None,583.0357379000052,None,583.8264441000065,None,583.8264441000065,584.3280274999997,,,,,,,,,,,,,,,,110,2022-05-03_16h43.10.489,FishGame,2022.1.1,60.17462676908364,
,37,나를 보내줘,6,Green,A,0,0,ScrollUp,ScrollDown,Green.png,4,NonTarget,NonTarget,,,,,0,0,0,0,,,,,,,,,,,,,,,,,,,,,,,,,0,36,36,36,,,,,,,,,,,,,,,,,,,,,,,,,,,,,,,,,,,,,,,,,,,,,,,,,,,,,,,,,,,,,,,,,,,,,1.879629631837209,0.9427576000016415,584.9567150000075,None,ScrollUp,정답입니다,584.9567150000075,None,584.9567150000075,None,584.9567150000075,None,584.9567150000075,None,585.7943541999994,None,585.7943541999994,586.2948008000094,,,,,,,,,,,,,,,,110,2022-05-03_16h43.10.489,FishGame,2022.1.1,60.17462676908364,
,38,넌 확고해,3,Orange,B,4.708333333333334,4.566666666666666,ScrollUp,ScrollDown,Orange.png,4,Neutral,Neutral,,,,,0,0,0,0,,,,,,,,,,,,,,,,,,,,,,,,,0,37,37,37,,,,,,,,,,,,,,,,,,,,,,,,,,,,,,,,,,,,,,,,,,,,,,,,,,,,,,,,,,,,,,,,,,,,,2,0.9905584999942221,586.93054880001,None,ScrollUp,정답입니다,586.93054880001,None,586.93054880001,None,586.93054880001,None,586.93054880001,None,587.8095159000077,None,587.8095159000077,588.3111495000048,,,,,,,,,,,,,,,,110,2022-05-03_16h43.10.489,FishGame,2022.1.1,60.17462676908364,
,39,넌 이해심이 많아,1,Orange,B,6.041666666666668,5.533333333333333,ScrollUp,ScrollDown,Orange.png,4,Positive,Incongruent,,,,,0,0,0,0,,,,,,,,,,,,,,,,,,,,,,,,,0,38,38,38,,,,,,,,,,,,,,,,,,,,,,,,,,,,,,,,,,,,,,,,,,,,,,,,,,,,,,,,,,,,,,,,,,,,,2,1.0569385999988299,588.9451667000103,None,ScrollUp,정답입니다,588.9451667000103,None,588.9451667000103,None,588.9451667000103,None,588.9451667000103,None,589.8929863000085,None,589.8929863000085,590.3948037000082,,,,,,,,,,,,,,,,110,2022-05-03_16h43.10.489,FishGame,2022.1.1,60.17462676908364,
,40,나를 보내줘,6,Green,A,0,0,ScrollUp,ScrollDown,Green.png,4,NonTarget,NonTarget,,,,,0,0,0,0,,,,,,,,,,,,,,,,,,,,,,,,,0,39,39,39,,,,,,,,,,,,,,,,,,,,,,,,,,,,,,,,,,,,,,,,,,,,,,,,,,,,,,,,,,,,,,,,,,,,,2,0.9770531000103801,591.0202002000005,None,ScrollUp,정답입니다,591.0202002000005,None,591.0202002000005,None,591.0202002000005,None,591.0202002000005,None,591.8945026000001,None,591.8945026000001,592.3947341000021,,,,,,,,,,,,,,,,110,2022-05-03_16h43.10.489,FishGame,2022.1.1,60.17462676908364,
,41,넌 거칠어,4,Green,A,2.625,3.033333333333333,ScrollDown,ScrollUp,Green.png,4,Negative,Incongruent,,,,,0,0,0,0,,,,,,,,,,,,,,,,,,,,,,,,,0,40,40,40,,,,,,,,,,,,,,,,,,,,,,,,,,,,,,,,,,,,,,,,,,,,,,,,,,,,,,,,,,,,,,,,,,,,,1.0354938507080078,0.9117297000047984,593.0272667000099,None,ScrollDown,정답입니다,593.0272667000099,None,593.0272667000099,None,593.0272667000099,None,593.0272667000099,None,593.8281836999959,None,593.8281836999959,594.3282615000062,,,,,,,,,,,,,,,,110,2022-05-03_16h43.10.489,FishGame,2022.1.1,60.17462676908364,
,42,넌 변덕맞아,5,Orange,B,2.75,2.166666666666667,ScrollUp,ScrollDown,Orange.png,4,Negative,Congruent,,,,,0,0,0,0,,,,,,,,,,,,,,,,,,,,,,,,,0,41,41,41,,,,,,,,,,,,,,,,,,,,,,,,,,,,,,,,,,,,,,,,,,,,,,,,,,,,,,,,,,,,,,,,,,,,,2,1.1090827000007266,594.9747439000057,None,ScrollUp,정답입니다,594.9747439000057,None,594.9747439000057,None,594.9747439000057,None,594.9747439000057,None,595.9597586000018,None,595.9597586000018,596.4614221000083,,,,,,,,,,,,,,,,110,2022-05-03_16h43.10.489,FishGame,2022.1.1,60.17462676908364,
,43,나를 데려가줘,6,Orange,B,0,0,ScrollDown,ScrollUp,Orange.png,4,NonTarget,NonTarget,,,,,0,0,0,0,,,,,,,,,,,,,,,,,,,,,,,,,0,42,42,42,,,,,,,,,,,,,,,,,,,,,,,,,,,,,,,,,,,,,,,,,,,,,,,,,,,,,,,,,,,,,,,,,,,,,1,0.9832449000095949,597.0911136000068,None,ScrollDown,정답입니다,597.0911136000068,None,597.0911136000068,None,597.0911136000068,None,597.0911136000068,None,597.9659993000096,None,597.9659993000096,598.4786530999991,,,,,,,,,,,,,,,,110,2022-05-03_16h43.10.489,FishGame,2022.1.1,60.17462676908364,
,44,넌 외로워,4,Orange,B,2.833333333333333,3.3,ScrollUp,ScrollDown,Orange.png,4,Negative,Congruent,,,,,0,0,0,0,,,,,,,,,,,,,,,,,,,,,,,,,0,43,43,43,,,,,,,,,,,,,,,,,,,,,,,,,,,,,,,,,,,,,,,,,,,,,,,,,,,,,,,,,,,,,,,,,,,,,2,1.1012572999898111,599.1145226000081,None,ScrollUp,정답입니다,599.1145226000081,None,599.1145226000081,None,599.1145226000081,None,599.1145226000081,None,600.0996793000086,None,600.0996793000086,600.6117442999966,,,,,,,,,,,,,,,,110,2022-05-03_16h43.10.489,FishGame,2022.1.1,60.17462676908364,
,1,넌 불평스러워,5,Green,A,2.25,2.066666666666667,ScrollDown,ScrollUp,Green.png,5,Negative,Incongruent,,,,,0,0,0,0,,,,,,,,,,,,,,,,,,,,,,,,,,,,,0,0,0,0,,,,,,,,,,,,,,,,,,,,,,,,632.3961519000004,633.8960704000056,633.945869800009,634.896390199996,634.9459425000096,635.8957491000037,635.8957491000037,None,,,,,,,,,,,,,,,,,,,,,,,,,,,,,,,,,,1.0617283880710602,1.0837864999921294,637.043205599999,None,ScrollDown,정답입니다,637.043205599999,None,637.043205599999,None,637.043205599999,None,637.043205599999,None,637.9772082999989,None,637.9772082999989,638.4790916000056,601.1118563000055,None,601.1118563000055,None,0.17037037,-0.16388889,1,0,0,0.016168579997611232,None,631.1122538000054,None,,,110,2022-05-03_16h43.10.489,FishGame,2022.1.1,60.17462676908364,
,2,나를 보내줘,6,Green,A,0,0,ScrollUp,ScrollDown,Green.png,5,NonTarget,NonTarget,,,,,0,0,0,0,,,,,,,,,,,,,,,,,,,,,,,,,,,,,0,1,1,1,,,,,,,,,,,,,,,,,,,,,,,,,,,,,,,,,,,,,,,,,,,,,,,,,,,,,,,,,,,,,,,,,1.9922839502493541,0.9282373000023654,639.0999862000026,None,ScrollUp,정답입니다,639.0999862000026,None,639.0999862000026,None,639.0999862000026,None,639.0999862000026,None,639.9287946999975,None,639.9287946999975,640.4290913000004,,,,,,,,,,,,,,,,110,2022-05-03_16h43.10.489,FishGame,2022.1.1,60.17462676908364,
,3,넌 다재다능해,2,Orange,B,6.208333333333333,4.5,ScrollUp,ScrollDown,Orange.png,5,Positive,Incongruent,,,,,0,0,0,0,,,,,,,,,,,,,,,,,,,,,,,,,,,,,0,2,2,2,,,,,,,,,,,,,,,,,,,,,,,,,,,,,,,,,,,,,,,,,,,,,,,,,,,,,,,,,,,,,,,,,2,0.851391500007594,641.062324700004,None,ScrollUp,정답입니다,641.062324700004,None,641.062324700004,None,641.062324700004,None,641.062324700004,None,641.799920400008,None,641.799920400008,642.3127849000011,,,,,,,,,,,,,,,,110,2022-05-03_16h43.10.489,FishGame,2022.1.1,60.17462676908364,
,4,넌 과감해,3,Green,A,4.833333333333334,4.6,ScrollDown,ScrollUp,Green.png,5,Neutral,Neutral,,,,,0,0,0,0,,,,,,,,,,,,,,,,,,,,,,,,,,,,,0,3,3,3,,,,,,,,,,,,,,,,,,,,,,,,,,,,,,,,,,,,,,,,,,,,,,,,,,,,,,,,,,,,,,,,,1.0925925920406978,1.0271638000122039,642.9318509000004,None,ScrollDown,정답입니다,642.9318509000004,None,642.9318509000004,None,642.9318509000004,None,642.9318509000004,None,643.8625573000027,None,643.8625573000027,644.3626577999967,,,,,,,,,,,,,,,,110,2022-05-03_16h43.10.489,FishGame,2022.1.1,60.17462676908364,
,5,넌 고분고분해,3,Orange,B,3.75,4.033333333333333,ScrollUp,ScrollDown,Orange.png,5,Neutral,Neutral,,,,,0,0,0,0,,,,,,,,,,,,,,,,,,,,,,,,,,,,,0,4,4,4,,,,,,,,,,,,,,,,,,,,,,,,,,,,,,,,,,,,,,,,,,,,,,,,,,,,,,,,,,,,,,,,,1.9413580397764842,1.0991080999956466,645.0014554000081,None,ScrollUp,정답입니다,645.0014554000081,None,645.0014554000081,None,645.0014554000081,None,645.0014554000081,None,645.9837151999964,None,645.9837151999964,646.497288300001,,,,,,,,,,,,,,,,110,2022-05-03_16h43.10.489,FishGame,2022.1.1,60.17462676908364,
,6,나를 보내줘,6,Green,A,0,0,ScrollUp,ScrollDown,Green.png,5,NonTarget,NonTarget,,,,,0,0,0,0,,,,,,,,,,,,,,,,,,,,,,,,,,,,,0,5,5,5,,,,,,,,,,,,,,,,,,,,,,,,,,,,,,,,,,,,,,,,,,,,,,,,,,,,,,,,,,,,,,,,,2,0.883807500009425,647.1240494000085,None,ScrollUp,정답입니다,647.1240494000085,None,647.1240494000085,None,647.1240494000085,None,647.1240494000085,None,647.9016742000094,None,647.9016742000094,648.4129608000076,,,,,,,,,,,,,,,,110,2022-05-03_16h43.10.489,FishGame,2022.1.1,60.17462676908364,
,7,넌 잘 잊어,4,Green,A,3,3.7,ScrollDown,ScrollUp,Green.png,5,Negative,Incongruent,,,,,0,0,0,0,,,,,,,,,,,,,,,,,,,,,,,,,,,,,0,6,6,6,,,,,,,,,,,,,,,,,,,,,,,,,,,,,,,,,,,,,,,,,,,,,,,,,,,,,,,,,,,,,,,,,1.0848765472571056,0.8896901999978581,649.0939612000075,None,ScrollDown,정답입니다,649.0939612000075,None,649.0939612000075,None,649.0939612000075,None,649.0939612000075,None,649.8277273999993,None,649.8277273999993,650.3293763999973,,,,,,,,,,,,,,,,110,2022-05-03_16h43.10.489,FishGame,2022.1.1,60.17462676908364,
,8,넌 탐구심이없어,4,Orange,B,2.833333333333333,3.066666666666667,ScrollUp,ScrollDown,Orange.png,5,Negative,Congruent,,,,,0,0,0,0,,,,,,,,,,,,,,,,,,,,,,,,,,,,,0,7,7,7,,,,,,,,,,,,,,,,,,,,,,,,,,,,,,,,,,,,,,,,,,,,,,,,,,,,,,,,,,,,,,,,,1.8981481492519379,0.8184861999907298,650.9644024000008,None,ScrollUp,정답입니다,650.9644024000008,None,650.9644024000008,None,650.9644024000008,None,650.9644024000008,None,651.6677998000087,None,651.6677998000087,652.1798939,,,,,,,,,,,,,,,,110,2022-05-03_16h43.10.489,FishGame,2022.1.1,60.17462676908364,
,9,나를 데려가줘,6,Orange,B,0,0,ScrollDown,ScrollUp,Orange.png,5,NonTarget,NonTarget,,,,,0,0,0,0,,,,,,,,,,,,,,,,,,,,,,,,,,,,,0,8,8,8,,,,,,,,,,,,,,,,,,,,,,,,,,,,,,,,,,,,,,,,,,,,,,,,,,,,,,,,,,,,,,,,,1,0.9199291999975685,652.8059464999969,None,ScrollDown,정답입니다,652.8059464999969,None,652.8059464999969,None,652.8059464999969,None,652.8059464999969,None,653.628194600009,None,653.628194600009,654.1296371000062,,,,,,,,,,,,,,,,110,2022-05-03_16h43.10.489,FishGame,2022.1.1,60.17462676908364,
,10,넌 참되어,2,Green,A,6.041666666666664,4.733333333333333,ScrollDown,ScrollUp,Green.png,5,Positive,Congruent,,,,,0,0,0,0,,,,,,,,,,,,,,,,,,,,,,,,,,,,,0,9,9,9,,,,,,,,,,,,,,,,,,,,,,,,,,,,,,,,,,,,,,,,,,,,,,,,,,,,,,,,,,,,,,,,,1.0370370149612427,0.8582612999889534,654.7563363000081,None,ScrollDown,정답입니다,654.7563363000081,None,654.7563363000081,None,654.7563363000081,None,654.7563363000081,None,655.5127176000096,None,655.5127176000096,656.012833300003,,,,,,,,,,,,,,,,110,2022-05-03_16h43.10.489,FishGame,2022.1.1,60.17462676908364,
,11,넌 생기있어,1,Orange,B,5.875,5.633333333333334,ScrollUp,ScrollDown,Orange.png,5,Positive,Incongruent,,,,,0,0,0,0,,,,,,,,,,,,,,,,,,,,,,,,,,,,,0,10,10,10,,,,,,,,,,,,,,,,,,,,,,,,,,,,,,,,,,,,,,,,,,,,,,,,,,,,,,,,,,,,,,,,,2,0.8996203999995487,656.6487397000019,None,ScrollUp,정답입니다,656.6487397000019,None,656.6487397000019,None,656.6487397000019,None,656.6487397000019,None,657.4332789000036,None,657.4332789000036,657.9464813000086,,,,,,,,,,,,,,,,110,2022-05-03_16h43.10.489,FishGame,2022.1.1,60.17462676908364,
,12,넌 비사교적이야,4,Orange,B,2.875,2.9,ScrollUp,ScrollDown,Orange.png,5,Negative,Congruent,,,,,0,0,0,0,,,,,,,,,,,,,,,,,,,,,,,,,,,,,0,11,11,11,,,,,,,,,,,,,,,,,,,,,,,,,,,,,,,,,,,,,,,,,,,,,,,,,,,,,,,,,,,,,,,,,2,0.8790579999913462,658.5741080000007,None,ScrollUp,정답입니다,658.5741080000007,None,658.5741080000007,None,658.5741080000007,None,658.5741080000007,None,659.3463806000073,None,659.3463806000073,659.8464987000043,,,,,,,,,,,,,,,,110,2022-05-03_16h43.10.489,FishGame,2022.1.1,60.17462676908364,
,13,나를 데려가줘,6,Orange,B,0,0,ScrollDown,ScrollUp,Orange.png,5,NonTarget,NonTarget,,,,,0,0,0,0,,,,,,,,,,,,,,,,,,,,,,,,,,,,,0,12,12,12,,,,,,,,,,,,,,,,,,,,,,,,,,,,,,,,,,,,,,,,,,,,,,,,,,,,,,,,,,,,,,,,,1.0416666567325592,0.9069286000012653,660.4749807000044,None,ScrollDown,정답입니다,660.4749807000044,None,660.4749807000044,None,660.4749807000044,None,660.4749807000044,None,661.2780058000062,None,661.2780058000062,661.7796952000062,,,,,,,,,,,,,,,,110,2022-05-03_16h43.10.489,FishGame,2022.1.1,60.17462676908364,
,14,넌 고독해,4,Green,A,2.916666666666667,3.233333333333333,ScrollDown,ScrollUp,Green.png,5,Negative,Incongruent,,,,,0,0,0,0,,,,,,,,,,,,,,,,,,,,,,,,,,,,,0,13,13,13,,,,,,,,,,,,,,,,,,,,,,,,,,,,,,,,,,,,,,,,,,,,,,,,,,,,,,,,,,,,,,,,,1,0.9839979999960633,662.410346100005,None,ScrollDown,정답입니다,662.410346100005,None,662.410346100005,None,662.410346100005,None,662.410346100005,None,663.2853153000033,None,663.2853153000033,663.7966120000056,,,,,,,,,,,,,,,,110,2022-05-03_16h43.10.489,FishGame,2022.1.1,60.17462676908364,
,15,넌 신경질적이야,5,Orange,B,2.375,2.233333333333333,ScrollUp,ScrollDown,Orange.png,5,Negative,Congruent,,,,,0,0,0,0,,,,,,,,,,,,,,,,,,,,,,,,,,,,,0,14,14,14,,,,,,,,,,,,,,,,,,,,,,,,,,,,,,,,,,,,,,,,,,,,,,,,,,,,,,,,,,,,,,,,,1.8425925970077515,0.8450550999987172,664.4366193000023,None,ScrollUp,정답입니다,664.4366193000023,None,664.4366193000023,None,664.4366193000023,None,664.4366193000023,None,665.1633875999978,None,665.1633875999978,665.6630528000096,,,,,,,,,,,,,,,,110,2022-05-03_16h43.10.489,FishGame,2022.1.1,60.17462676908364,
,16,넌 똑똑해,2,Orange,B,5.666666666666667,3.966666666666667,ScrollUp,ScrollDown,Orange.png,5,Positive,Incongruent,,,,,0,0,0,0,,,,,,,,,,,,,,,,,,,,,,,,,,,,,0,15,15,15,,,,,,,,,,,,,,,,,,,,,,,,,,,,,,,,,,,,,,,,,,,,,,,,,,,,,,,,,,,,,,,,,1.9351851840813954,1.007860099998652,666.2956571999966,None,ScrollUp,정답입니다,666.2956571999966,None,666.2956571999966,None,666.2956571999966,None,666.2956571999966,None,667.1965729000076,None,667.1965729000076,667.69646810001,,,,,,,,,,,,,,,,110,2022-05-03_16h43.10.489,FishGame,2022.1.1,60.17462676908364,
,17,나를 보내줘,6,Green,A,0,0,ScrollUp,ScrollDown,Green.png,5,NonTarget,NonTarget,,,,,0,0,0,0,,,,,,,,,,,,,,,,,,,,,,,,,,,,,0,16,16,16,,,,,,,,,,,,,,,,,,,,,,,,,,,,,,,,,,,,,,,,,,,,,,,,,,,,,,,,,,,,,,,,,2,0.9730047000048216,668.3589978000091,None,ScrollUp,정답입니다,668.3589978000091,None,668.3589978000091,None,668.3589978000091,None,668.3589978000091,None,669.1987934000063,None,669.1987934000063,669.7127869999968,,,,,,,,,,,,,,,,110,2022-05-03_16h43.10.489,FishGame,2022.1.1,60.17462676908364,
,18,넌 협조적이야,1,Green,A,5.625,5.666666666666667,ScrollDown,ScrollUp,Green.png,5,Positive,Congruent,,,,,0,0,0,0,,,,,,,,,,,,,,,,,,,,,,,,,,,,,0,17,17,17,,,,,,,,,,,,,,,,,,,,,,,,,,,,,,,,,,,,,,,,,,,,,,,,,,,,,,,,,,,,,,,,,1.140432099501292,0.8596695000014734,670.3399816000019,None,ScrollDown,정답입니다,670.3399816000019,None,670.3399816000019,None,670.3399816000019,None,670.3399816000019,None,671.0965784,None,671.0965784,671.5966547999997,,,,,,,,,,,,,,,,110,2022-05-03_16h43.10.489,FishGame,2022.1.1,60.17462676908364,
,19,나를 데려가줘,6,Orange,B,0,0,ScrollDown,ScrollUp,Orange.png,5,NonTarget,NonTarget,,,,,0,0,0,0,,,,,,,,,,,,,,,,,,,,,,,,,,,,,0,18,18,18,,,,,,,,,,,,,,,,,,,,,,,,,,,,,,,,,,,,,,,,,,,,,,,,,,,,,,,,,,,,,,,,,1.0231481393178303,0.8957318000029773,672.2240906000079,None,ScrollDown,정답입니다,672.2240906000079,None,672.2240906000079,None,672.2240906000079,None,672.2240906000079,None,673.0129718000098,None,673.0129718000098,673.5128347999998,,,,,,,,,,,,,,,,110,2022-05-03_16h43.10.489,FishGame,2022.1.1,60.17462676908364,
,20,넌 몰인정해,5,Orange,B,2.541666666666667,2.066666666666667,ScrollUp,ScrollDown,Orange.png,5,Negative,Congruent,,,,,0,0,0,0,,,,,,,,,,,,,,,,,,,,,,,,,,,,,0,19,19,19,,,,,,,,,,,,,,,,,,,,,,,,,,,,,,,,,,,,,,,,,,,,,,,,,,,,,,,,,,,,,,,,,1.858024686574936,0.8885239999945043,674.150141200007,None,ScrollUp,정답입니다,674.150141200007,None,674.150141200007,None,674.150141200007,None,674.150141200007,None,674.9284551000019,None,674.9284551000019,675.4300884999975,,,,,,,,,,,,,,,,110,2022-05-03_16h43.10.489,FishGame,2022.1.1,60.17462676908364,
,21,나를 데려가줘,6,Orange,B,0,0,ScrollDown,ScrollUp,Orange.png,5,NonTarget,NonTarget,,,,,0,0,0,0,,,,,,,,,,,,,,,,,,,,,,,,,,,,,0,20,20,20,,,,,,,,,,,,,,,,,,,,,,,,,,,,,,,,,,,,,,,,,,,,,,,,,,,,,,,,,,,,,,,,,1.0833333333333333,0.9319622999901185,676.0602601999999,None,ScrollDown,정답입니다,676.0602601999999,None,676.0602601999999,None,676.0602601999999,None,676.0602601999999,None,676.8831051000016,None,676.8831051000016,677.3969655999972,,,,,,,,,,,,,,,,110,2022-05-03_16h43.10.489,FishGame,2022.1.1,60.17462676908364,
,22,넌 순진해,3,Orange,B,4.125,4.166666666666667,ScrollUp,ScrollDown,Orange.png,5,Neutral,Neutral,,,,,0,0,0,0,,,,,,,,,,,,,,,,,,,,,,,,,,,,,0,21,21,21,,,,,,,,,,,,,,,,,,,,,,,,,,,,,,,,,,,,,,,,,,,,,,,,,,,,,,,,,,,,,,,,,2,0.9249311000021407,678.027010699996,None,ScrollUp,정답입니다,678.027010699996,None,678.027010699996,None,678.027010699996,None,678.027010699996,None,678.8450661000097,None,678.8450661000097,679.346867900007,,,,,,,,,,,,,,,,110,2022-05-03_16h43.10.489,FishGame,2022.1.1,60.17462676908364,
,23,넌 신뢰할만해,1,Green,A,6.625,5.533333333333333,ScrollDown,ScrollUp,Green.png,5,Positive,Congruent,,,,,0,0,0,0,,,,,,,,,,,,,,,,,,,,,,,,,,,,,0,22,22,22,,,,,,,,,,,,,,,,,,,,,,,,,,,,,,,,,,,,,,,,,,,,,,,,,,,,,,,,,,,,,,,,,1.0231481393178303,1.058965599993826,679.9792973000003,None,ScrollDown,정답입니다,679.9792973000003,None,679.9792973000003,None,679.9792973000003,None,679.9792973000003,None,680.9302812000096,None,680.9302812000096,681.4301441999996,,,,,,,,,,,,,,,,110,2022-05-03_16h43.10.489,FishGame,2022.1.1,60.17462676908364,
,24,나를 보내줘,6,Green,A,0,0,ScrollUp,ScrollDown,Green.png,5,NonTarget,NonTarget,,,,,0,0,0,0,,,,,,,,,,,,,,,,,,,,,,,,,,,,,0,23,23,23,,,,,,,,,,,,,,,,,,,,,,,,,,,,,,,,,,,,,,,,,,,,,,,,,,,,,,,,,,,,,,,,,2,0.899618700001156,682.0541770999989,None,ScrollUp,정답입니다,682.0541770999989,None,682.0541770999989,None,682.0541770999989,None,682.0541770999989,None,682.8502824000025,None,682.8502824000025,683.3633655000012,,,,,,,,,,,,,,,,110,2022-05-03_16h43.10.489,FishGame,2022.1.1,60.17462676908364,
