name,TrialNum,Word,WordCategory,FishType,WordList,WordValence,WordReputation,CorrectResp,IncorrectResp,FishTypeFile,Round,WordType,Condition,LoopforOrange.thisRepN,LoopforOrange.thisTrialN,LoopforOrange.thisN,LoopforOrange.thisIndex,OrangeInstLoop.thisRepN,OrangeInstLoop.thisTrialN,OrangeInstLoop.thisN,OrangeInstLoop.thisIndex,OrangePrac.thisRepN,OrangePrac.thisTrialN,OrangePrac.thisN,OrangePrac.thisIndex,temp1.thisRepN,temp1.thisTrialN,temp1.thisN,temp1.thisIndex,OrangeRound1.thisRepN,OrangeRound1.thisTrialN,OrangeRound1.thisN,OrangeRound1.thisIndex,OrangeRound2.thisRepN,OrangeRound2.thisTrialN,OrangeRound2.thisN,OrangeRound2.thisIndex,OrangeRound3.thisRepN,OrangeRound3.thisTrialN,OrangeRound3.thisN,OrangeRound3.thisIndex,OrangeRound4.thisRepN,OrangeRound4.thisTrialN,OrangeRound4.thisN,OrangeRound4.thisIndex,OrangeRound5.thisRepN,OrangeRound5.thisTrialN,OrangeRound5.thisN,OrangeRound5.thisIndex,LoopForGreen.thisRepN,LoopForGreen.thisTrialN,LoopForGreen.thisN,LoopForGreen.thisIndex,text_2.started,text_2.stopped,text_3.started,text_3.stopped,key_resp.keys,key_resp.rt,key_resp.started,key_resp.stopped,PassI_2.started,PassI_2.stopped,PassInst_2.keys,PassInst_2.rt,PassInst_2.started,PassInst_2.stopped,mouse_2.x,mouse_2.y,mouse_2.leftButton,mouse_2.midButton,mouse_2.rightButton,mouse_2.started,mouse_2.stopped,image.started,image.stopped,text_5.started,text_5.stopped,text_6.started,text_6.stopped,text_7.started,text_7.stopped,text_8.started,text_8.stopped,slider_2.response,slider_2.rt,slider_2.started,slider_2.stopped,Response_2,Feedback_2,BackGround_2.started,BackGround_2.stopped,Fish_2.started,Fish_2.stopped,WordBox_2.started,WordBox_2.stopped,Words_2.started,Words_2.stopped,BackGround_Feedback_2.started,BackGround_Feedback_2.stopped,Feedbacks_2.started,Feedbacks_2.stopped,Continue_or_not.keys,Continue_or_not.rt,Continue_or_not.started,Continue_or_not.stopped,image_3.started,image_3.stopped,mouse_3.x,mouse_3.y,mouse_3.leftButton,mouse_3.midButton,mouse_3.rightButton,mouse_3.started,mouse_3.stopped,startmain.started,startmain.stopped,slider.response,slider.rt,slider.started,slider.stopped,Response,Feedback,BackGround.started,BackGround.stopped,Fish.started,Fish.stopped,WordBox.started,WordBox.stopped,Words.started,Words.stopped,BackGround_Feedback.started,BackGround_Feedback.stopped,Feedbacks.started,Feedbacks.stopped,text.started,text.stopped,break_interval.started,break_interval.stopped,mouse.x,mouse.y,mouse.leftButton,mouse.midButton,mouse.rightButton,mouse.started,mouse.stopped,stratnextround.started,stratnextround.stopped,endgame.started,endgame.stopped,participant,date,expName,psychopyVersion,frameRate,
,,,,,,,,,,,,,,,,,,,,,,,,,,,,,,,,,,,,,,,,,,,,,,,,,,,,,,23.20985169999767,None,23.20985169999767,None,space,1.4058749999967404,23.66869379999116,None,,,,,,,,,,,,,,,,,,,,,,,,,,,,,,,,,,,,,,,,,,,,,,,,,,,,,,,,,,,,,,,,,,,,,,,,,,,,,,,,,,,,,,,,,,111,2022-05-03_19h50.49.018,FishGame,2022.1.1,59.982173300265025,
물고기과제_instruction(참가자용)OrangeVersion.mp4,,,,,,,,,,,,,,0,0,0,0,0,0,0,0,,,,,,,,,,,,,,,,,,,,,,,,,,,,,,,,,,,,,,,,,91.46462889999384,None,n,5.312383499986026,91.46462889999384,None,,,,,,,,,,,,,,,,,,,,,,,,,,,,,,,,,,,,,,,,,,,,,,,,,,,,,,,,,,,,,,,,,,,,,,,,,,,,,,,,,,,,111,2022-05-03_19h50.49.018,FishGame,2022.1.1,59.982173300265025,
,1,넌 교활해,5,Green,B,2.333333333333333,2.133333333333333,ScrollUp,ScrollDown,Green.png,practice,,,0,0,0,0,,,,,0,0,0,0,0,0,0,0,,,,,,,,,,,,,,,,,,,,,,,,,,,,,,,,,,,,,,,0.08611111,-0.19351852,1,0,0,0.5138092699926347,None,96.80360600000131,None,98.70378219999839,100.20422430000326,100.23697309999261,101.18739900000219,101.23740339999495,102.18681210000068,102.18681210000068,None,2,2.077625000005355,103.32361609999498,None,ScrollUp,정답입니다,103.32361609999498,None,103.32361609999498,None,103.32361609999498,None,103.32361609999498,None,105.2590468999988,None,105.2590468999988,105.77045290000387,,,,,,,,,,,,,,,,,,,,,,,,,,,,,,,,,,,,,,,,,,,,,,,,,111,2022-05-03_19h50.49.018,FishGame,2022.1.1,59.982173300265025,
,2,넌 슬기로워,2,Orange,A,6.166666666666667,4.1,ScrollDown,ScrollUp,Orange.png,practice,,,0,0,0,0,,,,,0,0,0,0,0,1,1,1,,,,,,,,,,,,,,,,,,,,,,,,,,,,,,,,,,,,,,,,,,,,,,,,,,,,,,,,1,1.216950000001816,106.41924489999656,None,ScrollDown,정답입니다,106.41924489999656,None,106.41924489999656,None,106.41924489999656,None,106.41924489999656,None,107.50826249999227,None,107.50826249999227,108.02017279999563,,,,,,,,,,,,,,,,,,,,,,,,,,,,,,,,,,,,,,,,,,,,,,,,,111,2022-05-03_19h50.49.018,FishGame,2022.1.1,59.982173300265025,
,3,나를 보내줘,6,Orange,A,0,0,ScrollUp,ScrollDown,Orange.png,practice,,,0,0,0,0,,,,,0,0,0,0,0,2,2,2,,,,,,,,,,,,,,,,,,,,,,,,,,,,,,,,,,,,,,,,,,,,,,,,,,,,,,,,2,1.6207881000009365,108.65755499999796,None,ScrollUp,정답입니다,108.65755499999796,None,108.65755499999796,None,108.65755499999796,None,108.65755499999796,None,110.16842679999536,None,110.16842679999536,110.67036279999593,,,,,,,,,,,,,,,,,,,,,,,,,,,,,,,,,,,,,,,,,,,,,,,,,111,2022-05-03_19h50.49.018,FishGame,2022.1.1,59.982173300265025,
,4,나를 데려가줘,6,Green,B,0,0,ScrollDown,ScrollUp,Green.png,practice,,,0,0,0,0,,,,,0,0,0,0,0,3,3,3,,,,,,,,,,,,,,,,,,,,,,,,,,,,,,,,,,,,,,,,,,,,,,,,,,,,,,,,1,1.3859360000060406,111.31958280000254,None,ScrollDown,정답입니다,111.31958280000254,None,111.31958280000254,None,111.31958280000254,None,111.31958280000254,None,112.57616909999342,None,112.57616909999342,113.08726829999068,,,,,,,,,,,,,,,,,,,,,,,,,,,,,,,,,,,,,,,,,,,,,,,,,111,2022-05-03_19h50.49.018,FishGame,2022.1.1,59.982173300265025,
,1,넌 교활해,5,Green,B,2.333333333333333,2.133333333333333,ScrollUp,ScrollDown,Green.png,practice,,,0,0,0,0,,,,,0,0,0,0,,,,,,,,,,,,,,,,,,,,,,,,,,,,,,,,,,,,,,,,,,,,,,,,,,,,,,,,,,,,,,,,,,,,,,,,,,,,,,n,17.657633700000588,113.58760849999089,None,113.58760849999089,None,,,,,,,,,,,,,,,,,,,,,,,,,,,,,,,,,,,,,,,,,,,111,2022-05-03_19h50.49.018,FishGame,2022.1.1,59.982173300265025,
,1,넌 따뜻해,1,Green,B,6.083333333333333,5.6,ScrollUp,ScrollDown,Green.png,1,Positive,Incongruent,0,0,0,0,,,,,,,,,,,,,0,0,0,0,,,,,,,,,,,,,,,,,,,,,,,,,,,,,,,,,,,,,,,,,,,,133.15487899999425,134.65493190000416,134.6880028000014,135.6379553000006,135.68864439999743,136.63804930000333,136.63804930000333,None,,,,,,,,,,,,,,,,,,,,,,,,,0.07777778,-0.15555556,1,0,0,0.3146458699920913,None,131.271081400002,None,2,1.708608600005391,137.8038952999923,None,ScrollUp,정답입니다,137.8038952999923,None,137.8038952999923,None,137.8038952999923,None,137.8038952999923,None,139.34345059999032,None,139.34345059999032,139.85435080000025,,,,,,,,,,,,,,,,111,2022-05-03_19h50.49.018,FishGame,2022.1.1,59.982173300265025,
,2,넌 기품있어,2,Green,B,5.791666666666668,4.5,ScrollUp,ScrollDown,Green.png,1,Positive,Incongruent,0,0,0,0,,,,,,,,,,,,,0,1,1,1,,,,,,,,,,,,,,,,,,,,,,,,,,,,,,,,,,,,,,,,,,,,,,,,,,,,,,,,,,,,,,,,,,,,,,,,,,,,,,,,,,,,,2,1.2413343000080204,140.49976489999972,None,ScrollUp,정답입니다,140.49976489999972,None,140.49976489999972,None,140.49976489999972,None,140.49976489999972,None,141.61919979999948,None,141.61919979999948,142.12128459999803,,,,,,,,,,,,,,,,111,2022-05-03_19h50.49.018,FishGame,2022.1.1,59.982173300265025,
,3,나를 보내줘,6,Orange,A,0,0,ScrollUp,ScrollDown,Orange.png,1,NonTarget,NonTarget,0,0,0,0,,,,,,,,,,,,,0,2,2,2,,,,,,,,,,,,,,,,,,,,,,,,,,,,,,,,,,,,,,,,,,,,,,,,,,,,,,,,,,,,,,,,,,,,,,,,,,,,,,,,,,,,,2,1.6172994999942603,142.78409439999086,None,ScrollUp,정답입니다,142.78409439999086,None,142.78409439999086,None,142.78409439999086,None,142.78409439999086,None,144.25907359999837,None,144.25907359999837,144.7714360999962,,,,,,,,,,,,,,,,111,2022-05-03_19h50.49.018,FishGame,2022.1.1,59.982173300265025,
,4,넌 수동적이야,4,Orange,A,2.833333333333333,2.933333333333333,ScrollDown,ScrollUp,Orange.png,1,Negative,Incongruent,0,0,0,0,,,,,,,,,,,,,0,3,3,3,,,,,,,,,,,,,,,,,,,,,,,,,,,,,,,,,,,,,,,,,,,,,,,,,,,,,,,,,,,,,,,,,,,,,,,,,,,,,,,,,,,,,1,1.2573826000007102,145.42639369999233,None,ScrollDown,정답입니다,145.42639369999233,None,145.42639369999233,None,145.42639369999233,None,145.42639369999233,None,146.55463959999906,None,146.55463959999906,147.05469039999298,,,,,,,,,,,,,,,,111,2022-05-03_19h50.49.018,FishGame,2022.1.1,59.982173300265025,
,5,넌 사심이 없어,3,Green,B,4.916666666666666,4.333333333333333,ScrollUp,ScrollDown,Green.png,1,Neutral,Neutral,0,0,0,0,,,,,,,,,,,,,0,4,4,4,,,,,,,,,,,,,,,,,,,,,,,,,,,,,,,,,,,,,,,,,,,,,,,,,,,,,,,,,,,,,,,,,,,,,,,,,,,,,,,,,,,,,2,1.2057194000080926,147.69888319999154,None,ScrollUp,정답입니다,147.69888319999154,None,147.69888319999154,None,147.69888319999154,None,147.69888319999154,None,148.78646459999436,None,148.78646459999436,149.28876959999616,,,,,,,,,,,,,,,,111,2022-05-03_19h50.49.018,FishGame,2022.1.1,59.982173300265025,
,6,넌 헤퍼,5,Orange,A,2.458333333333334,2.233333333333333,ScrollDown,ScrollUp,Orange.png,1,Negative,Incongruent,0,0,0,0,,,,,,,,,,,,,0,5,5,5,,,,,,,,,,,,,,,,,,,,,,,,,,,,,,,,,,,,,,,,,,,,,,,,,,,,,,,,,,,,,,,,,,,,,,,,,,,,,,,,,,,,,1,1.3798808000137797,149.92651570000453,None,ScrollDown,정답입니다,149.92651570000453,None,149.92651570000453,None,149.92651570000453,None,149.92651570000453,None,151.1893299999938,None,151.1893299999938,151.70537879999029,,,,,,,,,,,,,,,,111,2022-05-03_19h50.49.018,FishGame,2022.1.1,59.982173300265025,
,7,넌 말쑥해,3,Orange,A,4.833333333333334,4.333333333333333,ScrollDown,ScrollUp,Orange.png,1,Neutral,Neutral,0,0,0,0,,,,,,,,,,,,,0,6,6,6,,,,,,,,,,,,,,,,,,,,,,,,,,,,,,,,,,,,,,,,,,,,,,,,,,,,,,,,,,,,,,,,,,,,,,,,,,,,,,,,,,,,,1,1.1953402999934042,152.34252019999258,None,ScrollDown,정답입니다,152.34252019999258,None,152.34252019999258,None,152.34252019999258,None,152.34252019999258,None,153.41777889999503,None,153.41777889999503,153.9214675999974,,,,,,,,,,,,,,,,111,2022-05-03_19h50.49.018,FishGame,2022.1.1,59.982173300265025,
,8,넌 투덜거려,5,Green,B,2.541666666666667,2.266666666666667,ScrollUp,ScrollDown,Green.png,1,Negative,Congruent,0,0,0,0,,,,,,,,,,,,,0,7,7,7,,,,,,,,,,,,,,,,,,,,,,,,,,,,,,,,,,,,,,,,,,,,,,,,,,,,,,,,,,,,,,,,,,,,,,,,,,,,,,,,,,,,,2,1.102118299997528,154.56344009999884,None,ScrollUp,정답입니다,154.56344009999884,None,154.56344009999884,None,154.56344009999884,None,154.56344009999884,None,155.54371679999167,None,155.54371679999167,156.05479129999003,,,,,,,,,,,,,,,,111,2022-05-03_19h50.49.018,FishGame,2022.1.1,59.982173300265025,
,9,넌 적극적이야,1,Orange,A,5.708333333333333,5.533333333333333,ScrollDown,ScrollUp,Orange.png,1,Positive,Congruent,0,0,0,0,,,,,,,,,,,,,0,8,8,8,,,,,,,,,,,,,,,,,,,,,,,,,,,,,,,,,,,,,,,,,,,,,,,,,,,,,,,,,,,,,,,,,,,,,,,,,,,,,,,,,,,,,1,1.0603339999943273,156.68950939999195,None,ScrollDown,정답입니다,156.68950939999195,None,156.68950939999195,None,156.68950939999195,None,156.68950939999195,None,157.6386715999979,None,157.6386715999979,158.1385234999907,,,,,,,,,,,,,,,,111,2022-05-03_19h50.49.018,FishGame,2022.1.1,59.982173300265025,
,10,넌 재미없어,4,Green,B,2.625,2.966666666666667,ScrollUp,ScrollDown,Green.png,1,Negative,Congruent,0,0,0,0,,,,,,,,,,,,,0,9,9,9,,,,,,,,,,,,,,,,,,,,,,,,,,,,,,,,,,,,,,,,,,,,,,,,,,,,,,,,,,,,,,,,,,,,,,,,,,,,,,,,,,,,,2,1.0589609000016935,158.77382950000174,None,ScrollUp,정답입니다,158.77382950000174,None,158.77382950000174,None,158.77382950000174,None,158.77382950000174,None,159.72174379999342,None,159.72174379999342,160.2217368999991,,,,,,,,,,,,,,,,111,2022-05-03_19h50.49.018,FishGame,2022.1.1,59.982173300265025,
,11,넌 명석해,2,Orange,A,5.875,4.033333333333333,ScrollDown,ScrollUp,Orange.png,1,Positive,Congruent,0,0,0,0,,,,,,,,,,,,,0,10,10,10,,,,,,,,,,,,,,,,,,,,,,,,,,,,,,,,,,,,,,,,,,,,,,,,,,,,,,,,,,,,,,,,,,,,,,,,,,,,,,,,,,,,,1,1.0701367000001483,160.86323069999344,None,ScrollDown,정답입니다,160.86323069999344,None,160.86323069999344,None,160.86323069999344,None,160.86323069999344,None,161.81996639999852,None,161.81996639999852,162.32151549999253,,,,,,,,,,,,,,,,111,2022-05-03_19h50.49.018,FishGame,2022.1.1,59.982173300265025,
,12,나를 데려가줘,6,Green,B,0,0,ScrollDown,ScrollUp,Green.png,1,NonTarget,NonTarget,0,0,0,0,,,,,,,,,,,,,0,11,11,11,,,,,,,,,,,,,,,,,,,,,,,,,,,,,,,,,,,,,,,,,,,,,,,,,,,,,,,,,,,,,,,,,,,,,,,,,,,,,,,,,,,,,1,1.2861373999912757,162.95555050000257,None,ScrollDown,정답입니다,162.95555050000257,None,162.95555050000257,None,162.95555050000257,None,162.95555050000257,None,164.13673579999886,None,164.13673579999886,164.63840300000447,,,,,,,,,,,,,,,,111,2022-05-03_19h50.49.018,FishGame,2022.1.1,59.982173300265025,
,13,넌 소심해,4,Orange,A,3,3.1,ScrollDown,ScrollUp,Orange.png,1,Negative,Incongruent,0,0,0,0,,,,,,,,,,,,,0,12,12,12,,,,,,,,,,,,,,,,,,,,,,,,,,,,,,,,,,,,,,,,,,,,,,,,,,,,,,,,,,,,,,,,,,,,,,,,,,,,,,,,,,,,,1,1.140424700002768,165.2768281000026,None,ScrollDown,정답입니다,165.2768281000026,None,165.2768281000026,None,165.2768281000026,None,165.2768281000026,None,166.30537259999255,None,166.30537259999255,166.80533560000185,,,,,,,,,,,,,,,,111,2022-05-03_19h50.49.018,FishGame,2022.1.1,59.982173300265025,
,14,넌 합리적이야,2,Orange,A,5.583333333333333,4.733333333333333,ScrollDown,ScrollUp,Orange.png,1,Positive,Congruent,0,0,0,0,,,,,,,,,,,,,0,13,13,13,,,,,,,,,,,,,,,,,,,,,,,,,,,,,,,,,,,,,,,,,,,,,,,,,,,,,,,,,,,,,,,,,,,,,,,,,,,,,,,,,,,,,1,1.0348343000077875,167.44661359999736,None,ScrollDown,정답입니다,167.44661359999736,None,167.44661359999736,None,167.44661359999736,None,167.44661359999736,None,168.36054880000302,None,168.36054880000302,168.87203549999685,,,,,,,,,,,,,,,,111,2022-05-03_19h50.49.018,FishGame,2022.1.1,59.982173300265025,
,15,넌 무자비해,5,Green,B,2.333333333333333,2.1,ScrollUp,ScrollDown,Green.png,1,Negative,Congruent,0,0,0,0,,,,,,,,,,,,,0,14,14,14,,,,,,,,,,,,,,,,,,,,,,,,,,,,,,,,,,,,,,,,,,,,,,,,,,,,,,,,,,,,,,,,,,,,,,,,,,,,,,,,,,,,,2,1.066571199989994,169.50591690000147,None,ScrollUp,정답입니다,169.50591690000147,None,169.50591690000147,None,169.50591690000147,None,169.50591690000147,None,170.46049009999842,None,170.46049009999842,170.97234690000187,,,,,,,,,,,,,,,,111,2022-05-03_19h50.49.018,FishGame,2022.1.1,59.982173300265025,
,16,나를 보내줘,6,Orange,A,0,0,ScrollUp,ScrollDown,Orange.png,1,NonTarget,NonTarget,0,0,0,0,,,,,,,,,,,,,0,15,15,15,,,,,,,,,,,,,,,,,,,,,,,,,,,,,,,,,,,,,,,,,,,,,,,,,,,,,,,,,,,,,,,,,,,,,,,,,,,,,,,,,,,,,2,1.5065870999969775,171.60405470000114,None,ScrollUp,정답입니다,171.60405470000114,None,171.60405470000114,None,171.60405470000114,None,171.60405470000114,None,173.00335189999896,None,173.00335189999896,173.50628349999897,,,,,,,,,,,,,,,,111,2022-05-03_19h50.49.018,FishGame,2022.1.1,59.982173300265025,
,17,넌 현실적이야,3,Green,B,4.608695652173913,4.766666666666667,ScrollUp,ScrollDown,Green.png,1,Neutral,Neutral,0,0,0,0,,,,,,,,,,,,,0,16,16,16,,,,,,,,,,,,,,,,,,,,,,,,,,,,,,,,,,,,,,,,,,,,,,,,,,,,,,,,,,,,,,,,,,,,,,,,,,,,,,,,,,,,,2,1.1392935999901965,174.13799859999563,None,ScrollUp,정답입니다,174.13799859999563,None,174.13799859999563,None,174.13799859999563,None,174.13799859999563,None,175.1705030000012,None,175.1705030000012,175.67243269999744,,,,,,,,,,,,,,,,111,2022-05-03_19h50.49.018,FishGame,2022.1.1,59.982173300265025,
,18,넌 의리있어,1,Green,B,5.833333333333334,5.633333333333334,ScrollUp,ScrollDown,Green.png,1,Positive,Incongruent,0,0,0,0,,,,,,,,,,,,,0,17,17,17,,,,,,,,,,,,,,,,,,,,,,,,,,,,,,,,,,,,,,,,,,,,,,,,,,,,,,,,,,,,,,,,,,,,,,,,,,,,,,,,,,,,,2,1.0630196999991313,176.30189039999095,None,ScrollUp,정답입니다,176.30189039999095,None,176.30189039999095,None,176.30189039999095,None,176.30189039999095,None,177.25599639999564,None,177.25599639999564,177.75555069999245,,,,,,,,,,,,,,,,111,2022-05-03_19h50.49.018,FishGame,2022.1.1,59.982173300265025,
,19,넌 신경과민이야,5,Orange,A,2.541666666666667,2.166666666666667,ScrollDown,ScrollUp,Orange.png,1,Negative,Incongruent,0,0,0,0,,,,,,,,,,,,,0,18,18,18,,,,,,,,,,,,,,,,,,,,,,,,,,,,,,,,,,,,,,,,,,,,,,,,,,,,,,,,,,,,,,,,,,,,,,,,,,,,,,,,,,,,,1,1.0961157999990974,178.4004150999972,None,ScrollDown,정답입니다,178.4004150999972,None,178.4004150999972,None,178.4004150999972,None,178.4004150999972,None,179.37233410000044,None,179.37233410000044,179.8728240999917,,,,,,,,,,,,,,,,111,2022-05-03_19h50.49.018,FishGame,2022.1.1,59.982173300265025,
,20,넌 편안해,1,Orange,A,5.916666666666666,5.866666666666666,ScrollDown,ScrollUp,Orange.png,1,Positive,Congruent,0,0,0,0,,,,,,,,,,,,,0,19,19,19,,,,,,,,,,,,,,,,,,,,,,,,,,,,,,,,,,,,,,,,,,,,,,,,,,,,,,,,,,,,,,,,,,,,,,,,,,,,,,,,,,,,,1,1.1069120000029216,180.5089258999942,None,ScrollDown,정답입니다,180.5089258999942,None,180.5089258999942,None,180.5089258999942,None,180.5089258999942,None,181.5036548999924,None,181.5036548999924,182.00586579999072,,,,,,,,,,,,,,,,111,2022-05-03_19h50.49.018,FishGame,2022.1.1,59.982173300265025,
,21,넌 품위있어,2,Green,B,5.291666666666666,4.466666666666667,ScrollUp,ScrollDown,Green.png,1,Positive,Incongruent,0,0,0,0,,,,,,,,,,,,,0,20,20,20,,,,,,,,,,,,,,,,,,,,,,,,,,,,,,,,,,,,,,,,,,,,,,,,,,,,,,,,,,,,,,,,,,,,,,,,,,,,,,,,,,,,,2,1.0674302999977954,182.63505270000314,None,ScrollUp,정답입니다,182.63505270000314,None,182.63505270000314,None,182.63505270000314,None,182.63505270000314,None,183.59443529999407,None,183.59443529999407,184.10566619999008,,,,,,,,,,,,,,,,111,2022-05-03_19h50.49.018,FishGame,2022.1.1,59.982173300265025,
,22,넌 빈틈없어,3,Orange,A,4.833333333333333,3.966666666666667,ScrollDown,ScrollUp,Orange.png,1,Neutral,Neutral,0,0,0,0,,,,,,,,,,,,,0,21,21,21,,,,,,,,,,,,,,,,,,,,,,,,,,,,,,,,,,,,,,,,,,,,,,,,,,,,,,,,,,,,,,,,,,,,,,,,,,,,,,,,,,,,,1,1.0279481000034139,184.7514305999939,None,ScrollDown,정답입니다,184.7514305999939,None,184.7514305999939,None,184.7514305999939,None,184.7514305999939,None,185.65602559999388,None,185.65602559999388,186.15518699999666,,,,,,,,,,,,,,,,111,2022-05-03_19h50.49.018,FishGame,2022.1.1,59.982173300265025,
,23,넌 상상력없어,4,Green,B,2.833333333333333,3.133333333333333,ScrollUp,ScrollDown,Green.png,1,Negative,Congruent,0,0,0,0,,,,,,,,,,,,,0,22,22,22,,,,,,,,,,,,,,,,,,,,,,,,,,,,,,,,,,,,,,,,,,,,,,,,,,,,,,,,,,,,,,,,,,,,,,,,,,,,,,,,,,,,,2,1.0125785999989603,186.78969479999796,None,ScrollUp,정답입니다,186.78969479999796,None,186.78969479999796,None,186.78969479999796,None,186.78969479999796,None,187.6889097999956,None,187.6889097999956,188.18911639999715,,,,,,,,,,,,,,,,111,2022-05-03_19h50.49.018,FishGame,2022.1.1,59.982173300265025,
,24,넌 지혜로워,2,Green,B,6.333333333333334,4.633333333333334,ScrollUp,ScrollDown,Green.png,1,Positive,Incongruent,0,0,0,0,,,,,,,,,,,,,0,23,23,23,,,,,,,,,,,,,,,,,,,,,,,,,,,,,,,,,,,,,,,,,,,,,,,,,,,,,,,,,,,,,,,,,,,,,,,,,,,,,,,,,,,,,2,1.0621055999945384,188.82899139999063,None,ScrollUp,정답입니다,188.82899139999063,None,188.82899139999063,None,188.82899139999063,None,188.82899139999063,None,189.7720999000012,None,189.7720999000012,190.27315219999582,,,,,,,,,,,,,,,,111,2022-05-03_19h50.49.018,FishGame,2022.1.1,59.982173300265025,
,25,넌 시끄러워,4,Orange,A,2.833333333333333,3.033333333333333,ScrollDown,ScrollUp,Orange.png,1,Negative,Incongruent,0,0,0,0,,,,,,,,,,,,,0,24,24,24,,,,,,,,,,,,,,,,,,,,,,,,,,,,,,,,,,,,,,,,,,,,,,,,,,,,,,,,,,,,,,,,,,,,,,,,,,,,,,,,,,,,,1,1.1561833000014303,190.91288509999868,None,ScrollDown,정답입니다,190.91288509999868,None,190.91288509999868,None,190.91288509999868,None,190.91288509999868,None,191.95356759999413,None,191.95356759999413,192.45557609999378,,,,,,,,,,,,,,,,111,2022-05-03_19h50.49.018,FishGame,2022.1.1,59.982173300265025,
,26,넌 만사태평이야,3,Green,B,4,4.333333333333333,ScrollUp,ScrollDown,Green.png,1,Neutral,Neutral,0,0,0,0,,,,,,,,,,,,,0,25,25,25,,,,,,,,,,,,,,,,,,,,,,,,,,,,,,,,,,,,,,,,,,,,,,,,,,,,,,,,,,,,,,,,,,,,,,,,,,,,,,,,,,,,,2,1.12922790000448,193.09374840000237,None,ScrollUp,정답입니다,193.09374840000237,None,193.09374840000237,None,193.09374840000237,None,193.09374840000237,None,194.10620739999285,None,194.10620739999285,194.60603589999664,,,,,,,,,,,,,,,,111,2022-05-03_19h50.49.018,FishGame,2022.1.1,59.982173300265025,
,27,넌 붙임성있어,1,Orange,A,5.708333333333333,5.633333333333334,ScrollDown,ScrollUp,Orange.png,1,Positive,Congruent,0,0,0,0,,,,,,,,,,,,,0,26,26,26,,,,,,,,,,,,,,,,,,,,,,,,,,,,,,,,,,,,,,,,,,,,,,,,,,,,,,,,,,,,,,,,,,,,,,,,,,,,,,,,,,,,,1,0.966210599988699,195.24707669999043,None,ScrollDown,정답입니다,195.24707669999043,None,195.24707669999043,None,195.24707669999043,None,195.24707669999043,None,196.09379489999264,None,196.09379489999264,196.60566149999795,,,,,,,,,,,,,,,,111,2022-05-03_19h50.49.018,FishGame,2022.1.1,59.982173300265025,
,28,넌 영리해,2,Orange,A,6,4.033333333333333,ScrollDown,ScrollUp,Orange.png,1,Positive,Congruent,0,0,0,0,,,,,,,,,,,,,0,27,27,27,,,,,,,,,,,,,,,,,,,,,,,,,,,,,,,,,,,,,,,,,,,,,,,,,,,,,,,,,,,,,,,,,,,,,,,,,,,,,,,,,,,,,1,1.0184354999946663,197.24412170000141,None,ScrollDown,정답입니다,197.24412170000141,None,197.24412170000141,None,197.24412170000141,None,197.24412170000141,None,198.14492079999764,None,198.14492079999764,198.6563407999929,,,,,,,,,,,,,,,,111,2022-05-03_19h50.49.018,FishGame,2022.1.1,59.982173300265025,
,29,넌 열심이야,1,Green,B,6.041666666666667,5.833333333333333,ScrollUp,ScrollDown,Green.png,1,Positive,Incongruent,0,0,0,0,,,,,,,,,,,,,0,28,28,28,,,,,,,,,,,,,,,,,,,,,,,,,,,,,,,,,,,,,,,,,,,,,,,,,,,,,,,,,,,,,,,,,,,,,,,,,,,,,,,,,,,,,2,1.094134800005122,199.29076779999014,None,ScrollUp,정답입니다,199.29076779999014,None,199.29076779999014,None,199.29076779999014,None,199.29076779999014,None,200.27232649999496,None,200.27232649999496,200.7726726999972,,,,,,,,,,,,,,,,111,2022-05-03_19h50.49.018,FishGame,2022.1.1,59.982173300265025,
,30,넌 인기없어,4,Green,B,3,3.3,ScrollUp,ScrollDown,Green.png,1,Negative,Congruent,0,0,0,0,,,,,,,,,,,,,0,29,29,29,,,,,,,,,,,,,,,,,,,,,,,,,,,,,,,,,,,,,,,,,,,,,,,,,,,,,,,,,,,,,,,,,,,,,,,,,,,,,,,,,,,,,2,0.9854386999941198,201.40818879999279,None,ScrollUp,정답입니다,201.40818879999279,None,201.40818879999279,None,201.40818879999279,None,201.40818879999279,None,202.27746959999786,None,202.27746959999786,202.7891699000029,,,,,,,,,,,,,,,,111,2022-05-03_19h50.49.018,FishGame,2022.1.1,59.982173300265025,
,31,넌 익살스러워,3,Orange,A,4.708333333333334,4.833333333333333,ScrollDown,ScrollUp,Orange.png,1,Neutral,Neutral,0,0,0,0,,,,,,,,,,,,,0,30,30,30,,,,,,,,,,,,,,,,,,,,,,,,,,,,,,,,,,,,,,,,,,,,,,,,,,,,,,,,,,,,,,,,,,,,,,,,,,,,,,,,,,,,,1,0.9655177000095136,203.43901000000187,None,ScrollDown,정답입니다,203.43901000000187,None,203.43901000000187,None,203.43901000000187,None,203.43901000000187,None,204.27755440000328,None,204.27755440000328,204.78983169999265,,,,,,,,,,,,,,,,111,2022-05-03_19h50.49.018,FishGame,2022.1.1,59.982173300265025,
,32,넌 이기적이야,5,Green,B,2.291666666666667,2.333333333333333,ScrollUp,ScrollDown,Green.png,1,Negative,Congruent,0,0,0,0,,,,,,,,,,,,,0,31,31,31,,,,,,,,,,,,,,,,,,,,,,,,,,,,,,,,,,,,,,,,,,,,,,,,,,,,,,,,,,,,,,,,,,,,,,,,,,,,,,,,,,,,,2,1.129818899993552,205.42145249999885,None,ScrollUp,정답입니다,205.42145249999885,None,205.42145249999885,None,205.42145249999885,None,205.42145249999885,None,206.4394445999933,None,206.4394445999933,206.93968389999645,,,,,,,,,,,,,,,,111,2022-05-03_19h50.49.018,FishGame,2022.1.1,59.982173300265025,
,33,나를 데려가줘,6,Green,B,0,0,ScrollDown,ScrollUp,Green.png,1,NonTarget,NonTarget,0,0,0,0,,,,,,,,,,,,,0,32,32,32,,,,,,,,,,,,,,,,,,,,,,,,,,,,,,,,,,,,,,,,,,,,,,,,,,,,,,,,,,,,,,,,,,,,,,,,,,,,,,,,,,,,,1,1.1185846000007587,207.57509030000074,None,ScrollDown,정답입니다,207.57509030000074,None,207.57509030000074,None,207.57509030000074,None,207.57509030000074,None,208.57739219999348,None,208.57739219999348,209.08969880000222,,,,,,,,,,,,,,,,111,2022-05-03_19h50.49.018,FishGame,2022.1.1,59.982173300265025,
,34,넌 기회주의자야,5,Orange,A,2.875,2.133333333333333,ScrollDown,ScrollUp,Orange.png,1,Negative,Incongruent,0,0,0,0,,,,,,,,,,,,,0,33,33,33,,,,,,,,,,,,,,,,,,,,,,,,,,,,,,,,,,,,,,,,,,,,,,,,,,,,,,,,,,,,,,,,,,,,,,,,,,,,,,,,,,,,,1,0.9341509999940172,209.73399919999065,None,ScrollDown,정답입니다,209.73399919999065,None,209.73399919999065,None,209.73399919999065,None,209.73399919999065,None,210.5445630000031,None,210.5445630000031,211.05663690000074,,,,,,,,,,,,,,,,111,2022-05-03_19h50.49.018,FishGame,2022.1.1,59.982173300265025,
,1,넌 미성숙해,4,Orange,A,3,3.2,ScrollDown,ScrollUp,Orange.png,2,Negative,Incongruent,0,0,0,0,,,,,,,,,,,,,,,,,0,0,0,0,,,,,,,,,,,,,,,,,,,,,,,,,,,,,,,,,,,,,,,,248.457610700003,249.95717739999236,249.99119639999117,250.94112329999916,250.99097739999706,251.94077489999472,251.94077489999472,None,,,,,,,,,,,,,,,,,,,,,,,,,,,,,,,,,,1,1.3316588000016054,253.0902470000001,None,ScrollDown,정답입니다,253.0902470000001,None,253.0902470000001,None,253.0902470000001,None,253.0902470000001,None,254.26253859999997,None,254.26253859999997,254.77368569999817,211.55623429999105,None,211.55623429999105,None,-0.033333335,-0.13055556,1,0,0,0.01608136997674592,None,241.55737779999617,None,,,111,2022-05-03_19h50.49.018,FishGame,2022.1.1,59.982173300265025,
,2,넌 반사회적이야,5,Green,B,2.416666666666667,2.033333333333333,ScrollUp,ScrollDown,Green.png,2,Negative,Congruent,0,0,0,0,,,,,,,,,,,,,,,,,0,1,1,1,,,,,,,,,,,,,,,,,,,,,,,,,,,,,,,,,,,,,,,,,,,,,,,,,,,,,,,,,,,,,,,,,,,,,,,,,,,,,,,,,2,1.1767149999941466,255.40731500000402,None,ScrollUp,정답입니다,255.40731500000402,None,255.40731500000402,None,255.40731500000402,None,255.40731500000402,None,256.4741137999954,None,256.4741137999954,256.9739058999985,,,,,,,,,,,,,,,,111,2022-05-03_19h50.49.018,FishGame,2022.1.1,59.982173300265025,
,3,넌 유능해,2,Orange,A,6.208333333333333,4.433333333333334,ScrollDown,ScrollUp,Orange.png,2,Positive,Congruent,0,0,0,0,,,,,,,,,,,,,,,,,0,2,2,2,,,,,,,,,,,,,,,,,,,,,,,,,,,,,,,,,,,,,,,,,,,,,,,,,,,,,,,,,,,,,,,,,,,,,,,,,,,,,,,,,1,0.958638099997188,257.6152063000045,None,ScrollDown,정답입니다,257.6152063000045,None,257.6152063000045,None,257.6152063000045,None,257.6152063000045,None,258.4570853000041,None,258.4570853000041,258.95697010000004,,,,,,,,,,,,,,,,111,2022-05-03_19h50.49.018,FishGame,2022.1.1,59.982173300265025,
,4,넌 능숙해,2,Green,B,5.666666666666667,4.733333333333333,ScrollUp,ScrollDown,Green.png,2,Positive,Incongruent,0,0,0,0,,,,,,,,,,,,,,,,,0,3,3,3,,,,,,,,,,,,,,,,,,,,,,,,,,,,,,,,,,,,,,,,,,,,,,,,,,,,,,,,,,,,,,,,,,,,,,,,,,,,,,,,,2,1.038229500001762,259.5914693999948,None,ScrollUp,정답입니다,259.5914693999948,None,259.5914693999948,None,259.5914693999948,None,259.5914693999948,None,260.52287040000374,None,260.52287040000374,261.0240550000017,,,,,,,,,,,,,,,,111,2022-05-03_19h50.49.018,FishGame,2022.1.1,59.982173300265025,
,5,넌 진부해,4,Green,B,2.458333333333333,3.166666666666667,ScrollUp,ScrollDown,Green.png,2,Negative,Congruent,0,0,0,0,,,,,,,,,,,,,,,,,0,4,4,4,,,,,,,,,,,,,,,,,,,,,,,,,,,,,,,,,,,,,,,,,,,,,,,,,,,,,,,,,,,,,,,,,,,,,,,,,,,,,,,,,2,1.1577312000008533,261.6557133000024,None,ScrollUp,정답입니다,261.6557133000024,None,261.6557133000024,None,261.6557133000024,None,261.6557133000024,None,262.70561199999065,None,262.70561199999065,263.2072954000032,,,,,,,,,,,,,,,,111,2022-05-03_19h50.49.018,FishGame,2022.1.1,59.982173300265025,
,6,나를 보내줘,6,Orange,A,0,0,ScrollUp,ScrollDown,Orange.png,2,NonTarget,NonTarget,0,0,0,0,,,,,,,,,,,,,,,,,0,5,5,5,,,,,,,,,,,,,,,,,,,,,,,,,,,,,,,,,,,,,,,,,,,,,,,,,,,,,,,,,,,,,,,,,,,,,,,,,,,,,,,,,2,1.3614448000007542,263.8395739999978,None,ScrollUp,정답입니다,263.8395739999978,None,263.8395739999978,None,263.8395739999978,None,263.8395739999978,None,265.09106219999376,None,265.09106219999376,265.5909490999911,,,,,,,,,,,,,,,,111,2022-05-03_19h50.49.018,FishGame,2022.1.1,59.982173300265025,
,7,넌 엄격해,3,Orange,A,4.166666666666666,4.1,ScrollDown,ScrollUp,Orange.png,2,Neutral,Neutral,0,0,0,0,,,,,,,,,,,,,,,,,0,6,6,6,,,,,,,,,,,,,,,,,,,,,,,,,,,,,,,,,,,,,,,,,,,,,,,,,,,,,,,,,,,,,,,,,,,,,,,,,,,,,,,,,1,1.0127577999955975,266.22729490000347,None,ScrollDown,정답입니다,266.22729490000347,None,266.22729490000347,None,266.22729490000347,None,266.22729490000347,None,267.12395589999505,None,267.12395589999505,267.62431069999,,,,,,,,,,,,,,,,111,2022-05-03_19h50.49.018,FishGame,2022.1.1,59.982173300265025,
,8,나를 보내줘,6,Orange,A,0,0,ScrollUp,ScrollDown,Orange.png,2,NonTarget,NonTarget,0,0,0,0,,,,,,,,,,,,,,,,,0,7,7,7,,,,,,,,,,,,,,,,,,,,,,,,,,,,,,,,,,,,,,,,,,,,,,,,,,,,,,,,,,,,,,,,,,,,,,,,,,,,,,,,,2,1.133506900005159,268.256046399998,None,ScrollUp,정답입니다,268.256046399998,None,268.256046399998,None,268.256046399998,None,268.256046399998,None,269.2783855000016,None,269.2783855000016,269.790685999993,,,,,,,,,,,,,,,,111,2022-05-03_19h50.49.018,FishGame,2022.1.1,59.982173300265025,
,9,넌 대담해,3,Green,B,4.875,4.866666666666666,ScrollUp,ScrollDown,Green.png,2,Neutral,Neutral,0,0,0,0,,,,,,,,,,,,,,,,,0,8,8,8,,,,,,,,,,,,,,,,,,,,,,,,,,,,,,,,,,,,,,,,,,,,,,,,,,,,,,,,,,,,,,,,,,,,,,,,,,,,,,,,,2,1.098210600001039,270.42289619999065,None,ScrollUp,정답입니다,270.42289619999065,None,270.42289619999065,None,270.42289619999065,None,270.42289619999065,None,271.4120552999957,None,271.4120552999957,271.9242957999959,,,,,,,,,,,,,,,,111,2022-05-03_19h50.49.018,FishGame,2022.1.1,59.982173300265025,
,10,넌 꾸준해,1,Orange,A,5.916666666666668,5.8,ScrollDown,ScrollUp,Orange.png,2,Positive,Congruent,0,0,0,0,,,,,,,,,,,,,,,,,0,9,9,9,,,,,,,,,,,,,,,,,,,,,,,,,,,,,,,,,,,,,,,,,,,,,,,,,,,,,,,,,,,,,,,,,,,,,,,,,,,,,,,,,1,1.1682262000103947,272.5614426999964,None,ScrollDown,정답입니다,272.5614426999964,None,272.5614426999964,None,272.5614426999964,None,272.5614426999964,None,273.61243169999216,None,273.61243169999216,274.12475200000335,,,,,,,,,,,,,,,,111,2022-05-03_19h50.49.018,FishGame,2022.1.1,59.982173300265025,
,11,나를 데려가줘,6,Green,B,0,0,ScrollDown,ScrollUp,Green.png,2,NonTarget,NonTarget,0,0,0,0,,,,,,,,,,,,,,,,,0,10,10,10,,,,,,,,,,,,,,,,,,,,,,,,,,,,,,,,,,,,,,,,,,,,,,,,,,,,,,,,,,,,,,,,,,,,,,,,,,,,,,,,,1,1.1033062000060454,274.75538020000386,None,ScrollDown,정답입니다,274.75538020000386,None,274.75538020000386,None,274.75538020000386,None,274.75538020000386,None,275.74810219999927,None,275.74810219999927,276.2574783000018,,,,,,,,,,,,,,,,111,2022-05-03_19h50.49.018,FishGame,2022.1.1,59.982173300265025,
,12,넌 독선적이야,5,Orange,A,2.458333333333333,1.933333333333333,ScrollDown,ScrollUp,Orange.png,2,Negative,Incongruent,0,0,0,0,,,,,,,,,,,,,,,,,0,11,11,11,,,,,,,,,,,,,,,,,,,,,,,,,,,,,,,,,,,,,,,,,,,,,,,,,,,,,,,,,,,,,,,,,,,,,,,,,,,,,,,,,1,1.0008386000117753,276.90820330000133,None,ScrollDown,정답입니다,276.90820330000133,None,276.90820330000133,None,276.90820330000133,None,276.90820330000133,None,277.7788553999999,None,277.7788553999999,278.29105639999034,,,,,,,,,,,,,,,,111,2022-05-03_19h50.49.018,FishGame,2022.1.1,59.982173300265025,
,13,나를 보내줘,6,Orange,A,0,0,ScrollUp,ScrollDown,Orange.png,2,NonTarget,NonTarget,0,0,0,0,,,,,,,,,,,,,,,,,0,12,12,12,,,,,,,,,,,,,,,,,,,,,,,,,,,,,,,,,,,,,,,,,,,,,,,,,,,,,,,,,,,,,,,,,,,,,,,,,,,,,,,,,2,1.102530400006799,278.93342329999723,None,ScrollUp,정답입니다,278.93342329999723,None,278.93342329999723,None,278.93342329999723,None,278.93342329999723,None,279.91174519999186,None,279.91174519999186,280.42452849999245,,,,,,,,,,,,,,,,111,2022-05-03_19h50.49.018,FishGame,2022.1.1,59.982173300265025,
,14,넌 책임감있어,1,Green,B,6.347826086956522,6,ScrollUp,ScrollDown,Green.png,2,Positive,Incongruent,0,0,0,0,,,,,,,,,,,,,,,,,0,13,13,13,,,,,,,,,,,,,,,,,,,,,,,,,,,,,,,,,,,,,,,,,,,,,,,,,,,,,,,,,,,,,,,,,,,,,,,,,,,,,,,,,2,1.037945000003674,281.0587833000027,None,ScrollUp,정답입니다,281.0587833000027,None,281.0587833000027,None,281.0587833000027,None,281.0587833000027,None,281.98873099999037,None,281.98873099999037,282.4914185999951,,,,,,,,,,,,,,,,111,2022-05-03_19h50.49.018,FishGame,2022.1.1,59.982173300265025,
,15,넌 문학적이야,3,Orange,A,4.708333333333334,4.333333333333333,ScrollDown,ScrollUp,Orange.png,2,Neutral,Neutral,0,0,0,0,,,,,,,,,,,,,,,,,0,14,14,14,,,,,,,,,,,,,,,,,,,,,,,,,,,,,,,,,,,,,,,,,,,,,,,,,,,,,,,,,,,,,,,,,,,,,,,,,,,,,,,,,1,1.43635030000587,283.14878370000224,None,ScrollDown,정답입니다,283.14878370000224,None,283.14878370000224,None,283.14878370000224,None,283.14878370000224,None,284.4474116999918,None,284.4474116999918,284.9578929999989,,,,,,,,,,,,,,,,111,2022-05-03_19h50.49.018,FishGame,2022.1.1,59.982173300265025,
,16,넌 재미있어,1,Green,B,5.875,5.7,ScrollUp,ScrollDown,Green.png,2,Positive,Incongruent,0,0,0,0,,,,,,,,,,,,,,,,,0,15,15,15,,,,,,,,,,,,,,,,,,,,,,,,,,,,,,,,,,,,,,,,,,,,,,,,,,,,,,,,,,,,,,,,,,,,,,,,,,,,,,,,,2,1.2061875999934273,285.5885644999944,None,ScrollUp,정답입니다,285.5885644999944,None,285.5885644999944,None,285.5885644999944,None,285.5885644999944,None,286.6891109999997,None,286.6891109999997,287.1911356999917,,,,,,,,,,,,,,,,111,2022-05-03_19h50.49.018,FishGame,2022.1.1,59.982173300265025,
,17,나를 데려가줘,6,Green,B,0,0,ScrollDown,ScrollUp,Green.png,2,NonTarget,NonTarget,0,0,0,0,,,,,,,,,,,,,,,,,0,16,16,16,,,,,,,,,,,,,,,,,,,,,,,,,,,,,,,,,,,,,,,,,,,,,,,,,,,,,,,,,,,,,,,,,,,,,,,,,,,,,,,,,1,1.0029275999986567,287.8243533999921,None,ScrollDown,정답입니다,287.8243533999921,None,287.8243533999921,None,287.8243533999921,None,287.8243533999921,None,288.722568600002,None,288.722568600002,289.22500749999017,,,,,,,,,,,,,,,,111,2022-05-03_19h50.49.018,FishGame,2022.1.1,59.982173300265025,
,18,넌 협력적이야,1,Orange,A,5.625,5.633333333333334,ScrollDown,ScrollUp,Orange.png,2,Positive,Congruent,0,0,0,0,,,,,,,,,,,,,,,,,0,17,17,17,,,,,,,,,,,,,,,,,,,,,,,,,,,,,,,,,,,,,,,,,,,,,,,,,,,,,,,,,,,,,,,,,,,,,,,,,,,,,,,,,1,1.1431854999973439,289.86604700000316,None,ScrollDown,정답입니다,289.86604700000316,None,289.86604700000316,None,289.86604700000316,None,289.86604700000316,None,290.89097209999454,None,290.89097209999454,291.39139360000263,,,,,,,,,,,,,,,,111,2022-05-03_19h50.49.018,FishGame,2022.1.1,59.982173300265025,
,19,넌 평범해,3,Green,B,4.333333333333332,4.233333333333333,ScrollUp,ScrollDown,Green.png,2,Neutral,Neutral,0,0,0,0,,,,,,,,,,,,,,,,,0,18,18,18,,,,,,,,,,,,,,,,,,,,,,,,,,,,,,,,,,,,,,,,,,,,,,,,,,,,,,,,,,,,,,,,,,,,,,,,,,,,,,,,,2,1.206070100000943,292.02598829999624,None,ScrollUp,정답입니다,292.02598829999624,None,292.02598829999624,None,292.02598829999624,None,292.02598829999624,None,293.12319469999056,None,293.12319469999056,293.62471319999895,,,,,,,,,,,,,,,,111,2022-05-03_19h50.49.018,FishGame,2022.1.1,59.982173300265025,
,20,넌 오만해,5,Orange,A,2.333333333333333,2,ScrollDown,ScrollUp,Orange.png,2,Negative,Incongruent,0,0,0,0,,,,,,,,,,,,,,,,,0,19,19,19,,,,,,,,,,,,,,,,,,,,,,,,,,,,,,,,,,,,,,,,,,,,,,,,,,,,,,,,,,,,,,,,,,,,,,,,,,,,,,,,,1,0.9370785999926738,294.257773099991,None,ScrollDown,정답입니다,294.257773099991,None,294.257773099991,None,294.257773099991,None,294.257773099991,None,295.0893881999946,None,295.0893881999946,295.5911039999919,,,,,,,,,,,,,,,,111,2022-05-03_19h50.49.018,FishGame,2022.1.1,59.982173300265025,
,21,넌 운이없어,4,Green,B,3,3.466666666666667,ScrollUp,ScrollDown,Green.png,2,Negative,Congruent,0,0,0,0,,,,,,,,,,,,,,,,,0,20,20,20,,,,,,,,,,,,,,,,,,,,,,,,,,,,,,,,,,,,,,,,,,,,,,,,,,,,,,,,,,,,,,,,,,,,,,,,,,,,,,,,,2,1.1094668000005186,296.22482849999506,None,ScrollUp,정답입니다,296.22482849999506,None,296.22482849999506,None,296.22482849999506,None,296.22482849999506,None,297.2248002999986,None,297.2248002999986,297.7249337999965,,,,,,,,,,,,,,,,111,2022-05-03_19h50.49.018,FishGame,2022.1.1,59.982173300265025,
,22,넌 창조적이야,2,Green,B,6.125,4.633333333333334,ScrollUp,ScrollDown,Green.png,2,Positive,Incongruent,0,0,0,0,,,,,,,,,,,,,,,,,0,21,21,21,,,,,,,,,,,,,,,,,,,,,,,,,,,,,,,,,,,,,,,,,,,,,,,,,,,,,,,,,,,,,,,,,,,,,,,,,,,,,,,,,2,1.087974199996097,298.35729630000424,None,ScrollUp,정답입니다,298.35729630000424,None,298.35729630000424,None,298.35729630000424,None,298.35729630000424,None,299.3396352999989,None,299.3396352999989,299.84173230000306,,,,,,,,,,,,,,,,111,2022-05-03_19h50.49.018,FishGame,2022.1.1,59.982173300265025,
,23,나를 보내줘,6,Orange,A,0,0,ScrollUp,ScrollDown,Orange.png,2,NonTarget,NonTarget,0,0,0,0,,,,,,,,,,,,,,,,,0,22,22,22,,,,,,,,,,,,,,,,,,,,,,,,,,,,,,,,,,,,,,,,,,,,,,,,,,,,,,,,,,,,,,,,,,,,,,,,,,,,,,,,,2,1.0725942999997642,300.4703695999924,None,ScrollUp,정답입니다,300.4703695999924,None,300.4703695999924,None,300.4703695999924,None,300.4703695999924,None,301.4393994999991,None,301.4393994999991,301.94124929999816,,,,,,,,,,,,,,,,111,2022-05-03_19h50.49.018,FishGame,2022.1.1,59.982173300265025,
,24,넌 통찰력있어,2,Orange,A,6.5,4.8,ScrollDown,ScrollUp,Orange.png,2,Positive,Congruent,0,0,0,0,,,,,,,,,,,,,,,,,0,23,23,23,,,,,,,,,,,,,,,,,,,,,,,,,,,,,,,,,,,,,,,,,,,,,,,,,,,,,,,,,,,,,,,,,,,,,,,,,,,,,,,,,1,1.0071535000024596,302.5825041999924,None,ScrollDown,정답입니다,302.5825041999924,None,302.5825041999924,None,302.5825041999924,None,302.5825041999924,None,303.47482289999607,None,303.47482289999607,303.9748021999985,,,,,,,,,,,,,,,,111,2022-05-03_19h50.49.018,FishGame,2022.1.1,59.982173300265025,
,25,넌 경솔해,5,Green,B,2.458333333333333,2.266666666666667,ScrollUp,ScrollDown,Green.png,2,Negative,Congruent,0,0,0,0,,,,,,,,,,,,,,,,,0,24,24,24,,,,,,,,,,,,,,,,,,,,,,,,,,,,,,,,,,,,,,,,,,,,,,,,,,,,,,,,,,,,,,,,,,,,,,,,,,,,,,,,,2,1.0641241999983322,304.60678439999174,None,ScrollUp,정답입니다,304.60678439999174,None,304.60678439999174,None,304.60678439999174,None,304.60678439999174,None,305.5584627999924,None,305.5584627999924,306.0582161999919,,,,,,,,,,,,,,,,111,2022-05-03_19h50.49.018,FishGame,2022.1.1,59.982173300265025,
,26,넌 초조해,4,Orange,A,2.916666666666667,3.133333333333333,ScrollDown,ScrollUp,Orange.png,2,Negative,Incongruent,0,0,0,0,,,,,,,,,,,,,,,,,0,25,25,25,,,,,,,,,,,,,,,,,,,,,,,,,,,,,,,,,,,,,,,,,,,,,,,,,,,,,,,,,,,,,,,,,,,,,,,,,,,,,,,,,1,0.8095749000058277,306.69285310000123,None,ScrollDown,정답입니다,306.69285310000123,None,306.69285310000123,None,306.69285310000123,None,306.69285310000123,None,307.391684599992,None,307.391684599992,307.89148749999003,,,,,,,,,,,,,,,,111,2022-05-03_19h50.49.018,FishGame,2022.1.1,59.982173300265025,
,27,넌 무관심해,4,Green,B,2.833333333333333,2.9,ScrollUp,ScrollDown,Green.png,2,Negative,Congruent,0,0,0,0,,,,,,,,,,,,,,,,,0,26,26,26,,,,,,,,,,,,,,,,,,,,,,,,,,,,,,,,,,,,,,,,,,,,,,,,,,,,,,,,,,,,,,,,,,,,,,,,,,,,,,,,,2,0.937520699997549,308.53263299999526,None,ScrollUp,정답입니다,308.53263299999526,None,308.53263299999526,None,308.53263299999526,None,308.53263299999526,None,309.35678740000003,None,309.35678740000003,309.8588558999909,,,,,,,,,,,,,,,,111,2022-05-03_19h50.49.018,FishGame,2022.1.1,59.982173300265025,
,28,넌 감성적이야,3,Green,B,4.125,4.166666666666667,ScrollUp,ScrollDown,Green.png,2,Neutral,Neutral,0,0,0,0,,,,,,,,,,,,,,,,,0,27,27,27,,,,,,,,,,,,,,,,,,,,,,,,,,,,,,,,,,,,,,,,,,,,,,,,,,,,,,,,,,,,,,,,,,,,,,,,,,,,,,,,,2,0.9175984000030439,310.48613320000004,None,ScrollUp,정답입니다,310.48613320000004,None,310.48613320000004,None,310.48613320000004,None,310.48613320000004,None,311.29753419999906,None,311.29753419999906,311.80878459999803,,,,,,,,,,,,,,,,111,2022-05-03_19h50.49.018,FishGame,2022.1.1,59.982173300265025,
,29,넌 배려심있어,1,Orange,A,6.083333333333333,5.5,ScrollDown,ScrollUp,Orange.png,2,Positive,Congruent,0,0,0,0,,,,,,,,,,,,,,,,,0,28,28,28,,,,,,,,,,,,,,,,,,,,,,,,,,,,,,,,,,,,,,,,,,,,,,,,,,,,,,,,,,,,,,,,,,,,,,,,,,,,,,,,,1,0.9075433999969391,312.44484319999174,None,ScrollDown,정답입니다,312.44484319999174,None,312.44484319999174,None,312.44484319999174,None,312.44484319999174,None,313.2420526999922,None,313.2420526999922,313.7417218999908,,,,,,,,,,,,,,,,111,2022-05-03_19h50.49.018,FishGame,2022.1.1,59.982173300265025,
,30,넌 숨김없어,3,Orange,A,4.5,4.933333333333334,ScrollDown,ScrollUp,Orange.png,2,Neutral,Neutral,0,0,0,0,,,,,,,,,,,,,,,,,0,29,29,29,,,,,,,,,,,,,,,,,,,,,,,,,,,,,,,,,,,,,,,,,,,,,,,,,,,,,,,,,,,,,,,,,,,,,,,,,,,,,,,,,1,0.8588583999953698,314.3809839000023,None,ScrollDown,정답입니다,314.3809839000023,None,314.3809839000023,None,314.3809839000023,None,314.3809839000023,None,315.12487580000015,None,315.12487580000015,315.6255497999955,,,,,,,,,,,,,,,,111,2022-05-03_19h50.49.018,FishGame,2022.1.1,59.982173300265025,
,31,넌 훌륭해,2,Green,B,5.916666666666667,4.033333333333333,ScrollUp,ScrollDown,Green.png,2,Positive,Incongruent,0,0,0,0,,,,,,,,,,,,,,,,,0,30,30,30,,,,,,,,,,,,,,,,,,,,,,,,,,,,,,,,,,,,,,,,,,,,,,,,,,,,,,,,,,,,,,,,,,,,,,,,,,,,,,,,,2,1.1767924000014318,316.25601529999403,None,ScrollUp,정답입니다,316.25601529999403,None,316.25601529999403,None,316.25601529999403,None,316.25601529999403,None,317.32517909999297,None,317.32517909999297,317.8255183000001,,,,,,,,,,,,,,,,111,2022-05-03_19h50.49.018,FishGame,2022.1.1,59.982173300265025,
,32,넌 슬기로워,2,Orange,A,6.166666666666667,4.1,ScrollDown,ScrollUp,Orange.png,2,Positive,Congruent,0,0,0,0,,,,,,,,,,,,,,,,,0,31,31,31,,,,,,,,,,,,,,,,,,,,,,,,,,,,,,,,,,,,,,,,,,,,,,,,,,,,,,,,,,,,,,,,,,,,,,,,,,,,,,,,,1,0.7775524000026053,318.4595130999951,None,ScrollDown,정답입니다,318.4595130999951,None,318.4595130999951,None,318.4595130999951,None,318.4595130999951,None,319.1255725999945,None,319.1255725999945,319.6252472999913,,,,,,,,,,,,,,,,111,2022-05-03_19h50.49.018,FishGame,2022.1.1,59.982173300265025,
,33,넌 냉혹해,5,Orange,A,2.583333333333333,2.1,ScrollDown,ScrollUp,Orange.png,2,Negative,Incongruent,0,0,0,0,,,,,,,,,,,,,,,,,0,32,32,32,,,,,,,,,,,,,,,,,,,,,,,,,,,,,,,,,,,,,,,,,,,,,,,,,,,,,,,,,,,,,,,,,,,,,,,,,,,,,,,,,1,0.8094916999980342,320.2613633000001,None,ScrollDown,정답입니다,320.2613633000001,None,320.2613633000001,None,320.2613633000001,None,320.2613633000001,None,320.9586658000044,None,320.9586658000044,321.45887609999045,,,,,,,,,,,,,,,,111,2022-05-03_19h50.49.018,FishGame,2022.1.1,59.982173300265025,
,34,나를 데려가줘,6,Green,B,0,0,ScrollDown,ScrollUp,Green.png,2,NonTarget,NonTarget,0,0,0,0,,,,,,,,,,,,,,,,,0,33,33,33,,,,,,,,,,,,,,,,,,,,,,,,,,,,,,,,,,,,,,,,,,,,,,,,,,,,,,,,,,,,,,,,,,,,,,,,,,,,,,,,,1,0.9008393999974942,322.09071309999854,None,ScrollDown,정답입니다,322.09071309999854,None,322.09071309999854,None,322.09071309999854,None,322.09071309999854,None,322.8799322999985,None,322.8799322999985,323.39189729999634,,,,,,,,,,,,,,,,111,2022-05-03_19h50.49.018,FishGame,2022.1.1,59.982173300265025,
,35,넌 편파적이야,5,Green,B,2.125,2,ScrollUp,ScrollDown,Green.png,2,Negative,Congruent,0,0,0,0,,,,,,,,,,,,,,,,,0,34,34,34,,,,,,,,,,,,,,,,,,,,,,,,,,,,,,,,,,,,,,,,,,,,,,,,,,,,,,,,,,,,,,,,,,,,,,,,,,,,,,,,,2,0.9756824000069173,324.02483019999636,None,ScrollUp,정답입니다,324.02483019999636,None,324.02483019999636,None,324.02483019999636,None,324.02483019999636,None,324.8919816999987,None,324.8919816999987,325.39201549999416,,,,,,,,,,,,,,,,111,2022-05-03_19h50.49.018,FishGame,2022.1.1,59.982173300265025,
,36,넌 슬퍼,4,Orange,A,2.583333333333333,3.066666666666667,ScrollDown,ScrollUp,Orange.png,2,Negative,Incongruent,0,0,0,0,,,,,,,,,,,,,,,,,0,35,35,35,,,,,,,,,,,,,,,,,,,,,,,,,,,,,,,,,,,,,,,,,,,,,,,,,,,,,,,,,,,,,,,,,,,,,,,,,,,,,,,,,1,0.8938944999972591,326.02734610000334,None,ScrollDown,정답입니다,326.02734610000334,None,326.02734610000334,None,326.02734610000334,None,326.02734610000334,None,326.80570889999217,None,326.80570889999217,327.30885359999957,,,,,,,,,,,,,,,,111,2022-05-03_19h50.49.018,FishGame,2022.1.1,59.982173300265025,
,37,나를 데려가줘,6,Green,B,0,0,ScrollDown,ScrollUp,Green.png,2,NonTarget,NonTarget,0,0,0,0,,,,,,,,,,,,,,,,,0,36,36,36,,,,,,,,,,,,,,,,,,,,,,,,,,,,,,,,,,,,,,,,,,,,,,,,,,,,,,,,,,,,,,,,,,,,,,,,,,,,,,,,,1,1.0509146000113105,327.9379703000013,None,ScrollDown,정답입니다,327.9379703000013,None,327.9379703000013,None,327.9379703000013,None,327.9379703000013,None,328.8801931999915,None,328.8801931999915,329.3920794000005,,,,,,,,,,,,,,,,111,2022-05-03_19h50.49.018,FishGame,2022.1.1,59.982173300265025,
,38,넌 친절해,1,Green,B,6.041666666666667,5.533333333333333,ScrollUp,ScrollDown,Green.png,2,Positive,Incongruent,0,0,0,0,,,,,,,,,,,,,,,,,0,37,37,37,,,,,,,,,,,,,,,,,,,,,,,,,,,,,,,,,,,,,,,,,,,,,,,,,,,,,,,,,,,,,,,,,,,,,,,,,,,,,,,,,2,1.1235364000021946,330.0308426999982,None,ScrollUp,정답입니다,330.0308426999982,None,330.0308426999982,None,330.0308426999982,None,330.0308426999982,None,331.040262399998,None,331.040262399998,331.54240720000234,,,,,,,,,,,,,,,,111,2022-05-03_19h50.49.018,FishGame,2022.1.1,59.982173300265025,
,1,넌 엉성해,4,Orange,A,3,3.3,ScrollDown,ScrollUp,Orange.png,3,Negative,Incongruent,0,0,0,0,,,,,,,,,,,,,,,,,,,,,0,0,0,0,,,,,,,,,,,,,,,,,,,,,,,,,,,,,,,,,,,,367.11032140000316,368.6096152999962,368.6429708999931,369.59333249999327,369.64329670000006,370.5935787999915,370.5935787999915,None,,,,,,,,,,,,,,,,,,,,,,,,,,,,,,,,,,1,1.088811199995689,371.7468489000021,None,ScrollDown,정답입니다,371.7468489000021,None,371.7468489000021,None,371.7468489000021,None,371.7468489000021,None,372.67664789999253,None,372.67664789999253,373.1766143999994,332.0426674999908,None,332.0426674999908,None,-0.05462963,-0.119444445,1,0,0,0.016122269997140393,None,362.04298669999116,None,,,111,2022-05-03_19h50.49.018,FishGame,2022.1.1,59.982173300265025,
,2,나를 보내줘,6,Orange,A,0,0,ScrollUp,ScrollDown,Orange.png,3,NonTarget,NonTarget,0,0,0,0,,,,,,,,,,,,,,,,,,,,,0,1,1,1,,,,,,,,,,,,,,,,,,,,,,,,,,,,,,,,,,,,,,,,,,,,,,,,,,,,,,,,,,,,,,,,,,,,,,,,,,,,,2,1.118698399994173,373.81017159999465,None,ScrollUp,정답입니다,373.81017159999465,None,373.81017159999465,None,373.81017159999465,None,373.81017159999465,None,374.81532130000414,None,374.81532130000414,375.3267169000028,,,,,,,,,,,,,,,,111,2022-05-03_19h50.49.018,FishGame,2022.1.1,59.982173300265025,
,3,넌 활발해,1,Green,B,5.666666666666667,5.6,ScrollUp,ScrollDown,Green.png,3,Positive,Incongruent,0,0,0,0,,,,,,,,,,,,,,,,,,,,,0,2,2,2,,,,,,,,,,,,,,,,,,,,,,,,,,,,,,,,,,,,,,,,,,,,,,,,,,,,,,,,,,,,,,,,,,,,,,,,,,,,,2,1.0384510000003502,375.9645392999955,None,ScrollUp,정답입니다,375.9645392999955,None,375.9645392999955,None,375.9645392999955,None,375.9645392999955,None,376.8916631000029,None,376.8916631000029,377.3936107999907,,,,,,,,,,,,,,,,111,2022-05-03_19h50.49.018,FishGame,2022.1.1,59.982173300265025,
,4,넌 논리적이야,2,Orange,A,5.666666666666666,4.633333333333334,ScrollDown,ScrollUp,Orange.png,3,Positive,Congruent,0,0,0,0,,,,,,,,,,,,,,,,,,,,,0,3,3,3,,,,,,,,,,,,,,,,,,,,,,,,,,,,,,,,,,,,,,,,,,,,,,,,,,,,,,,,,,,,,,,,,,,,,,,,,,,,,1,0.9734233000053791,378.0290090999915,None,ScrollDown,정답입니다,378.0290090999915,None,378.0290090999915,None,378.0290090999915,None,378.0290090999915,None,378.8930851000041,None,378.8930851000041,379.3933939999988,,,,,,,,,,,,,,,,111,2022-05-03_19h50.49.018,FishGame,2022.1.1,59.982173300265025,
,5,넌 과묵해,3,Orange,A,3.875,4.4,ScrollDown,ScrollUp,Orange.png,3,Neutral,Neutral,0,0,0,0,,,,,,,,,,,,,,,,,,,,,0,4,4,4,,,,,,,,,,,,,,,,,,,,,,,,,,,,,,,,,,,,,,,,,,,,,,,,,,,,,,,,,,,,,,,,,,,,,,,,,,,,,1.0185184975465138,0.9269305000052555,380.028376000002,None,ScrollDown,정답입니다,380.028376000002,None,380.028376000002,None,380.028376000002,None,380.028376000002,None,380.843254899999,None,380.843254899999,381.3437716999906,,,,,,,,,,,,,,,,111,2022-05-03_19h50.49.018,FishGame,2022.1.1,59.982173300265025,
,6,나를 데려가줘,6,Green,B,0,0,ScrollDown,ScrollUp,Green.png,3,NonTarget,NonTarget,0,0,0,0,,,,,,,,,,,,,,,,,,,,,0,5,5,5,,,,,,,,,,,,,,,,,,,,,,,,,,,,,,,,,,,,,,,,,,,,,,,,,,,,,,,,,,,,,,,,,,,,,,,,,,,,,1,1.0429925999924308,381.97186710000096,None,ScrollDown,정답입니다,381.97186710000096,None,381.97186710000096,None,381.97186710000096,None,381.97186710000096,None,382.91012649999175,None,382.91012649999175,383.41017689999717,,,,,,,,,,,,,,,,111,2022-05-03_19h50.49.018,FishGame,2022.1.1,59.982173300265025,
,7,넌 미숙해,4,Green,B,3,3,ScrollUp,ScrollDown,Green.png,3,Negative,Congruent,0,0,0,0,,,,,,,,,,,,,,,,,,,,,0,6,6,6,,,,,,,,,,,,,,,,,,,,,,,,,,,,,,,,,,,,,,,,,,,,,,,,,,,,,,,,,,,,,,,,,,,,,,,,,,,,,2,0.9997909999947296,384.04104270000244,None,ScrollUp,정답입니다,384.04104270000244,None,384.04104270000244,None,384.04104270000244,None,384.04104270000244,None,384.93141239999386,None,384.93141239999386,385.44361400000344,,,,,,,,,,,,,,,,111,2022-05-03_19h50.49.018,FishGame,2022.1.1,59.982173300265025,
,8,나를 보내줘,6,Orange,A,0,0,ScrollUp,ScrollDown,Orange.png,3,NonTarget,NonTarget,0,0,0,0,,,,,,,,,,,,,,,,,,,,,0,7,7,7,,,,,,,,,,,,,,,,,,,,,,,,,,,,,,,,,,,,,,,,,,,,,,,,,,,,,,,,,,,,,,,,,,,,,,,,,,,,,2,1.0145149000018137,386.0805549999932,None,ScrollUp,정답입니다,386.0805549999932,None,386.0805549999932,None,386.0805549999932,None,386.0805549999932,None,386.9802820999903,None,386.9802820999903,387.4939030999958,,,,,,,,,,,,,,,,111,2022-05-03_19h50.49.018,FishGame,2022.1.1,59.982173300265025,
,9,넌 자신만만해,3,Green,B,4.833333333333334,4.333333333333333,ScrollUp,ScrollDown,Green.png,3,Neutral,Neutral,0,0,0,0,,,,,,,,,,,,,,,,,,,,,0,8,8,8,,,,,,,,,,,,,,,,,,,,,,,,,,,,,,,,,,,,,,,,,,,,,,,,,,,,,,,,,,,,,,,,,,,,,,,,,,,,,2,1.0945110000029672,388.1226721999992,None,ScrollUp,정답입니다,388.1226721999992,None,388.1226721999992,None,388.1226721999992,None,388.1226721999992,None,389.1099300999922,None,389.1099300999922,389.6102439999959,,,,,,,,,,,,,,,,111,2022-05-03_19h50.49.018,FishGame,2022.1.1,59.982173300265025,
,10,넌 탐욕스러워,5,Orange,A,2.25,2.1,ScrollDown,ScrollUp,Orange.png,3,Negative,Incongruent,0,0,0,0,,,,,,,,,,,,,,,,,,,,,0,9,9,9,,,,,,,,,,,,,,,,,,,,,,,,,,,,,,,,,,,,,,,,,,,,,,,,,,,,,,,,,,,,,,,,,,,,,,,,,,,,,1,0.8715530000044964,390.2591018999956,None,ScrollDown,정답입니다,390.2591018999956,None,390.2591018999956,None,390.2591018999956,None,390.2591018999956,None,391.0085185999924,None,391.0085185999924,391.51039480000327,,,,,,,,,,,,,,,,111,2022-05-03_19h50.49.018,FishGame,2022.1.1,59.982173300265025,
,11,넌 인기있어,2,Orange,A,5.458333333333333,4.5,ScrollDown,ScrollUp,Orange.png,3,Positive,Congruent,0,0,0,0,,,,,,,,,,,,,,,,,,,,,0,10,10,10,,,,,,,,,,,,,,,,,,,,,,,,,,,,,,,,,,,,,,,,,,,,,,,,,,,,,,,,,,,,,,,,,,,,,,,,,,,,,1,0.941469400000642,392.1445153999957,None,ScrollDown,정답입니다,392.1445153999957,None,392.1445153999957,None,392.1445153999957,None,392.1445153999957,None,392.9769618999999,None,392.9769618999999,393.47740219999105,,,,,,,,,,,,,,,,111,2022-05-03_19h50.49.018,FishGame,2022.1.1,59.982173300265025,
,12,나를 데려가줘,6,Green,B,0,0,ScrollDown,ScrollUp,Green.png,3,NonTarget,NonTarget,0,0,0,0,,,,,,,,,,,,,,,,,,,,,0,11,11,11,,,,,,,,,,,,,,,,,,,,,,,,,,,,,,,,,,,,,,,,,,,,,,,,,,,,,,,,,,,,,,,,,,,,,,,,,,,,,1,1.3869224000081886,394.1081772000034,None,ScrollDown,정답입니다,394.1081772000034,None,394.1081772000034,None,394.1081772000034,None,394.1081772000034,None,395.39207099999476,None,395.39207099999476,395.89369919999444,,,,,,,,,,,,,,,,111,2022-05-03_19h50.49.018,FishGame,2022.1.1,59.982173300265025,
,13,넌 뛰어나,2,Green,B,6.166666666666667,4,ScrollUp,ScrollDown,Green.png,3,Positive,Incongruent,0,0,0,0,,,,,,,,,,,,,,,,,,,,,0,12,12,12,,,,,,,,,,,,,,,,,,,,,,,,,,,,,,,,,,,,,,,,,,,,,,,,,,,,,,,,,,,,,,,,,,,,,,,,,,,,,2,0.8975553999916883,396.52933979999216,None,ScrollUp,정답입니다,396.52933979999216,None,396.52933979999216,None,396.52933979999216,None,396.52933979999216,None,397.3120334999985,None,397.3120334999985,397.82701819999784,,,,,,,,,,,,,,,,111,2022-05-03_19h50.49.018,FishGame,2022.1.1,59.982173300265025,
,14,넌 낙관적이야,1,Orange,A,5.75,5.8,ScrollDown,ScrollUp,Orange.png,3,Positive,Congruent,0,0,0,0,,,,,,,,,,,,,,,,,,,,,0,13,13,13,,,,,,,,,,,,,,,,,,,,,,,,,,,,,,,,,,,,,,,,,,,,,,,,,,,,,,,,,,,,,,,,,,,,,,,,,,,,,1,0.8700031999906059,398.46111829999427,None,ScrollDown,정답입니다,398.46111829999427,None,398.46111829999427,None,398.46111829999427,None,398.46111829999427,None,399.2254221000039,None,399.2254221000039,399.72730440000305,,,,,,,,,,,,,,,,111,2022-05-03_19h50.49.018,FishGame,2022.1.1,59.982173300265025,
,15,넌 산만해,4,Green,B,2.695652173913043,3.033333333333333,ScrollUp,ScrollDown,Green.png,3,Negative,Congruent,0,0,0,0,,,,,,,,,,,,,,,,,,,,,0,14,14,14,,,,,,,,,,,,,,,,,,,,,,,,,,,,,,,,,,,,,,,,,,,,,,,,,,,,,,,,,,,,,,,,,,,,,,,,,,,,,2,0.8675900999951409,400.3560579999903,None,ScrollUp,정답입니다,400.3560579999903,None,400.3560579999903,None,400.3560579999903,None,400.3560579999903,None,401.11620160000166,None,401.11620160000166,401.6270611999935,,,,,,,,,,,,,,,,111,2022-05-03_19h50.49.018,FishGame,2022.1.1,59.982173300265025,
,16,나를 보내줘,6,Orange,A,0,0,ScrollUp,ScrollDown,Orange.png,3,NonTarget,NonTarget,0,0,0,0,,,,,,,,,,,,,,,,,,,,,0,15,15,15,,,,,,,,,,,,,,,,,,,,,,,,,,,,,,,,,,,,,,,,,,,,,,,,,,,,,,,,,,,,,,,,,,,,,,,,,,,,,2,1.009338799995021,402.2598583999934,None,ScrollUp,정답입니다,402.2598583999934,None,402.2598583999934,None,402.2598583999934,None,402.2598583999934,None,403.1606451999978,None,403.1606451999978,403.6606316999969,,,,,,,,,,,,,,,,111,2022-05-03_19h50.49.018,FishGame,2022.1.1,59.982173300265025,
,17,넌 교활해,5,Green,B,2.333333333333333,2.133333333333333,ScrollUp,ScrollDown,Green.png,3,Negative,Congruent,0,0,0,0,,,,,,,,,,,,,,,,,,,,,0,16,16,16,,,,,,,,,,,,,,,,,,,,,,,,,,,,,,,,,,,,,,,,,,,,,,,,,,,,,,,,,,,,,,,,,,,,,,,,,,,,,2,1.0463620999944396,404.2904741999955,None,ScrollUp,정답입니다,404.2904741999955,None,404.2904741999955,None,404.2904741999955,None,404.2904741999955,None,405.2275920999964,None,405.2275920999964,405.7275140999991,,,,,,,,,,,,,,,,111,2022-05-03_19h50.49.018,FishGame,2022.1.1,59.982173300265025,
,18,나를 보내줘,6,Orange,A,0,0,ScrollUp,ScrollDown,Orange.png,3,NonTarget,NonTarget,0,0,0,0,,,,,,,,,,,,,,,,,,,,,0,17,17,17,,,,,,,,,,,,,,,,,,,,,,,,,,,,,,,,,,,,,,,,,,,,,,,,,,,,,,,,,,,,,,,,,,,,,,,,,,,,,2,0.8869975999987219,406.35775640000065,None,ScrollUp,정답입니다,406.35775640000065,None,406.35775640000065,None,406.35775640000065,None,406.35775640000065,None,407.1320476999972,None,407.1320476999972,407.6439376999915,,,,,,,,,,,,,,,,111,2022-05-03_19h50.49.018,FishGame,2022.1.1,59.982173300265025,
,19,넌 불친절해,5,Green,B,2.208333333333333,2.033333333333333,ScrollUp,ScrollDown,Green.png,3,Negative,Congruent,0,0,0,0,,,,,,,,,,,,,,,,,,,,,0,18,18,18,,,,,,,,,,,,,,,,,,,,,,,,,,,,,,,,,,,,,,,,,,,,,,,,,,,,,,,,,,,,,,,,,,,,,,,,,,,,,2,0.9394071999995504,408.2761208000011,None,ScrollUp,정답입니다,408.2761208000011,None,408.2761208000011,None,408.2761208000011,None,408.2761208000011,None,409.1087198000023,None,409.1087198000023,409.61073909999686,,,,,,,,,,,,,,,,111,2022-05-03_19h50.49.018,FishGame,2022.1.1,59.982173300265025,
,20,넌 지적이야,2,Green,B,5.75,4.366666666666666,ScrollUp,ScrollDown,Green.png,3,Positive,Incongruent,0,0,0,0,,,,,,,,,,,,,,,,,,,,,0,19,19,19,,,,,,,,,,,,,,,,,,,,,,,,,,,,,,,,,,,,,,,,,,,,,,,,,,,,,,,,,,,,,,,,,,,,,,,,,,,,,2,0.8241970999952173,410.23668899999757,None,ScrollUp,정답입니다,410.23668899999757,None,410.23668899999757,None,410.23668899999757,None,410.23668899999757,None,410.9612597999949,None,410.9612597999949,411.46123929999885,,,,,,,,,,,,,,,,111,2022-05-03_19h50.49.018,FishGame,2022.1.1,59.982173300265025,
,21,넌 우유부단해,4,Orange,A,2.666666666666667,3.166666666666667,ScrollDown,ScrollUp,Orange.png,3,Negative,Incongruent,0,0,0,0,,,,,,,,,,,,,,,,,,,,,0,20,20,20,,,,,,,,,,,,,,,,,,,,,,,,,,,,,,,,,,,,,,,,,,,,,,,,,,,,,,,,,,,,,,,,,,,,,,,,,,,,,1,1.0531241999997292,412.0982454999903,None,ScrollDown,정답입니다,412.0982454999903,None,412.0982454999903,None,412.0982454999903,None,412.0982454999903,None,413.0419982000021,None,413.0419982000021,413.54412229999434,,,,,,,,,,,,,,,,111,2022-05-03_19h50.49.018,FishGame,2022.1.1,59.982173300265025,
,22,나를 데려가줘,6,Green,B,0,0,ScrollDown,ScrollUp,Green.png,3,NonTarget,NonTarget,0,0,0,0,,,,,,,,,,,,,,,,,,,,,0,21,21,21,,,,,,,,,,,,,,,,,,,,,,,,,,,,,,,,,,,,,,,,,,,,,,,,,,,,,,,,,,,,,,,,,,,,,,,,,,,,,1,0.8415236000000732,414.1735420999903,None,ScrollDown,정답입니다,414.1735420999903,None,414.1735420999903,None,414.1735420999903,None,414.1735420999903,None,414.91055210000195,None,414.91055210000195,415.4107968000026,,,,,,,,,,,,,,,,111,2022-05-03_19h50.49.018,FishGame,2022.1.1,59.982173300265025,
,23,넌 성실해,1,Green,B,6.041666666666666,5.7,ScrollUp,ScrollDown,Green.png,3,Positive,Incongruent,0,0,0,0,,,,,,,,,,,,,,,,,,,,,0,22,22,22,,,,,,,,,,,,,,,,,,,,,,,,,,,,,,,,,,,,,,,,,,,,,,,,,,,,,,,,,,,,,,,,,,,,,,,,,,,,,2,0.9411297000042396,416.0365590000001,None,ScrollUp,정답입니다,416.0365590000001,None,416.0365590000001,None,416.0365590000001,None,416.0365590000001,None,416.8752958999976,None,416.8752958999976,417.37721439999586,,,,,,,,,,,,,,,,111,2022-05-03_19h50.49.018,FishGame,2022.1.1,59.982173300265025,
,24,넌 현실주의적이야,3,Orange,A,4.625,4.4,ScrollDown,ScrollUp,Orange.png,3,Neutral,Neutral,0,0,0,0,,,,,,,,,,,,,,,,,,,,,0,23,23,23,,,,,,,,,,,,,,,,,,,,,,,,,,,,,,,,,,,,,,,,,,,,,,,,,,,,,,,,,,,,,,,,,,,,,,,,,,,,,1,0.8432811999955447,418.0124259000004,None,ScrollDown,정답입니다,418.0124259000004,None,418.0124259000004,None,418.0124259000004,None,418.0124259000004,None,418.74385189999884,None,418.74385189999884,419.24431670000195,,,,,,,,,,,,,,,,111,2022-05-03_19h50.49.018,FishGame,2022.1.1,59.982173300265025,
,25,넌 진실돼,1,Orange,A,6.625,5.566666666666666,ScrollDown,ScrollUp,Orange.png,3,Positive,Congruent,0,0,0,0,,,,,,,,,,,,,,,,,,,,,0,24,24,24,,,,,,,,,,,,,,,,,,,,,,,,,,,,,,,,,,,,,,,,,,,,,,,,,,,,,,,,,,,,,,,,,,,,,,,,,,,,,1,0.8161668999964604,419.8798362999951,None,ScrollDown,정답입니다,419.8798362999951,None,419.8798362999951,None,419.8798362999951,None,419.8798362999951,None,420.58135569999286,None,420.58135569999286,421.0941171000013,,,,,,,,,,,,,,,,111,2022-05-03_19h50.49.018,FishGame,2022.1.1,59.982173300265025,
,26,넌 천진난만해,3,Green,B,4.958333333333334,4.833333333333333,ScrollUp,ScrollDown,Green.png,3,Neutral,Neutral,0,0,0,0,,,,,,,,,,,,,,,,,,,,,0,25,25,25,,,,,,,,,,,,,,,,,,,,,,,,,,,,,,,,,,,,,,,,,,,,,,,,,,,,,,,,,,,,,,,,,,,,,,,,,,,,,2,0.9219976000022143,421.73607790000096,None,ScrollUp,정답입니다,421.73607790000096,None,421.73607790000096,None,421.73607790000096,None,421.73607790000096,None,422.5421101999964,None,422.5421101999964,423.0439592000039,,,,,,,,,,,,,,,,111,2022-05-03_19h50.49.018,FishGame,2022.1.1,59.982173300265025,
,27,넌 교양없어,5,Orange,A,2.416666666666667,2.2,ScrollDown,ScrollUp,Orange.png,3,Negative,Incongruent,0,0,0,0,,,,,,,,,,,,,,,,,,,,,0,26,26,26,,,,,,,,,,,,,,,,,,,,,,,,,,,,,,,,,,,,,,,,,,,,,,,,,,,,,,,,,,,,,,,,,,,,,,,,,,,,,1,0.7412037000030978,423.6804526999913,None,ScrollDown,정답입니다,423.6804526999913,None,423.6804526999913,None,423.6804526999913,None,423.6804526999913,None,424.3108828999975,None,424.3108828999975,424.8110130999994,,,,,,,,,,,,,,,,111,2022-05-03_19h50.49.018,FishGame,2022.1.1,59.982173300265025,
,28,나를 보내줘,6,Orange,A,0,0,ScrollUp,ScrollDown,Orange.png,3,NonTarget,NonTarget,0,0,0,0,,,,,,,,,,,,,,,,,,,,,0,27,27,27,,,,,,,,,,,,,,,,,,,,,,,,,,,,,,,,,,,,,,,,,,,,,,,,,,,,,,,,,,,,,,,,,,,,,,,,,,,,,2,0.9411554000107571,425.4473405000026,None,ScrollUp,정답입니다,425.4473405000026,None,425.4473405000026,None,425.4473405000026,None,425.4473405000026,None,426.27744299999904,None,426.27744299999904,426.7779930999968,,,,,,,,,,,,,,,,111,2022-05-03_19h50.49.018,FishGame,2022.1.1,59.982173300265025,
,29,넌 엉뚱스러워,3,Orange,A,4.166666666666667,4.133333333333334,ScrollDown,ScrollUp,Orange.png,3,Neutral,Neutral,0,0,0,0,,,,,,,,,,,,,,,,,,,,,0,28,28,28,,,,,,,,,,,,,,,,,,,,,,,,,,,,,,,,,,,,,,,,,,,,,,,,,,,,,,,,,,,,,,,,,,,,,,,,,,,,,1,1.1215082999988226,427.42051419999916,None,ScrollDown,정답입니다,427.42051419999916,None,427.42051419999916,None,427.42051419999916,None,427.42051419999916,None,428.42568459999165,None,428.42568459999165,428.9276264999935,,,,,,,,,,,,,,,,111,2022-05-03_19h50.49.018,FishGame,2022.1.1,59.982173300265025,
,30,넌 무지해,4,Green,B,2.541666666666667,3.066666666666667,ScrollUp,ScrollDown,Green.png,3,Negative,Congruent,0,0,0,0,,,,,,,,,,,,,,,,,,,,,0,29,29,29,,,,,,,,,,,,,,,,,,,,,,,,,,,,,,,,,,,,,,,,,,,,,,,,,,,,,,,,,,,,,,,,,,,,,,,,,,,,,2,0.7678331999923103,429.55529560000286,None,ScrollUp,정답입니다,429.55529560000286,None,429.55529560000286,None,429.55529560000286,None,429.55529560000286,None,430.21676039999875,None,430.21676039999875,430.72747509999317,,,,,,,,,,,,,,,,111,2022-05-03_19h50.49.018,FishGame,2022.1.1,59.982173300265025,
,31,넌 음울해,5,Green,B,2.25,2.233333333333333,ScrollUp,ScrollDown,Green.png,3,Negative,Congruent,0,0,0,0,,,,,,,,,,,,,,,,,,,,,0,30,30,30,,,,,,,,,,,,,,,,,,,,,,,,,,,,,,,,,,,,,,,,,,,,,,,,,,,,,,,,,,,,,,,,,,,,,,,,,,,,,2,0.850867000001017,431.3623754,None,ScrollUp,정답입니다,431.3623754,None,431.3623754,None,431.3623754,None,431.3623754,None,432.0996625999978,None,432.0996625999978,432.6107434000005,,,,,,,,,,,,,,,,111,2022-05-03_19h50.49.018,FishGame,2022.1.1,59.982173300265025,
,32,넌 냉소적이야,5,Orange,A,2.916666666666667,2.4,ScrollDown,ScrollUp,Orange.png,3,Negative,Incongruent,0,0,0,0,,,,,,,,,,,,,,,,,,,,,0,31,31,31,,,,,,,,,,,,,,,,,,,,,,,,,,,,,,,,,,,,,,,,,,,,,,,,,,,,,,,,,,,,,,,,,,,,,,,,,,,,,1,0.8251522999926237,433.2426828000025,None,ScrollDown,정답입니다,433.2426828000025,None,433.2426828000025,None,433.2426828000025,None,433.2426828000025,None,433.96132509999734,None,433.96132509999734,434.4612253999949,,,,,,,,,,,,,,,,111,2022-05-03_19h50.49.018,FishGame,2022.1.1,59.982173300265025,
,33,나를 데려가줘,6,Green,B,0,0,ScrollDown,ScrollUp,Green.png,3,NonTarget,NonTarget,0,0,0,0,,,,,,,,,,,,,,,,,,,,,0,32,32,32,,,,,,,,,,,,,,,,,,,,,,,,,,,,,,,,,,,,,,,,,,,,,,,,,,,,,,,,,,,,,,,,,,,,,,,,,,,,,1,0.9910662000038428,435.090944399999,None,ScrollDown,정답입니다,435.090944399999,None,435.090944399999,None,435.090944399999,None,435.090944399999,None,435.97764610000013,None,435.97764610000013,436.47765719999734,,,,,,,,,,,,,,,,111,2022-05-03_19h50.49.018,FishGame,2022.1.1,59.982173300265025,
,34,넌 쾌활해,1,Orange,A,5.541666666666666,5.733333333333333,ScrollDown,ScrollUp,Orange.png,3,Positive,Congruent,0,0,0,0,,,,,,,,,,,,,,,,,,,,,0,33,33,33,,,,,,,,,,,,,,,,,,,,,,,,,,,,,,,,,,,,,,,,,,,,,,,,,,,,,,,,,,,,,,,,,,,,,,,,,,,,,1.060185174147288,0.9254012000019429,437.11557339999126,None,ScrollDown,정답입니다,437.11557339999126,None,437.11557339999126,None,437.11557339999126,None,437.11557339999126,None,437.9278104999976,None,437.9278104999976,438.4283725999994,,,,,,,,,,,,,,,,111,2022-05-03_19h50.49.018,FishGame,2022.1.1,59.982173300265025,
,35,나를 보내줘,6,Orange,A,0,0,ScrollUp,ScrollDown,Orange.png,3,NonTarget,NonTarget,0,0,0,0,,,,,,,,,,,,,,,,,,,,,0,34,34,34,,,,,,,,,,,,,,,,,,,,,,,,,,,,,,,,,,,,,,,,,,,,,,,,,,,,,,,,,,,,,,,,,,,,,,,,,,,,,2,0.9388073000009172,439.0623359000019,None,ScrollUp,정답입니다,439.0623359000019,None,439.0623359000019,None,439.0623359000019,None,439.0623359000019,None,439.8930662999919,None,439.8930662999919,440.39494990000094,,,,,,,,,,,,,,,,111,2022-05-03_19h50.49.018,FishGame,2022.1.1,59.982173300265025,
,36,넌 명랑해,1,Green,B,5.739130434782609,5.666666666666667,ScrollUp,ScrollDown,Green.png,3,Positive,Incongruent,0,0,0,0,,,,,,,,,,,,,,,,,,,,,0,35,35,35,,,,,,,,,,,,,,,,,,,,,,,,,,,,,,,,,,,,,,,,,,,,,,,,,,,,,,,,,,,,,,,,,,,,,,,,,,,,,2,0.8238270000001648,441.0245364000002,None,ScrollUp,정답입니다,441.0245364000002,None,441.0245364000002,None,441.0245364000002,None,441.0245364000002,None,441.74275629999465,None,441.74275629999465,442.2447372000024,,,,,,,,,,,,,,,,111,2022-05-03_19h50.49.018,FishGame,2022.1.1,59.982173300265025,
,37,넌 멍해,4,Orange,A,2.833333333333333,3.4,ScrollDown,ScrollUp,Orange.png,3,Negative,Incongruent,0,0,0,0,,,,,,,,,,,,,,,,,,,,,0,36,36,36,,,,,,,,,,,,,,,,,,,,,,,,,,,,,,,,,,,,,,,,,,,,,,,,,,,,,,,,,,,,,,,,,,,,,,,,,,,,,1,0.7694585999997798,442.88741260000097,None,ScrollDown,정답입니다,442.88741260000097,None,442.88741260000097,None,442.88741260000097,None,442.88741260000097,None,443.5424839000043,None,443.5424839000043,444.0449881999957,,,,,,,,,,,,,,,,111,2022-05-03_19h50.49.018,FishGame,2022.1.1,59.982173300265025,
,38,나를 데려가줘,6,Green,B,0,0,ScrollDown,ScrollUp,Green.png,3,NonTarget,NonTarget,0,0,0,0,,,,,,,,,,,,,,,,,,,,,0,37,37,37,,,,,,,,,,,,,,,,,,,,,,,,,,,,,,,,,,,,,,,,,,,,,,,,,,,,,,,,,,,,,,,,,,,,,,,,,,,,,1.1033950646718342,0.8950603999983286,444.6782033999916,None,ScrollDown,정답입니다,444.6782033999916,None,444.6782033999916,None,444.6782033999916,None,444.6782033999916,None,445.4608065999928,None,445.4608065999928,445.9610599000007,,,,,,,,,,,,,,,,111,2022-05-03_19h50.49.018,FishGame,2022.1.1,59.982173300265025,
,39,넌 현명해,2,Orange,A,6.541666666666666,4.533333333333333,ScrollDown,ScrollUp,Orange.png,3,Positive,Congruent,0,0,0,0,,,,,,,,,,,,,,,,,,,,,0,38,38,38,,,,,,,,,,,,,,,,,,,,,,,,,,,,,,,,,,,,,,,,,,,,,,,,,,,,,,,,,,,,,,,,,,,,,,,,,,,,,1,0.8596889999898849,446.59633489999396,None,ScrollDown,정답입니다,446.59633489999396,None,446.59633489999396,None,446.59633489999396,None,446.59633489999396,None,447.34471819999453,None,447.34471819999453,447.8449035999947,,,,,,,,,,,,,,,,111,2022-05-03_19h50.49.018,FishGame,2022.1.1,59.982173300265025,
,40,넌 수줍어,3,Green,B,3.541666666666666,4.366666666666666,ScrollUp,ScrollDown,Green.png,3,Neutral,Neutral,0,0,0,0,,,,,,,,,,,,,,,,,,,,,0,39,39,39,,,,,,,,,,,,,,,,,,,,,,,,,,,,,,,,,,,,,,,,,,,,,,,,,,,,,,,,,,,,,,,,,,,,,,,,,,,,,2,0.7515838999970583,448.4779731000017,None,ScrollUp,정답입니다,448.4779731000017,None,448.4779731000017,None,448.4779731000017,None,448.4779731000017,None,449.1158972999983,None,449.1158972999983,449.6282516999927,,,,,,,,,,,,,,,,111,2022-05-03_19h50.49.018,FishGame,2022.1.1,59.982173300265025,
,41,나를 데려가줘,6,Green,B,0,0,ScrollDown,ScrollUp,Green.png,3,NonTarget,NonTarget,0,0,0,0,,,,,,,,,,,,,,,,,,,,,0,40,40,40,,,,,,,,,,,,,,,,,,,,,,,,,,,,,,,,,,,,,,,,,,,,,,,,,,,,,,,,,,,,,,,,,,,,,,,,,,,,,1,0.9072754999942845,450.25886089999403,None,ScrollDown,정답입니다,450.25886089999403,None,450.25886089999403,None,450.25886089999403,None,450.25886089999403,None,451.059227699996,None,451.059227699996,451.56142099999124,,,,,,,,,,,,,,,,111,2022-05-03_19h50.49.018,FishGame,2022.1.1,59.982173300265025,
,42,넌 성숙해,2,Green,B,5.833333333333333,4.533333333333333,ScrollUp,ScrollDown,Green.png,3,Positive,Incongruent,0,0,0,0,,,,,,,,,,,,,,,,,,,,,0,41,41,41,,,,,,,,,,,,,,,,,,,,,,,,,,,,,,,,,,,,,,,,,,,,,,,,,,,,,,,,,,,,,,,,,,,,,,,,,,,,,2,0.8941725999902701,452.1924419999996,None,ScrollUp,정답입니다,452.1924419999996,None,452.1924419999996,None,452.1924419999996,None,452.1924419999996,None,452.9783002999902,None,452.9783002999902,453.4784040999948,,,,,,,,,,,,,,,,111,2022-05-03_19h50.49.018,FishGame,2022.1.1,59.982173300265025,
,1,넌 매력적이야,2,Green,B,6.125,4.666666666666667,ScrollUp,ScrollDown,Green.png,4,Positive,Incongruent,0,0,0,0,,,,,,,,,,,,,,,,,,,,,,,,,0,0,0,0,,,,,,,,,,,,,,,,,,,,,,,,,,,,,,,,486.79578149999725,488.29551250000077,488.32984799999394,489.27906939999957,489.3292805999954,490.27984200000355,490.27984200000355,None,,,,,,,,,,,,,,,,,,,,,,,,,,,,,,,,,,2,1.160306200006744,491.4341676999902,None,ScrollUp,정답입니다,491.4341676999902,None,491.4341676999902,None,491.4341676999902,None,491.4341676999902,None,492.4293508999981,None,492.4293508999981,492.9292585999938,453.97838289999345,None,453.97838289999345,None,0.013888889,-0.12222222,1,0,0,0.015723069984233007,None,483.97882550000213,None,,,111,2022-05-03_19h50.49.018,FishGame,2022.1.1,59.982173300265025,
,2,나를 보내줘,6,Orange,A,0,0,ScrollUp,ScrollDown,Orange.png,4,NonTarget,NonTarget,0,0,0,0,,,,,,,,,,,,,,,,,,,,,,,,,0,1,1,1,,,,,,,,,,,,,,,,,,,,,,,,,,,,,,,,,,,,,,,,,,,,,,,,,,,,,,,,,,,,,,,,,,,,,,,,,2,1.2020874000008916,493.56348919999436,None,ScrollUp,정답입니다,493.56348919999436,None,493.56348919999436,None,493.56348919999436,None,493.56348919999436,None,494.6512980999978,None,494.6512980999978,495.1623511999933,,,,,,,,,,,,,,,,111,2022-05-03_19h50.49.018,FishGame,2022.1.1,59.982173300265025,
,3,넌 조심스러워,3,Orange,A,4.791666666666666,4.666666666666667,ScrollDown,ScrollUp,Orange.png,4,Neutral,Neutral,0,0,0,0,,,,,,,,,,,,,,,,,,,,,,,,,0,2,2,2,,,,,,,,,,,,,,,,,,,,,,,,,,,,,,,,,,,,,,,,,,,,,,,,,,,,,,,,,,,,,,,,,,,,,,,,,1.09413580596447,0.9032806000031997,495.80078140000114,None,ScrollDown,정답입니다,495.80078140000114,None,495.80078140000114,None,495.80078140000114,None,495.80078140000114,None,496.59409509999387,None,496.59409509999387,497.095711499991,,,,,,,,,,,,,,,,111,2022-05-03_19h50.49.018,FishGame,2022.1.1,59.982173300265025,
,4,넌 철학적이야,3,Green,B,4.5,4.266666666666667,ScrollUp,ScrollDown,Green.png,4,Neutral,Neutral,0,0,0,0,,,,,,,,,,,,,,,,,,,,,,,,,0,3,3,3,,,,,,,,,,,,,,,,,,,,,,,,,,,,,,,,,,,,,,,,,,,,,,,,,,,,,,,,,,,,,,,,,,,,,,,,,2,0.8556457999948179,497.73758149999776,None,ScrollUp,정답입니다,497.73758149999776,None,497.73758149999776,None,497.73758149999776,None,497.73758149999776,None,498.47817580000265,None,498.47817580000265,498.98004129999026,,,,,,,,,,,,,,,,111,2022-05-03_19h50.49.018,FishGame,2022.1.1,59.982173300265025,
,5,넌 쩨쩨해,5,Orange,A,2.375,2.133333333333333,ScrollDown,ScrollUp,Orange.png,4,Negative,Incongruent,0,0,0,0,,,,,,,,,,,,,,,,,,,,,,,,,0,4,4,4,,,,,,,,,,,,,,,,,,,,,,,,,,,,,,,,,,,,,,,,,,,,,,,,,,,,,,,,,,,,,,,,,,,,,,,,,1,0.8023889000032796,499.6133164999919,None,ScrollDown,정답입니다,499.6133164999919,None,499.6133164999919,None,499.6133164999919,None,499.6133164999919,None,500.30146400000376,None,500.30146400000376,500.81242719999864,,,,,,,,,,,,,,,,111,2022-05-03_19h50.49.018,FishGame,2022.1.1,59.982173300265025,
,6,나를 데려가줘,6,Green,B,0,0,ScrollDown,ScrollUp,Green.png,4,NonTarget,NonTarget,0,0,0,0,,,,,,,,,,,,,,,,,,,,,,,,,0,5,5,5,,,,,,,,,,,,,,,,,,,,,,,,,,,,,,,,,,,,,,,,,,,,,,,,,,,,,,,,,,,,,,,,,,,,,,,,,1,1.021101299993461,501.43808150000405,None,ScrollDown,정답입니다,501.43808150000405,None,501.43808150000405,None,501.43808150000405,None,501.43808150000405,None,502.3605505000014,None,502.3605505000014,502.86264089999895,,,,,,,,,,,,,,,,111,2022-05-03_19h50.49.018,FishGame,2022.1.1,59.982173300265025,
,7,넌 고집불통이야,5,Green,B,2.875,2,ScrollUp,ScrollDown,Green.png,4,Negative,Congruent,0,0,0,0,,,,,,,,,,,,,,,,,,,,,,,,,0,6,6,6,,,,,,,,,,,,,,,,,,,,,,,,,,,,,,,,,,,,,,,,,,,,,,,,,,,,,,,,,,,,,,,,,,,,,,,,,2,0.7445663999969838,503.4985791999934,None,ScrollUp,정답입니다,503.4985791999934,None,503.4985791999934,None,503.4985791999934,None,503.4985791999934,None,504.12964149999607,None,504.12964149999607,504.62983829999575,,,,,,,,,,,,,,,,111,2022-05-03_19h50.49.018,FishGame,2022.1.1,59.982173300265025,
,8,넌 무심해,4,Orange,A,2.875,3.2,ScrollDown,ScrollUp,Orange.png,4,Negative,Incongruent,0,0,0,0,,,,,,,,,,,,,,,,,,,,,,,,,0,7,7,7,,,,,,,,,,,,,,,,,,,,,,,,,,,,,,,,,,,,,,,,,,,,,,,,,,,,,,,,,,,,,,,,,,,,,,,,,1,0.7016581999923801,505.2660071999999,None,ScrollDown,정답입니다,505.2660071999999,None,505.2660071999999,None,505.2660071999999,None,505.2660071999999,None,505.8510893999919,None,505.8510893999919,506.3628815999982,,,,,,,,,,,,,,,,111,2022-05-03_19h50.49.018,FishGame,2022.1.1,59.982173300265025,
,9,넌 정겨워,1,Orange,A,5.791666666666667,5.666666666666667,ScrollDown,ScrollUp,Orange.png,4,Positive,Congruent,0,0,0,0,,,,,,,,,,,,,,,,,,,,,,,,,0,8,8,8,,,,,,,,,,,,,,,,,,,,,,,,,,,,,,,,,,,,,,,,,,,,,,,,,,,,,,,,,,,,,,,,,,,,,,,,,1,0.7291543000028469,507.0032871000003,None,ScrollDown,정답입니다,507.0032871000003,None,507.0032871000003,None,507.0032871000003,None,507.0032871000003,None,507.61290739999095,None,507.61290739999095,508.11249519999546,,,,,,,,,,,,,,,,111,2022-05-03_19h50.49.018,FishGame,2022.1.1,59.982173300265025,
,10,나를 데려가줘,6,Green,B,0,0,ScrollDown,ScrollUp,Green.png,4,NonTarget,NonTarget,0,0,0,0,,,,,,,,,,,,,,,,,,,,,,,,,0,9,9,9,,,,,,,,,,,,,,,,,,,,,,,,,,,,,,,,,,,,,,,,,,,,,,,,,,,,,,,,,,,,,,,,,,,,,,,,,1,0.8909202000068035,508.74633039999753,None,ScrollDown,정답입니다,508.74633039999753,None,508.74633039999753,None,508.74633039999753,None,508.74633039999753,None,509.5291941000032,None,509.5291941000032,510.029457800003,,,,,,,,,,,,,,,,111,2022-05-03_19h50.49.018,FishGame,2022.1.1,59.982173300265025,
,11,넌 체제순응적이야,4,Green,B,3,3.6,ScrollUp,ScrollDown,Green.png,4,Negative,Congruent,0,0,0,0,,,,,,,,,,,,,,,,,,,,,,,,,0,10,10,10,,,,,,,,,,,,,,,,,,,,,,,,,,,,,,,,,,,,,,,,,,,,,,,,,,,,,,,,,,,,,,,,,,,,,,,,,2,0.8487239999958547,510.6713892999978,None,ScrollUp,정답입니다,510.6713892999978,None,510.6713892999978,None,510.6713892999978,None,510.6713892999978,None,511.39944670000114,None,511.39944670000114,511.9129327999981,,,,,,,,,,,,,,,,111,2022-05-03_19h50.49.018,FishGame,2022.1.1,59.982173300265025,
,12,나를 보내줘,6,Orange,A,0,0,ScrollUp,ScrollDown,Orange.png,4,NonTarget,NonTarget,0,0,0,0,,,,,,,,,,,,,,,,,,,,,,,,,0,11,11,11,,,,,,,,,,,,,,,,,,,,,,,,,,,,,,,,,,,,,,,,,,,,,,,,,,,,,,,,,,,,,,,,,,,,,,,,,2,1.0861175000027288,512.5616540999908,None,ScrollUp,정답입니다,512.5616540999908,None,512.5616540999908,None,512.5616540999908,None,512.5616540999908,None,513.5188084999972,None,513.5188084999972,514.0298692999932,,,,,,,,,,,,,,,,111,2022-05-03_19h50.49.018,FishGame,2022.1.1,59.982173300265025,
,13,넌 박식해,2,Orange,A,5.625,3.933333333333333,ScrollDown,ScrollUp,Orange.png,4,Positive,Congruent,0,0,0,0,,,,,,,,,,,,,,,,,,,,,,,,,0,12,12,12,,,,,,,,,,,,,,,,,,,,,,,,,,,,,,,,,,,,,,,,,,,,,,,,,,,,,,,,,,,,,,,,,,,,,,,,,1,0.8806970000005094,514.668585899999,None,ScrollDown,정답입니다,514.668585899999,None,514.668585899999,None,514.668585899999,None,514.668585899999,None,515.4300453000033,None,515.4300453000033,515.9297791999998,,,,,,,,,,,,,,,,111,2022-05-03_19h50.49.018,FishGame,2022.1.1,59.982173300265025,
,14,나를 보내줘,6,Orange,A,0,0,ScrollUp,ScrollDown,Orange.png,4,NonTarget,NonTarget,0,0,0,0,,,,,,,,,,,,,,,,,,,,,,,,,0,13,13,13,,,,,,,,,,,,,,,,,,,,,,,,,,,,,,,,,,,,,,,,,,,,,,,,,,,,,,,,,,,,,,,,,,,,,,,,,1.983024666706721,0.9446281999989878,516.5633881999966,None,ScrollUp,정답입니다,516.5633881999966,None,516.5633881999966,None,516.5633881999966,None,516.5633881999966,None,517.3928673999908,None,517.3928673999908,517.8961180999904,,,,,,,,,,,,,,,,111,2022-05-03_19h50.49.018,FishGame,2022.1.1,59.982173300265025,
,15,넌 침착해,1,Green,B,5.458333333333333,5.566666666666666,ScrollUp,ScrollDown,Green.png,4,Positive,Incongruent,0,0,0,0,,,,,,,,,,,,,,,,,,,,,,,,,0,14,14,14,,,,,,,,,,,,,,,,,,,,,,,,,,,,,,,,,,,,,,,,,,,,,,,,,,,,,,,,,,,,,,,,,,,,,,,,,1.9706790049870808,1.0296445999993011,518.5284722999932,None,ScrollUp,정답입니다,518.5284722999932,None,518.5284722999932,None,518.5284722999932,None,518.5284722999932,None,519.4483369999944,None,519.4483369999944,519.963159699997,,,,,,,,,,,,,,,,111,2022-05-03_19h50.49.018,FishGame,2022.1.1,59.982173300265025,
,16,나를 데려가줘,6,Green,B,0,0,ScrollDown,ScrollUp,Green.png,4,NonTarget,NonTarget,0,0,0,0,,,,,,,,,,,,,,,,,,,,,,,,,0,15,15,15,,,,,,,,,,,,,,,,,,,,,,,,,,,,,,,,,,,,,,,,,,,,,,,,,,,,,,,,,,,,,,,,,,,,,,,,,1,0.8960606000036933,520.5877211999905,None,ScrollDown,정답입니다,520.5877211999905,None,520.5877211999905,None,520.5877211999905,None,520.5877211999905,None,521.3799366000021,None,521.3799366000021,521.8797843999928,,,,,,,,,,,,,,,,111,2022-05-03_19h50.49.018,FishGame,2022.1.1,59.982173300265025,
,17,넌 행복해,1,Orange,A,6.416666666666666,6.166666666666667,ScrollDown,ScrollUp,Orange.png,4,Positive,Congruent,0,0,0,0,,,,,,,,,,,,,,,,,,,,,,,,,0,16,16,16,,,,,,,,,,,,,,,,,,,,,,,,,,,,,,,,,,,,,,,,,,,,,,,,,,,,,,,,,,,,,,,,,,,,,,,,,1,0.9203678999911062,522.5183195999998,None,ScrollDown,정답입니다,522.5183195999998,None,522.5183195999998,None,522.5183195999998,None,522.5183195999998,None,523.327649999992,None,523.327649999992,523.8301905999979,,,,,,,,,,,,,,,,111,2022-05-03_19h50.49.018,FishGame,2022.1.1,59.982173300265025,
,18,넌 겸손해,2,Green,B,5.791666666666667,4.766666666666667,ScrollUp,ScrollDown,Green.png,4,Positive,Incongruent,0,0,0,0,,,,,,,,,,,,,,,,,,,,,,,,,0,17,17,17,,,,,,,,,,,,,,,,,,,,,,,,,,,,,,,,,,,,,,,,,,,,,,,,,,,,,,,,,,,,,,,,,,,,,,,,,2,0.8973993999970844,524.4644493999949,None,ScrollUp,정답입니다,524.4644493999949,None,524.4644493999949,None,524.4644493999949,None,524.4644493999949,None,525.2480513999908,None,525.2480513999908,525.763165299999,,,,,,,,,,,,,,,,111,2022-05-03_19h50.49.018,FishGame,2022.1.1,59.982173300265025,
,19,나를 보내줘,6,Orange,A,0,0,ScrollUp,ScrollDown,Orange.png,4,NonTarget,NonTarget,0,0,0,0,,,,,,,,,,,,,,,,,,,,,,,,,0,18,18,18,,,,,,,,,,,,,,,,,,,,,,,,,,,,,,,,,,,,,,,,,,,,,,,,,,,,,,,,,,,,,,,,,,,,,,,,,1.9675925771395366,0.944790199995623,526.3975617999968,None,ScrollUp,정답입니다,526.3975617999968,None,526.3975617999968,None,526.3975617999968,None,526.3975617999968,None,527.2297932999936,None,527.2297932999936,527.7303863999987,,,,,,,,,,,,,,,,111,2022-05-03_19h50.49.018,FishGame,2022.1.1,59.982173300265025,
,20,넌 의심없어,3,Orange,A,4.166666666666667,4.6,ScrollDown,ScrollUp,Orange.png,4,Neutral,Neutral,0,0,0,0,,,,,,,,,,,,,,,,,,,,,,,,,0,19,19,19,,,,,,,,,,,,,,,,,,,,,,,,,,,,,,,,,,,,,,,,,,,,,,,,,,,,,,,,,,,,,,,,,,,,,,,,,1,1.192497000010917,528.3616947999981,None,ScrollDown,정답입니다,528.3616947999981,None,528.3616947999981,None,528.3616947999981,None,528.3616947999981,None,529.4469661999901,None,529.4469661999901,529.9469574999966,,,,,,,,,,,,,,,,111,2022-05-03_19h50.49.018,FishGame,2022.1.1,59.982173300265025,
,21,넌 시시해,4,Orange,A,2.666666666666667,2.966666666666667,ScrollDown,ScrollUp,Orange.png,4,Negative,Incongruent,0,0,0,0,,,,,,,,,,,,,,,,,,,,,,,,,0,20,20,20,,,,,,,,,,,,,,,,,,,,,,,,,,,,,,,,,,,,,,,,,,,,,,,,,,,,,,,,,,,,,,,,,,,,,,,,,1,0.7956654000008712,530.579536899997,None,ScrollDown,정답입니다,530.579536899997,None,530.579536899997,None,530.579536899997,None,530.579536899997,None,531.2633463999955,None,531.2633463999955,531.763343700004,,,,,,,,,,,,,,,,111,2022-05-03_19h50.49.018,FishGame,2022.1.1,59.982173300265025,
,22,나를 데려가줘,6,Green,B,0,0,ScrollDown,ScrollUp,Green.png,4,NonTarget,NonTarget,0,0,0,0,,,,,,,,,,,,,,,,,,,,,,,,,0,21,21,21,,,,,,,,,,,,,,,,,,,,,,,,,,,,,,,,,,,,,,,,,,,,,,,,,,,,,,,,,,,,,,,,,,,,,,,,,1,1.152611600002274,532.3928110999987,None,ScrollDown,정답입니다,532.3928110999987,None,532.3928110999987,None,532.3928110999987,None,532.3928110999987,None,533.445273099991,None,533.445273099991,533.9464952999988,,,,,,,,,,,,,,,,111,2022-05-03_19h50.49.018,FishGame,2022.1.1,59.982173300265025,
,23,넌 무정해,5,Orange,A,2.5,2.2,ScrollDown,ScrollUp,Orange.png,4,Negative,Incongruent,0,0,0,0,,,,,,,,,,,,,,,,,,,,,,,,,0,22,22,22,,,,,,,,,,,,,,,,,,,,,,,,,,,,,,,,,,,,,,,,,,,,,,,,,,,,,,,,,,,,,,,,,,,,,,,,,1,0.9342334999964805,534.5784365,None,ScrollDown,정답입니다,534.5784365,None,534.5784365,None,534.5784365,None,534.5784365,None,535.4013159000024,None,535.4013159000024,535.9143826999934,,,,,,,,,,,,,,,,111,2022-05-03_19h50.49.018,FishGame,2022.1.1,59.982173300265025,
,24,넌 긍정적이야,1,Green,B,6.041666666666667,6.066666666666666,ScrollUp,ScrollDown,Green.png,4,Positive,Incongruent,0,0,0,0,,,,,,,,,,,,,,,,,,,,,,,,,0,23,23,23,,,,,,,,,,,,,,,,,,,,,,,,,,,,,,,,,,,,,,,,,,,,,,,,,,,,,,,,,,,,,,,,,,,,,,,,,2,1.0200508999987505,536.5463042999909,None,ScrollUp,정답입니다,536.5463042999909,None,536.5463042999909,None,536.5463042999909,None,536.5463042999909,None,537.461656200001,None,537.461656200001,537.963506,,,,,,,,,,,,,,,,111,2022-05-03_19h50.49.018,FishGame,2022.1.1,59.982173300265025,
,25,나를 보내줘,6,Orange,A,0,0,ScrollUp,ScrollDown,Orange.png,4,NonTarget,NonTarget,0,0,0,0,,,,,,,,,,,,,,,,,,,,,,,,,0,24,24,24,,,,,,,,,,,,,,,,,,,,,,,,,,,,,,,,,,,,,,,,,,,,,,,,,,,,,,,,,,,,,,,,,,,,,,,,,2,1.0896810999984154,538.5931937999994,None,ScrollUp,정답입니다,538.5931937999994,None,538.5931937999994,None,538.5931937999994,None,538.5931937999994,None,539.5787990999961,None,539.5787990999961,540.0808467000024,,,,,,,,,,,,,,,,111,2022-05-03_19h50.49.018,FishGame,2022.1.1,59.982173300265025,
,26,넌 시기심이 많아,5,Green,B,2.458333333333333,2.233333333333333,ScrollUp,ScrollDown,Green.png,4,Negative,Congruent,0,0,0,0,,,,,,,,,,,,,,,,,,,,,,,,,0,25,25,25,,,,,,,,,,,,,,,,,,,,,,,,,,,,,,,,,,,,,,,,,,,,,,,,,,,,,,,,,,,,,,,,,,,,,,,,,2,1.1003175000078045,540.7198597999959,None,ScrollUp,정답입니다,540.7198597999959,None,540.7198597999959,None,540.7198597999959,None,540.7198597999959,None,541.701513299995,None,541.701513299995,542.2139482999919,,,,,,,,,,,,,,,,111,2022-05-03_19h50.49.018,FishGame,2022.1.1,59.982173300265025,
,27,넌 탁월해,2,Orange,A,5.708333333333334,4.5,ScrollDown,ScrollUp,Orange.png,4,Positive,Congruent,0,0,0,0,,,,,,,,,,,,,,,,,,,,,,,,,0,26,26,26,,,,,,,,,,,,,,,,,,,,,,,,,,,,,,,,,,,,,,,,,,,,,,,,,,,,,,,,,,,,,,,,,,,,,,,,,1,0.765899799996987,542.851725799992,None,ScrollDown,정답입니다,542.851725799992,None,542.851725799992,None,542.851725799992,None,542.851725799992,None,543.501682999995,None,543.501682999995,544.0136143999989,,,,,,,,,,,,,,,,111,2022-05-03_19h50.49.018,FishGame,2022.1.1,59.982173300265025,
,28,나를 데려가줘,6,Green,B,0,0,ScrollDown,ScrollUp,Green.png,4,NonTarget,NonTarget,0,0,0,0,,,,,,,,,,,,,,,,,,,,,,,,,0,27,27,27,,,,,,,,,,,,,,,,,,,,,,,,,,,,,,,,,,,,,,,,,,,,,,,,,,,,,,,,,,,,,,,,,,,,,,,,,1,0.9120672999997623,544.6405098999967,None,ScrollDown,정답입니다,544.6405098999967,None,544.6405098999967,None,544.6405098999967,None,544.6405098999967,None,545.4468344999914,None,545.4468344999914,545.9473087999941,,,,,,,,,,,,,,,,111,2022-05-03_19h50.49.018,FishGame,2022.1.1,59.982173300265025,
,29,넌 조용해,3,Green,B,4.333333333333333,4.166666666666667,ScrollUp,ScrollDown,Green.png,4,Neutral,Neutral,0,0,0,0,,,,,,,,,,,,,,,,,,,,,,,,,0,28,28,28,,,,,,,,,,,,,,,,,,,,,,,,,,,,,,,,,,,,,,,,,,,,,,,,,,,,,,,,,,,,,,,,,,,,,,,,,2,1.2353737000084948,546.5808376999921,None,ScrollUp,정답입니다,546.5808376999921,None,546.5808376999921,None,546.5808376999921,None,546.5808376999921,None,547.7023823999916,None,547.7023823999916,548.213743500004,,,,,,,,,,,,,,,,111,2022-05-03_19h50.49.018,FishGame,2022.1.1,59.982173300265025,
,30,넌 다정해,1,Orange,A,5.833333333333334,5.7,ScrollDown,ScrollUp,Orange.png,4,Positive,Congruent,0,0,0,0,,,,,,,,,,,,,,,,,,,,,,,,,0,29,29,29,,,,,,,,,,,,,,,,,,,,,,,,,,,,,,,,,,,,,,,,,,,,,,,,,,,,,,,,,,,,,,,,,,,,,,,,,1,0.8298823999939486,548.8514271000022,None,ScrollDown,정답입니다,548.8514271000022,None,548.8514271000022,None,548.8514271000022,None,548.8514271000022,None,549.5661721999932,None,549.5661721999932,550.0807272999955,,,,,,,,,,,,,,,,111,2022-05-03_19h50.49.018,FishGame,2022.1.1,59.982173300265025,
,31,넌 능력있어,2,Green,B,6.166666666666666,4.6,ScrollUp,ScrollDown,Green.png,4,Positive,Incongruent,0,0,0,0,,,,,,,,,,,,,,,,,,,,,,,,,0,30,30,30,,,,,,,,,,,,,,,,,,,,,,,,,,,,,,,,,,,,,,,,,,,,,,,,,,,,,,,,,,,,,,,,,,,,,,,,,2,0.895415499995579,550.7100058999931,None,ScrollUp,정답입니다,550.7100058999931,None,550.7100058999931,None,550.7100058999931,None,550.7100058999931,None,551.4968889000011,None,551.4968889000011,551.9970441999903,,,,,,,,,,,,,,,,111,2022-05-03_19h50.49.018,FishGame,2022.1.1,59.982173300265025,
,32,넌 불쾌해,5,Orange,A,2.125,1.933333333333333,ScrollDown,ScrollUp,Orange.png,4,Negative,Incongruent,0,0,0,0,,,,,,,,,,,,,,,,,,,,,,,,,0,31,31,31,,,,,,,,,,,,,,,,,,,,,,,,,,,,,,,,,,,,,,,,,,,,,,,,,,,,,,,,,,,,,,,,,,,,,,,,,1,0.8062149999896064,552.6307312999998,None,ScrollDown,정답입니다,552.6307312999998,None,552.6307312999998,None,552.6307312999998,None,552.6307312999998,None,553.3284799999965,None,553.3284799999965,553.8307800000039,,,,,,,,,,,,,,,,111,2022-05-03_19h50.49.018,FishGame,2022.1.1,59.982173300265025,
,33,나를 데려가줘,6,Green,B,0,0,ScrollDown,ScrollUp,Green.png,4,NonTarget,NonTarget,0,0,0,0,,,,,,,,,,,,,,,,,,,,,,,,,0,32,32,32,,,,,,,,,,,,,,,,,,,,,,,,,,,,,,,,,,,,,,,,,,,,,,,,,,,,,,,,,,,,,,,,,,,,,,,,,1,1.0536335000069812,554.4626561000041,None,ScrollDown,정답입니다,554.4626561000041,None,554.4626561000041,None,554.4626561000041,None,554.4626561000041,None,555.4117260999919,None,555.4117260999919,555.9136426999903,,,,,,,,,,,,,,,,111,2022-05-03_19h50.49.018,FishGame,2022.1.1,59.982173300265025,
,34,넌 유순해,3,Orange,A,4.458333333333333,5,ScrollDown,ScrollUp,Orange.png,4,Neutral,Neutral,0,0,0,0,,,,,,,,,,,,,,,,,,,,,,,,,0,33,33,33,,,,,,,,,,,,,,,,,,,,,,,,,,,,,,,,,,,,,,,,,,,,,,,,,,,,,,,,,,,,,,,,,,,,,,,,,1,0.9432032999902731,556.5458852000011,None,ScrollDown,정답입니다,556.5458852000011,None,556.5458852000011,None,556.5458852000011,None,556.5458852000011,None,557.3808795999939,None,557.3808795999939,557.8806866999948,,,,,,,,,,,,,,,,111,2022-05-03_19h50.49.018,FishGame,2022.1.1,59.982173300265025,
,35,넌 근심스러워,4,Green,B,2.708333333333333,3.133333333333333,ScrollUp,ScrollDown,Green.png,4,Negative,Congruent,0,0,0,0,,,,,,,,,,,,,,,,,,,,,,,,,0,34,34,34,,,,,,,,,,,,,,,,,,,,,,,,,,,,,,,,,,,,,,,,,,,,,,,,,,,,,,,,,,,,,,,,,,,,,,,,,2,1.0855153999873437,558.5140997999988,None,ScrollUp,정답입니다,558.5140997999988,None,558.5140997999988,None,558.5140997999988,None,558.5140997999988,None,559.4852613999974,None,559.4852613999974,559.997638899993,,,,,,,,,,,,,,,,111,2022-05-03_19h50.49.018,FishGame,2022.1.1,59.982173300265025,
,36,넌 세련되었어,2,Orange,A,5.5,4.6,ScrollDown,ScrollUp,Orange.png,4,Positive,Congruent,0,0,0,0,,,,,,,,,,,,,,,,,,,,,,,,,0,35,35,35,,,,,,,,,,,,,,,,,,,,,,,,,,,,,,,,,,,,,,,,,,,,,,,,,,,,,,,,,,,,,,,,,,,,,,,,,1.016975333293279,0.8930622999905609,560.6461056999979,None,ScrollDown,정답입니다,560.6461056999979,None,560.6461056999979,None,560.6461056999979,None,560.6461056999979,None,561.4140706000035,None,561.4140706000035,561.9137228000036,,,,,,,,,,,,,,,,111,2022-05-03_19h50.49.018,FishGame,2022.1.1,59.982173300265025,
,37,나를 보내줘,6,Orange,A,0,0,ScrollUp,ScrollDown,Orange.png,4,NonTarget,NonTarget,0,0,0,0,,,,,,,,,,,,,,,,,,,,,,,,,0,36,36,36,,,,,,,,,,,,,,,,,,,,,,,,,,,,,,,,,,,,,,,,,,,,,,,,,,,,,,,,,,,,,,,,,,,,,,,,,2,1.0013783999893349,562.5464836000028,None,ScrollUp,정답입니다,562.5464836000028,None,562.5464836000028,None,562.5464836000028,None,562.5464836000028,None,563.4359575999988,None,563.4359575999988,563.9474339000008,,,,,,,,,,,,,,,,111,2022-05-03_19h50.49.018,FishGame,2022.1.1,59.982173300265025,
,38,넌 확고해,3,Green,B,4.708333333333334,4.566666666666666,ScrollUp,ScrollDown,Green.png,4,Neutral,Neutral,0,0,0,0,,,,,,,,,,,,,,,,,,,,,,,,,0,37,37,37,,,,,,,,,,,,,,,,,,,,,,,,,,,,,,,,,,,,,,,,,,,,,,,,,,,,,,,,,,,,,,,,,,,,,,,,,2,0.9772270999965258,564.5793987999932,None,ScrollUp,정답입니다,564.5793987999932,None,564.5793987999932,None,564.5793987999932,None,564.5793987999932,None,565.4472543000011,None,565.4472543000011,565.9473980000039,,,,,,,,,,,,,,,,111,2022-05-03_19h50.49.018,FishGame,2022.1.1,59.982173300265025,
,39,넌 이해심이 많아,1,Green,B,6.041666666666668,5.533333333333333,ScrollUp,ScrollDown,Green.png,4,Positive,Incongruent,0,0,0,0,,,,,,,,,,,,,,,,,,,,,,,,,0,38,38,38,,,,,,,,,,,,,,,,,,,,,,,,,,,,,,,,,,,,,,,,,,,,,,,,,,,,,,,,,,,,,,,,,,,,,,,,,2,0.852818200000911,566.5794801000011,None,ScrollUp,정답입니다,566.5794801000011,None,566.5794801000011,None,566.5794801000011,None,566.5794801000011,None,567.3287147999945,None,567.3287147999945,567.8309470999957,,,,,,,,,,,,,,,,111,2022-05-03_19h50.49.018,FishGame,2022.1.1,59.982173300265025,
,40,나를 보내줘,6,Orange,A,0,0,ScrollUp,ScrollDown,Orange.png,4,NonTarget,NonTarget,0,0,0,0,,,,,,,,,,,,,,,,,,,,,,,,,0,39,39,39,,,,,,,,,,,,,,,,,,,,,,,,,,,,,,,,,,,,,,,,,,,,,,,,,,,,,,,,,,,,,,,,,,,,,,,,,2,1.0029901000089012,568.4643225000036,None,ScrollUp,정답입니다,568.4643225000036,None,568.4643225000036,None,568.4643225000036,None,568.4643225000036,None,569.362398600002,None,569.362398600002,569.8640255999926,,,,,,,,,,,,,,,,111,2022-05-03_19h50.49.018,FishGame,2022.1.1,59.982173300265025,
,41,넌 거칠어,4,Orange,A,2.625,3.033333333333333,ScrollDown,ScrollUp,Orange.png,4,Negative,Incongruent,0,0,0,0,,,,,,,,,,,,,,,,,,,,,,,,,0,40,40,40,,,,,,,,,,,,,,,,,,,,,,,,,,,,,,,,,,,,,,,,,,,,,,,,,,,,,,,,,,,,,,,,,,,,,,,,,1,0.8636190999968676,570.4986946999998,None,ScrollDown,정답입니다,570.4986946999998,None,570.4986946999998,None,570.4986946999998,None,570.4986946999998,None,571.2473214999918,None,571.2473214999918,571.7474963999994,,,,,,,,,,,,,,,,111,2022-05-03_19h50.49.018,FishGame,2022.1.1,59.982173300265025,
,42,넌 변덕맞아,5,Green,B,2.75,2.166666666666667,ScrollUp,ScrollDown,Green.png,4,Negative,Congruent,0,0,0,0,,,,,,,,,,,,,,,,,,,,,,,,,0,41,41,41,,,,,,,,,,,,,,,,,,,,,,,,,,,,,,,,,,,,,,,,,,,,,,,,,,,,,,,,,,,,,,,,,,,,,,,,,2,0.9372551000124076,572.3902825999976,None,ScrollUp,정답입니다,572.3902825999976,None,572.3902825999976,None,572.3902825999976,None,572.3902825999976,None,573.2021420999954,None,573.2021420999954,573.7146740000026,,,,,,,,,,,,,,,,111,2022-05-03_19h50.49.018,FishGame,2022.1.1,59.982173300265025,
,43,나를 데려가줘,6,Green,B,0,0,ScrollDown,ScrollUp,Green.png,4,NonTarget,NonTarget,0,0,0,0,,,,,,,,,,,,,,,,,,,,,,,,,0,42,42,42,,,,,,,,,,,,,,,,,,,,,,,,,,,,,,,,,,,,,,,,,,,,,,,,,,,,,,,,,,,,,,,,,,,,,,,,,1,0.9009347000101116,574.3391198000027,None,ScrollDown,정답입니다,574.3391198000027,None,574.3391198000027,None,574.3391198000027,None,574.3391198000027,None,575.1354166999954,None,575.1354166999954,575.6479741999938,,,,,,,,,,,,,,,,111,2022-05-03_19h50.49.018,FishGame,2022.1.1,59.982173300265025,
,44,넌 외로워,4,Green,B,2.833333333333333,3.3,ScrollUp,ScrollDown,Green.png,4,Negative,Congruent,0,0,0,0,,,,,,,,,,,,,,,,,,,,,,,,,0,43,43,43,,,,,,,,,,,,,,,,,,,,,,,,,,,,,,,,,,,,,,,,,,,,,,,,,,,,,,,,,,,,,,,,,,,,,,,,,2,0.9153378000046359,576.2795601999969,None,ScrollUp,정답입니다,576.2795601999969,None,576.2795601999969,None,576.2795601999969,None,576.2795601999969,None,577.0838447999995,None,577.0838447999995,577.5977936999989,,,,,,,,,,,,,,,,111,2022-05-03_19h50.49.018,FishGame,2022.1.1,59.982173300265025,
,1,넌 불평스러워,5,Orange,A,2.25,2.066666666666667,ScrollDown,ScrollUp,Orange.png,5,Negative,Incongruent,0,0,0,0,,,,,,,,,,,,,,,,,,,,,,,,,,,,,0,0,0,0,,,,,,,,,,,,,,,,,,,,,,,,,,,,613.8155702999939,615.3149773000041,615.3485953999916,616.2986400999944,616.3493692999909,617.2989678000013,617.2989678000013,None,,,,,,,,,,,,,,,,,,,,,,,,,,,,,,,,,,1,0.9439913000096567,618.4440253999928,None,ScrollDown,정답입니다,618.4440253999928,None,618.4440253999928,None,618.4440253999928,None,618.4440253999928,None,619.2359853999951,None,619.2359853999951,619.7489220999996,578.0974571999977,None,578.0974571999977,None,0.0037037036,-0.13703704,1,0,0,0.016240169992670417,None,608.0987586999981,None,,,111,2022-05-03_19h50.49.018,FishGame,2022.1.1,59.982173300265025,
,2,나를 보내줘,6,Orange,A,0,0,ScrollUp,ScrollDown,Orange.png,5,NonTarget,NonTarget,0,0,0,0,,,,,,,,,,,,,,,,,,,,,,,,,,,,,0,1,1,1,,,,,,,,,,,,,,,,,,,,,,,,,,,,,,,,,,,,,,,,,,,,,,,,,,,,,,,,,,,,,,,,,,,,,2,1.0558840000012424,620.3852463999938,None,ScrollUp,정답입니다,620.3852463999938,None,620.3852463999938,None,620.3852463999938,None,620.3852463999938,None,621.3300380000001,None,621.3300380000001,621.8320711999986,,,,,,,,,,,,,,,,111,2022-05-03_19h50.49.018,FishGame,2022.1.1,59.982173300265025,
,3,넌 다재다능해,2,Green,B,6.208333333333333,4.5,ScrollUp,ScrollDown,Green.png,5,Positive,Incongruent,0,0,0,0,,,,,,,,,,,,,,,,,,,,,,,,,,,,,0,2,2,2,,,,,,,,,,,,,,,,,,,,,,,,,,,,,,,,,,,,,,,,,,,,,,,,,,,,,,,,,,,,,,,,,,,,,2,0.837370599998394,622.465022000004,None,ScrollUp,정답입니다,622.465022000004,None,622.465022000004,None,622.465022000004,None,622.465022000004,None,623.1968844999938,None,623.1968844999938,623.6985840999987,,,,,,,,,,,,,,,,111,2022-05-03_19h50.49.018,FishGame,2022.1.1,59.982173300265025,
,4,넌 과감해,3,Orange,A,4.833333333333334,4.6,ScrollDown,ScrollUp,Orange.png,5,Neutral,Neutral,0,0,0,0,,,,,,,,,,,,,,,,,,,,,,,,,,,,,0,3,3,3,,,,,,,,,,,,,,,,,,,,,,,,,,,,,,,,,,,,,,,,,,,,,,,,,,,,,,,,,,,,,,,,,,,,,1.0324074228604634,0.812656900001457,624.3324150999979,None,ScrollDown,정답입니다,624.3324150999979,None,624.3324150999979,None,624.3324150999979,None,624.3324150999979,None,625.031907800003,None,625.031907800003,625.5320508000004,,,,,,,,,,,,,,,,111,2022-05-03_19h50.49.018,FishGame,2022.1.1,59.982173300265025,
,5,넌 고분고분해,3,Green,B,3.75,4.033333333333333,ScrollUp,ScrollDown,Green.png,5,Neutral,Neutral,0,0,0,0,,,,,,,,,,,,,,,,,,,,,,,,,,,,,0,4,4,4,,,,,,,,,,,,,,,,,,,,,,,,,,,,,,,,,,,,,,,,,,,,,,,,,,,,,,,,,,,,,,,,,,,,,2,0.8805293000041274,626.1758616000006,None,ScrollUp,정답입니다,626.1758616000006,None,626.1758616000006,None,626.1758616000006,None,626.1758616000006,None,626.934875299994,None,626.934875299994,627.4491582999908,,,,,,,,,,,,,,,,111,2022-05-03_19h50.49.018,FishGame,2022.1.1,59.982173300265025,
,6,나를 보내줘,6,Orange,A,0,0,ScrollUp,ScrollDown,Orange.png,5,NonTarget,NonTarget,0,0,0,0,,,,,,,,,,,,,,,,,,,,,,,,,,,,,0,5,5,5,,,,,,,,,,,,,,,,,,,,,,,,,,,,,,,,,,,,,,,,,,,,,,,,,,,,,,,,,,,,,,,,,,,,,2,0.8778808000060963,628.0821540000034,None,ScrollUp,정답입니다,628.0821540000034,None,628.0821540000034,None,628.0821540000034,None,628.0821540000034,None,628.8484232999908,None,628.8484232999908,629.3490937000024,,,,,,,,,,,,,,,,111,2022-05-03_19h50.49.018,FishGame,2022.1.1,59.982173300265025,
,7,넌 잘 잊어,4,Orange,A,3,3.7,ScrollDown,ScrollUp,Orange.png,5,Negative,Incongruent,0,0,0,0,,,,,,,,,,,,,,,,,,,,,,,,,,,,,0,6,6,6,,,,,,,,,,,,,,,,,,,,,,,,,,,,,,,,,,,,,,,,,,,,,,,,,,,,,,,,,,,,,,,,,,,,,1,0.7267339999962132,629.9860829999961,None,ScrollDown,정답입니다,629.9860829999961,None,629.9860829999961,None,629.9860829999961,None,629.9860829999961,None,630.5988997999957,None,630.5988997999957,631.0991829999984,,,,,,,,,,,,,,,,111,2022-05-03_19h50.49.018,FishGame,2022.1.1,59.982173300265025,
,8,넌 탐구심이없어,4,Green,B,2.833333333333333,3.066666666666667,ScrollUp,ScrollDown,Green.png,5,Negative,Congruent,0,0,0,0,,,,,,,,,,,,,,,,,,,,,,,,,,,,,0,7,7,7,,,,,,,,,,,,,,,,,,,,,,,,,,,,,,,,,,,,,,,,,,,,,,,,,,,,,,,,,,,,,,,,,,,,,2,0.7619303000101354,631.7342501999956,None,ScrollUp,정답입니다,631.7342501999956,None,631.7342501999956,None,631.7342501999956,None,631.7342501999956,None,632.3821631000028,None,632.3821631000028,632.8821558999916,,,,,,,,,,,,,,,,111,2022-05-03_19h50.49.018,FishGame,2022.1.1,59.982173300265025,
,9,나를 데려가줘,6,Green,B,0,0,ScrollDown,ScrollUp,Green.png,5,NonTarget,NonTarget,0,0,0,0,,,,,,,,,,,,,,,,,,,,,,,,,,,,,0,8,8,8,,,,,,,,,,,,,,,,,,,,,,,,,,,,,,,,,,,,,,,,,,,,,,,,,,,,,,,,,,,,,,,,,,,,,1,0.8625925000087591,633.5134506000031,None,ScrollDown,정답입니다,633.5134506000031,None,633.5134506000031,None,633.5134506000031,None,633.5134506000031,None,634.2672010999959,None,634.2672010999959,634.782068200002,,,,,,,,,,,,,,,,111,2022-05-03_19h50.49.018,FishGame,2022.1.1,59.982173300265025,
,10,넌 참되어,2,Orange,A,6.041666666666664,4.733333333333333,ScrollDown,ScrollUp,Orange.png,5,Positive,Congruent,0,0,0,0,,,,,,,,,,,,,,,,,,,,,,,,,,,,,0,9,9,9,,,,,,,,,,,,,,,,,,,,,,,,,,,,,,,,,,,,,,,,,,,,,,,,,,,,,,,,,,,,,,,,,,,,,1,0.9200296999915736,635.4201949999988,None,ScrollDown,정답입니다,635.4201949999988,None,635.4201949999988,None,635.4201949999988,None,635.4201949999988,None,636.2302746999922,None,636.2302746999922,636.7324288999953,,,,,,,,,,,,,,,,111,2022-05-03_19h50.49.018,FishGame,2022.1.1,59.982173300265025,
,11,넌 생기있어,1,Green,B,5.875,5.633333333333334,ScrollUp,ScrollDown,Green.png,5,Positive,Incongruent,0,0,0,0,,,,,,,,,,,,,,,,,,,,,,,,,,,,,0,10,10,10,,,,,,,,,,,,,,,,,,,,,,,,,,,,,,,,,,,,,,,,,,,,,,,,,,,,,,,,,,,,,,,,,,,,,2,0.9855291999992914,637.3695939000027,None,ScrollUp,정답입니다,637.3695939000027,None,637.3695939000027,None,637.3695939000027,None,637.3695939000027,None,638.2369074000017,None,638.2369074000017,638.7494736999943,,,,,,,,,,,,,,,,111,2022-05-03_19h50.49.018,FishGame,2022.1.1,59.982173300265025,
,12,넌 비사교적이야,4,Green,B,2.875,2.9,ScrollUp,ScrollDown,Green.png,5,Negative,Congruent,0,0,0,0,,,,,,,,,,,,,,,,,,,,,,,,,,,,,0,11,11,11,,,,,,,,,,,,,,,,,,,,,,,,,,,,,,,,,,,,,,,,,,,,,,,,,,,,,,,,,,,,,,,,,,,,,2,1.0350819000013871,639.3810545000015,None,ScrollUp,정답입니다,639.3810545000015,None,639.3810545000015,None,639.3810545000015,None,639.3810545000015,None,640.3045744999981,None,640.3045744999981,640.8159219999943,,,,,,,,,,,,,,,,111,2022-05-03_19h50.49.018,FishGame,2022.1.1,59.982173300265025,
,13,나를 데려가줘,6,Green,B,0,0,ScrollDown,ScrollUp,Green.png,5,NonTarget,NonTarget,0,0,0,0,,,,,,,,,,,,,,,,,,,,,,,,,,,,,0,12,12,12,,,,,,,,,,,,,,,,,,,,,,,,,,,,,,,,,,,,,,,,,,,,,,,,,,,,,,,,,,,,,,,,,,,,,1,0.8787605000106851,641.446726299997,None,ScrollDown,정답입니다,641.446726299997,None,641.446726299997,None,641.446726299997,None,641.446726299997,None,642.2154635000043,None,642.2154635000043,642.7156094999955,,,,,,,,,,,,,,,,111,2022-05-03_19h50.49.018,FishGame,2022.1.1,59.982173300265025,
,14,넌 고독해,4,Orange,A,2.916666666666667,3.233333333333333,ScrollDown,ScrollUp,Orange.png,5,Negative,Incongruent,0,0,0,0,,,,,,,,,,,,,,,,,,,,,,,,,,,,,0,13,13,13,,,,,,,,,,,,,,,,,,,,,,,,,,,,,,,,,,,,,,,,,,,,,,,,,,,,,,,,,,,,,,,,,,,,,1,0.7458994000044186,643.3525761999917,None,ScrollDown,정답입니다,643.3525761999917,None,643.3525761999917,None,643.3525761999917,None,643.3525761999917,None,643.9818551999924,None,643.9818551999924,644.482024500001,,,,,,,,,,,,,,,,111,2022-05-03_19h50.49.018,FishGame,2022.1.1,59.982173300265025,
,15,넌 신경질적이야,5,Green,B,2.375,2.233333333333333,ScrollUp,ScrollDown,Green.png,5,Negative,Congruent,0,0,0,0,,,,,,,,,,,,,,,,,,,,,,,,,,,,,0,14,14,14,,,,,,,,,,,,,,,,,,,,,,,,,,,,,,,,,,,,,,,,,,,,,,,,,,,,,,,,,,,,,,,,,,,,,2,0.9275225000019418,645.1357081000024,None,ScrollUp,정답입니다,645.1357081000024,None,645.1357081000024,None,645.1357081000024,None,645.1357081000024,None,645.9320138000039,None,645.9320138000039,646.4320804000017,,,,,,,,,,,,,,,,111,2022-05-03_19h50.49.018,FishGame,2022.1.1,59.982173300265025,
,16,넌 똑똑해,2,Green,B,5.666666666666667,3.966666666666667,ScrollUp,ScrollDown,Green.png,5,Positive,Incongruent,0,0,0,0,,,,,,,,,,,,,,,,,,,,,,,,,,,,,0,15,15,15,,,,,,,,,,,,,,,,,,,,,,,,,,,,,,,,,,,,,,,,,,,,,,,,,,,,,,,,,,,,,,,,,,,,,2,0.8392705000005662,647.077062700002,None,ScrollUp,정답입니다,647.077062700002,None,647.077062700002,None,647.077062700002,None,647.077062700002,None,647.7971460999979,None,647.7971460999979,648.2988375999994,,,,,,,,,,,,,,,,111,2022-05-03_19h50.49.018,FishGame,2022.1.1,59.982173300265025,
,17,나를 보내줘,6,Orange,A,0,0,ScrollUp,ScrollDown,Orange.png,5,NonTarget,NonTarget,0,0,0,0,,,,,,,,,,,,,,,,,,,,,,,,,,,,,0,16,16,16,,,,,,,,,,,,,,,,,,,,,,,,,,,,,,,,,,,,,,,,,,,,,,,,,,,,,,,,,,,,,,,,,,,,,2,1.4948619999922812,648.942925299998,None,ScrollUp,정답입니다,648.942925299998,None,648.942925299998,None,648.942925299998,None,648.942925299998,None,650.315433900003,None,650.315433900003,650.8156002000032,,,,,,,,,,,,,,,,111,2022-05-03_19h50.49.018,FishGame,2022.1.1,59.982173300265025,
,18,넌 협조적이야,1,Orange,A,5.625,5.666666666666667,ScrollDown,ScrollUp,Orange.png,5,Positive,Congruent,0,0,0,0,,,,,,,,,,,,,,,,,,,,,,,,,,,,,0,17,17,17,,,,,,,,,,,,,,,,,,,,,,,,,,,,,,,,,,,,,,,,,,,,,,,,,,,,,,,,,,,,,,,,,,,,,1,0.8678761999908602,651.461739099992,None,ScrollDown,정답입니다,651.461739099992,None,651.461739099992,None,651.461739099992,None,651.461739099992,None,652.2040561000031,None,652.2040561000031,652.7156280999916,,,,,,,,,,,,,,,,111,2022-05-03_19h50.49.018,FishGame,2022.1.1,59.982173300265025,
,19,나를 데려가줘,6,Green,B,0,0,ScrollDown,ScrollUp,Green.png,5,NonTarget,NonTarget,0,0,0,0,,,,,,,,,,,,,,,,,,,,,,,,,,,,,0,18,18,18,,,,,,,,,,,,,,,,,,,,,,,,,,,,,,,,,,,,,,,,,,,,,,,,,,,,,,,,,,,,,,,,,,,,,1,0.9678312000032747,653.3669536999951,None,ScrollDown,정답입니다,653.3669536999951,None,653.3669536999951,None,653.3669536999951,None,653.3669536999951,None,654.2041280999983,None,654.2041280999983,654.7162401999958,,,,,,,,,,,,,,,,111,2022-05-03_19h50.49.018,FishGame,2022.1.1,59.982173300265025,
,20,넌 몰인정해,5,Green,B,2.541666666666667,2.066666666666667,ScrollUp,ScrollDown,Green.png,5,Negative,Congruent,0,0,0,0,,,,,,,,,,,,,,,,,,,,,,,,,,,,,0,19,19,19,,,,,,,,,,,,,,,,,,,,,,,,,,,,,,,,,,,,,,,,,,,,,,,,,,,,,,,,,,,,,,,,,,,,,2,1.0564053000125568,655.3500867999974,None,ScrollUp,정답입니다,655.3500867999974,None,655.3500867999974,None,655.3500867999974,None,655.3500867999974,None,656.2977394999907,None,656.2977394999907,656.7993298999936,,,,,,,,,,,,,,,,111,2022-05-03_19h50.49.018,FishGame,2022.1.1,59.982173300265025,
,21,나를 데려가줘,6,Green,B,0,0,ScrollDown,ScrollUp,Green.png,5,NonTarget,NonTarget,0,0,0,0,,,,,,,,,,,,,,,,,,,,,,,,,,,,,0,20,20,20,,,,,,,,,,,,,,,,,,,,,,,,,,,,,,,,,,,,,,,,,,,,,,,,,,,,,,,,,,,,,,,,,,,,,1,0.8984142999979667,657.4302101999929,None,ScrollDown,정답입니다,657.4302101999929,None,657.4302101999929,None,657.4302101999929,None,657.4302101999929,None,658.2197903999913,None,658.2197903999913,658.7325640999916,,,,,,,,,,,,,,,,111,2022-05-03_19h50.49.018,FishGame,2022.1.1,59.982173300265025,
,22,넌 순진해,3,Green,B,4.125,4.166666666666667,ScrollUp,ScrollDown,Green.png,5,Neutral,Neutral,0,0,0,0,,,,,,,,,,,,,,,,,,,,,,,,,,,,,0,21,21,21,,,,,,,,,,,,,,,,,,,,,,,,,,,,,,,,,,,,,,,,,,,,,,,,,,,,,,,,,,,,,,,,,,,,,2,1.051342200007639,659.3628197999933,None,ScrollUp,정답입니다,659.3628197999933,None,659.3628197999933,None,659.3628197999933,None,659.3628197999933,None,660.3041917999944,None,660.3041917999944,660.8165864000039,,,,,,,,,,,,,,,,111,2022-05-03_19h50.49.018,FishGame,2022.1.1,59.982173300265025,
,23,넌 신뢰할만해,1,Orange,A,6.625,5.533333333333333,ScrollDown,ScrollUp,Orange.png,5,Positive,Congruent,0,0,0,0,,,,,,,,,,,,,,,,,,,,,,,,,,,,,0,22,22,22,,,,,,,,,,,,,,,,,,,,,,,,,,,,,,,,,,,,,,,,,,,,,,,,,,,,,,,,,,,,,,,,,,,,,1.0231481393178303,0.8177406999893719,661.4601445000008,None,ScrollDown,정답입니다,661.4601445000008,None,661.4601445000008,None,661.4601445000008,None,661.4601445000008,None,662.1543103000004,None,662.1543103000004,662.6662479999941,,,,,,,,,,,,,,,,111,2022-05-03_19h50.49.018,FishGame,2022.1.1,59.982173300265025,
,24,나를 보내줘,6,Orange,A,0,0,ScrollUp,ScrollDown,Orange.png,5,NonTarget,NonTarget,0,0,0,0,,,,,,,,,,,,,,,,,,,,,,,,,,,,,0,23,23,23,,,,,,,,,,,,,,,,,,,,,,,,,,,,,,,,,,,,,,,,,,,,,,,,,,,,,,,,,,,,,,,,,,,,,2,0.972613400008413,663.302345499993,None,ScrollUp,정답입니다,663.302345499993,None,663.302345499993,None,663.302345499993,None,663.302345499993,None,664.1644969000045,None,664.1644969000045,664.6659742999909,,,,,,,,,,,,,,,,111,2022-05-03_19h50.49.018,FishGame,2022.1.1,59.982173300265025,
,25,넌 인색해,5,Orange,A,2.625,2.233333333333333,ScrollDown,ScrollUp,Orange.png,5,Negative,Incongruent,0,0,0,0,,,,,,,,,,,,,,,,,,,,,,,,,,,,,0,24,24,24,,,,,,,,,,,,,,,,,,,,,,,,,,,,,,,,,,,,,,,,,,,,,,,,,,,,,,,,,,,,,,,,,,,,,1,0.9343835999898147,665.3051257999905,None,ScrollDown,정답입니다,665.3051257999905,None,665.3051257999905,None,665.3051257999905,None,665.3051257999905,None,666.1208557999926,None,666.1208557999926,666.6328481999954,,,,,,,,,,,,,,,,111,2022-05-03_19h50.49.018,FishGame,2022.1.1,59.982173300265025,
,26,넌 유쾌해,1,Green,B,5.833333333333333,5.766666666666667,ScrollUp,ScrollDown,Green.png,5,Positive,Incongruent,0,0,0,0,,,,,,,,,,,,,,,,,,,,,,,,,,,,,0,25,25,25,,,,,,,,,,,,,,,,,,,,,,,,,,,,,,,,,,,,,,,,,,,,,,,,,,,,,,,,,,,,,,,,,,,,,2,0.9738916999922367,667.2632951999985,None,ScrollUp,정답입니다,667.2632951999985,None,667.2632951999985,None,667.2632951999985,None,667.2632951999985,None,668.1313171999936,None,668.1313171999936,668.6331194999948,,,,,,,,,,,,,,,,111,2022-05-03_19h50.49.018,FishGame,2022.1.1,59.982173300265025,
