name,TrialNum,Word,WordCategory,FishType,WordList,WordValence,WordReputation,CorrectResp,IncorrectResp,FishTypeFile,Round,WordType,Condition,LoopforOrange.thisRepN,LoopforOrange.thisTrialN,LoopforOrange.thisN,LoopforOrange.thisIndex,LoopForGreen.thisRepN,LoopForGreen.thisTrialN,LoopForGreen.thisN,LoopForGreen.thisIndex,GreenInstLoop.thisRepN,GreenInstLoop.thisTrialN,GreenInstLoop.thisN,GreenInstLoop.thisIndex,GreenPrac.thisRepN,GreenPrac.thisTrialN,GreenPrac.thisN,GreenPrac.thisIndex,trials_2.thisRepN,trials_2.thisTrialN,trials_2.thisN,trials_2.thisIndex,GreenRound1.thisRepN,GreenRound1.thisTrialN,GreenRound1.thisN,GreenRound1.thisIndex,GreenRound2.thisRepN,GreenRound2.thisTrialN,GreenRound2.thisN,GreenRound2.thisIndex,GreenRound3.thisRepN,GreenRound3.thisTrialN,GreenRound3.thisN,GreenRound3.thisIndex,GreenRound4.thisRepN,GreenRound4.thisTrialN,GreenRound4.thisN,GreenRound4.thisIndex,GreenRound5.thisRepN,GreenRound5.thisTrialN,GreenRound5.thisN,GreenRound5.thisIndex,text_2.started,text_2.stopped,text_3.started,text_3.stopped,key_resp.keys,key_resp.rt,key_resp.started,key_resp.stopped,PassI.started,PassI.stopped,PassInst.keys,PassInst.rt,PassInst.started,PassInst.stopped,mouse_2.x,mouse_2.y,mouse_2.leftButton,mouse_2.midButton,mouse_2.rightButton,mouse_2.started,mouse_2.stopped,image.started,image.stopped,text_5.started,text_5.stopped,text_6.started,text_6.stopped,text_7.started,text_7.stopped,text_8.started,text_8.stopped,slider_3.response,slider_3.rt,slider_3.started,slider_3.stopped,Response_3,Feedback_3,BackGround_3.started,BackGround_3.stopped,Fish_3.started,Fish_3.stopped,WordBox_3.started,WordBox_3.stopped,Words_3.started,Words_3.stopped,BackGround_Feedback_3.started,BackGround_Feedback_3.stopped,Feedbacks_3.started,Feedbacks_3.stopped,Continue_or_not_2.keys,Continue_or_not_2.rt,Continue_or_not_2.started,Continue_or_not_2.stopped,image_4.started,image_4.stopped,mouse_3.x,mouse_3.y,mouse_3.leftButton,mouse_3.midButton,mouse_3.rightButton,mouse_3.started,mouse_3.stopped,startmain.started,startmain.stopped,slider_4.response,slider_4.rt,slider_4.started,slider_4.stopped,Response_4,Feedback_4,BackGround_4.started,BackGround_4.stopped,Fish_4.started,Fish_4.stopped,WordBox_4.started,WordBox_4.stopped,Words_4.started,Words_4.stopped,BackGround_Feedback_4.started,BackGround_Feedback_4.stopped,Feedbacks_4.started,Feedbacks_4.stopped,text.started,text.stopped,break_interval.started,break_interval.stopped,mouse.x,mouse.y,mouse.leftButton,mouse.midButton,mouse.rightButton,mouse.started,mouse.stopped,stratnextround.started,stratnextround.stopped,endgame.started,endgame.stopped,participant,date,expName,psychopyVersion,frameRate,
,,,,,,,,,,,,,,,,,,,,,,,,,,,,,,,,,,,,,,,,,,,,,,,,,,,,,,33.24099550000392,None,33.24099550000392,None,space,4.163733899971703,33.70044890002464,None,,,,,,,,,,,,,,,,,,,,,,,,,,,,,,,,,,,,,,,,,,,,,,,,,,,,,,,,,,,,,,,,,,,,,,,,,,,,,,,,,,,,,,,,,,112,2022-05-04_09h31.21.730,FishGame,2022.1.1,59.91511226775291,
물고기과제_instruction(참가자용)GreenVersion.mp4,,,,,,,,,,,,,,,,,,0,0,0,0,0,0,0,0,,,,,,,,,,,,,,,,,,,,,,,,,,,,,,,,,,,,,108.3509633000067,None,y,20.03055499997572,108.3509633000067,None,,,,,,,,,,,,,,,,,,,,,,,,,,,,,,,,,,,,,,,,,,,,,,,,,,,,,,,,,,,,,,,,,,,,,,,,,,,,,,,,,,,,112,2022-05-04_09h31.21.730,FishGame,2022.1.1,59.91511226775291,
물고기과제_instruction(참가자용)GreenVersion.mp4,,,,,,,,,,,,,,,,,,0,0,0,0,0,1,1,1,,,,,,,,,,,,,,,,,,,,,,,,,,,,,,,,,,,,,196.67071130001568,None,n,19.94746139997733,196.67071130001568,None,,,,,,,,,,,,,,,,,,,,,,,,,,,,,,,,,,,,,,,,,,,,,,,,,,,,,,,,,,,,,,,,,,,,,,,,,,,,,,,,,,,,112,2022-05-04_09h31.21.730,FishGame,2022.1.1,59.91511226775291,
,1,넌 교활해,5,Orange,B,2.333333333333333,2.133333333333333,ScrollUp,ScrollDown,Orange.png,practice,,,,,,,0,0,0,0,,,,,0,0,0,0,0,0,0,0,,,,,,,,,,,,,,,,,,,,,,,,,,,,,,,,,,,0.037037037,-0.23425926,1,0,0,0.5070022500294726,None,216.64486380000017,None,239.99346970001352,241.50611930000014,241.53944140000385,242.48964080002042,242.53951590001816,243.48943950000103,243.48943950000103,None,2,1.4459555000066757,244.84190820000367,None,ScrollUp,정답입니다,244.84190820000367,None,244.84190820000367,None,244.84190820000367,None,244.84190820000367,None,246.0823373000021,None,246.0823373000021,246.58931640000083,,,,,,,,,,,,,,,,,,,,,,,,,,,,,,,,,,,,,,,,,,,,,,,,,112,2022-05-04_09h31.21.730,FishGame,2022.1.1,59.91511226775291,
,2,넌 슬기로워,2,Green,A,6.166666666666667,4.1,ScrollDown,ScrollUp,Green.png,practice,,,,,,,0,0,0,0,,,,,0,0,0,0,0,1,1,1,,,,,,,,,,,,,,,,,,,,,,,,,,,,,,,,,,,,,,,,,,,,,,,,,,,,1,1.198422199988272,247.31909090001136,None,ScrollDown,정답입니다,247.31909090001136,None,247.31909090001136,None,247.31909090001136,None,247.31909090001136,None,248.32230720002553,None,248.32230720002553,248.82293490000302,,,,,,,,,,,,,,,,,,,,,,,,,,,,,,,,,,,,,,,,,,,,,,,,,112,2022-05-04_09h31.21.730,FishGame,2022.1.1,59.91511226775291,
,3,나를 보내줘,6,Green,A,0,0,ScrollUp,ScrollDown,Green.png,practice,,,,,,,0,0,0,0,,,,,0,0,0,0,0,2,2,2,,,,,,,,,,,,,,,,,,,,,,,,,,,,,,,,,,,,,,,,,,,,,,,,,,,,2,1.7186284000054002,249.6145022000128,None,ScrollUp,정답입니다,249.6145022000128,None,249.6145022000128,None,249.6145022000128,None,249.6145022000128,None,251.12343200002215,None,251.12343200002215,251.62297799999942,,,,,,,,,,,,,,,,,,,,,,,,,,,,,,,,,,,,,,,,,,,,,,,,,112,2022-05-04_09h31.21.730,FishGame,2022.1.1,59.91511226775291,
,4,나를 데려가줘,6,Orange,B,0,0,ScrollDown,ScrollUp,Orange.png,practice,,,,,,,0,0,0,0,,,,,0,0,0,0,0,3,3,3,,,,,,,,,,,,,,,,,,,,,,,,,,,,,,,,,,,,,,,,,,,,,,,,,,,,1.0061728358268738,1.60347709999769,252.45662360001006,None,ScrollDown,정답입니다,252.45662360001006,None,252.45662360001006,None,252.45662360001006,None,252.45662360001006,None,253.80148590001045,None,253.80148590001045,254.30631700000959,,,,,,,,,,,,,,,,,,,,,,,,,,,,,,,,,,,,,,,,,,,,,,,,,112,2022-05-04_09h31.21.730,FishGame,2022.1.1,59.91511226775291,
,1,넌 교활해,5,Orange,B,2.333333333333333,2.133333333333333,ScrollUp,ScrollDown,Orange.png,practice,,,,,,,0,0,0,0,,,,,0,0,0,0,,,,,,,,,,,,,,,,,,,,,,,,,,,,,,,,,,,,,,,,,,,,,,,,,,,,,,,,,,,,,,,,,,,,,,,,,,n,5.500157599977683,254.8063294000167,None,254.8063294000167,None,,,,,,,,,,,,,,,,,,,,,,,,,,,,,,,,,,,,,,,,,,,112,2022-05-04_09h31.21.730,FishGame,2022.1.1,59.91511226775291,
,1,넌 따뜻해,1,Orange,B,6.083333333333333,5.6,ScrollUp,ScrollDown,Orange.png,1,Positive,Incongruent,,,,,0,0,0,0,,,,,,,,,,,,,0,0,0,0,,,,,,,,,,,,,,,,,,,,,,,,,,,,,,,,,,,,,,,,261.7248189000238,263.2398629000236,263.2564017000259,264.20644639999955,264.25642640001024,265.2064683000208,265.2064683000208,None,,,,,,,,,,,,,,,,,,,,,,,,,-0.030555556,-0.14351852,1,0,0,0.30288954998832196,None,260.3287599000032,None,1.9182098805904388,2.4297736999869812,266.6090343000251,None,ScrollUp,정답입니다,266.6090343000251,None,266.6090343000251,None,266.6090343000251,None,266.6090343000251,None,268.73612020001747,None,268.73612020001747,269.2399695000204,,,,,,,,,,,,,,,,112,2022-05-04_09h31.21.730,FishGame,2022.1.1,59.91511226775291,
,2,넌 기품있어,2,Orange,B,5.791666666666668,4.5,ScrollUp,ScrollDown,Orange.png,1,Positive,Incongruent,,,,,0,0,0,0,,,,,,,,,,,,,0,1,1,1,,,,,,,,,,,,,,,,,,,,,,,,,,,,,,,,,,,,,,,,,,,,,,,,,,,,,,,,,,,,,,,,,,,,,,,,,,,,,,,,,1.9135802388191223,1.8427252999972552,270.07976680001593,None,ScrollUp,정답입니다,270.07976680001593,None,270.07976680001593,None,270.07976680001593,None,270.07976680001593,None,271.6277599000023,None,271.6277599000023,272.1400551000261,,,,,,,,,,,,,,,,112,2022-05-04_09h31.21.730,FishGame,2022.1.1,59.91511226775291,
,3,나를 보내줘,6,Green,A,0,0,ScrollUp,ScrollDown,Green.png,1,NonTarget,NonTarget,,,,,0,0,0,0,,,,,,,,,,,,,0,2,2,2,,,,,,,,,,,,,,,,,,,,,,,,,,,,,,,,,,,,,,,,,,,,,,,,,,,,,,,,,,,,,,,,,,,,,,,,,,,,,,,,,1.9336419701576233,1.586911099991994,272.9694531999994,None,ScrollUp,정답입니다,272.9694531999994,None,272.9694531999994,None,272.9694531999994,None,272.9694531999994,None,274.30647470001713,None,274.30647470001713,274.8066075000097,,,,,,,,,,,,,,,,112,2022-05-04_09h31.21.730,FishGame,2022.1.1,59.91511226775291,
,4,넌 수동적이야,4,Green,A,2.833333333333333,2.933333333333333,ScrollDown,ScrollUp,Green.png,1,Negative,Incongruent,,,,,0,0,0,0,,,,,,,,,,,,,0,3,3,3,,,,,,,,,,,,,,,,,,,,,,,,,,,,,,,,,,,,,,,,,,,,,,,,,,,,,,,,,,,,,,,,,,,,,,,,,,,,,,,,,1,1.939125899982173,275.60573410001234,None,ScrollDown,정답입니다,275.60573410001234,None,275.60573410001234,None,275.60573410001234,None,275.60573410001234,None,277.3257558000041,None,277.3257558000041,277.8402370000258,,,,,,,,,,,,,,,,112,2022-05-04_09h31.21.730,FishGame,2022.1.1,59.91511226775291,
,5,넌 사심이 없어,3,Orange,B,4.916666666666666,4.333333333333333,ScrollUp,ScrollDown,Orange.png,1,Neutral,Neutral,,,,,0,0,0,0,,,,,,,,,,,,,0,4,4,4,,,,,,,,,,,,,,,,,,,,,,,,,,,,,,,,,,,,,,,,,,,,,,,,,,,,,,,,,,,,,,,,,,,,,,,,,,,,,,,,,1.9953703780968983,1.3638342999911401,278.6330161000078,None,ScrollUp,정답입니다,278.6330161000078,None,278.6330161000078,None,278.6330161000078,None,278.6330161000078,None,279.78109650002443,None,279.78109650002443,280.2901694000175,,,,,,,,,,,,,,,,112,2022-05-04_09h31.21.730,FishGame,2022.1.1,59.91511226775291,
,6,넌 헤퍼,5,Green,A,2.458333333333334,2.233333333333333,ScrollDown,ScrollUp,Green.png,1,Negative,Incongruent,,,,,0,0,0,0,,,,,,,,,,,,,0,5,5,5,,,,,,,,,,,,,,,,,,,,,,,,,,,,,,,,,,,,,,,,,,,,,,,,,,,,,,,,,,,,,,,,,,,,,,,,,,,,,,,,,1.1373456716537476,1.5658419000101276,281.0845636000158,None,ScrollDown,정답입니다,281.0845636000158,None,281.0845636000158,None,281.0845636000158,None,281.0845636000158,None,282.43931790001807,None,282.43931790001807,282.94030960000237,,,,,,,,,,,,,,,,112,2022-05-04_09h31.21.730,FishGame,2022.1.1,59.91511226775291,
,7,넌 말쑥해,3,Green,A,4.833333333333334,4.333333333333333,ScrollDown,ScrollUp,Green.png,1,Neutral,Neutral,,,,,0,0,0,0,,,,,,,,,,,,,0,6,6,6,,,,,,,,,,,,,,,,,,,,,,,,,,,,,,,,,,,,,,,,,,,,,,,,,,,,,,,,,,,,,,,,,,,,,,,,,,,,,,,,,1.0324074228604634,1.427026899997145,283.8070709000167,None,ScrollDown,정답입니다,283.8070709000167,None,283.8070709000167,None,283.8070709000167,None,283.8070709000167,None,284.92670940002427,None,284.92670940002427,285.4403885000211,,,,,,,,,,,,,,,,112,2022-05-04_09h31.21.730,FishGame,2022.1.1,59.91511226775291,
,8,넌 투덜거려,5,Orange,B,2.541666666666667,2.266666666666667,ScrollUp,ScrollDown,Orange.png,1,Negative,Congruent,,,,,0,0,0,0,,,,,,,,,,,,,0,7,7,7,,,,,,,,,,,,,,,,,,,,,,,,,,,,,,,,,,,,,,,,,,,,,,,,,,,,,,,,,,,,,,,,,,,,,,,,,,,,,,,,,1.8472222139437993,1.4440383999899495,286.2633276999986,None,ScrollUp,정답입니다,286.2633276999986,None,286.2633276999986,None,286.2633276999986,None,286.2633276999986,None,287.4637465000269,None,287.4637465000269,287.9740355000249,,,,,,,,,,,,,,,,112,2022-05-04_09h31.21.730,FishGame,2022.1.1,59.91511226775291,
,9,넌 적극적이야,1,Green,A,5.708333333333333,5.533333333333333,ScrollDown,ScrollUp,Green.png,1,Positive,Congruent,,,,,0,0,0,0,,,,,,,,,,,,,0,8,8,8,,,,,,,,,,,,,,,,,,,,,,,,,,,,,,,,,,,,,,,,,,,,,,,,,,,,,,,,,,,,,,,,,,,,,,,,,,,,,,,,,1.2114197413126628,1.4153719999885652,288.77558350001345,None,ScrollDown,정답입니다,288.77558350001345,None,288.77558350001345,None,288.77558350001345,None,288.77558350001345,None,289.9710863000073,None,289.9710863000073,290.4737281000125,,,,,,,,,,,,,,,,112,2022-05-04_09h31.21.730,FishGame,2022.1.1,59.91511226775291,
,10,넌 재미없어,4,Orange,B,2.625,2.966666666666667,ScrollUp,ScrollDown,Orange.png,1,Negative,Congruent,,,,,0,0,0,0,,,,,,,,,,,,,0,9,9,9,,,,,,,,,,,,,,,,,,,,,,,,,,,,,,,,,,,,,,,,,,,,,,,,,,,,,,,,,,,,,,,,,,,,,,,,,,,,,,,,,1.9444444676240284,1.4580568999808747,291.30574250000063,None,ScrollUp,정답입니다,291.30574250000063,None,291.30574250000063,None,291.30574250000063,None,291.30574250000063,None,292.50665170000866,None,292.50665170000866,293.00702790002106,,,,,,,,,,,,,,,,112,2022-05-04_09h31.21.730,FishGame,2022.1.1,59.91511226775291,
,11,넌 명석해,2,Green,A,5.875,4.033333333333333,ScrollDown,ScrollUp,Green.png,1,Positive,Congruent,,,,,0,0,0,0,,,,,,,,,,,,,0,10,10,10,,,,,,,,,,,,,,,,,,,,,,,,,,,,,,,,,,,,,,,,,,,,,,,,,,,,,,,,,,,,,,,,,,,,,,,,,,,,,,,,,1,1.3546846999961417,293.82907540001906,None,ScrollDown,정답입니다,293.82907540001906,None,293.82907540001906,None,293.82907540001906,None,293.82907540001906,None,294.94601840001997,None,294.94601840001997,295.4571826000174,,,,,,,,,,,,,,,,112,2022-05-04_09h31.21.730,FishGame,2022.1.1,59.91511226775291,
,12,나를 데려가줘,6,Orange,B,0,0,ScrollDown,ScrollUp,Orange.png,1,NonTarget,NonTarget,,,,,0,0,0,0,,,,,,,,,,,,,0,11,11,11,,,,,,,,,,,,,,,,,,,,,,,,,,,,,,,,,,,,,,,,,,,,,,,,,,,,,,,,,,,,,,,,,,,,,,,,,,,,,,,,,1,1.7693149999831803,296.2720690999995,None,ScrollDown,정답입니다,296.2720690999995,None,296.2720690999995,None,296.2720690999995,None,296.2720690999995,None,297.79231460002484,None,297.79231460002484,298.3070769000042,,,,,,,,,,,,,,,,112,2022-05-04_09h31.21.730,FishGame,2022.1.1,59.91511226775291,
,13,넌 소심해,4,Green,A,3,3.1,ScrollDown,ScrollUp,Green.png,1,Negative,Incongruent,,,,,0,0,0,0,,,,,,,,,,,,,0,12,12,12,,,,,,,,,,,,,,,,,,,,,,,,,,,,,,,,,,,,,,,,,,,,,,,,,,,,,,,,,,,,,,,,,,,,,,,,,,,,,,,,,1.0679012437661488,1.8156833999964874,299.1139187000226,None,ScrollDown,정답입니다,299.1139187000226,None,299.1139187000226,None,299.1139187000226,None,299.1139187000226,None,300.7064763000235,None,300.7064763000235,301.20748860001913,,,,,,,,,,,,,,,,112,2022-05-04_09h31.21.730,FishGame,2022.1.1,59.91511226775291,
,14,넌 합리적이야,2,Green,A,5.583333333333333,4.733333333333333,ScrollDown,ScrollUp,Green.png,1,Positive,Congruent,,,,,0,0,0,0,,,,,,,,,,,,,0,13,13,13,,,,,,,,,,,,,,,,,,,,,,,,,,,,,,,,,,,,,,,,,,,,,,,,,,,,,,,,,,,,,,,,,,,,,,,,,,,,,,,,,1.126543199022611,1.363405399984913,302.0205449000059,None,ScrollDown,정답입니다,302.0205449000059,None,302.0205449000059,None,302.0205449000059,None,302.0205449000059,None,303.1519658000034,None,303.1519658000034,303.6572719000105,,,,,,,,,,,,,,,,112,2022-05-04_09h31.21.730,FishGame,2022.1.1,59.91511226775291,
,15,넌 무자비해,5,Orange,B,2.333333333333333,2.1,ScrollUp,ScrollDown,Orange.png,1,Negative,Congruent,,,,,0,0,0,0,,,,,,,,,,,,,0,14,14,14,,,,,,,,,,,,,,,,,,,,,,,,,,,,,,,,,,,,,,,,,,,,,,,,,,,,,,,,,,,,,,,,,,,,,,,,,,,,,,,,,2,1.5364041000138968,304.52147289999994,None,ScrollUp,정답입니다,304.52147289999994,None,304.52147289999994,None,304.52147289999994,None,304.52147289999994,None,305.7683302000223,None,305.7683302000223,306.2741586000193,,,,,,,,,,,,,,,,112,2022-05-04_09h31.21.730,FishGame,2022.1.1,59.91511226775291,
,16,나를 보내줘,6,Green,A,0,0,ScrollUp,ScrollDown,Green.png,1,NonTarget,NonTarget,,,,,0,0,0,0,,,,,,,,,,,,,0,15,15,15,,,,,,,,,,,,,,,,,,,,,,,,,,,,,,,,,,,,,,,,,,,,,,,,,,,,,,,,,,,,,,,,,,,,,,,,,,,,,,,,,1.9182098805904388,1.3929779999889433,307.060833000025,None,ScrollUp,정답입니다,307.060833000025,None,307.060833000025,None,307.060833000025,None,307.060833000025,None,308.2325502000167,None,308.2325502000167,308.74076460002107,,,,,,,,,,,,,,,,112,2022-05-04_09h31.21.730,FishGame,2022.1.1,59.91511226775291,
,17,넌 현실적이야,3,Orange,B,4.608695652173913,4.766666666666667,ScrollUp,ScrollDown,Orange.png,1,Neutral,Neutral,,,,,0,0,0,0,,,,,,,,,,,,,0,16,16,16,,,,,,,,,,,,,,,,,,,,,,,,,,,,,,,,,,,,,,,,,,,,,,,,,,,,,,,,,,,,,,,,,,,,,,,,,,,,,,,,,2,1.9575609000166878,309.5533188000263,None,ScrollUp,정답입니다,309.5533188000263,None,309.5533188000263,None,309.5533188000263,None,309.5533188000263,None,311.25193389999913,None,311.25193389999913,311.75758550001774,,,,,,,,,,,,,,,,112,2022-05-04_09h31.21.730,FishGame,2022.1.1,59.91511226775291,
,18,넌 의리있어,1,Orange,B,5.833333333333334,5.633333333333334,ScrollUp,ScrollDown,Orange.png,1,Positive,Incongruent,,,,,0,0,0,0,,,,,,,,,,,,,0,17,17,17,,,,,,,,,,,,,,,,,,,,,,,,,,,,,,,,,,,,,,,,,,,,,,,,,,,,,,,,,,,,,,,,,,,,,,,,,,,,,,,,,1.766975313425064,1.5313964000088163,312.5497691000055,None,ScrollUp,정답입니다,312.5497691000055,None,312.5497691000055,None,312.5497691000055,None,312.5497691000055,None,313.864089300012,None,313.864089300012,314.3742629000044,,,,,,,,,,,,,,,,112,2022-05-04_09h31.21.730,FishGame,2022.1.1,59.91511226775291,
,19,넌 신경과민이야,5,Green,A,2.541666666666667,2.166666666666667,ScrollDown,ScrollUp,Green.png,1,Negative,Incongruent,,,,,0,0,0,0,,,,,,,,,,,,,0,18,18,18,,,,,,,,,,,,,,,,,,,,,,,,,,,,,,,,,,,,,,,,,,,,,,,,,,,,,,,,,,,,,,,,,,,,,,,,,,,,,,,,,1,1.3891179999918677,315.24382120001246,None,ScrollDown,정답입니다,315.24382120001246,None,315.24382120001246,None,315.24382120001246,None,315.24382120001246,None,316.33720360000734,None,316.33720360000734,316.84093050000956,,,,,,,,,,,,,,,,112,2022-05-04_09h31.21.730,FishGame,2022.1.1,59.91511226775291,
,20,넌 편안해,1,Green,A,5.916666666666666,5.866666666666666,ScrollDown,ScrollUp,Green.png,1,Positive,Congruent,,,,,0,0,0,0,,,,,,,,,,,,,0,19,19,19,,,,,,,,,,,,,,,,,,,,,,,,,,,,,,,,,,,,,,,,,,,,,,,,,,,,,,,,,,,,,,,,,,,,,,,,,,,,,,,,,1,1.314272699994035,317.6445545000024,None,ScrollDown,정답입니다,317.6445545000024,None,317.6445545000024,None,317.6445545000024,None,317.6445545000024,None,318.71938090000185,None,318.71938090000185,319.22432490001665,,,,,,,,,,,,,,,,112,2022-05-04_09h31.21.730,FishGame,2022.1.1,59.91511226775291,
,21,넌 품위있어,2,Orange,B,5.291666666666666,4.466666666666667,ScrollUp,ScrollDown,Orange.png,1,Positive,Incongruent,,,,,0,0,0,0,,,,,,,,,,,,,0,20,20,20,,,,,,,,,,,,,,,,,,,,,,,,,,,,,,,,,,,,,,,,,,,,,,,,,,,,,,,,,,,,,,,,,,,,,,,,,,,,,,,,,1.766975313425064,1.225722900009714,320.02498400001787,None,ScrollUp,정답입니다,320.02498400001787,None,320.02498400001787,None,320.02498400001787,None,320.02498400001787,None,321.02849290001905,None,321.02849290001905,321.54122870002175,,,,,,,,,,,,,,,,112,2022-05-04_09h31.21.730,FishGame,2022.1.1,59.91511226775291,
,22,넌 빈틈없어,3,Green,A,4.833333333333333,3.966666666666667,ScrollDown,ScrollUp,Green.png,1,Neutral,Neutral,,,,,0,0,0,0,,,,,,,,,,,,,0,21,21,21,,,,,,,,,,,,,,,,,,,,,,,,,,,,,,,,,,,,,,,,,,,,,,,,,,,,,,,,,,,,,,,,,,,,,,,,,,,,,,,,,1.1774691343307495,1.3475762000016402,322.38463900002535,None,ScrollDown,정답입니다,322.38463900002535,None,322.38463900002535,None,322.38463900002535,None,322.38463900002535,None,323.47144920000574,None,323.47144920000574,323.97451270002057,,,,,,,,,,,,,,,,112,2022-05-04_09h31.21.730,FishGame,2022.1.1,59.91511226775291,
,23,넌 상상력없어,4,Orange,B,2.833333333333333,3.133333333333333,ScrollUp,ScrollDown,Orange.png,1,Negative,Congruent,,,,,0,0,0,0,,,,,,,,,,,,,0,22,22,22,,,,,,,,,,,,,,,,,,,,,,,,,,,,,,,,,,,,,,,,,,,,,,,,,,,,,,,,,,,,,,,,,,,,,,,,,,,,,,,,,2,2.2122514999937266,324.7865127000259,None,ScrollUp,정답입니다,324.7865127000259,None,324.7865127000259,None,324.7865127000259,None,324.7865127000259,None,326.74570190001396,None,326.74570190001396,327.25784160001785,,,,,,,,,,,,,,,,112,2022-05-04_09h31.21.730,FishGame,2022.1.1,59.91511226775291,
,24,넌 지혜로워,2,Orange,B,6.333333333333334,4.633333333333334,ScrollUp,ScrollDown,Orange.png,1,Positive,Incongruent,,,,,0,0,0,0,,,,,,,,,,,,,0,23,23,23,,,,,,,,,,,,,,,,,,,,,,,,,,,,,,,,,,,,,,,,,,,,,,,,,,,,,,,,,,,,,,,,,,,,,,,,,,,,,,,,,1.9459876318772633,1.2278818999766372,328.10014330002014,None,ScrollUp,정답입니다,328.10014330002014,None,328.10014330002014,None,328.10014330002014,None,328.10014330002014,None,329.06528090001666,None,329.06528090001666,329.5748630000162,,,,,,,,,,,,,,,,112,2022-05-04_09h31.21.730,FishGame,2022.1.1,59.91511226775291,
,25,넌 시끄러워,4,Green,A,2.833333333333333,3.033333333333333,ScrollDown,ScrollUp,Green.png,1,Negative,Incongruent,,,,,0,0,0,0,,,,,,,,,,,,,0,24,24,24,,,,,,,,,,,,,,,,,,,,,,,,,,,,,,,,,,,,,,,,,,,,,,,,,,,,,,,,,,,,,,,,,,,,,,,,,,,,,,,,,1.0447530845801036,1.222283899987815,330.3805186000245,None,ScrollDown,정답입니다,330.3805186000245,None,330.3805186000245,None,330.3805186000245,None,330.3805186000245,None,331.3696646000026,None,331.3696646000026,331.8748341000173,,,,,,,,,,,,,,,,112,2022-05-04_09h31.21.730,FishGame,2022.1.1,59.91511226775291,
,26,넌 만사태평이야,3,Orange,B,4,4.333333333333333,ScrollUp,ScrollDown,Orange.png,1,Neutral,Neutral,,,,,0,0,0,0,,,,,,,,,,,,,0,25,25,25,,,,,,,,,,,,,,,,,,,,,,,,,,,,,,,,,,,,,,,,,,,,,,,,,,,,,,,,,,,,,,,,,,,,,,,,,,,,,,,,,1.658950611948967,2.35399229999166,332.7811856000044,None,ScrollUp,정답입니다,332.7811856000044,None,332.7811856000044,None,332.7811856000044,None,332.7811856000044,None,334.80393650001497,None,334.80393650001497,335.30822240002453,,,,,,,,,,,,,,,,112,2022-05-04_09h31.21.730,FishGame,2022.1.1,59.91511226775291,
,27,넌 붙임성있어,1,Green,A,5.708333333333333,5.633333333333334,ScrollDown,ScrollUp,Green.png,1,Positive,Congruent,,,,,0,0,0,0,,,,,,,,,,,,,0,26,26,26,,,,,,,,,,,,,,,,,,,,,,,,,,,,,,,,,,,,,,,,,,,,,,,,,,,,,,,,,,,,,,,,,,,,,,,,,,,,,,,,,1,1.248195099993609,336.16947960000834,None,ScrollDown,정답입니다,336.16947960000834,None,336.16947960000834,None,336.16947960000834,None,336.16947960000834,None,337.1302372000064,None,337.1302372000064,337.64154000001145,,,,,,,,,,,,,,,,112,2022-05-04_09h31.21.730,FishGame,2022.1.1,59.91511226775291,
,28,넌 영리해,2,Green,A,6,4.033333333333333,ScrollDown,ScrollUp,Green.png,1,Positive,Congruent,,,,,0,0,0,0,,,,,,,,,,,,,0,27,27,27,,,,,,,,,,,,,,,,,,,,,,,,,,,,,,,,,,,,,,,,,,,,,,,,,,,,,,,,,,,,,,,,,,,,,,,,,,,,,,,,,1.0262345671653748,1.3144742000149563,338.45694550001645,None,ScrollDown,정답입니다,338.45694550001645,None,338.45694550001645,None,338.45694550001645,None,338.45694550001645,None,339.5120509999979,None,339.5120509999979,340.0249836000148,,,,,,,,,,,,,,,,112,2022-05-04_09h31.21.730,FishGame,2022.1.1,59.91511226775291,
,29,넌 열심이야,1,Orange,B,6.041666666666667,5.833333333333333,ScrollUp,ScrollDown,Orange.png,1,Positive,Incongruent,,,,,0,0,0,0,,,,,,,,,,,,,0,28,28,28,,,,,,,,,,,,,,,,,,,,,,,,,,,,,,,,,,,,,,,,,,,,,,,,,,,,,,,,,,,,,,,,,,,,,,,,,,,,,,,,,2,1.541646600002423,340.8414269000059,None,ScrollUp,정답입니다,340.8414269000059,None,340.8414269000059,None,340.8414269000059,None,340.8414269000059,None,342.1508806000056,None,342.1508806000056,342.65828660002444,,,,,,,,,,,,,,,,112,2022-05-04_09h31.21.730,FishGame,2022.1.1,59.91511226775291,
,30,넌 인기없어,4,Orange,B,3,3.3,ScrollUp,ScrollDown,Orange.png,1,Negative,Congruent,,,,,0,0,0,0,,,,,,,,,,,,,0,29,29,29,,,,,,,,,,,,,,,,,,,,,,,,,,,,,,,,,,,,,,,,,,,,,,,,,,,,,,,,,,,,,,,,,,,,,,,,,,,,,,,,,1.5956790149211884,1.1149343999859411,343.4669964000059,None,ScrollUp,정답입니다,343.4669964000059,None,343.4669964000059,None,343.4669964000059,None,343.4669964000059,None,344.3477295000048,None,344.3477295000048,344.8584622000053,,,,,,,,,,,,,,,,112,2022-05-04_09h31.21.730,FishGame,2022.1.1,59.91511226775291,
,31,넌 익살스러워,3,Green,A,4.708333333333334,4.833333333333333,ScrollDown,ScrollUp,Green.png,1,Neutral,Neutral,,,,,0,0,0,0,,,,,,,,,,,,,0,30,30,30,,,,,,,,,,,,,,,,,,,,,,,,,,,,,,,,,,,,,,,,,,,,,,,,,,,,,,,,,,,,,,,,,,,,,,,,,,,,,,,,,1.0030864079793294,1.1644592999946326,345.66835770002217,None,ScrollDown,정답입니다,345.66835770002217,None,345.66835770002217,None,345.66835770002217,None,345.66835770002217,None,346.5861253000039,None,346.5861253000039,347.09169820000534,,,,,,,,,,,,,,,,112,2022-05-04_09h31.21.730,FishGame,2022.1.1,59.91511226775291,
,32,넌 이기적이야,5,Orange,B,2.291666666666667,2.333333333333333,ScrollUp,ScrollDown,Orange.png,1,Negative,Congruent,,,,,0,0,0,0,,,,,,,,,,,,,0,31,31,31,,,,,,,,,,,,,,,,,,,,,,,,,,,,,,,,,,,,,,,,,,,,,,,,,,,,,,,,,,,,,,,,,,,,,,,,,,,,,,,,,1.7947530895471573,1.1555191999941599,347.8888691000175,None,ScrollUp,정답입니다,347.8888691000175,None,347.8888691000175,None,347.8888691000175,None,347.8888691000175,None,348.80380180000793,None,348.80380180000793,349.3083094000176,,,,,,,,,,,,,,,,112,2022-05-04_09h31.21.730,FishGame,2022.1.1,59.91511226775291,
,33,나를 데려가줘,6,Orange,B,0,0,ScrollDown,ScrollUp,Orange.png,1,NonTarget,NonTarget,,,,,0,0,0,0,,,,,,,,,,,,,0,32,32,32,,,,,,,,,,,,,,,,,,,,,,,,,,,,,,,,,,,,,,,,,,,,,,,,,,,,,,,,,,,,,,,,,,,,,,,,,,,,,,,,,1,2.615614000009373,350.06936600001063,None,ScrollDown,정답입니다,350.06936600001063,None,350.06936600001063,None,350.06936600001063,None,350.06936600001063,None,352.5110861000139,None,352.5110861000139,353.0251655000029,,,,,,,,,,,,,,,,112,2022-05-04_09h31.21.730,FishGame,2022.1.1,59.91511226775291,
,34,넌 기회주의자야,5,Green,A,2.875,2.133333333333333,ScrollDown,ScrollUp,Green.png,1,Negative,Incongruent,,,,,0,0,0,0,,,,,,,,,,,,,0,33,33,33,,,,,,,,,,,,,,,,,,,,,,,,,,,,,,,,,,,,,,,,,,,,,,,,,,,,,,,,,,,,,,,,,,,,,,,,,,,,,,,,,1.0648148159186046,1.997708100010641,353.8566607000248,None,ScrollDown,정답입니다,353.8566607000248,None,353.8566607000248,None,353.8566607000248,None,353.8566607000248,None,355.6038880000124,None,355.6038880000124,356.1086801000056,,,,,,,,,,,,,,,,112,2022-05-04_09h31.21.730,FishGame,2022.1.1,59.91511226775291,
,1,넌 미성숙해,4,Green,A,3,3.2,ScrollDown,ScrollUp,Green.png,2,Negative,Incongruent,,,,,0,0,0,0,,,,,,,,,,,,,,,,,0,0,0,0,,,,,,,,,,,,,,,,,,,,,,,,,,,,,,,,,,,,387.8918462000147,389.3925985000096,389.42601890000515,390.3759014000243,390.4258650999982,391.3761645000195,391.3761645000195,None,,,,,,,,,,,,,,,,,,,,,,,,,,,,,,,,,,1.266975318392118,2.799225499999011,392.72585760001675,None,ScrollDown,정답입니다,392.72585760001675,None,392.72585760001675,None,392.72585760001675,None,392.72585760001675,None,395.305688500026,None,395.305688500026,395.80942280002637,356.61507700002403,None,356.61507700002403,None,-0.13981481,-0.1037037,1,0,0,0.014481349993729964,None,386.61484460000065,None,,,112,2022-05-04_09h31.21.730,FishGame,2022.1.1,59.91511226775291,
,2,넌 반사회적이야,5,Orange,B,2.416666666666667,2.033333333333333,ScrollUp,ScrollDown,Orange.png,2,Negative,Congruent,,,,,0,0,0,0,,,,,,,,,,,,,,,,,0,1,1,1,,,,,,,,,,,,,,,,,,,,,,,,,,,,,,,,,,,,,,,,,,,,,,,,,,,,,,,,,,,,,,,,,,,,,,,,,,,,,2,1.2739904000191018,396.6071463999979,None,ScrollUp,정답입니다,396.6071463999979,None,396.6071463999979,None,396.6071463999979,None,396.6071463999979,None,397.6569105000235,None,397.6569105000235,398.15949300001375,,,,,,,,,,,,,,,,112,2022-05-04_09h31.21.730,FishGame,2022.1.1,59.91511226775291,
,3,넌 유능해,2,Green,A,6.208333333333333,4.433333333333334,ScrollDown,ScrollUp,Green.png,2,Positive,Congruent,,,,,0,0,0,0,,,,,,,,,,,,,,,,,0,2,2,2,,,,,,,,,,,,,,,,,,,,,,,,,,,,,,,,,,,,,,,,,,,,,,,,,,,,,,,,,,,,,,,,,,,,,,,,,,,,,1,1.3064587999833748,399.06513910001377,None,ScrollDown,정답입니다,399.06513910001377,None,399.06513910001377,None,399.06513910001377,None,399.06513910001377,None,400.0437939000258,None,400.0437939000258,400.5428950000205,,,,,,,,,,,,,,,,112,2022-05-04_09h31.21.730,FishGame,2022.1.1,59.91511226775291,
,4,넌 능숙해,2,Orange,B,5.666666666666667,4.733333333333333,ScrollUp,ScrollDown,Orange.png,2,Positive,Incongruent,,,,,0,0,0,0,,,,,,,,,,,,,,,,,0,3,3,3,,,,,,,,,,,,,,,,,,,,,,,,,,,,,,,,,,,,,,,,,,,,,,,,,,,,,,,,,,,,,,,,,,,,,,,,,,,,,1.6682098706563315,1.1277103000029456,401.33400260002236,None,ScrollUp,정답입니다,401.33400260002236,None,401.33400260002236,None,401.33400260002236,None,401.33400260002236,None,402.23894380001,None,402.23894380001,402.74296640002285,,,,,,,,,,,,,,,,112,2022-05-04_09h31.21.730,FishGame,2022.1.1,59.91511226775291,
,5,넌 진부해,4,Orange,B,2.458333333333333,3.166666666666667,ScrollUp,ScrollDown,Orange.png,2,Negative,Congruent,,,,,0,0,0,0,,,,,,,,,,,,,,,,,0,4,4,4,,,,,,,,,,,,,,,,,,,,,,,,,,,,,,,,,,,,,,,,,,,,,,,,,,,,,,,,,,,,,,,,,,,,,,,,,,,,,1.67746914178133,2.2482211000169627,403.5772188999981,None,ScrollUp,정답입니다,403.5772188999981,None,403.5772188999981,None,403.5772188999981,None,403.5772188999981,None,405.56977680002456,None,405.56977680002456,406.07634690002305,,,,,,,,,,,,,,,,112,2022-05-04_09h31.21.730,FishGame,2022.1.1,59.91511226775291,
,6,나를 보내줘,6,Green,A,0,0,ScrollUp,ScrollDown,Green.png,2,NonTarget,NonTarget,,,,,0,0,0,0,,,,,,,,,,,,,,,,,0,5,5,5,,,,,,,,,,,,,,,,,,,,,,,,,,,,,,,,,,,,,,,,,,,,,,,,,,,,,,,,,,,,,,,,,,,,,,,,,,,,,1.799382706483205,1.3986871000088286,406.8685086000187,None,ScrollUp,정답입니다,406.8685086000187,None,406.8685086000187,None,406.8685086000187,None,406.8685086000187,None,408.05088460000115,None,408.05088460000115,408.55978970002616,,,,,,,,,,,,,,,,112,2022-05-04_09h31.21.730,FishGame,2022.1.1,59.91511226775291,
,7,넌 엄격해,3,Green,A,4.166666666666666,4.1,ScrollDown,ScrollUp,Green.png,2,Neutral,Neutral,,,,,0,0,0,0,,,,,,,,,,,,,,,,,0,6,6,6,,,,,,,,,,,,,,,,,,,,,,,,,,,,,,,,,,,,,,,,,,,,,,,,,,,,,,,,,,,,,,,,,,,,,,,,,,,,,1,1.4459342999907676,409.3244440999988,None,ScrollDown,정답입니다,409.3244440999988,None,409.3244440999988,None,409.3244440999988,None,409.3244440999988,None,410.5792417000048,None,410.5792417000048,411.09310490000644,,,,,,,,,,,,,,,,112,2022-05-04_09h31.21.730,FishGame,2022.1.1,59.91511226775291,
,8,나를 보내줘,6,Green,A,0,0,ScrollUp,ScrollDown,Green.png,2,NonTarget,NonTarget,,,,,0,0,0,0,,,,,,,,,,,,,,,,,0,7,7,7,,,,,,,,,,,,,,,,,,,,,,,,,,,,,,,,,,,,,,,,,,,,,,,,,,,,,,,,,,,,,,,,,,,,,,,,,,,,,1.8919753183921177,1.312926399987191,411.8762934000115,None,ScrollUp,정답입니다,411.8762934000115,None,411.8762934000115,None,411.8762934000115,None,411.8762934000115,None,412.96431170002325,None,412.96431170002325,413.4763954000082,,,,,,,,,,,,,,,,112,2022-05-04_09h31.21.730,FishGame,2022.1.1,59.91511226775291,
,9,넌 대담해,3,Orange,B,4.875,4.866666666666666,ScrollUp,ScrollDown,Orange.png,2,Neutral,Neutral,,,,,0,0,0,0,,,,,,,,,,,,,,,,,0,8,8,8,,,,,,,,,,,,,,,,,,,,,,,,,,,,,,,,,,,,,,,,,,,,,,,,,,,,,,,,,,,,,,,,,,,,,,,,,,,,,1.6496913532416024,2.2459723000065424,414.28806520000217,None,ScrollUp,정답입니다,414.28806520000217,None,414.28806520000217,None,414.28806520000217,None,414.28806520000217,None,416.2862427000073,None,416.2862427000073,416.7932376000099,,,,,,,,,,,,,,,,112,2022-05-04_09h31.21.730,FishGame,2022.1.1,59.91511226775291,
,10,넌 꾸준해,1,Green,A,5.916666666666668,5.8,ScrollDown,ScrollUp,Green.png,2,Positive,Congruent,,,,,0,0,0,0,,,,,,,,,,,,,,,,,0,9,9,9,,,,,,,,,,,,,,,,,,,,,,,,,,,,,,,,,,,,,,,,,,,,,,,,,,,,,,,,,,,,,,,,,,,,,,,,,,,,,1.0879629751046498,1.143703000008827,417.5873807000171,None,ScrollDown,정답입니다,417.5873807000171,None,417.5873807000171,None,417.5873807000171,None,417.5873807000171,None,418.51944420000655,None,418.51944420000655,419.0266840000113,,,,,,,,,,,,,,,,112,2022-05-04_09h31.21.730,FishGame,2022.1.1,59.91511226775291,
,11,나를 데려가줘,6,Orange,B,0,0,ScrollDown,ScrollUp,Orange.png,2,NonTarget,NonTarget,,,,,0,0,0,0,,,,,,,,,,,,,,,,,0,10,10,10,,,,,,,,,,,,,,,,,,,,,,,,,,,,,,,,,,,,,,,,,,,,,,,,,,,,,,,,,,,,,,,,,,,,,,,,,,,,,1,1.5260499000141863,419.8308447000163,None,ScrollDown,정답입니다,419.8308447000163,None,419.8308447000163,None,419.8308447000163,None,419.8308447000163,None,421.11292870002217,None,421.11292870002217,421.62655220000306,,,,,,,,,,,,,,,,112,2022-05-04_09h31.21.730,FishGame,2022.1.1,59.91511226775291,
,12,넌 독선적이야,5,Green,A,2.458333333333333,1.933333333333333,ScrollDown,ScrollUp,Green.png,2,Negative,Incongruent,,,,,0,0,0,0,,,,,,,,,,,,,,,,,0,11,11,11,,,,,,,,,,,,,,,,,,,,,,,,,,,,,,,,,,,,,,,,,,,,,,,,,,,,,,,,,,,,,,,,,,,,,,,,,,,,,1,2.1574191999970935,422.47765939999954,None,ScrollDown,정답입니다,422.47765939999954,None,422.47765939999954,None,422.47765939999954,None,422.47765939999954,None,424.34627790001105,None,424.34627790001105,424.86009210001794,,,,,,,,,,,,,,,,112,2022-05-04_09h31.21.730,FishGame,2022.1.1,59.91511226775291,
,13,나를 보내줘,6,Green,A,0,0,ScrollUp,ScrollDown,Green.png,2,NonTarget,NonTarget,,,,,0,0,0,0,,,,,,,,,,,,,,,,,0,12,12,12,,,,,,,,,,,,,,,,,,,,,,,,,,,,,,,,,,,,,,,,,,,,,,,,,,,,,,,,,,,,,,,,,,,,,,,,,,,,,1.8024691343307495,1.4130908999941312,425.6528467000171,None,ScrollUp,정답입니다,425.6528467000171,None,425.6528467000171,None,425.6528467000171,None,425.6528467000171,None,426.830644200003,None,426.830644200003,427.3434973000258,,,,,,,,,,,,,,,,112,2022-05-04_09h31.21.730,FishGame,2022.1.1,59.91511226775291,
,14,넌 책임감있어,1,Orange,B,6.347826086956522,6,ScrollUp,ScrollDown,Orange.png,2,Positive,Incongruent,,,,,0,0,0,0,,,,,,,,,,,,,,,,,0,13,13,13,,,,,,,,,,,,,,,,,,,,,,,,,,,,,,,,,,,,,,,,,,,,,,,,,,,,,,,,,,,,,,,,,,,,,,,,,,,,,1.5046296297417334,1.9323183000087738,428.1437812000222,None,NoResponse,무응답입니다,428.1437812000222,None,428.1437812000222,None,428.1437812000222,None,428.1437812000222,None,429.87550260001444,None,429.87550260001444,430.3770080000104,,,,,,,,,,,,,,,,112,2022-05-04_09h31.21.730,FishGame,2022.1.1,59.91511226775291,
,15,넌 문학적이야,3,Green,A,4.708333333333334,4.333333333333333,ScrollDown,ScrollUp,Green.png,2,Neutral,Neutral,,,,,0,0,0,0,,,,,,,,,,,,,,,,,0,14,14,14,,,,,,,,,,,,,,,,,,,,,,,,,,,,,,,,,,,,,,,,,,,,,,,,,,,,,,,,,,,,,,,,,,,,,,,,,,,,,1.0648148159186046,2.232578899973305,431.32180830001016,None,ScrollDown,정답입니다,431.32180830001016,None,431.32180830001016,None,431.32180830001016,None,431.32180830001016,None,433.1942359000095,None,433.1942359000095,433.6933366000012,,,,,,,,,,,,,,,,112,2022-05-04_09h31.21.730,FishGame,2022.1.1,59.91511226775291,
,16,넌 재미있어,1,Orange,B,5.875,5.7,ScrollUp,ScrollDown,Orange.png,2,Positive,Incongruent,,,,,0,0,0,0,,,,,,,,,,,,,,,,,0,15,15,15,,,,,,,,,,,,,,,,,,,,,,,,,,,,,,,,,,,,,,,,,,,,,,,,,,,,,,,,,,,,,,,,,,,,,,,,,,,,,1.9907407363255818,2.050547999999253,434.45596520000254,None,ScrollUp,정답입니다,434.45596520000254,None,434.45596520000254,None,434.45596520000254,None,434.45596520000254,None,436.31727130000945,None,436.31727130000945,436.82670270002563,,,,,,,,,,,,,,,,112,2022-05-04_09h31.21.730,FishGame,2022.1.1,59.91511226775291,
,17,나를 데려가줘,6,Orange,B,0,0,ScrollDown,ScrollUp,Orange.png,2,NonTarget,NonTarget,,,,,0,0,0,0,,,,,,,,,,,,,,,,,0,16,16,16,,,,,,,,,,,,,,,,,,,,,,,,,,,,,,,,,,,,,,,,,,,,,,,,,,,,,,,,,,,,,,,,,,,,,,,,,,,,,1.1481481442848842,2.136897999997018,437.62422500000685,None,ScrollDown,정답입니다,437.62422500000685,None,437.62422500000685,None,437.62422500000685,None,437.62422500000685,None,439.53983829999925,None,439.53983829999925,440.04386250002426,,,,,,,,,,,,,,,,112,2022-05-04_09h31.21.730,FishGame,2022.1.1,59.91511226775291,
,18,넌 협력적이야,1,Green,A,5.625,5.633333333333334,ScrollDown,ScrollUp,Green.png,2,Positive,Congruent,,,,,0,0,0,0,,,,,,,,,,,,,,,,,0,17,17,17,,,,,,,,,,,,,,,,,,,,,,,,,,,,,,,,,,,,,,,,,,,,,,,,,,,,,,,,,,,,,,,,,,,,,,,,,,,,,1.0108024775981903,1.4297679000010248,440.8723993000167,None,ScrollDown,정답입니다,440.8723993000167,None,440.8723993000167,None,440.8723993000167,None,440.8723993000167,None,442.0550378000189,None,442.0550378000189,442.56037000002107,,,,,,,,,,,,,,,,112,2022-05-04_09h31.21.730,FishGame,2022.1.1,59.91511226775291,
,19,넌 평범해,3,Orange,B,4.333333333333332,4.233333333333333,ScrollUp,ScrollDown,Orange.png,2,Neutral,Neutral,,,,,0,0,0,0,,,,,,,,,,,,,,,,,0,18,18,18,,,,,,,,,,,,,,,,,,,,,,,,,,,,,,,,,,,,,,,,,,,,,,,,,,,,,,,,,,,,,,,,,,,,,,,,,,,,,2,2.8265070999914315,443.36867300001904,None,ScrollUp,정답입니다,443.36867300001904,None,443.36867300001904,None,443.36867300001904,None,443.36867300001904,None,445.93991530002677,None,445.93991530002677,446.44393600002513,,,,,,,,,,,,,,,,112,2022-05-04_09h31.21.730,FishGame,2022.1.1,59.91511226775291,
,20,넌 오만해,5,Green,A,2.333333333333333,2,ScrollDown,ScrollUp,Green.png,2,Negative,Incongruent,,,,,0,0,0,0,,,,,,,,,,,,,,,,,0,19,19,19,,,,,,,,,,,,,,,,,,,,,,,,,,,,,,,,,,,,,,,,,,,,,,,,,,,,,,,,,,,,,,,,,,,,,,,,,,,,,1,1.216163700009929,447.2729258000036,None,ScrollDown,정답입니다,447.2729258000036,None,447.2729258000036,None,447.2729258000036,None,447.2729258000036,None,448.24286260001827,None,448.24286260001827,448.74396230001,,,,,,,,,,,,,,,,112,2022-05-04_09h31.21.730,FishGame,2022.1.1,59.91511226775291,
,21,넌 운이없어,4,Orange,B,3,3.466666666666667,ScrollUp,ScrollDown,Orange.png,2,Negative,Congruent,,,,,0,0,0,0,,,,,,,,,,,,,,,,,0,20,20,20,,,,,,,,,,,,,,,,,,,,,,,,,,,,,,,,,,,,,,,,,,,,,,,,,,,,,,,,,,,,,,,,,,,,,,,,,,,,,2,1.6661705000151414,449.5304736000253,None,ScrollUp,정답입니다,449.5304736000253,None,449.5304736000253,None,449.5304736000253,None,449.5304736000253,None,450.973942600016,None,450.973942600016,451.4773089000082,,,,,,,,,,,,,,,,112,2022-05-04_09h31.21.730,FishGame,2022.1.1,59.91511226775291,
,22,넌 창조적이야,2,Orange,B,6.125,4.633333333333334,ScrollUp,ScrollDown,Orange.png,2,Positive,Incongruent,,,,,0,0,0,0,,,,,,,,,,,,,,,,,0,21,21,21,,,,,,,,,,,,,,,,,,,,,,,,,,,,,,,,,,,,,,,,,,,,,,,,,,,,,,,,,,,,,,,,,,,,,,,,,,,,,1.873456800977389,1.7455971000017598,452.39147690002574,None,ScrollUp,정답입니다,452.39147690002574,None,452.39147690002574,None,452.39147690002574,None,452.39147690002574,None,453.804481500003,None,453.804481500003,454.31065930001205,,,,,,,,,,,,,,,,112,2022-05-04_09h31.21.730,FishGame,2022.1.1,59.91511226775291,
,23,나를 보내줘,6,Green,A,0,0,ScrollUp,ScrollDown,Green.png,2,NonTarget,NonTarget,,,,,0,0,0,0,,,,,,,,,,,,,,,,,0,22,22,22,,,,,,,,,,,,,,,,,,,,,,,,,,,,,,,,,,,,,,,,,,,,,,,,,,,,,,,,,,,,,,,,,,,,,,,,,,,,,2,1.5214572999975644,455.11203530000057,None,ScrollUp,정답입니다,455.11203530000057,None,455.11203530000057,None,455.11203530000057,None,455.11203530000057,None,456.4037605000194,None,456.4037605000194,456.9107627000194,,,,,,,,,,,,,,,,112,2022-05-04_09h31.21.730,FishGame,2022.1.1,59.91511226775291,
,24,넌 통찰력있어,2,Green,A,6.5,4.8,ScrollDown,ScrollUp,Green.png,2,Positive,Congruent,,,,,0,0,0,0,,,,,,,,,,,,,,,,,0,23,23,23,,,,,,,,,,,,,,,,,,,,,,,,,,,,,,,,,,,,,,,,,,,,,,,,,,,,,,,,,,,,,,,,,,,,,,,,,,,,,1,1.3869077999843284,457.7398272000137,None,ScrollDown,정답입니다,457.7398272000137,None,457.7398272000137,None,457.7398272000137,None,457.7398272000137,None,458.88192980000167,None,458.88192980000167,459.39426720002666,,,,,,,,,,,,,,,,112,2022-05-04_09h31.21.730,FishGame,2022.1.1,59.91511226775291,
,25,넌 경솔해,5,Orange,B,2.458333333333333,2.266666666666667,ScrollUp,ScrollDown,Orange.png,2,Negative,Congruent,,,,,0,0,0,0,,,,,,,,,,,,,,,,,0,24,24,24,,,,,,,,,,,,,,,,,,,,,,,,,,,,,,,,,,,,,,,,,,,,,,,,,,,,,,,,,,,,,,,,,,,,,,,,,,,,,1.7268518507480621,1.1640178000088781,460.2524196000013,None,ScrollUp,정답입니다,460.2524196000013,None,460.2524196000013,None,460.2524196000013,None,460.2524196000013,None,461.1233056000201,None,461.1233056000201,461.6274993000261,,,,,,,,,,,,,,,,112,2022-05-04_09h31.21.730,FishGame,2022.1.1,59.91511226775291,
,26,넌 초조해,4,Green,A,2.916666666666667,3.133333333333333,ScrollDown,ScrollUp,Green.png,2,Negative,Incongruent,,,,,0,0,0,0,,,,,,,,,,,,,,,,,0,25,25,25,,,,,,,,,,,,,,,,,,,,,,,,,,,,,,,,,,,,,,,,,,,,,,,,,,,,,,,,,,,,,,,,,,,,,,,,,,,,,1.0679012437661488,1.1369639999757055,462.44466269999975,None,ScrollDown,정답입니다,462.44466269999975,None,462.44466269999975,None,462.44466269999975,None,462.44466269999975,None,463.352959300013,None,463.352959300013,463.860800800001,,,,,,,,,,,,,,,,112,2022-05-04_09h31.21.730,FishGame,2022.1.1,59.91511226775291,
,27,넌 무관심해,4,Orange,B,2.833333333333333,2.9,ScrollUp,ScrollDown,Orange.png,2,Negative,Congruent,,,,,0,0,0,0,,,,,,,,,,,,,,,,,0,26,26,26,,,,,,,,,,,,,,,,,,,,,,,,,,,,,,,,,,,,,,,,,,,,,,,,,,,,,,,,,,,,,,,,,,,,,,,,,,,,,1.766975313425064,1.329568199987989,464.6634472000005,None,ScrollUp,정답입니다,464.6634472000005,None,464.6634472000005,None,464.6634472000005,None,464.6634472000005,None,465.75511080000433,None,465.75511080000433,466.2608924000233,,,,,,,,,,,,,,,,112,2022-05-04_09h31.21.730,FishGame,2022.1.1,59.91511226775291,
,28,넌 감성적이야,3,Orange,B,4.125,4.166666666666667,ScrollUp,ScrollDown,Orange.png,2,Neutral,Neutral,,,,,0,0,0,0,,,,,,,,,,,,,,,,,0,27,27,27,,,,,,,,,,,,,,,,,,,,,,,,,,,,,,,,,,,,,,,,,,,,,,,,,,,,,,,,,,,,,,,,,,,,,,,,,,,,,1.983024666706721,1.247553399996832,467.1435584000137,None,ScrollUp,정답입니다,467.1435584000137,None,467.1435584000137,None,467.1435584000137,None,467.1435584000137,None,468.08175330000813,None,468.08175330000813,468.5946936000255,,,,,,,,,,,,,,,,112,2022-05-04_09h31.21.730,FishGame,2022.1.1,59.91511226775291,
,29,넌 배려심있어,1,Green,A,6.083333333333333,5.5,ScrollDown,ScrollUp,Green.png,2,Positive,Congruent,,,,,0,0,0,0,,,,,,,,,,,,,,,,,0,28,28,28,,,,,,,,,,,,,,,,,,,,,,,,,,,,,,,,,,,,,,,,,,,,,,,,,,,,,,,,,,,,,,,,,,,,,,,,,,,,,1.1635802586873372,1.1491791999724228,469.44746340002166,None,ScrollDown,정답입니다,469.44746340002166,None,469.44746340002166,None,469.44746340002166,None,469.44746340002166,None,470.3386484000075,None,470.3386484000075,470.8448349000246,,,,,,,,,,,,,,,,112,2022-05-04_09h31.21.730,FishGame,2022.1.1,59.91511226775291,
,30,넌 숨김없어,3,Green,A,4.5,4.933333333333334,ScrollDown,ScrollUp,Green.png,2,Neutral,Neutral,,,,,0,0,0,0,,,,,,,,,,,,,,,,,0,29,29,29,,,,,,,,,,,,,,,,,,,,,,,,,,,,,,,,,,,,,,,,,,,,,,,,,,,,,,,,,,,,,,,,,,,,,,,,,,,,,1.233024686574936,1.3591967999818735,471.6920202000183,None,ScrollDown,정답입니다,471.6920202000183,None,471.6920202000183,None,471.6920202000183,None,471.6920202000183,None,472.7864819000242,None,472.7864819000242,473.29451550001977,,,,,,,,,,,,,,,,112,2022-05-04_09h31.21.730,FishGame,2022.1.1,59.91511226775291,
,31,넌 훌륭해,2,Orange,B,5.916666666666667,4.033333333333333,ScrollUp,ScrollDown,Orange.png,2,Positive,Incongruent,,,,,0,0,0,0,,,,,,,,,,,,,,,,,0,30,30,30,,,,,,,,,,,,,,,,,,,,,,,,,,,,,,,,,,,,,,,,,,,,,,,,,,,,,,,,,,,,,,,,,,,,,,,,,,,,,1.8827160596847534,1.6914801999810152,474.1712734000175,None,ScrollUp,정답입니다,474.1712734000175,None,474.1712734000175,None,474.1712734000175,None,474.1712734000175,None,475.5658422000124,None,475.5658422000124,476.077729600016,,,,,,,,,,,,,,,,112,2022-05-04_09h31.21.730,FishGame,2022.1.1,59.91511226775291,
,32,넌 슬기로워,2,Green,A,6.166666666666667,4.1,ScrollDown,ScrollUp,Green.png,2,Positive,Congruent,,,,,0,0,0,0,,,,,,,,,,,,,,,,,0,31,31,31,,,,,,,,,,,,,,,,,,,,,,,,,,,,,,,,,,,,,,,,,,,,,,,,,,,,,,,,,,,,,,,,,,,,,,,,,,,,,1.3194444427887597,1.0473219999985304,476.8932025000104,None,ScrollDown,정답입니다,476.8932025000104,None,476.8932025000104,None,476.8932025000104,None,476.8932025000104,None,477.70202580001205,None,477.70202580001205,478.21367600001395,,,,,,,,,,,,,,,,112,2022-05-04_09h31.21.730,FishGame,2022.1.1,59.91511226775291,
,33,넌 냉혹해,5,Green,A,2.583333333333333,2.1,ScrollDown,ScrollUp,Green.png,2,Negative,Incongruent,,,,,0,0,0,0,,,,,,,,,,,,,,,,,0,32,32,32,,,,,,,,,,,,,,,,,,,,,,,,,,,,,,,,,,,,,,,,,,,,,,,,,,,,,,,,,,,,,,,,,,,,,,,,,,,,,1,1.0821281999815255,479.0151748000062,None,ScrollDown,정답입니다,479.0151748000062,None,479.0151748000062,None,479.0151748000062,None,479.0151748000062,None,479.87436630000593,None,479.87436630000593,480.37797600001795,,,,,,,,,,,,,,,,112,2022-05-04_09h31.21.730,FishGame,2022.1.1,59.91511226775291,
,34,나를 데려가줘,6,Orange,B,0,0,ScrollDown,ScrollUp,Orange.png,2,NonTarget,NonTarget,,,,,0,0,0,0,,,,,,,,,,,,,,,,,0,33,33,33,,,,,,,,,,,,,,,,,,,,,,,,,,,,,,,,,,,,,,,,,,,,,,,,,,,,,,,,,,,,,,,,,,,,,,,,,,,,,2,1.529179600009229,481.2247957000218,None,ScrollUp,오답입니다,481.2247957000218,None,481.2247957000218,None,481.2247957000218,None,481.2247957000218,None,482.4930107000109,None,482.4930107000109,482.99475450001773,,,,,,,,,,,,,,,,112,2022-05-04_09h31.21.730,FishGame,2022.1.1,59.91511226775291,
,35,넌 편파적이야,5,Orange,B,2.125,2,ScrollUp,ScrollDown,Orange.png,2,Negative,Congruent,,,,,0,0,0,0,,,,,,,,,,,,,,,,,0,34,34,34,,,,,,,,,,,,,,,,,,,,,,,,,,,,,,,,,,,,,,,,,,,,,,,,,,,,,,,,,,,,,,,,,,,,,,,,,,,,,1.8117283930381138,1.985714000009466,483.8220399999991,None,ScrollUp,정답입니다,483.8220399999991,None,483.8220399999991,None,483.8220399999991,None,483.8220399999991,None,485.54819770000177,None,485.54819770000177,486.06145259999903,,,,,,,,,,,,,,,,112,2022-05-04_09h31.21.730,FishGame,2022.1.1,59.91511226775291,
,36,넌 슬퍼,4,Green,A,2.583333333333333,3.066666666666667,ScrollDown,ScrollUp,Green.png,2,Negative,Incongruent,,,,,0,0,0,0,,,,,,,,,,,,,,,,,0,35,35,35,,,,,,,,,,,,,,,,,,,,,,,,,,,,,,,,,,,,,,,,,,,,,,,,,,,,,,,,,,,,,,,,,,,,,,,,,,,,,1,1.665185100020608,486.8872231999994,None,ScrollDown,정답입니다,486.8872231999994,None,486.8872231999994,None,486.8872231999994,None,486.8872231999994,None,488.31035320000956,None,488.31035320000956,488.81158370000776,,,,,,,,,,,,,,,,112,2022-05-04_09h31.21.730,FishGame,2022.1.1,59.91511226775291,
,37,나를 데려가줘,6,Orange,B,0,0,ScrollDown,ScrollUp,Orange.png,2,NonTarget,NonTarget,,,,,0,0,0,0,,,,,,,,,,,,,,,,,0,36,36,36,,,,,,,,,,,,,,,,,,,,,,,,,,,,,,,,,,,,,,,,,,,,,,,,,,,,,,,,,,,,,,,,,,,,,,,,,,,,,1.141975313425064,1.607652099977713,489.6179665000236,None,ScrollDown,정답입니다,489.6179665000236,None,489.6179665000236,None,489.6179665000236,None,489.6179665000236,None,490.99679120001383,None,490.99679120001383,491.51160250001703,,,,,,,,,,,,,,,,112,2022-05-04_09h31.21.730,FishGame,2022.1.1,59.91511226775291,
,38,넌 친절해,1,Orange,B,6.041666666666667,5.533333333333333,ScrollUp,ScrollDown,Orange.png,2,Positive,Incongruent,,,,,0,0,0,0,,,,,,,,,,,,,,,,,0,37,37,37,,,,,,,,,,,,,,,,,,,,,,,,,,,,,,,,,,,,,,,,,,,,,,,,,,,,,,,,,,,,,,,,,,,,,,,,,,,,,1.0910493781169255,1.235649399983231,492.3334051000129,None,ScrollDown,오답입니다,492.3334051000129,None,492.3334051000129,None,492.3334051000129,None,492.3334051000129,None,493.3177605000092,None,493.3177605000092,493.8282119000214,,,,,,,,,,,,,,,,112,2022-05-04_09h31.21.730,FishGame,2022.1.1,59.91511226775291,
,1,넌 엉성해,4,Green,A,3,3.3,ScrollDown,ScrollUp,Green.png,3,Negative,Incongruent,,,,,0,0,0,0,,,,,,,,,,,,,,,,,,,,,0,0,0,0,,,,,,,,,,,,,,,,,,,,,,,,,,,,,,,,525.6949251000187,527.1954222000204,527.2287225000036,528.1790514000168,528.2292833000247,529.1943872000265,529.177573300025,None,,,,,,,,,,,,,,,,,,,,,,,,,,,,,,,,,,1.1126543233791988,1.7326806999917608,530.7349747000262,None,ScrollDown,정답입니다,530.7349747000262,None,530.7349747000262,None,530.7349747000262,None,530.7349747000262,None,532.0417835000262,None,532.0417835000262,532.5456947000057,494.32890780002344,None,494.32890780002344,None,-0.06944445,-0.039814815,1,0,0,0.015772050013765693,None,524.3282476000022,None,,,112,2022-05-04_09h31.21.730,FishGame,2022.1.1,59.91511226775291,
,2,나를 보내줘,6,Green,A,0,0,ScrollUp,ScrollDown,Green.png,3,NonTarget,NonTarget,,,,,0,0,0,0,,,,,,,,,,,,,,,,,,,,,0,1,1,1,,,,,,,,,,,,,,,,,,,,,,,,,,,,,,,,,,,,,,,,,,,,,,,,,,,,,,,,,,,,,,,,,,,,,,,,,2,1.376974299986614,533.2722530000028,None,ScrollUp,정답입니다,533.2722530000028,None,533.2722530000028,None,533.2722530000028,None,533.2722530000028,None,534.4629779000243,None,534.4629779000243,534.9778497000225,,,,,,,,,,,,,,,,112,2022-05-04_09h31.21.730,FishGame,2022.1.1,59.91511226775291,
,3,넌 활발해,1,Orange,B,5.666666666666667,5.6,ScrollUp,ScrollDown,Orange.png,3,Positive,Incongruent,,,,,0,0,0,0,,,,,,,,,,,,,,,,,,,,,0,2,2,2,,,,,,,,,,,,,,,,,,,,,,,,,,,,,,,,,,,,,,,,,,,,,,,,,,,,,,,,,,,,,,,,,,,,,,,,,1.9459876318772633,2.110332800017204,535.738777200022,None,ScrollUp,정답입니다,535.738777200022,None,535.738777200022,None,535.738777200022,None,535.738777200022,None,537.6510356000217,None,537.6510356000217,538.1626289999986,,,,,,,,,,,,,,,,112,2022-05-04_09h31.21.730,FishGame,2022.1.1,59.91511226775291,
,4,넌 논리적이야,2,Green,A,5.666666666666666,4.633333333333334,ScrollDown,ScrollUp,Green.png,3,Positive,Congruent,,,,,0,0,0,0,,,,,,,,,,,,,,,,,,,,,0,3,3,3,,,,,,,,,,,,,,,,,,,,,,,,,,,,,,,,,,,,,,,,,,,,,,,,,,,,,,,,,,,,,,,,,,,,,,,,,1,1.0305830000143033,538.9901643000194,None,ScrollDown,정답입니다,538.9901643000194,None,538.9901643000194,None,538.9901643000194,None,538.9901643000194,None,539.750059300015,None,539.750059300015,540.2613887000189,,,,,,,,,,,,,,,,112,2022-05-04_09h31.21.730,FishGame,2022.1.1,59.91511226775291,
,5,넌 과묵해,3,Green,A,3.875,4.4,ScrollDown,ScrollUp,Green.png,3,Neutral,Neutral,,,,,0,0,0,0,,,,,,,,,,,,,,,,,,,,,0,4,4,4,,,,,,,,,,,,,,,,,,,,,,,,,,,,,,,,,,,,,,,,,,,,,,,,,,,,,,,,,,,,,,,,,,,,,,,,,1,1.1924145999946631,541.0206695000234,None,ScrollDown,정답입니다,541.0206695000234,None,541.0206695000234,None,541.0206695000234,None,541.0206695000234,None,542.032414300018,None,542.032414300018,542.5459525000188,,,,,,,,,,,,,,,,112,2022-05-04_09h31.21.730,FishGame,2022.1.1,59.91511226775291,
,6,나를 데려가줘,6,Orange,B,0,0,ScrollDown,ScrollUp,Orange.png,3,NonTarget,NonTarget,,,,,0,0,0,0,,,,,,,,,,,,,,,,,,,,,0,5,5,5,,,,,,,,,,,,,,,,,,,,,,,,,,,,,,,,,,,,,,,,,,,,,,,,,,,,,,,,,,,,,,,,,,,,,,,,,1,1.88829080000869,543.345950100018,None,ScrollDown,정답입니다,543.345950100018,None,543.345950100018,None,543.345950100018,None,543.345950100018,None,545.007560500002,None,545.007560500002,545.5128979000147,,,,,,,,,,,,,,,,112,2022-05-04_09h31.21.730,FishGame,2022.1.1,59.91511226775291,
,7,넌 미숙해,4,Orange,B,3,3,ScrollUp,ScrollDown,Orange.png,3,Negative,Congruent,,,,,0,0,0,0,,,,,,,,,,,,,,,,,,,,,0,6,6,6,,,,,,,,,,,,,,,,,,,,,,,,,,,,,,,,,,,,,,,,,,,,,,,,,,,,,,,,,,,,,,,,,,,,,,,,,2,1.278528800001368,546.3224136000208,None,ScrollUp,정답입니다,546.3224136000208,None,546.3224136000208,None,546.3224136000208,None,546.3224136000208,None,547.3499881000025,None,547.3499881000025,547.8632542000269,,,,,,,,,,,,,,,,112,2022-05-04_09h31.21.730,FishGame,2022.1.1,59.91511226775291,
,8,나를 보내줘,6,Green,A,0,0,ScrollUp,ScrollDown,Green.png,3,NonTarget,NonTarget,,,,,0,0,0,0,,,,,,,,,,,,,,,,,,,,,0,7,7,7,,,,,,,,,,,,,,,,,,,,,,,,,,,,,,,,,,,,,,,,,,,,,,,,,,,,,,,,,,,,,,,,,,,,,,,,,1.9629629850387573,1.5241283000214025,548.6314490000077,None,ScrollUp,정답입니다,548.6314490000077,None,548.6314490000077,None,548.6314490000077,None,548.6314490000077,None,549.9518822000246,None,549.9518822000246,550.4628134000232,,,,,,,,,,,,,,,,112,2022-05-04_09h31.21.730,FishGame,2022.1.1,59.91511226775291,
,9,넌 자신만만해,3,Orange,B,4.833333333333334,4.333333333333333,ScrollUp,ScrollDown,Orange.png,3,Neutral,Neutral,,,,,0,0,0,0,,,,,,,,,,,,,,,,,,,,,0,8,8,8,,,,,,,,,,,,,,,,,,,,,,,,,,,,,,,,,,,,,,,,,,,,,,,,,,,,,,,,,,,,,,,,,,,,,,,,,1.7885802586873372,2.768818000011379,551.2588324000244,None,ScrollUp,정답입니다,551.2588324000244,None,551.2588324000244,None,551.2588324000244,None,551.2588324000244,None,553.8151289000234,None,553.8151289000234,554.3295652000234,,,,,,,,,,,,,,,,112,2022-05-04_09h31.21.730,FishGame,2022.1.1,59.91511226775291,
,10,넌 탐욕스러워,5,Green,A,2.25,2.1,ScrollDown,ScrollUp,Green.png,3,Negative,Incongruent,,,,,0,0,0,0,,,,,,,,,,,,,,,,,,,,,0,9,9,9,,,,,,,,,,,,,,,,,,,,,,,,,,,,,,,,,,,,,,,,,,,,,,,,,,,,,,,,,,,,,,,,,,,,,,,,,1,1.6266087999974843,555.0883080000058,None,ScrollDown,정답입니다,555.0883080000058,None,555.0883080000058,None,555.0883080000058,None,555.0883080000058,None,556.5325524000218,None,556.5325524000218,557.0462432000204,,,,,,,,,,,,,,,,112,2022-05-04_09h31.21.730,FishGame,2022.1.1,59.91511226775291,
,11,넌 인기있어,2,Green,A,5.458333333333333,4.5,ScrollDown,ScrollUp,Green.png,3,Positive,Congruent,,,,,0,0,0,0,,,,,,,,,,,,,,,,,,,,,0,10,10,10,,,,,,,,,,,,,,,,,,,,,,,,,,,,,,,,,,,,,,,,,,,,,,,,,,,,,,,,,,,,,,,,,,,,,,,,,1.2067901243766148,1.4502794000145514,557.8234603000164,None,ScrollDown,정답입니다,557.8234603000164,None,557.8234603000164,None,557.8234603000164,None,557.8234603000164,None,559.0798147000023,None,559.0798147000023,559.5796582000039,,,,,,,,,,,,,,,,112,2022-05-04_09h31.21.730,FishGame,2022.1.1,59.91511226775291,
,12,나를 데려가줘,6,Orange,B,0,0,ScrollDown,ScrollUp,Orange.png,3,NonTarget,NonTarget,,,,,0,0,0,0,,,,,,,,,,,,,,,,,,,,,0,11,11,11,,,,,,,,,,,,,,,,,,,,,,,,,,,,,,,,,,,,,,,,,,,,,,,,,,,,,,,,,,,,,,,,,,,,,,,,,1,1.4571884000033606,560.3972292000253,None,ScrollDown,정답입니다,560.3972292000253,None,560.3972292000253,None,560.3972292000253,None,560.3972292000253,None,561.5971453000093,None,561.5971453000093,562.0963599000243,,,,,,,,,,,,,,,,112,2022-05-04_09h31.21.730,FishGame,2022.1.1,59.91511226775291,
,13,넌 뛰어나,2,Orange,B,6.166666666666667,4,ScrollUp,ScrollDown,Orange.png,3,Positive,Incongruent,,,,,0,0,0,0,,,,,,,,,,,,,,,,,,,,,0,12,12,12,,,,,,,,,,,,,,,,,,,,,,,,,,,,,,,,,,,,,,,,,,,,,,,,,,,,,,,,,,,,,,,,,,,,,,,,,1.9614197711149852,1.2750016000063624,562.8991281000199,None,ScrollUp,정답입니다,562.8991281000199,None,562.8991281000199,None,562.8991281000199,None,562.8991281000199,None,563.9513240000233,None,563.9513240000233,564.4632113999978,,,,,,,,,,,,,,,,112,2022-05-04_09h31.21.730,FishGame,2022.1.1,59.91511226775291,
,14,넌 낙관적이야,1,Green,A,5.75,5.8,ScrollDown,ScrollUp,Green.png,3,Positive,Congruent,,,,,0,0,0,0,,,,,,,,,,,,,,,,,,,,,0,13,13,13,,,,,,,,,,,,,,,,,,,,,,,,,,,,,,,,,,,,,,,,,,,,,,,,,,,,,,,,,,,,,,,,,,,,,,,,,1.0339506367842357,1.1507861000136472,565.2346820000093,None,ScrollDown,정답입니다,565.2346820000093,None,565.2346820000093,None,565.2346820000093,None,565.2346820000093,None,566.1919108000002,None,566.1919108000002,566.6964135000017,,,,,,,,,,,,,,,,112,2022-05-04_09h31.21.730,FishGame,2022.1.1,59.91511226775291,
,15,넌 산만해,4,Orange,B,2.695652173913043,3.033333333333333,ScrollUp,ScrollDown,Orange.png,3,Negative,Congruent,,,,,0,0,0,0,,,,,,,,,,,,,,,,,,,,,0,14,14,14,,,,,,,,,,,,,,,,,,,,,,,,,,,,,,,,,,,,,,,,,,,,,,,,,,,,,,,,,,,,,,,,,,,,,,,,,1.9212963084379833,1.3164064000011422,567.5290345000103,None,ScrollUp,정답입니다,567.5290345000103,None,567.5290345000103,None,567.5290345000103,None,567.5290345000103,None,568.5947455000132,None,568.5947455000132,569.0964478000242,,,,,,,,,,,,,,,,112,2022-05-04_09h31.21.730,FishGame,2022.1.1,59.91511226775291,
,16,나를 보내줘,6,Green,A,0,0,ScrollUp,ScrollDown,Green.png,3,NonTarget,NonTarget,,,,,0,0,0,0,,,,,,,,,,,,,,,,,,,,,0,15,15,15,,,,,,,,,,,,,,,,,,,,,,,,,,,,,,,,,,,,,,,,,,,,,,,,,,,,,,,,,,,,,,,,,,,,,,,,,2,1.3774210999836214,569.9151902000012,None,ScrollUp,정답입니다,569.9151902000012,None,569.9151902000012,None,569.9151902000012,None,569.9151902000012,None,571.0542862000002,None,571.0542862000002,571.5632724000025,,,,,,,,,,,,,,,,112,2022-05-04_09h31.21.730,FishGame,2022.1.1,59.91511226775291,
,17,넌 교활해,5,Orange,B,2.333333333333333,2.133333333333333,ScrollUp,ScrollDown,Orange.png,3,Negative,Congruent,,,,,0,0,0,0,,,,,,,,,,,,,,,,,,,,,0,16,16,16,,,,,,,,,,,,,,,,,,,,,,,,,,,,,,,,,,,,,,,,,,,,,,,,,,,,,,,,,,,,,,,,,,,,,,,,,2,1.4631137999822386,572.3812271000061,None,ScrollUp,정답입니다,572.3812271000061,None,572.3812271000061,None,572.3812271000061,None,572.3812271000061,None,573.60557840002,None,573.60557840002,574.1135682000022,,,,,,,,,,,,,,,,112,2022-05-04_09h31.21.730,FishGame,2022.1.1,59.91511226775291,
,18,나를 보내줘,6,Green,A,0,0,ScrollUp,ScrollDown,Green.png,3,NonTarget,NonTarget,,,,,0,0,0,0,,,,,,,,,,,,,,,,,,,,,0,17,17,17,,,,,,,,,,,,,,,,,,,,,,,,,,,,,,,,,,,,,,,,,,,,,,,,,,,,,,,,,,,,,,,,,,,,,,,,,1,1.3501131999946665,574.9153944000136,None,ScrollDown,오답입니다,574.9153944000136,None,574.9153944000136,None,574.9153944000136,None,574.9153944000136,None,576.0520273000002,None,576.0520273000002,576.5635977000056,,,,,,,,,,,,,,,,112,2022-05-04_09h31.21.730,FishGame,2022.1.1,59.91511226775291,
,19,넌 불친절해,5,Orange,B,2.208333333333333,2.033333333333333,ScrollUp,ScrollDown,Orange.png,3,Negative,Congruent,,,,,0,0,0,0,,,,,,,,,,,,,,,,,,,,,0,18,18,18,,,,,,,,,,,,,,,,,,,,,,,,,,,,,,,,,,,,,,,,,,,,,,,,,,,,,,,,,,,,,,,,,,,,,,,,,1.9799382885297139,1.4175209999957588,577.3963358000037,None,ScrollUp,정답입니다,577.3963358000037,None,577.3963358000037,None,577.3963358000037,None,577.3963358000037,None,578.5573293000052,None,578.5573293000052,579.0638264000008,,,,,,,,,,,,,,,,112,2022-05-04_09h31.21.730,FishGame,2022.1.1,59.91511226775291,
,20,넌 지적이야,2,Orange,B,5.75,4.366666666666666,ScrollUp,ScrollDown,Orange.png,3,Positive,Incongruent,,,,,0,0,0,0,,,,,,,,,,,,,,,,,,,,,0,19,19,19,,,,,,,,,,,,,,,,,,,,,,,,,,,,,,,,,,,,,,,,,,,,,,,,,,,,,,,,,,,,,,,,,,,,,,,,,1.9336419701576233,1.6922521999804303,579.8598332000256,None,ScrollUp,정답입니다,579.8598332000256,None,579.8598332000256,None,579.8598332000256,None,579.8598332000256,None,581.3332872000174,None,581.3332872000174,581.8468224000244,,,,,,,,,,,,,,,,112,2022-05-04_09h31.21.730,FishGame,2022.1.1,59.91511226775291,
,21,넌 우유부단해,4,Green,A,2.666666666666667,3.166666666666667,ScrollDown,ScrollUp,Green.png,3,Negative,Incongruent,,,,,0,0,0,0,,,,,,,,,,,,,,,,,,,,,0,20,20,20,,,,,,,,,,,,,,,,,,,,,,,,,,,,,,,,,,,,,,,,,,,,,,,,,,,,,,,,,,,,,,,,,,,,,,,,,1,2.0678407000086736,582.6884209999989,None,ScrollDown,정답입니다,582.6884209999989,None,582.6884209999989,None,582.6884209999989,None,582.6884209999989,None,584.4976547000115,None,584.4976547000115,584.9967552000016,,,,,,,,,,,,,,,,112,2022-05-04_09h31.21.730,FishGame,2022.1.1,59.91511226775291,
,22,나를 데려가줘,6,Orange,B,0,0,ScrollDown,ScrollUp,Orange.png,3,NonTarget,NonTarget,,,,,0,0,0,0,,,,,,,,,,,,,,,,,,,,,0,21,21,21,,,,,,,,,,,,,,,,,,,,,,,,,,,,,,,,,,,,,,,,,,,,,,,,,,,,,,,,,,,,,,,,,,,,,,,,,1,1.3555631999915931,585.8259534000244,None,ScrollDown,정답입니다,585.8259534000244,None,585.8259534000244,None,585.8259534000244,None,585.8259534000244,None,586.9376062000229,None,586.9376062000229,587.4468864000228,,,,,,,,,,,,,,,,112,2022-05-04_09h31.21.730,FishGame,2022.1.1,59.91511226775291,
,23,넌 성실해,1,Orange,B,6.041666666666666,5.7,ScrollUp,ScrollDown,Orange.png,3,Positive,Incongruent,,,,,0,0,0,0,,,,,,,,,,,,,,,,,,,,,0,22,22,22,,,,,,,,,,,,,,,,,,,,,,,,,,,,,,,,,,,,,,,,,,,,,,,,,,,,,,,,,,,,,,,,,,,,,,,,,2,1.7253601000120398,588.2778395000205,None,ScrollUp,정답입니다,588.2778395000205,None,588.2778395000205,None,588.2778395000205,None,588.2778395000205,None,589.7444045000011,None,589.7444045000011,590.2471568000037,,,,,,,,,,,,,,,,112,2022-05-04_09h31.21.730,FishGame,2022.1.1,59.91511226775291,
,24,넌 현실주의적이야,3,Green,A,4.625,4.4,ScrollDown,ScrollUp,Green.png,3,Neutral,Neutral,,,,,0,0,0,0,,,,,,,,,,,,,,,,,,,,,0,23,23,23,,,,,,,,,,,,,,,,,,,,,,,,,,,,,,,,,,,,,,,,,,,,,,,,,,,,,,,,,,,,,,,,,,,,,,,,,1,1.4593429999949876,591.0467422000074,None,ScrollDown,정답입니다,591.0467422000074,None,591.0467422000074,None,591.0467422000074,None,591.0467422000074,None,592.2692338000052,None,592.2692338000052,592.7805111000198,,,,,,,,,,,,,,,,112,2022-05-04_09h31.21.730,FishGame,2022.1.1,59.91511226775291,
,25,넌 진실돼,1,Green,A,6.625,5.566666666666666,ScrollDown,ScrollUp,Green.png,3,Positive,Congruent,,,,,0,0,0,0,,,,,,,,,,,,,,,,,,,,,0,24,24,24,,,,,,,,,,,,,,,,,,,,,,,,,,,,,,,,,,,,,,,,,,,,,,,,,,,,,,,,,,,,,,,,,,,,,,,,,1,1.0220784000121057,593.5247044000134,None,ScrollDown,정답입니다,593.5247044000134,None,593.5247044000134,None,593.5247044000134,None,593.5247044000134,None,594.3804729000258,None,594.3804729000258,594.8806765000045,,,,,,,,,,,,,,,,112,2022-05-04_09h31.21.730,FishGame,2022.1.1,59.91511226775291,
,26,넌 천진난만해,3,Orange,B,4.958333333333334,4.833333333333333,ScrollUp,ScrollDown,Orange.png,3,Neutral,Neutral,,,,,0,0,0,0,,,,,,,,,,,,,,,,,,,,,0,25,25,25,,,,,,,,,,,,,,,,,,,,,,,,,,,,,,,,,,,,,,,,,,,,,,,,,,,,,,,,,,,,,,,,,,,,,,,,,2,1.1563291000202298,595.7318254999991,None,ScrollUp,정답입니다,595.7318254999991,None,595.7318254999991,None,595.7318254999991,None,595.7318254999991,None,596.6203850000165,None,596.6203850000165,597.1306745000184,,,,,,,,,,,,,,,,112,2022-05-04_09h31.21.730,FishGame,2022.1.1,59.91511226775291,
,27,넌 교양없어,5,Green,A,2.416666666666667,2.2,ScrollDown,ScrollUp,Green.png,3,Negative,Incongruent,,,,,0,0,0,0,,,,,,,,,,,,,,,,,,,,,0,26,26,26,,,,,,,,,,,,,,,,,,,,,,,,,,,,,,,,,,,,,,,,,,,,,,,,,,,,,,,,,,,,,,,,,,,,,,,,,1,1.3258725999912713,598.0003223000094,None,ScrollDown,정답입니다,598.0003223000094,None,598.0003223000094,None,598.0003223000094,None,598.0003223000094,None,599.0359376000124,None,599.0359376000124,599.5473273000098,,,,,,,,,,,,,,,,112,2022-05-04_09h31.21.730,FishGame,2022.1.1,59.91511226775291,
,28,나를 보내줘,6,Green,A,0,0,ScrollUp,ScrollDown,Green.png,3,NonTarget,NonTarget,,,,,0,0,0,0,,,,,,,,,,,,,,,,,,,,,0,27,27,27,,,,,,,,,,,,,,,,,,,,,,,,,,,,,,,,,,,,,,,,,,,,,,,,,,,,,,,,,,,,,,,,,,,,,,,,,2,1.7395639000169467,600.3377070999995,None,ScrollUp,정답입니다,600.3377070999995,None,600.3377070999995,None,600.3377070999995,None,600.3377070999995,None,601.8511314000061,None,601.8511314000061,602.3641777000157,,,,,,,,,,,,,,,,112,2022-05-04_09h31.21.730,FishGame,2022.1.1,59.91511226775291,
,29,넌 엉뚱스러워,3,Green,A,4.166666666666667,4.133333333333334,ScrollDown,ScrollUp,Green.png,3,Neutral,Neutral,,,,,0,0,0,0,,,,,,,,,,,,,,,,,,,,,0,28,28,28,,,,,,,,,,,,,,,,,,,,,,,,,,,,,,,,,,,,,,,,,,,,,,,,,,,,,,,,,,,,,,,,,,,,,,,,,1.0185184975465138,1.3995383000001311,603.1701978000056,None,ScrollDown,정답입니다,603.1701978000056,None,603.1701978000056,None,603.1701978000056,None,603.1701978000056,None,604.3263240000233,None,604.3263240000233,604.8307060000079,,,,,,,,,,,,,,,,112,2022-05-04_09h31.21.730,FishGame,2022.1.1,59.91511226775291,
,30,넌 무지해,4,Orange,B,2.541666666666667,3.066666666666667,ScrollUp,ScrollDown,Orange.png,3,Negative,Congruent,,,,,0,0,0,0,,,,,,,,,,,,,,,,,,,,,0,29,29,29,,,,,,,,,,,,,,,,,,,,,,,,,,,,,,,,,,,,,,,,,,,,,,,,,,,,,,,,,,,,,,,,,,,,,,,,,2,1.145416200015461,605.6188269999984,None,ScrollUp,정답입니다,605.6188269999984,None,605.6188269999984,None,605.6188269999984,None,605.6188269999984,None,606.5472117000027,None,606.5472117000027,607.0472009000077,,,,,,,,,,,,,,,,112,2022-05-04_09h31.21.730,FishGame,2022.1.1,59.91511226775291,
,31,넌 음울해,5,Orange,B,2.25,2.233333333333333,ScrollUp,ScrollDown,Orange.png,3,Negative,Congruent,,,,,0,0,0,0,,,,,,,,,,,,,,,,,,,,,0,30,30,30,,,,,,,,,,,,,,,,,,,,,,,,,,,,,,,,,,,,,,,,,,,,,,,,,,,,,,,,,,,,,,,,,,,,,,,,,2,1.7227476999978535,607.9185089000093,None,ScrollUp,정답입니다,607.9185089000093,None,607.9185089000093,None,607.9185089000093,None,607.9185089000093,None,609.3549987000006,None,609.3549987000006,609.8667481000011,,,,,,,,,,,,,,,,112,2022-05-04_09h31.21.730,FishGame,2022.1.1,59.91511226775291,
,32,넌 냉소적이야,5,Green,A,2.916666666666667,2.4,ScrollDown,ScrollUp,Green.png,3,Negative,Incongruent,,,,,0,0,0,0,,,,,,,,,,,,,,,,,,,,,0,31,31,31,,,,,,,,,,,,,,,,,,,,,,,,,,,,,,,,,,,,,,,,,,,,,,,,,,,,,,,,,,,,,,,,,,,,,,,,,1,1.3439052999892738,610.653870500013,None,ScrollDown,정답입니다,610.653870500013,None,610.653870500013,None,610.653870500013,None,610.653870500013,None,611.7807330000214,None,611.7807330000214,612.2808986000018,,,,,,,,,,,,,,,,112,2022-05-04_09h31.21.730,FishGame,2022.1.1,59.91511226775291,
,33,나를 데려가줘,6,Orange,B,0,0,ScrollDown,ScrollUp,Orange.png,3,NonTarget,NonTarget,,,,,0,0,0,0,,,,,,,,,,,,,,,,,,,,,0,32,32,32,,,,,,,,,,,,,,,,,,,,,,,,,,,,,,,,,,,,,,,,,,,,,,,,,,,,,,,,,,,,,,,,,,,,,,,,,1,1.2090668999881018,613.0613173000165,None,ScrollDown,정답입니다,613.0613173000165,None,613.0613173000165,None,613.0613173000165,None,613.0613173000165,None,614.0566616000142,None,614.0566616000142,614.5644665000145,,,,,,,,,,,,,,,,112,2022-05-04_09h31.21.730,FishGame,2022.1.1,59.91511226775291,
,34,넌 쾌활해,1,Green,A,5.541666666666666,5.733333333333333,ScrollDown,ScrollUp,Green.png,3,Positive,Congruent,,,,,0,0,0,0,,,,,,,,,,,,,,,,,,,,,0,33,33,33,,,,,,,,,,,,,,,,,,,,,,,,,,,,,,,,,,,,,,,,,,,,,,,,,,,,,,,,,,,,,,,,,,,,,,,,,1,1.5767700000142213,615.327781400003,None,ScrollDown,정답입니다,615.327781400003,None,615.327781400003,None,615.327781400003,None,615.327781400003,None,616.7015914000222,None,616.7015914000222,617.2142830000084,,,,,,,,,,,,,,,,112,2022-05-04_09h31.21.730,FishGame,2022.1.1,59.91511226775291,
,35,나를 보내줘,6,Green,A,0,0,ScrollUp,ScrollDown,Green.png,3,NonTarget,NonTarget,,,,,0,0,0,0,,,,,,,,,,,,,,,,,,,,,0,34,34,34,,,,,,,,,,,,,,,,,,,,,,,,,,,,,,,,,,,,,,,,,,,,,,,,,,,,,,,,,,,,,,,,,,,,,,,,,1.9722222189108531,1.3299228999821935,618.0726627000258,None,ScrollUp,정답입니다,618.0726627000258,None,618.0726627000258,None,618.0726627000258,None,618.0726627000258,None,619.1285873000161,None,619.1285873000161,619.6309094000026,,,,,,,,,,,,,,,,112,2022-05-04_09h31.21.730,FishGame,2022.1.1,59.91511226775291,
,36,넌 명랑해,1,Orange,B,5.739130434782609,5.666666666666667,ScrollUp,ScrollDown,Orange.png,3,Positive,Incongruent,,,,,0,0,0,0,,,,,,,,,,,,,,,,,,,,,0,35,35,35,,,,,,,,,,,,,,,,,,,,,,,,,,,,,,,,,,,,,,,,,,,,,,,,,,,,,,,,,,,,,,,,,,,,,,,,,2,1.3365555000200402,620.4752694000199,None,ScrollUp,정답입니다,620.4752694000199,None,620.4752694000199,None,620.4752694000199,None,620.4752694000199,None,621.5595699000114,None,621.5595699000114,622.064677300019,,,,,,,,,,,,,,,,112,2022-05-04_09h31.21.730,FishGame,2022.1.1,59.91511226775291,
,37,넌 멍해,4,Green,A,2.833333333333333,3.4,ScrollDown,ScrollUp,Green.png,3,Negative,Incongruent,,,,,0,0,0,0,,,,,,,,,,,,,,,,,,,,,0,36,36,36,,,,,,,,,,,,,,,,,,,,,,,,,,,,,,,,,,,,,,,,,,,,,,,,,,,,,,,,,,,,,,,,,,,,,,,,,1,1.3197462999960408,622.8642189000093,None,ScrollDown,정답입니다,622.8642189000093,None,622.8642189000093,None,622.8642189000093,None,622.8642189000093,None,623.9666377000103,None,623.9666377000103,624.4814006000233,,,,,,,,,,,,,,,,112,2022-05-04_09h31.21.730,FishGame,2022.1.1,59.91511226775291,
,38,나를 데려가줘,6,Orange,B,0,0,ScrollDown,ScrollUp,Orange.png,3,NonTarget,NonTarget,,,,,0,0,0,0,,,,,,,,,,,,,,,,,,,,,0,37,37,37,,,,,,,,,,,,,,,,,,,,,,,,,,,,,,,,,,,,,,,,,,,,,,,,,,,,,,,,,,,,,,,,,,,,,,,,,1,1.4962866000132635,625.2925970000215,None,ScrollDown,정답입니다,625.2925970000215,None,625.2925970000215,None,625.2925970000215,None,625.2925970000215,None,626.5398130000103,None,626.5398130000103,627.0478754000214,,,,,,,,,,,,,,,,112,2022-05-04_09h31.21.730,FishGame,2022.1.1,59.91511226775291,
,39,넌 현명해,2,Green,A,6.541666666666666,4.533333333333333,ScrollDown,ScrollUp,Green.png,3,Positive,Congruent,,,,,0,0,0,0,,,,,,,,,,,,,,,,,,,,,0,38,38,38,,,,,,,,,,,,,,,,,,,,,,,,,,,,,,,,,,,,,,,,,,,,,,,,,,,,,,,,,,,,,,,,,,,,,,,,,1,1.295202999986941,627.8418492000201,None,ScrollDown,정답입니다,627.8418492000201,None,627.8418492000201,None,627.8418492000201,None,627.8418492000201,None,628.9240272000025,None,628.9240272000025,629.4312073000183,,,,,,,,,,,,,,,,112,2022-05-04_09h31.21.730,FishGame,2022.1.1,59.91511226775291,
,40,넌 수줍어,3,Orange,B,3.541666666666666,4.366666666666666,ScrollUp,ScrollDown,Orange.png,3,Neutral,Neutral,,,,,0,0,0,0,,,,,,,,,,,,,,,,,,,,,0,39,39,39,,,,,,,,,,,,,,,,,,,,,,,,,,,,,,,,,,,,,,,,,,,,,,,,,,,,,,,,,,,,,,,,,,,,,,,,,1.8348765522241592,1.1261715000146069,630.2578953000193,None,ScrollUp,정답입니다,630.2578953000193,None,630.2578953000193,None,630.2578953000193,None,630.2578953000193,None,631.1272441000037,None,631.1272441000037,631.6310751000128,,,,,,,,,,,,,,,,112,2022-05-04_09h31.21.730,FishGame,2022.1.1,59.91511226775291,
,41,나를 데려가줘,6,Orange,B,0,0,ScrollDown,ScrollUp,Orange.png,3,NonTarget,NonTarget,,,,,0,0,0,0,,,,,,,,,,,,,,,,,,,,,0,40,40,40,,,,,,,,,,,,,,,,,,,,,,,,,,,,,,,,,,,,,,,,,,,,,,,,,,,,,,,,,,,,,,,,,,,,,,,,,1,3.195594999997411,632.4347398000245,None,ScrollDown,정답입니다,632.4347398000245,None,632.4347398000245,None,632.4347398000245,None,632.4347398000245,None,635.4017498000176,None,635.4017498000176,635.9153076000221,,,,,,,,,,,,,,,,112,2022-05-04_09h31.21.730,FishGame,2022.1.1,59.91511226775291,
,42,넌 성숙해,2,Orange,B,5.833333333333333,4.533333333333333,ScrollUp,ScrollDown,Orange.png,3,Positive,Incongruent,,,,,0,0,0,0,,,,,,,,,,,,,,,,,,,,,0,41,41,41,,,,,,,,,,,,,,,,,,,,,,,,,,,,,,,,,,,,,,,,,,,,,,,,,,,,,,,,,,,,,,,,,,,,,,,,,2,1.8718930999748409,636.7745548000094,None,ScrollUp,정답입니다,636.7745548000094,None,636.7745548000094,None,636.7745548000094,None,636.7745548000094,None,638.3717810000235,None,638.3717810000235,638.8815344000177,,,,,,,,,,,,,,,,112,2022-05-04_09h31.21.730,FishGame,2022.1.1,59.91511226775291,
,1,넌 매력적이야,2,Orange,B,6.125,4.666666666666667,ScrollUp,ScrollDown,Orange.png,4,Positive,Incongruent,,,,,0,0,0,0,,,,,,,,,,,,,,,,,,,,,,,,,0,0,0,0,,,,,,,,,,,,,,,,,,,,,,,,,,,,671.0322985000093,672.5324080999999,672.5656761999999,673.5156082000176,673.5662891000102,674.5155259000021,674.5155259000021,None,,,,,,,,,,,,,,,,,,,,,,,,,,,,,,,,,,1.5725308619439602,2.1794163000013214,675.9553492000268,None,ScrollUp,정답입니다,675.9553492000268,None,675.9553492000268,None,675.9553492000268,None,675.9553492000268,None,677.8276494000165,None,677.8276494000165,678.3325431000267,639.3823675000167,None,639.3823675000167,None,-0.1037037,-0.11851852,1,0,0,0.015113650006242096,None,669.382068100007,None,,,112,2022-05-04_09h31.21.730,FishGame,2022.1.1,59.91511226775291,
,2,나를 보내줘,6,Green,A,0,0,ScrollUp,ScrollDown,Green.png,4,NonTarget,NonTarget,,,,,0,0,0,0,,,,,,,,,,,,,,,,,,,,,,,,,0,1,1,1,,,,,,,,,,,,,,,,,,,,,,,,,,,,,,,,,,,,,,,,,,,,,,,,,,,,,,,,,,,,,,,,,,,,,1.1512345721324284,1.2436534000153188,679.1253935999994,None,ScrollDown,오답입니다,679.1253935999994,None,679.1253935999994,None,679.1253935999994,None,679.1253935999994,None,680.145241500024,None,680.145241500024,680.6489945000212,,,,,,,,,,,,,,,,112,2022-05-04_09h31.21.730,FishGame,2022.1.1,59.91511226775291,
,3,넌 조심스러워,3,Green,A,4.791666666666666,4.666666666666667,ScrollDown,ScrollUp,Green.png,4,Neutral,Neutral,,,,,0,0,0,0,,,,,,,,,,,,,,,,,,,,,,,,,0,2,2,2,,,,,,,,,,,,,,,,,,,,,,,,,,,,,,,,,,,,,,,,,,,,,,,,,,,,,,,,,,,,,,,,,,,,,1,1.4075445999915246,681.460078700009,None,ScrollDown,정답입니다,681.460078700009,None,681.460078700009,None,681.460078700009,None,681.460078700009,None,682.6474746000022,None,682.6474746000022,683.1489864000177,,,,,,,,,,,,,,,,112,2022-05-04_09h31.21.730,FishGame,2022.1.1,59.91511226775291,
,4,넌 철학적이야,3,Orange,B,4.5,4.266666666666667,ScrollUp,ScrollDown,Orange.png,4,Neutral,Neutral,,,,,0,0,0,0,,,,,,,,,,,,,,,,,,,,,,,,,0,3,3,3,,,,,,,,,,,,,,,,,,,,,,,,,,,,,,,,,,,,,,,,,,,,,,,,,,,,,,,,,,,,,,,,,,,,,2,1.4922213999961969,683.960887400026,None,ScrollUp,정답입니다,683.960887400026,None,683.960887400026,None,683.960887400026,None,683.960887400026,None,685.2151616000046,None,685.2151616000046,685.7158344000054,,,,,,,,,,,,,,,,112,2022-05-04_09h31.21.730,FishGame,2022.1.1,59.91511226775291,
,5,넌 쩨쩨해,5,Green,A,2.375,2.133333333333333,ScrollDown,ScrollUp,Green.png,4,Negative,Incongruent,,,,,0,0,0,0,,,,,,,,,,,,,,,,,,,,,,,,,0,4,4,4,,,,,,,,,,,,,,,,,,,,,,,,,,,,,,,,,,,,,,,,,,,,,,,,,,,,,,,,,,,,,,,,,,,,,1,2.0624973000085447,686.4770237000193,None,ScrollDown,정답입니다,686.4770237000193,None,686.4770237000193,None,686.4770237000193,None,686.4770237000193,None,688.3412939000118,None,688.3412939000118,688.8491592000064,,,,,,,,,,,,,,,,112,2022-05-04_09h31.21.730,FishGame,2022.1.1,59.91511226775291,
,6,나를 데려가줘,6,Orange,B,0,0,ScrollDown,ScrollUp,Orange.png,4,NonTarget,NonTarget,,,,,0,0,0,0,,,,,,,,,,,,,,,,,,,,,,,,,0,5,5,5,,,,,,,,,,,,,,,,,,,,,,,,,,,,,,,,,,,,,,,,,,,,,,,,,,,,,,,,,,,,,,,,,,,,,1,1.3385124999913387,689.6233532000042,None,ScrollDown,정답입니다,689.6233532000042,None,689.6233532000042,None,689.6233532000042,None,689.6233532000042,None,690.7540427000204,None,690.7540427000204,691.2659163000062,,,,,,,,,,,,,,,,112,2022-05-04_09h31.21.730,FishGame,2022.1.1,59.91511226775291,
,7,넌 고집불통이야,5,Orange,B,2.875,2,ScrollUp,ScrollDown,Orange.png,4,Negative,Congruent,,,,,0,0,0,0,,,,,,,,,,,,,,,,,,,,,,,,,0,6,6,6,,,,,,,,,,,,,,,,,,,,,,,,,,,,,,,,,,,,,,,,,,,,,,,,,,,,,,,,,,,,,,,,,,,,,2,1.3414025999954902,692.0942001000221,None,ScrollUp,정답입니다,692.0942001000221,None,692.0942001000221,None,692.0942001000221,None,692.0942001000221,None,693.1807167000079,None,693.1807167000079,693.6826757000235,,,,,,,,,,,,,,,,112,2022-05-04_09h31.21.730,FishGame,2022.1.1,59.91511226775291,
,8,넌 무심해,4,Green,A,2.875,3.2,ScrollDown,ScrollUp,Green.png,4,Negative,Incongruent,,,,,0,0,0,0,,,,,,,,,,,,,,,,,,,,,,,,,0,7,7,7,,,,,,,,,,,,,,,,,,,,,,,,,,,,,,,,,,,,,,,,,,,,,,,,,,,,,,,,,,,,,,,,,,,,,1.0709876716136932,1.0067976999853272,694.5085227000236,None,ScrollDown,정답입니다,694.5085227000236,None,694.5085227000236,None,694.5085227000236,None,694.5085227000236,None,695.2405716000067,None,695.2405716000067,695.7493941000139,,,,,,,,,,,,,,,,112,2022-05-04_09h31.21.730,FishGame,2022.1.1,59.91511226775291,
,9,넌 정겨워,1,Green,A,5.791666666666667,5.666666666666667,ScrollDown,ScrollUp,Green.png,4,Positive,Congruent,,,,,0,0,0,0,,,,,,,,,,,,,,,,,,,,,,,,,0,8,8,8,,,,,,,,,,,,,,,,,,,,,,,,,,,,,,,,,,,,,,,,,,,,,,,,,,,,,,,,,,,,,,,,,,,,,1.1682098756233852,1.015902199986158,696.5486769000127,None,ScrollDown,정답입니다,696.5486769000127,None,696.5486769000127,None,696.5486769000127,None,696.5486769000127,None,697.3540126000007,None,697.3540126000007,697.8660722000059,,,,,,,,,,,,,,,,112,2022-05-04_09h31.21.730,FishGame,2022.1.1,59.91511226775291,
,10,나를 데려가줘,6,Orange,B,0,0,ScrollDown,ScrollUp,Orange.png,4,NonTarget,NonTarget,,,,,0,0,0,0,,,,,,,,,,,,,,,,,,,,,,,,,0,9,9,9,,,,,,,,,,,,,,,,,,,,,,,,,,,,,,,,,,,,,,,,,,,,,,,,,,,,,,,,,,,,,,,,,,,,,1.0354938507080078,1.3349367000046186,698.6534961000143,None,ScrollDown,정답입니다,698.6534961000143,None,698.6534961000143,None,698.6534961000143,None,698.6534961000143,None,699.7828566000098,None,699.7828566000098,700.2828941000043,,,,,,,,,,,,,,,,112,2022-05-04_09h31.21.730,FishGame,2022.1.1,59.91511226775291,
,11,넌 체제순응적이야,4,Orange,B,3,3.6,ScrollUp,ScrollDown,Orange.png,4,Negative,Congruent,,,,,0,0,0,0,,,,,,,,,,,,,,,,,,,,,,,,,0,10,10,10,,,,,,,,,,,,,,,,,,,,,,,,,,,,,,,,,,,,,,,,,,,,,,,,,,,,,,,,,,,,,,,,,,,,,2,1.3676577000005636,701.1517107000109,None,ScrollUp,정답입니다,701.1517107000109,None,701.1517107000109,None,701.1517107000109,None,701.1517107000109,None,702.2314329000073,None,702.2314329000073,702.7329250000184,,,,,,,,,,,,,,,,112,2022-05-04_09h31.21.730,FishGame,2022.1.1,59.91511226775291,
,12,나를 보내줘,6,Green,A,0,0,ScrollUp,ScrollDown,Green.png,4,NonTarget,NonTarget,,,,,0,0,0,0,,,,,,,,,,,,,,,,,,,,,,,,,0,11,11,11,,,,,,,,,,,,,,,,,,,,,,,,,,,,,,,,,,,,,,,,,,,,,,,,,,,,,,,,,,,,,,,,,,,,,1.766975313425064,1.3987784000055399,703.5680042000022,None,ScrollUp,정답입니다,703.5680042000022,None,703.5680042000022,None,703.5680042000022,None,703.5680042000022,None,704.7162634000124,None,704.7162634000124,705.2161713000096,,,,,,,,,,,,,,,,112,2022-05-04_09h31.21.730,FishGame,2022.1.1,59.91511226775291,
,13,넌 박식해,2,Green,A,5.625,3.933333333333333,ScrollDown,ScrollUp,Green.png,4,Positive,Congruent,,,,,0,0,0,0,,,,,,,,,,,,,,,,,,,,,,,,,0,12,12,12,,,,,,,,,,,,,,,,,,,,,,,,,,,,,,,,,,,,,,,,,,,,,,,,,,,,,,,,,,,,,,,,,,,,,1.0694444576899211,1.5474909000040498,705.989642600005,None,ScrollDown,정답입니다,705.989642600005,None,705.989642600005,None,705.989642600005,None,705.989642600005,None,707.3491726000211,None,707.3491726000211,707.8496664999984,,,,,,,,,,,,,,,,112,2022-05-04_09h31.21.730,FishGame,2022.1.1,59.91511226775291,
,14,나를 보내줘,6,Green,A,0,0,ScrollUp,ScrollDown,Green.png,4,NonTarget,NonTarget,,,,,0,0,0,0,,,,,,,,,,,,,,,,,,,,,,,,,0,13,13,13,,,,,,,,,,,,,,,,,,,,,,,,,,,,,,,,,,,,,,,,,,,,,,,,,,,,,,,,,,,,,,,,,,,,,1.7268518507480621,1.249664400005713,708.6216346000147,None,ScrollUp,정답입니다,708.6216346000147,None,708.6216346000147,None,708.6216346000147,None,708.6216346000147,None,709.670944500016,None,709.670944500016,710.1832724999986,,,,,,,,,,,,,,,,112,2022-05-04_09h31.21.730,FishGame,2022.1.1,59.91511226775291,
,15,넌 침착해,1,Orange,B,5.458333333333333,5.566666666666666,ScrollUp,ScrollDown,Orange.png,4,Positive,Incongruent,,,,,0,0,0,0,,,,,,,,,,,,,,,,,,,,,,,,,0,14,14,14,,,,,,,,,,,,,,,,,,,,,,,,,,,,,,,,,,,,,,,,,,,,,,,,,,,,,,,,,,,,,,,,,,,,,1.8364197413126628,1.5217140000022482,710.9659971000219,None,ScrollUp,정답입니다,710.9659971000219,None,710.9659971000219,None,710.9659971000219,None,710.9659971000219,None,712.2861980000162,None,712.2861980000162,712.799780900008,,,,,,,,,,,,,,,,112,2022-05-04_09h31.21.730,FishGame,2022.1.1,59.91511226775291,
,16,나를 데려가줘,6,Orange,B,0,0,ScrollDown,ScrollUp,Orange.png,4,NonTarget,NonTarget,,,,,0,0,0,0,,,,,,,,,,,,,,,,,,,,,,,,,0,15,15,15,,,,,,,,,,,,,,,,,,,,,,,,,,,,,,,,,,,,,,,,,,,,,,,,,,,,,,,,,,,,,,,,,,,,,1.0663580298423767,1.3239995000185445,713.6090289000131,None,ScrollDown,정답입니다,713.6090289000131,None,713.6090289000131,None,713.6090289000131,None,713.6090289000131,None,714.7066921000078,None,714.7066921000078,715.2165573000093,,,,,,,,,,,,,,,,112,2022-05-04_09h31.21.730,FishGame,2022.1.1,59.91511226775291,
,17,넌 행복해,1,Green,A,6.416666666666666,6.166666666666667,ScrollDown,ScrollUp,Green.png,4,Positive,Congruent,,,,,0,0,0,0,,,,,,,,,,,,,,,,,,,,,,,,,0,16,16,16,,,,,,,,,,,,,,,,,,,,,,,,,,,,,,,,,,,,,,,,,,,,,,,,,,,,,,,,,,,,,,,,,,,,,1,1.1595938999962527,716.0382406999997,None,ScrollDown,정답입니다,716.0382406999997,None,716.0382406999997,None,716.0382406999997,None,716.0382406999997,None,716.9549916000105,None,716.9549916000105,717.4664829000249,,,,,,,,,,,,,,,,112,2022-05-04_09h31.21.730,FishGame,2022.1.1,59.91511226775291,
,18,넌 겸손해,2,Orange,B,5.791666666666667,4.766666666666667,ScrollUp,ScrollDown,Orange.png,4,Positive,Incongruent,,,,,0,0,0,0,,,,,,,,,,,,,,,,,,,,,,,,,0,17,17,17,,,,,,,,,,,,,,,,,,,,,,,,,,,,,,,,,,,,,,,,,,,,,,,,,,,,,,,,,,,,,,,,,,,,,2,1.8992728000157513,718.2697210000188,None,ScrollUp,정답입니다,718.2697210000188,None,718.2697210000188,None,718.2697210000188,None,718.2697210000188,None,719.9408048000187,None,719.9408048000187,720.4498351000075,,,,,,,,,,,,,,,,112,2022-05-04_09h31.21.730,FishGame,2022.1.1,59.91511226775291,
,19,나를 보내줘,6,Green,A,0,0,ScrollUp,ScrollDown,Green.png,4,NonTarget,NonTarget,,,,,0,0,0,0,,,,,,,,,,,,,,,,,,,,,,,,,0,18,18,18,,,,,,,,,,,,,,,,,,,,,,,,,,,,,,,,,,,,,,,,,,,,,,,,,,,,,,,,,,,,,,,,,,,,,2,1.3437278999772388,721.2631939999992,None,ScrollUp,정답입니다,721.2631939999992,None,721.2631939999992,None,721.2631939999992,None,721.2631939999992,None,722.3742054000031,None,722.3742054000031,722.8834369000106,,,,,,,,,,,,,,,,112,2022-05-04_09h31.21.730,FishGame,2022.1.1,59.91511226775291,
,20,넌 의심없어,3,Green,A,4.166666666666667,4.6,ScrollDown,ScrollUp,Green.png,4,Neutral,Neutral,,,,,0,0,0,0,,,,,,,,,,,,,,,,,,,,,,,,,0,19,19,19,,,,,,,,,,,,,,,,,,,,,,,,,,,,,,,,,,,,,,,,,,,,,,,,,,,,,,,,,,,,,,,,,,,,,1,2.623719600000186,723.6709674000158,None,ScrollDown,정답입니다,723.6709674000158,None,723.6709674000158,None,723.6709674000158,None,723.6709674000158,None,726.0862582000264,None,726.0862582000264,726.6001168000221,,,,,,,,,,,,,,,,112,2022-05-04_09h31.21.730,FishGame,2022.1.1,59.91511226775291,
,21,넌 시시해,4,Green,A,2.666666666666667,2.966666666666667,ScrollDown,ScrollUp,Green.png,4,Negative,Incongruent,,,,,0,0,0,0,,,,,,,,,,,,,,,,,,,,,,,,,0,20,20,20,,,,,,,,,,,,,,,,,,,,,,,,,,,,,,,,,,,,,,,,,,,,,,,,,,,,,,,,,,,,,,,,,,,,,1,1.1581312000053003,727.3935664000164,None,ScrollDown,정답입니다,727.3935664000164,None,727.3935664000164,None,727.3935664000164,None,727.3935664000164,None,728.3323827999993,None,728.3323827999993,728.8335273000121,,,,,,,,,,,,,,,,112,2022-05-04_09h31.21.730,FishGame,2022.1.1,59.91511226775291,
,22,나를 데려가줘,6,Orange,B,0,0,ScrollDown,ScrollUp,Orange.png,4,NonTarget,NonTarget,,,,,0,0,0,0,,,,,,,,,,,,,,,,,,,,,,,,,0,21,21,21,,,,,,,,,,,,,,,,,,,,,,,,,,,,,,,,,,,,,,,,,,,,,,,,,,,,,,,,,,,,,,,,,,,,,1.2731481492519379,1.2044513000000734,729.6634745000047,None,ScrollDown,정답입니다,729.6634745000047,None,729.6634745000047,None,729.6634745000047,None,729.6634745000047,None,730.6161980000034,None,730.6161980000034,731.1167550000246,,,,,,,,,,,,,,,,112,2022-05-04_09h31.21.730,FishGame,2022.1.1,59.91511226775291,
,23,넌 무정해,5,Green,A,2.5,2.2,ScrollDown,ScrollUp,Green.png,4,Negative,Incongruent,,,,,0,0,0,0,,,,,,,,,,,,,,,,,,,,,,,,,0,22,22,22,,,,,,,,,,,,,,,,,,,,,,,,,,,,,,,,,,,,,,,,,,,,,,,,,,,,,,,,,,,,,,,,,,,,,1.3719135796030364,1.5754159000061918,731.878266100015,None,ScrollDown,정답입니다,731.878266100015,None,731.878266100015,None,731.878266100015,None,731.878266100015,None,733.2775534000248,None,733.2775534000248,733.783836800023,,,,,,,,,,,,,,,,112,2022-05-04_09h31.21.730,FishGame,2022.1.1,59.91511226775291,
,24,넌 긍정적이야,1,Orange,B,6.041666666666667,6.066666666666666,ScrollUp,ScrollDown,Orange.png,4,Positive,Incongruent,,,,,0,0,0,0,,,,,,,,,,,,,,,,,,,,,,,,,0,23,23,23,,,,,,,,,,,,,,,,,,,,,,,,,,,,,,,,,,,,,,,,,,,,,,,,,,,,,,,,,,,,,,,,,,,,,1.8688271592060726,1.9605531000124756,734.5529764000094,None,ScrollUp,정답입니다,734.5529764000094,None,734.5529764000094,None,734.5529764000094,None,734.5529764000094,None,736.3254943000211,None,736.3254943000211,736.8335951000045,,,,,,,,,,,,,,,,112,2022-05-04_09h31.21.730,FishGame,2022.1.1,59.91511226775291,
,25,나를 보내줘,6,Green,A,0,0,ScrollUp,ScrollDown,Green.png,4,NonTarget,NonTarget,,,,,0,0,0,0,,,,,,,,,,,,,,,,,,,,,,,,,0,24,24,24,,,,,,,,,,,,,,,,,,,,,,,,,,,,,,,,,,,,,,,,,,,,,,,,,,,,,,,,,,,,,,,,,,,,,2,2.1148836000065785,737.6422629000153,None,ScrollUp,정답입니다,737.6422629000153,None,737.6422629000153,None,737.6422629000153,None,737.6422629000153,None,739.5299843000248,None,739.5299843000248,740.0338247000182,,,,,,,,,,,,,,,,112,2022-05-04_09h31.21.730,FishGame,2022.1.1,59.91511226775291,
,26,넌 시기심이 많아,5,Orange,B,2.458333333333333,2.233333333333333,ScrollUp,ScrollDown,Orange.png,4,Negative,Congruent,,,,,0,0,0,0,,,,,,,,,,,,,,,,,,,,,,,,,0,25,25,25,,,,,,,,,,,,,,,,,,,,,,,,,,,,,,,,,,,,,,,,,,,,,,,,,,,,,,,,,,,,,,,,,,,,,1.7685185273488362,2.609804500010796,740.898801400006,None,ScrollUp,정답입니다,740.898801400006,None,740.898801400006,None,740.898801400006,None,740.898801400006,None,743.2003184000205,None,743.2003184000205,743.7003821000108,,,,,,,,,,,,,,,,112,2022-05-04_09h31.21.730,FishGame,2022.1.1,59.91511226775291,
,27,넌 탁월해,2,Green,A,5.708333333333334,4.5,ScrollDown,ScrollUp,Green.png,4,Positive,Congruent,,,,,0,0,0,0,,,,,,,,,,,,,,,,,,,,,,,,,0,26,26,26,,,,,,,,,,,,,,,,,,,,,,,,,,,,,,,,,,,,,,,,,,,,,,,,,,,,,,,,,,,,,,,,,,,,,1.3070987686514854,1.5077060000039637,744.5080415000266,None,ScrollDown,정답입니다,744.5080415000266,None,744.5080415000266,None,744.5080415000266,None,744.5080415000266,None,745.7760463000159,None,745.7760463000159,746.2841516000044,,,,,,,,,,,,,,,,112,2022-05-04_09h31.21.730,FishGame,2022.1.1,59.91511226775291,
,28,나를 데려가줘,6,Orange,B,0,0,ScrollDown,ScrollUp,Orange.png,4,NonTarget,NonTarget,,,,,0,0,0,0,,,,,,,,,,,,,,,,,,,,,,,,,0,27,27,27,,,,,,,,,,,,,,,,,,,,,,,,,,,,,,,,,,,,,,,,,,,,,,,,,,,,,,,,,,,,,,,,,,,,,1.1172839403152466,1.2581808000104502,747.0775430000213,None,ScrollDown,정답입니다,747.0775430000213,None,747.0775430000213,None,747.0775430000213,None,747.0775430000213,None,748.1141984999995,None,748.1141984999995,748.6171512000146,,,,,,,,,,,,,,,,112,2022-05-04_09h31.21.730,FishGame,2022.1.1,59.91511226775291,
,29,넌 조용해,3,Orange,B,4.333333333333333,4.166666666666667,ScrollUp,ScrollDown,Orange.png,4,Neutral,Neutral,,,,,0,0,0,0,,,,,,,,,,,,,,,,,,,,,,,,,0,28,28,28,,,,,,,,,,,,,,,,,,,,,,,,,,,,,,,,,,,,,,,,,,,,,,,,,,,,,,,,,,,,,,,,,,,,,1.904320980111758,1.3778219999803696,749.4389660000161,None,ScrollUp,정답입니다,749.4389660000161,None,749.4389660000161,None,749.4389660000161,None,749.4389660000161,None,750.5746718000155,None,750.5746718000155,751.083885,,,,,,,,,,,,,,,,112,2022-05-04_09h31.21.730,FishGame,2022.1.1,59.91511226775291,
,30,넌 다정해,1,Green,A,5.833333333333334,5.7,ScrollDown,ScrollUp,Green.png,4,Positive,Congruent,,,,,0,0,0,0,,,,,,,,,,,,,,,,,,,,,,,,,0,29,29,29,,,,,,,,,,,,,,,,,,,,,,,,,,,,,,,,,,,,,,,,,,,,,,,,,,,,,,,,,,,,,,,,,,,,,1.1635802586873372,1.1488768000272103,751.8713908000209,None,ScrollDown,정답입니다,751.8713908000209,None,751.8713908000209,None,751.8713908000209,None,751.8713908000209,None,752.8149716000189,None,752.8149716000189,753.3171319000248,,,,,,,,,,,,,,,,112,2022-05-04_09h31.21.730,FishGame,2022.1.1,59.91511226775291,
,31,넌 능력있어,2,Orange,B,6.166666666666666,4.6,ScrollUp,ScrollDown,Orange.png,4,Positive,Incongruent,,,,,0,0,0,0,,,,,,,,,,,,,,,,,,,,,,,,,0,30,30,30,,,,,,,,,,,,,,,,,,,,,,,,,,,,,,,,,,,,,,,,,,,,,,,,,,,,,,,,,,,,,,,,,,,,,1.1126543233791988,2.2316452999948524,754.1164545000065,None,ScrollDown,오답입니다,754.1164545000065,None,754.1164545000065,None,754.1164545000065,None,754.1164545000065,None,756.1161771000188,None,756.1161771000188,756.6174093000009,,,,,,,,,,,,,,,,112,2022-05-04_09h31.21.730,FishGame,2022.1.1,59.91511226775291,
,32,넌 불쾌해,5,Green,A,2.125,1.933333333333333,ScrollDown,ScrollUp,Green.png,4,Negative,Incongruent,,,,,0,0,0,0,,,,,,,,,,,,,,,,,,,,,,,,,0,31,31,31,,,,,,,,,,,,,,,,,,,,,,,,,,,,,,,,,,,,,,,,,,,,,,,,,,,,,,,,,,,,,,,,,,,,,1.2407407313585281,2.102573600015603,757.3879436000134,None,ScrollDown,정답입니다,757.3879436000134,None,757.3879436000134,None,757.3879436000134,None,757.3879436000134,None,759.3027217000199,None,759.3027217000199,759.81727520001,,,,,,,,,,,,,,,,112,2022-05-04_09h31.21.730,FishGame,2022.1.1,59.91511226775291,
,33,나를 데려가줘,6,Orange,B,0,0,ScrollDown,ScrollUp,Orange.png,4,NonTarget,NonTarget,,,,,0,0,0,0,,,,,,,,,,,,,,,,,,,,,,,,,0,32,32,32,,,,,,,,,,,,,,,,,,,,,,,,,,,,,,,,,,,,,,,,,,,,,,,,,,,,,,,,,,,,,,,,,,,,,1,1.3982056999811903,760.6461390000186,None,ScrollDown,정답입니다,760.6461390000186,None,760.6461390000186,None,760.6461390000186,None,760.6461390000186,None,761.798867000005,None,761.798867000005,762.3007119000249,,,,,,,,,,,,,,,,112,2022-05-04_09h31.21.730,FishGame,2022.1.1,59.91511226775291,
,34,넌 유순해,3,Green,A,4.458333333333333,5,ScrollDown,ScrollUp,Green.png,4,Neutral,Neutral,,,,,0,0,0,0,,,,,,,,,,,,,,,,,,,,,,,,,0,33,33,33,,,,,,,,,,,,,,,,,,,,,,,,,,,,,,,,,,,,,,,,,,,,,,,,,,,,,,,,,,,,,,,,,,,,,1,1.17835470000864,763.1363258000056,None,ScrollDown,정답입니다,763.1363258000056,None,763.1363258000056,None,763.1363258000056,None,763.1363258000056,None,764.037919000024,None,764.037919000024,764.5509479000175,,,,,,,,,,,,,,,,112,2022-05-04_09h31.21.730,FishGame,2022.1.1,59.91511226775291,
,35,넌 근심스러워,4,Orange,B,2.708333333333333,3.133333333333333,ScrollUp,ScrollDown,Orange.png,4,Negative,Congruent,,,,,0,0,0,0,,,,,,,,,,,,,,,,,,,,,,,,,0,34,34,34,,,,,,,,,,,,,,,,,,,,,,,,,,,,,,,,,,,,,,,,,,,,,,,,,,,,,,,,,,,,,,,,,,,,,2,1.3591992000001483,765.3588205999986,None,ScrollUp,정답입니다,765.3588205999986,None,765.3588205999986,None,765.3588205999986,None,765.3588205999986,None,766.4899012000242,None,766.4899012000242,767.0009880000143,,,,,,,,,,,,,,,,112,2022-05-04_09h31.21.730,FishGame,2022.1.1,59.91511226775291,
,36,넌 세련되었어,2,Green,A,5.5,4.6,ScrollDown,ScrollUp,Green.png,4,Positive,Congruent,,,,,0,0,0,0,,,,,,,,,,,,,,,,,,,,,,,,,0,35,35,35,,,,,,,,,,,,,,,,,,,,,,,,,,,,,,,,,,,,,,,,,,,,,,,,,,,,,,,,,,,,,,,,,,,,,1,1.1240961000148673,767.8712250000099,None,ScrollDown,정답입니다,767.8712250000099,None,767.8712250000099,None,767.8712250000099,None,767.8712250000099,None,768.6784113000031,None,768.6784113000031,769.1843962999992,,,,,,,,,,,,,,,,112,2022-05-04_09h31.21.730,FishGame,2022.1.1,59.91511226775291,
,37,나를 보내줘,6,Green,A,0,0,ScrollUp,ScrollDown,Green.png,4,NonTarget,NonTarget,,,,,0,0,0,0,,,,,,,,,,,,,,,,,,,,,,,,,0,36,36,36,,,,,,,,,,,,,,,,,,,,,,,,,,,,,,,,,,,,,,,,,,,,,,,,,,,,,,,,,,,,,,,,,,,,,1.8611111144224803,2.0474184000049718,769.9482397000247,None,ScrollUp,정답입니다,769.9482397000247,None,769.9482397000247,None,769.9482397000247,None,769.9482397000247,None,771.789396600012,None,771.789396600012,772.3010468000139,,,,,,,,,,,,,,,,112,2022-05-04_09h31.21.730,FishGame,2022.1.1,59.91511226775291,
,38,넌 확고해,3,Orange,B,4.708333333333334,4.566666666666666,ScrollUp,ScrollDown,Orange.png,4,Neutral,Neutral,,,,,0,0,0,0,,,,,,,,,,,,,,,,,,,,,,,,,0,37,37,37,,,,,,,,,,,,,,,,,,,,,,,,,,,,,,,,,,,,,,,,,,,,,,,,,,,,,,,,,,,,,,,,,,,,,1.8919753183921177,1.5002632999967318,773.109606300015,None,ScrollUp,정답입니다,773.109606300015,None,773.109606300015,None,773.109606300015,None,773.109606300015,None,774.3747661000234,None,774.3747661000234,774.8851567000092,,,,,,,,,,,,,,,,112,2022-05-04_09h31.21.730,FishGame,2022.1.1,59.91511226775291,
,39,넌 이해심이 많아,1,Orange,B,6.041666666666668,5.533333333333333,ScrollUp,ScrollDown,Orange.png,4,Positive,Incongruent,,,,,0,0,0,0,,,,,,,,,,,,,,,,,,,,,,,,,0,38,38,38,,,,,,,,,,,,,,,,,,,,,,,,,,,,,,,,,,,,,,,,,,,,,,,,,,,,,,,,,,,,,,,,,,,,,1.8472222139437993,1.2149443000089377,775.7118584999989,None,ScrollUp,정답입니다,775.7118584999989,None,775.7118584999989,None,775.7118584999989,None,775.7118584999989,None,776.6791898000229,None,776.6791898000229,777.1845848000085,,,,,,,,,,,,,,,,112,2022-05-04_09h31.21.730,FishGame,2022.1.1,59.91511226775291,
,40,나를 보내줘,6,Green,A,0,0,ScrollUp,ScrollDown,Green.png,4,NonTarget,NonTarget,,,,,0,0,0,0,,,,,,,,,,,,,,,,,,,,,,,,,0,39,39,39,,,,,,,,,,,,,,,,,,,,,,,,,,,,,,,,,,,,,,,,,,,,,,,,,,,,,,,,,,,,,,,,,,,,,1.0092592636744182,1.275335799989989,777.9599894999992,None,ScrollDown,오답입니다,777.9599894999992,None,777.9599894999992,None,777.9599894999992,None,777.9599894999992,None,779.0507385000237,None,779.0507385000237,779.5511861999985,,,,,,,,,,,,,,,,112,2022-05-04_09h31.21.730,FishGame,2022.1.1,59.91511226775291,
,41,넌 거칠어,4,Green,A,2.625,3.033333333333333,ScrollDown,ScrollUp,Green.png,4,Negative,Incongruent,,,,,0,0,0,0,,,,,,,,,,,,,,,,,,,,,,,,,0,40,40,40,,,,,,,,,,,,,,,,,,,,,,,,,,,,,,,,,,,,,,,,,,,,,,,,,,,,,,,,,,,,,,,,,,,,,1.1527777860562007,2.109468899987405,780.3379056999984,None,ScrollDown,정답입니다,780.3379056999984,None,780.3379056999984,None,780.3379056999984,None,780.3379056999984,None,782.2575662000163,None,782.2575662000163,782.7678523000213,,,,,,,,,,,,,,,,112,2022-05-04_09h31.21.730,FishGame,2022.1.1,59.91511226775291,
,42,넌 변덕맞아,5,Orange,B,2.75,2.166666666666667,ScrollUp,ScrollDown,Orange.png,4,Negative,Congruent,,,,,0,0,0,0,,,,,,,,,,,,,,,,,,,,,,,,,0,41,41,41,,,,,,,,,,,,,,,,,,,,,,,,,,,,,,,,,,,,,,,,,,,,,,,,,,,,,,,,,,,,,,,,,,,,,1.7808641890684764,1.1664274999930058,783.6314362999983,None,ScrollUp,정답입니다,783.6314362999983,None,783.6314362999983,None,783.6314362999983,None,783.6314362999983,None,784.5154633000202,None,784.5154633000202,785.0180222000054,,,,,,,,,,,,,,,,112,2022-05-04_09h31.21.730,FishGame,2022.1.1,59.91511226775291,
,43,나를 데려가줘,6,Orange,B,0,0,ScrollDown,ScrollUp,Orange.png,4,NonTarget,NonTarget,,,,,0,0,0,0,,,,,,,,,,,,,,,,,,,,,,,,,0,42,42,42,,,,,,,,,,,,,,,,,,,,,,,,,,,,,,,,,,,,,,,,,,,,,,,,,,,,,,,,,,,,,,,,,,,,,1,1.3241663000080734,785.7794312000042,None,ScrollDown,정답입니다,785.7794312000042,None,785.7794312000042,None,785.7794312000042,None,785.7794312000042,None,786.9247828000225,None,786.9247828000225,787.4348750000063,,,,,,,,,,,,,,,,112,2022-05-04_09h31.21.730,FishGame,2022.1.1,59.91511226775291,
,44,넌 외로워,4,Orange,B,2.833333333333333,3.3,ScrollUp,ScrollDown,Orange.png,4,Negative,Congruent,,,,,0,0,0,0,,,,,,,,,,,,,,,,,,,,,,,,,0,43,43,43,,,,,,,,,,,,,,,,,,,,,,,,,,,,,,,,,,,,,,,,,,,,,,,,,,,,,,,,,,,,,,,,,,,,,2,1.3119618999771774,788.2588207000226,None,ScrollUp,정답입니다,788.2588207000226,None,788.2588207000226,None,788.2588207000226,None,788.2588207000226,None,789.3333159000031,None,789.3333159000031,789.8348830000032,,,,,,,,,,,,,,,,112,2022-05-04_09h31.21.730,FishGame,2022.1.1,59.91511226775291,
,1,넌 불평스러워,5,Green,A,2.25,2.066666666666667,ScrollDown,ScrollUp,Green.png,5,Negative,Incongruent,,,,,0,0,0,0,,,,,,,,,,,,,,,,,,,,,,,,,,,,,0,0,0,0,,,,,,,,,,,,,,,,,,,,,,,,821.8991313000151,823.4022551000235,823.4355087000004,824.3859712000121,824.4355210000067,825.3854940000165,825.3854940000165,None,,,,,,,,,,,,,,,,,,,,,,,,,,,,,,,,,,1.2052469104528427,2.02767490001861,826.7391397000174,None,ScrollDown,정답입니다,826.7391397000174,None,826.7391397000174,None,826.7391397000174,None,826.7391397000174,None,828.5267588999995,None,828.5267588999995,829.0357957000087,790.3364997000026,None,790.3364997000026,None,-0.13981481,-0.0787037,1,0,0,0.013773849990684539,None,820.3353790000256,None,,,112,2022-05-04_09h31.21.730,FishGame,2022.1.1,59.91511226775291,
,2,나를 보내줘,6,Green,A,0,0,ScrollUp,ScrollDown,Green.png,5,NonTarget,NonTarget,,,,,0,0,0,0,,,,,,,,,,,,,,,,,,,,,,,,,,,,,0,1,1,1,,,,,,,,,,,,,,,,,,,,,,,,,,,,,,,,,,,,,,,,,,,,,,,,,,,,,,,,,,,,,,,,,1.939814825852712,1.2860800999915227,829.8568779000198,None,ScrollUp,정답입니다,829.8568779000198,None,829.8568779000198,None,829.8568779000198,None,829.8568779000198,None,830.9098906000145,None,830.9098906000145,831.4189574000193,,,,,,,,,,,,,,,,112,2022-05-04_09h31.21.730,FishGame,2022.1.1,59.91511226775291,
,3,넌 다재다능해,2,Orange,B,6.208333333333333,4.5,ScrollUp,ScrollDown,Orange.png,5,Positive,Incongruent,,,,,0,0,0,0,,,,,,,,,,,,,,,,,,,,,,,,,,,,,0,2,2,2,,,,,,,,,,,,,,,,,,,,,,,,,,,,,,,,,,,,,,,,,,,,,,,,,,,,,,,,,,,,,,,,,2,1.3735639000078663,832.2182495000015,None,ScrollUp,정답입니다,832.2182495000015,None,832.2182495000015,None,832.2182495000015,None,832.2182495000015,None,833.3657927000022,None,833.3657927000022,833.8691549000214,,,,,,,,,,,,,,,,112,2022-05-04_09h31.21.730,FishGame,2022.1.1,59.91511226775291,
,4,넌 과감해,3,Green,A,4.833333333333334,4.6,ScrollDown,ScrollUp,Green.png,5,Neutral,Neutral,,,,,0,0,0,0,,,,,,,,,,,,,,,,,,,,,,,,,,,,,0,3,3,3,,,,,,,,,,,,,,,,,,,,,,,,,,,,,,,,,,,,,,,,,,,,,,,,,,,,,,,,,,,,,,,,,1.1373456716537476,1.0942730999959167,834.6872055999993,None,ScrollDown,정답입니다,834.6872055999993,None,834.6872055999993,None,834.6872055999993,None,834.6872055999993,None,835.5402831000101,None,835.5402831000101,836.0533805000014,,,,,,,,,,,,,,,,112,2022-05-04_09h31.21.730,FishGame,2022.1.1,59.91511226775291,
,5,넌 고분고분해,3,Orange,B,3.75,4.033333333333333,ScrollUp,ScrollDown,Orange.png,5,Neutral,Neutral,,,,,0,0,0,0,,,,,,,,,,,,,,,,,,,,,,,,,,,,,0,4,4,4,,,,,,,,,,,,,,,,,,,,,,,,,,,,,,,,,,,,,,,,,,,,,,,,,,,,,,,,,,,,,,,,,1.723765422900518,1.1802731000061613,836.8933595000126,None,ScrollUp,정답입니다,836.8933595000126,None,836.8933595000126,None,836.8933595000126,None,836.8933595000126,None,837.8154165000014,None,837.8154165000014,838.319100200024,,,,,,,,,,,,,,,,112,2022-05-04_09h31.21.730,FishGame,2022.1.1,59.91511226775291,
,6,나를 보내줘,6,Green,A,0,0,ScrollUp,ScrollDown,Green.png,5,NonTarget,NonTarget,,,,,0,0,0,0,,,,,,,,,,,,,,,,,,,,,,,,,,,,,0,5,5,5,,,,,,,,,,,,,,,,,,,,,,,,,,,,,,,,,,,,,,,,,,,,,,,,,,,,,,,,,,,,,,,,,1.765432099501292,1.3818359000142664,839.1067479000194,None,ScrollUp,정답입니다,839.1067479000194,None,839.1067479000194,None,839.1067479000194,None,839.1067479000194,None,840.2816888000234,None,840.2816888000234,840.7858834000072,,,,,,,,,,,,,,,,112,2022-05-04_09h31.21.730,FishGame,2022.1.1,59.91511226775291,
,7,넌 잘 잊어,4,Green,A,3,3.7,ScrollDown,ScrollUp,Green.png,5,Negative,Incongruent,,,,,0,0,0,0,,,,,,,,,,,,,,,,,,,,,,,,,,,,,0,6,6,6,,,,,,,,,,,,,,,,,,,,,,,,,,,,,,,,,,,,,,,,,,,,,,,,,,,,,,,,,,,,,,,,,1.0864197611808777,1.1944663999893237,841.6013177999994,None,ScrollDown,정답입니다,841.6013177999994,None,841.6013177999994,None,841.6013177999994,None,841.6013177999994,None,842.5600650999986,None,842.5600650999986,843.0692335000203,,,,,,,,,,,,,,,,112,2022-05-04_09h31.21.730,FishGame,2022.1.1,59.91511226775291,
,8,넌 탐구심이없어,4,Orange,B,2.833333333333333,3.066666666666667,ScrollUp,ScrollDown,Orange.png,5,Negative,Congruent,,,,,0,0,0,0,,,,,,,,,,,,,,,,,,,,,,,,,,,,,0,7,7,7,,,,,,,,,,,,,,,,,,,,,,,,,,,,,,,,,,,,,,,,,,,,,,,,,,,,,,,,,,,,,,,,,2,1.185896299983142,843.8852742000017,None,ScrollUp,정답입니다,843.8852742000017,None,843.8852742000017,None,843.8852742000017,None,843.8852742000017,None,844.8377204000135,None,844.8377204000135,845.3528529000178,,,,,,,,,,,,,,,,112,2022-05-04_09h31.21.730,FishGame,2022.1.1,59.91511226775291,
,9,나를 데려가줘,6,Orange,B,0,0,ScrollDown,ScrollUp,Orange.png,5,NonTarget,NonTarget,,,,,0,0,0,0,,,,,,,,,,,,,,,,,,,,,,,,,,,,,0,8,8,8,,,,,,,,,,,,,,,,,,,,,,,,,,,,,,,,,,,,,,,,,,,,,,,,,,,,,,,,,,,,,,,,,1,1.8941113999753725,846.1696980000124,None,ScrollDown,정답입니다,846.1696980000124,None,846.1696980000124,None,846.1696980000124,None,846.1696980000124,None,847.8293881000136,None,847.8293881000136,848.3361271000176,,,,,,,,,,,,,,,,112,2022-05-04_09h31.21.730,FishGame,2022.1.1,59.91511226775291,
,10,넌 참되어,2,Green,A,6.041666666666664,4.733333333333333,ScrollDown,ScrollUp,Green.png,5,Positive,Congruent,,,,,0,0,0,0,,,,,,,,,,,,,,,,,,,,,,,,,,,,,0,9,9,9,,,,,,,,,,,,,,,,,,,,,,,,,,,,,,,,,,,,,,,,,,,,,,,,,,,,,,,,,,,,,,,,,1.253086417913437,1.2245325999974739,849.1045641000092,None,ScrollDown,정답입니다,849.1045641000092,None,849.1045641000092,None,849.1045641000092,None,849.1045641000092,None,850.1483522000199,None,850.1483522000199,850.6527357000159,,,,,,,,,,,,,,,,112,2022-05-04_09h31.21.730,FishGame,2022.1.1,59.91511226775291,
,11,넌 생기있어,1,Orange,B,5.875,5.633333333333334,ScrollUp,ScrollDown,Orange.png,5,Positive,Incongruent,,,,,0,0,0,0,,,,,,,,,,,,,,,,,,,,,,,,,,,,,0,10,10,10,,,,,,,,,,,,,,,,,,,,,,,,,,,,,,,,,,,,,,,,,,,,,,,,,,,,,,,,,,,,,,,,,1.7731481442848842,1.6458380999974906,851.4485394000076,None,ScrollUp,정답입니다,851.4485394000076,None,851.4485394000076,None,851.4485394000076,None,851.4485394000076,None,852.880736400024,None,852.880736400024,853.3860344999994,,,,,,,,,,,,,,,,112,2022-05-04_09h31.21.730,FishGame,2022.1.1,59.91511226775291,
,12,넌 비사교적이야,4,Orange,B,2.875,2.9,ScrollUp,ScrollDown,Orange.png,5,Negative,Congruent,,,,,0,0,0,0,,,,,,,,,,,,,,,,,,,,,,,,,,,,,0,11,11,11,,,,,,,,,,,,,,,,,,,,,,,,,,,,,,,,,,,,,,,,,,,,,,,,,,,,,,,,,,,,,,,,,1.8626543283462524,1.3441238999948837,854.1843243000039,None,ScrollUp,정답입니다,854.1843243000039,None,854.1843243000039,None,854.1843243000039,None,854.1843243000039,None,855.3053791999992,None,855.3053791999992,855.8194254000264,,,,,,,,,,,,,,,,112,2022-05-04_09h31.21.730,FishGame,2022.1.1,59.91511226775291,
,13,나를 데려가줘,6,Orange,B,0,0,ScrollDown,ScrollUp,Orange.png,5,NonTarget,NonTarget,,,,,0,0,0,0,,,,,,,,,,,,,,,,,,,,,,,,,,,,,0,12,12,12,,,,,,,,,,,,,,,,,,,,,,,,,,,,,,,,,,,,,,,,,,,,,,,,,,,,,,,,,,,,,,,,,1,1.3263525000074878,856.6163622000022,None,ScrollDown,정답입니다,856.6163622000022,None,856.6163622000022,None,856.6163622000022,None,856.6163622000022,None,857.7280483000213,None,857.7280483000213,858.2362778000243,,,,,,,,,,,,,,,,112,2022-05-04_09h31.21.730,FishGame,2022.1.1,59.91511226775291,
,14,넌 고독해,4,Green,A,2.916666666666667,3.233333333333333,ScrollDown,ScrollUp,Green.png,5,Negative,Incongruent,,,,,0,0,0,0,,,,,,,,,,,,,,,,,,,,,,,,,,,,,0,13,13,13,,,,,,,,,,,,,,,,,,,,,,,,,,,,,,,,,,,,,,,,,,,,,,,,,,,,,,,,,,,,,,,,,1.0540123681227367,1.200216700002784,859.0174204000214,None,ScrollDown,정답입니다,859.0174204000214,None,859.0174204000214,None,859.0174204000214,None,859.0174204000214,None,860.0232839000237,None,860.0232839000237,860.5362538000045,,,,,,,,,,,,,,,,112,2022-05-04_09h31.21.730,FishGame,2022.1.1,59.91511226775291,
,15,넌 신경질적이야,5,Orange,B,2.375,2.233333333333333,ScrollUp,ScrollDown,Orange.png,5,Negative,Congruent,,,,,0,0,0,0,,,,,,,,,,,,,,,,,,,,,,,,,,,,,0,14,14,14,,,,,,,,,,,,,,,,,,,,,,,,,,,,,,,,,,,,,,,,,,,,,,,,,,,,,,,,,,,,,,,,,1.8317901243766148,1.2656978000013623,861.388780600013,None,ScrollUp,정답입니다,861.388780600013,None,861.388780600013,None,861.388780600013,None,861.388780600013,None,862.3854885000037,None,862.3854885000037,862.8862952000054,,,,,,,,,,,,,,,,112,2022-05-04_09h31.21.730,FishGame,2022.1.1,59.91511226775291,
,16,넌 똑똑해,2,Orange,B,5.666666666666667,3.966666666666667,ScrollUp,ScrollDown,Orange.png,5,Positive,Incongruent,,,,,0,0,0,0,,,,,,,,,,,,,,,,,,,,,,,,,,,,,0,15,15,15,,,,,,,,,,,,,,,,,,,,,,,,,,,,,,,,,,,,,,,,,,,,,,,,,,,,,,,,,,,,,,,,,2,1.275495800015051,863.6978805000253,None,ScrollUp,정답입니다,863.6978805000253,None,863.6978805000253,None,863.6978805000253,None,863.6978805000253,None,864.7413357000041,None,864.7413357000041,865.2530769000005,,,,,,,,,,,,,,,,112,2022-05-04_09h31.21.730,FishGame,2022.1.1,59.91511226775291,
,17,나를 보내줘,6,Green,A,0,0,ScrollUp,ScrollDown,Green.png,5,NonTarget,NonTarget,,,,,0,0,0,0,,,,,,,,,,,,,,,,,,,,,,,,,,,,,0,16,16,16,,,,,,,,,,,,,,,,,,,,,,,,,,,,,,,,,,,,,,,,,,,,,,,,,,,,,,,,,,,,,,,,,1.858024686574936,1.5341329999791924,866.0671098000021,None,ScrollUp,정답입니다,866.0671098000021,None,866.0671098000021,None,866.0671098000021,None,866.0671098000021,None,867.3618824000005,None,867.3618824000005,867.8698658000212,,,,,,,,,,,,,,,,112,2022-05-04_09h31.21.730,FishGame,2022.1.1,59.91511226775291,
,18,넌 협조적이야,1,Green,A,5.625,5.666666666666667,ScrollDown,ScrollUp,Green.png,5,Positive,Congruent,,,,,0,0,0,0,,,,,,,,,,,,,,,,,,,,,,,,,,,,,0,17,17,17,,,,,,,,,,,,,,,,,,,,,,,,,,,,,,,,,,,,,,,,,,,,,,,,,,,,,,,,,,,,,,,,,1.0185184975465138,1.2599336999992374,868.7182320000138,None,ScrollDown,정답입니다,868.7182320000138,None,868.7182320000138,None,868.7182320000138,None,868.7182320000138,None,869.7133421000035,None,869.7133421000035,870.2198166000016,,,,,,,,,,,,,,,,112,2022-05-04_09h31.21.730,FishGame,2022.1.1,59.91511226775291,
,19,나를 데려가줘,6,Orange,B,0,0,ScrollDown,ScrollUp,Orange.png,5,NonTarget,NonTarget,,,,,0,0,0,0,,,,,,,,,,,,,,,,,,,,,,,,,,,,,0,18,18,18,,,,,,,,,,,,,,,,,,,,,,,,,,,,,,,,,,,,,,,,,,,,,,,,,,,,,,,,,,,,,,,,,1.2175925970077515,1.157525499991607,871.0151974000037,None,ScrollDown,정답입니다,871.0151974000037,None,871.0151974000037,None,871.0151974000037,None,871.0151974000037,None,871.9500292000012,None,871.9500292000012,872.453314000013,,,,,,,,,,,,,,,,112,2022-05-04_09h31.21.730,FishGame,2022.1.1,59.91511226775291,
,20,넌 몰인정해,5,Orange,B,2.541666666666667,2.066666666666667,ScrollUp,ScrollDown,Orange.png,5,Negative,Congruent,,,,,0,0,0,0,,,,,,,,,,,,,,,,,,,,,,,,,,,,,0,19,19,19,,,,,,,,,,,,,,,,,,,,,,,,,,,,,,,,,,,,,,,,,,,,,,,,,,,,,,,,,,,,,,,,,1.7253086368242898,1.3814230000134557,873.2553412000125,None,ScrollUp,정답입니다,873.2553412000125,None,873.2553412000125,None,873.2553412000125,None,873.2553412000125,None,874.4157268000126,None,874.4157268000126,874.9198718999978,,,,,,,,,,,,,,,,112,2022-05-04_09h31.21.730,FishGame,2022.1.1,59.91511226775291,
,21,나를 데려가줘,6,Orange,B,0,0,ScrollDown,ScrollUp,Orange.png,5,NonTarget,NonTarget,,,,,0,0,0,0,,,,,,,,,,,,,,,,,,,,,,,,,,,,,0,20,20,20,,,,,,,,,,,,,,,,,,,,,,,,,,,,,,,,,,,,,,,,,,,,,,,,,,,,,,,,,,,,,,,,,1.2361111144224803,1.1227885000116657,875.6902943000023,None,ScrollDown,정답입니다,875.6902943000023,None,875.6902943000023,None,875.6902943000023,None,875.6902943000023,None,876.5996409000072,None,876.5996409000072,877.1036281000124,,,,,,,,,,,,,,,,112,2022-05-04_09h31.21.730,FishGame,2022.1.1,59.91511226775291,
,22,넌 순진해,3,Orange,B,4.125,4.166666666666667,ScrollUp,ScrollDown,Orange.png,5,Neutral,Neutral,,,,,0,0,0,0,,,,,,,,,,,,,,,,,,,,,,,,,,,,,0,21,21,21,,,,,,,,,,,,,,,,,,,,,,,,,,,,,,,,,,,,,,,,,,,,,,,,,,,,,,,,,,,,,,,,,1.7716049303611119,1.1809719000011683,877.9215411000187,None,ScrollUp,정답입니다,877.9215411000187,None,877.9215411000187,None,877.9215411000187,None,877.9215411000187,None,878.8622864000208,None,878.8622864000208,879.3700841000245,,,,,,,,,,,,,,,,112,2022-05-04_09h31.21.730,FishGame,2022.1.1,59.91511226775291,
,23,넌 신뢰할만해,1,Green,A,6.625,5.533333333333333,ScrollDown,ScrollUp,Green.png,5,Positive,Congruent,,,,,0,0,0,0,,,,,,,,,,,,,,,,,,,,,,,,,,,,,0,22,22,22,,,,,,,,,,,,,,,,,,,,,,,,,,,,,,,,,,,,,,,,,,,,,,,,,,,,,,,,,,,,,,,,,1.2515432039896646,1.0691101000120398,880.1562880999991,None,ScrollDown,정답입니다,880.1562880999991,None,880.1562880999991,None,880.1562880999991,None,880.1562880999991,None,881.0269177000155,None,881.0269177000155,881.5369153000065,,,,,,,,,,,,,,,,112,2022-05-04_09h31.21.730,FishGame,2022.1.1,59.91511226775291,
