name,TrialNum,Word,WordCategory,FishType,WordList,WordValence,WordReputation,CorrectResp,IncorrectResp,FishTypeFile,Round,WordType,Condition,LoopforOrange.thisRepN,LoopforOrange.thisTrialN,LoopforOrange.thisN,LoopforOrange.thisIndex,OrangeInstLoop.thisRepN,OrangeInstLoop.thisTrialN,OrangeInstLoop.thisN,OrangeInstLoop.thisIndex,OrangePrac.thisRepN,OrangePrac.thisTrialN,OrangePrac.thisN,OrangePrac.thisIndex,temp1.thisRepN,temp1.thisTrialN,temp1.thisN,temp1.thisIndex,OrangeRound1.thisRepN,OrangeRound1.thisTrialN,OrangeRound1.thisN,OrangeRound1.thisIndex,OrangeRound2.thisRepN,OrangeRound2.thisTrialN,OrangeRound2.thisN,OrangeRound2.thisIndex,OrangeRound3.thisRepN,OrangeRound3.thisTrialN,OrangeRound3.thisN,OrangeRound3.thisIndex,OrangeRound4.thisRepN,OrangeRound4.thisTrialN,OrangeRound4.thisN,OrangeRound4.thisIndex,OrangeRound5.thisRepN,OrangeRound5.thisTrialN,OrangeRound5.thisN,OrangeRound5.thisIndex,LoopForGreen.thisRepN,LoopForGreen.thisTrialN,LoopForGreen.thisN,LoopForGreen.thisIndex,text_2.started,text_2.stopped,text_3.started,text_3.stopped,key_resp.keys,key_resp.rt,key_resp.started,key_resp.stopped,PassI_2.started,PassI_2.stopped,PassInst_2.keys,PassInst_2.rt,PassInst_2.started,PassInst_2.stopped,mouse_2.x,mouse_2.y,mouse_2.leftButton,mouse_2.midButton,mouse_2.rightButton,mouse_2.started,mouse_2.stopped,image.started,image.stopped,text_5.started,text_5.stopped,text_6.started,text_6.stopped,text_7.started,text_7.stopped,text_8.started,text_8.stopped,slider_2.response,slider_2.rt,slider_2.started,slider_2.stopped,Response_2,Feedback_2,BackGround_2.started,BackGround_2.stopped,Fish_2.started,Fish_2.stopped,WordBox_2.started,WordBox_2.stopped,Words_2.started,Words_2.stopped,BackGround_Feedback_2.started,BackGround_Feedback_2.stopped,Feedbacks_2.started,Feedbacks_2.stopped,Continue_or_not.keys,Continue_or_not.rt,Continue_or_not.started,Continue_or_not.stopped,image_3.started,image_3.stopped,mouse_3.x,mouse_3.y,mouse_3.leftButton,mouse_3.midButton,mouse_3.rightButton,mouse_3.started,mouse_3.stopped,startmain.started,startmain.stopped,slider.response,slider.rt,slider.started,slider.stopped,Response,Feedback,BackGround.started,BackGround.stopped,Fish.started,Fish.stopped,WordBox.started,WordBox.stopped,Words.started,Words.stopped,BackGround_Feedback.started,BackGround_Feedback.stopped,Feedbacks.started,Feedbacks.stopped,text.started,text.stopped,break_interval.started,break_interval.stopped,mouse.x,mouse.y,mouse.leftButton,mouse.midButton,mouse.rightButton,mouse.started,mouse.stopped,stratnextround.started,stratnextround.stopped,endgame.started,endgame.stopped,participant,date,expName,psychopyVersion,frameRate,
,,,,,,,,,,,,,,,,,,,,,,,,,,,,,,,,,,,,,,,,,,,,,,,,,,,,,,42.08575210001436,None,42.08575210001436,None,space,2.6395800999889616,42.47505589999491,None,,,,,,,,,,,,,,,,,,,,,,,,,,,,,,,,,,,,,,,,,,,,,,,,,,,,,,,,,,,,,,,,,,,,,,,,,,,,,,,,,,,,,,,,,,113,2022-05-04_12h05.52.642,FishGame,2022.1.1,60.07030628335177,
물고기과제_instruction(참가자용)OrangeVersion.mp4,,,,,,,,,,,,,,0,0,0,0,0,0,0,0,,,,,,,,,,,,,,,,,,,,,,,,,,,,,,,,,,,,,,,,,114.01897510001436,None,n,33.65236099998583,114.01897510001436,None,,,,,,,,,,,,,,,,,,,,,,,,,,,,,,,,,,,,,,,,,,,,,,,,,,,,,,,,,,,,,,,,,,,,,,,,,,,,,,,,,,,,113,2022-05-04_12h05.52.642,FishGame,2022.1.1,60.07030628335177,
,1,넌 교활해,5,Green,B,2.333333333333333,2.133333333333333,ScrollUp,ScrollDown,Green.png,practice,,,0,0,0,0,,,,,0,0,0,0,0,0,0,0,,,,,,,,,,,,,,,,,,,,,,,,,,,,,,,,,,,,,,,0.17962962,-0.19351852,1,0,0,0.5026528000016697,None,147.69963420002023,None,155.9824110000045,157.49471540001105,157.52808150000055,158.47812529999646,158.52809920001891,159.47811739999452,159.47811739999452,None,2,3.0238456999941263,160.8713534999988,None,ScrollUp,정답입니다,160.8713534999988,None,160.8713534999988,None,160.8713534999988,None,160.8713534999988,None,163.64297720001196,None,163.64297720001196,164.1446874999965,,,,,,,,,,,,,,,,,,,,,,,,,,,,,,,,,,,,,,,,,,,,,,,,,113,2022-05-04_12h05.52.642,FishGame,2022.1.1,60.07030628335177,
,2,넌 슬기로워,2,Orange,A,6.166666666666667,4.1,ScrollDown,ScrollUp,Orange.png,practice,,,0,0,0,0,,,,,0,0,0,0,0,1,1,1,,,,,,,,,,,,,,,,,,,,,,,,,,,,,,,,,,,,,,,,,,,,,,,,,,,,,,,,1,3.0274211000069045,164.934651699994,None,ScrollDown,정답입니다,164.934651699994,None,164.934651699994,None,164.934651699994,None,164.934651699994,None,167.72690800001146,None,167.72690800001146,168.22834440000588,,,,,,,,,,,,,,,,,,,,,,,,,,,,,,,,,,,,,,,,,,,,,,,,,113,2022-05-04_12h05.52.642,FishGame,2022.1.1,60.07030628335177,
,3,나를 보내줘,6,Orange,A,0,0,ScrollUp,ScrollDown,Orange.png,practice,,,0,0,0,0,,,,,0,0,0,0,0,2,2,2,,,,,,,,,,,,,,,,,,,,,,,,,,,,,,,,,,,,,,,,,,,,,,,,,,,,,,,,2,2.2785471999959555,169.0739964999957,None,ScrollUp,정답입니다,169.0739964999957,None,169.0739964999957,None,169.0739964999957,None,169.0739964999957,None,171.0842258000048,None,171.0842258000048,171.59514930000296,,,,,,,,,,,,,,,,,,,,,,,,,,,,,,,,,,,,,,,,,,,,,,,,,113,2022-05-04_12h05.52.642,FishGame,2022.1.1,60.07030628335177,
,4,나를 데려가줘,6,Green,B,0,0,ScrollDown,ScrollUp,Green.png,practice,,,0,0,0,0,,,,,0,0,0,0,0,3,3,3,,,,,,,,,,,,,,,,,,,,,,,,,,,,,,,,,,,,,,,,,,,,,,,,,,,,,,,,1,2.4778847999987192,172.3900421000144,None,ScrollDown,정답입니다,172.3900421000144,None,172.3900421000144,None,172.3900421000144,None,172.3900421000144,None,174.66035059999558,None,174.66035059999558,175.1615565000102,,,,,,,,,,,,,,,,,,,,,,,,,,,,,,,,,,,,,,,,,,,,,,,,,113,2022-05-04_12h05.52.642,FishGame,2022.1.1,60.07030628335177,
,1,넌 교활해,5,Green,B,2.333333333333333,2.133333333333333,ScrollUp,ScrollDown,Green.png,practice,,,0,0,0,0,,,,,0,0,0,0,,,,,,,,,,,,,,,,,,,,,,,,,,,,,,,,,,,,,,,,,,,,,,,,,,,,,,,,,,,,,,,,,,,,,,,,,,,,,,n,3.835605800006306,175.66510430001654,None,175.66510430001654,None,,,,,,,,,,,,,,,,,,,,,,,,,,,,,,,,,,,,,,,,,,,113,2022-05-04_12h05.52.642,FishGame,2022.1.1,60.07030628335177,
,1,넌 따뜻해,1,Green,B,6.083333333333333,5.6,ScrollUp,ScrollDown,Green.png,1,Positive,Incongruent,0,0,0,0,,,,,,,,,,,,,0,0,0,0,,,,,,,,,,,,,,,,,,,,,,,,,,,,,,,,,,,,,,,,,,,,196.1112209999992,197.61225710000144,197.6462848999945,198.5955065000162,198.64674840000225,199.61226620001253,199.59594130000914,None,,,,,,,,,,,,,,,,,,,,,,,,,0.10555556,-0.13055556,1,0,0,0.3039549999812152,None,179.53388840000844,None,2,3.090111800003797,200.98360850001336,None,ScrollUp,정답입니다,200.98360850001336,None,200.98360850001336,None,200.98360850001336,None,200.98360850001336,None,203.8404395999969,None,203.8404395999969,204.34608040002058,,,,,,,,,,,,,,,,113,2022-05-04_12h05.52.642,FishGame,2022.1.1,60.07030628335177,
,2,넌 기품있어,2,Green,B,5.791666666666668,4.5,ScrollUp,ScrollDown,Green.png,1,Positive,Incongruent,0,0,0,0,,,,,,,,,,,,,0,1,1,1,,,,,,,,,,,,,,,,,,,,,,,,,,,,,,,,,,,,,,,,,,,,,,,,,,,,,,,,,,,,,,,,,,,,,,,,,,,,,,,,,,,,,2,1.9867842000094242,205.17960920001497,None,ScrollUp,정답입니다,205.17960920001497,None,205.17960920001497,None,205.17960920001497,None,205.17960920001497,None,206.88334930001292,None,206.88334930001292,207.39572200001567,,,,,,,,,,,,,,,,113,2022-05-04_12h05.52.642,FishGame,2022.1.1,60.07030628335177,
,3,나를 보내줘,6,Orange,A,0,0,ScrollUp,ScrollDown,Orange.png,1,NonTarget,NonTarget,0,0,0,0,,,,,,,,,,,,,0,2,2,2,,,,,,,,,,,,,,,,,,,,,,,,,,,,,,,,,,,,,,,,,,,,,,,,,,,,,,,,,,,,,,,,,,,,,,,,,,,,,,,,,,,,,2,1.9264926000032574,208.23168680001982,None,ScrollUp,정답입니다,208.23168680001982,None,208.23168680001982,None,208.23168680001982,None,208.23168680001982,None,209.9087180000206,None,209.9087180000206,210.4123496999964,,,,,,,,,,,,,,,,113,2022-05-04_12h05.52.642,FishGame,2022.1.1,60.07030628335177,
,4,넌 수동적이야,4,Orange,A,2.833333333333333,2.933333333333333,ScrollDown,ScrollUp,Orange.png,1,Negative,Incongruent,0,0,0,0,,,,,,,,,,,,,0,3,3,3,,,,,,,,,,,,,,,,,,,,,,,,,,,,,,,,,,,,,,,,,,,,,,,,,,,,,,,,,,,,,,,,,,,,,,,,,,,,,,,,,,,,,1,2.243683799984865,211.30908430001,None,ScrollDown,정답입니다,211.30908430001,None,211.30908430001,None,211.30908430001,None,211.30908430001,None,213.2384507000097,None,213.2384507000097,213.74595110001974,,,,,,,,,,,,,,,,113,2022-05-04_12h05.52.642,FishGame,2022.1.1,60.07030628335177,
,5,넌 사심이 없어,3,Green,B,4.916666666666666,4.333333333333333,ScrollUp,ScrollDown,Green.png,1,Neutral,Neutral,0,0,0,0,,,,,,,,,,,,,0,4,4,4,,,,,,,,,,,,,,,,,,,,,,,,,,,,,,,,,,,,,,,,,,,,,,,,,,,,,,,,,,,,,,,,,,,,,,,,,,,,,,,,,,,,,2,2.325858199998038,214.56739010001183,None,ScrollUp,정답입니다,214.56739010001183,None,214.56739010001183,None,214.56739010001183,None,214.56739010001183,None,216.65694499999518,None,216.65694499999518,217.16264759999467,,,,,,,,,,,,,,,,113,2022-05-04_12h05.52.642,FishGame,2022.1.1,60.07030628335177,
,6,넌 헤퍼,5,Orange,A,2.458333333333334,2.233333333333333,ScrollDown,ScrollUp,Orange.png,1,Negative,Incongruent,0,0,0,0,,,,,,,,,,,,,0,5,5,5,,,,,,,,,,,,,,,,,,,,,,,,,,,,,,,,,,,,,,,,,,,,,,,,,,,,,,,,,,,,,,,,,,,,,,,,,,,,,,,,,,,,,1,2.063840299990261,218.00417190001463,None,ScrollDown,정답입니다,218.00417190001463,None,218.00417190001463,None,218.00417190001463,None,218.00417190001463,None,219.80700339999748,None,219.80700339999748,220.31272360001458,,,,,,,,,,,,,,,,113,2022-05-04_12h05.52.642,FishGame,2022.1.1,60.07030628335177,
,7,넌 말쑥해,3,Orange,A,4.833333333333334,4.333333333333333,ScrollDown,ScrollUp,Orange.png,1,Neutral,Neutral,0,0,0,0,,,,,,,,,,,,,0,6,6,6,,,,,,,,,,,,,,,,,,,,,,,,,,,,,,,,,,,,,,,,,,,,,,,,,,,,,,,,,,,,,,,,,,,,,,,,,,,,,,,,,,,,,1,1.6676202999951784,221.16518750000978,None,ScrollDown,정답입니다,221.16518750000978,None,221.16518750000978,None,221.16518750000978,None,221.16518750000978,None,222.56386930000735,None,222.56386930000735,223.0628803000145,,,,,,,,,,,,,,,,113,2022-05-04_12h05.52.642,FishGame,2022.1.1,60.07030628335177,
,8,넌 투덜거려,5,Green,B,2.541666666666667,2.266666666666667,ScrollUp,ScrollDown,Green.png,1,Negative,Congruent,0,0,0,0,,,,,,,,,,,,,0,7,7,7,,,,,,,,,,,,,,,,,,,,,,,,,,,,,,,,,,,,,,,,,,,,,,,,,,,,,,,,,,,,,,,,,,,,,,,,,,,,,,,,,,,,,2,1.7926319999969564,223.8786536999978,None,ScrollUp,정답입니다,223.8786536999978,None,223.8786536999978,None,223.8786536999978,None,223.8786536999978,None,225.4416378000169,None,225.4416378000169,225.94623620001948,,,,,,,,,,,,,,,,113,2022-05-04_12h05.52.642,FishGame,2022.1.1,60.07030628335177,
,9,넌 적극적이야,1,Orange,A,5.708333333333333,5.533333333333333,ScrollDown,ScrollUp,Orange.png,1,Positive,Congruent,0,0,0,0,,,,,,,,,,,,,0,8,8,8,,,,,,,,,,,,,,,,,,,,,,,,,,,,,,,,,,,,,,,,,,,,,,,,,,,,,,,,,,,,,,,,,,,,,,,,,,,,,,,,,,,,,1,1.591848400013987,226.7676268000214,None,ScrollDown,정답입니다,226.7676268000214,None,226.7676268000214,None,226.7676268000214,None,226.7676268000214,None,228.12479960001656,None,228.12479960001656,228.62996879999992,,,,,,,,,,,,,,,,113,2022-05-04_12h05.52.642,FishGame,2022.1.1,60.07030628335177,
,10,넌 재미없어,4,Green,B,2.625,2.966666666666667,ScrollUp,ScrollDown,Green.png,1,Negative,Congruent,0,0,0,0,,,,,,,,,,,,,0,9,9,9,,,,,,,,,,,,,,,,,,,,,,,,,,,,,,,,,,,,,,,,,,,,,,,,,,,,,,,,,,,,,,,,,,,,,,,,,,,,,,,,,,,,,2,1.8624354000203311,229.43895450001583,None,ScrollUp,정답입니다,229.43895450001583,None,229.43895450001583,None,229.43895450001583,None,229.43895450001583,None,231.06942290000734,None,231.06942290000734,231.5795827000111,,,,,,,,,,,,,,,,113,2022-05-04_12h05.52.642,FishGame,2022.1.1,60.07030628335177,
,11,넌 명석해,2,Orange,A,5.875,4.033333333333333,ScrollDown,ScrollUp,Orange.png,1,Positive,Congruent,0,0,0,0,,,,,,,,,,,,,0,10,10,10,,,,,,,,,,,,,,,,,,,,,,,,,,,,,,,,,,,,,,,,,,,,,,,,,,,,,,,,,,,,,,,,,,,,,,,,,,,,,,,,,,,,,1,1.824904700013576,232.4270877999952,None,ScrollDown,정답입니다,232.4270877999952,None,232.4270877999952,None,232.4270877999952,None,232.4270877999952,None,233.9875871000113,None,233.9875871000113,234.49678849999327,,,,,,,,,,,,,,,,113,2022-05-04_12h05.52.642,FishGame,2022.1.1,60.07030628335177,
,12,나를 데려가줘,6,Green,B,0,0,ScrollDown,ScrollUp,Green.png,1,NonTarget,NonTarget,0,0,0,0,,,,,,,,,,,,,0,11,11,11,,,,,,,,,,,,,,,,,,,,,,,,,,,,,,,,,,,,,,,,,,,,,,,,,,,,,,,,,,,,,,,,,,,,,,,,,,,,,,,,,,,,,1,2.0278545999899507,235.29684660001658,None,ScrollDown,정답입니다,235.29684660001658,None,235.29684660001658,None,235.29684660001658,None,235.29684660001658,None,237.1096424999996,None,237.1096424999996,237.61332490001223,,,,,,,,,,,,,,,,113,2022-05-04_12h05.52.642,FishGame,2022.1.1,60.07030628335177,
,13,넌 소심해,4,Orange,A,3,3.1,ScrollDown,ScrollUp,Orange.png,1,Negative,Incongruent,0,0,0,0,,,,,,,,,,,,,0,12,12,12,,,,,,,,,,,,,,,,,,,,,,,,,,,,,,,,,,,,,,,,,,,,,,,,,,,,,,,,,,,,,,,,,,,,,,,,,,,,,,,,,,,,,1,2.2732870999898296,238.41817360001733,None,ScrollDown,정답입니다,238.41817360001733,None,238.41817360001733,None,238.41817360001733,None,238.41817360001733,None,240.46845960000064,None,240.46845960000064,240.98006010000245,,,,,,,,,,,,,,,,113,2022-05-04_12h05.52.642,FishGame,2022.1.1,60.07030628335177,
,14,넌 합리적이야,2,Orange,A,5.583333333333333,4.733333333333333,ScrollDown,ScrollUp,Orange.png,1,Positive,Congruent,0,0,0,0,,,,,,,,,,,,,0,13,13,13,,,,,,,,,,,,,,,,,,,,,,,,,,,,,,,,,,,,,,,,,,,,,,,,,,,,,,,,,,,,,,,,,,,,,,,,,,,,,,,,,,,,,1,1.5776584999985062,241.82988600002136,None,ScrollDown,정답입니다,241.82988600002136,None,241.82988600002136,None,241.82988600002136,None,241.82988600002136,None,243.14164050002,None,243.14164050002,243.6464655000018,,,,,,,,,,,,,,,,113,2022-05-04_12h05.52.642,FishGame,2022.1.1,60.07030628335177,
,15,넌 무자비해,5,Green,B,2.333333333333333,2.1,ScrollUp,ScrollDown,Green.png,1,Negative,Congruent,0,0,0,0,,,,,,,,,,,,,0,14,14,14,,,,,,,,,,,,,,,,,,,,,,,,,,,,,,,,,,,,,,,,,,,,,,,,,,,,,,,,,,,,,,,,,,,,,,,,,,,,,,,,,,,,,2,1.749887799989665,244.4554093000188,None,ScrollUp,정답입니다,244.4554093000188,None,244.4554093000188,None,244.4554093000188,None,244.4554093000188,None,245.97944950000965,None,245.97944950000965,246.47995249999803,,,,,,,,,,,,,,,,113,2022-05-04_12h05.52.642,FishGame,2022.1.1,60.07030628335177,
,16,나를 보내줘,6,Orange,A,0,0,ScrollUp,ScrollDown,Orange.png,1,NonTarget,NonTarget,0,0,0,0,,,,,,,,,,,,,0,15,15,15,,,,,,,,,,,,,,,,,,,,,,,,,,,,,,,,,,,,,,,,,,,,,,,,,,,,,,,,,,,,,,,,,,,,,,,,,,,,,,,,,,,,,2,1.7537717000232078,247.33393610001076,None,ScrollUp,정답입니다,247.33393610001076,None,247.33393610001076,None,247.33393610001076,None,247.33393610001076,None,248.8172766000207,None,248.8172766000207,249.33004180001444,,,,,,,,,,,,,,,,113,2022-05-04_12h05.52.642,FishGame,2022.1.1,60.07030628335177,
,17,넌 현실적이야,3,Green,B,4.608695652173913,4.766666666666667,ScrollUp,ScrollDown,Green.png,1,Neutral,Neutral,0,0,0,0,,,,,,,,,,,,,0,16,16,16,,,,,,,,,,,,,,,,,,,,,,,,,,,,,,,,,,,,,,,,,,,,,,,,,,,,,,,,,,,,,,,,,,,,,,,,,,,,,,,,,,,,,2,1.7319221000070684,250.13616100000218,None,ScrollUp,정답입니다,250.13616100000218,None,250.13616100000218,None,250.13616100000218,None,250.13616100000218,None,251.6458218000189,None,251.6458218000189,252.14664280001307,,,,,,,,,,,,,,,,113,2022-05-04_12h05.52.642,FishGame,2022.1.1,60.07030628335177,
,18,넌 의리있어,1,Green,B,5.833333333333334,5.633333333333334,ScrollUp,ScrollDown,Green.png,1,Positive,Incongruent,0,0,0,0,,,,,,,,,,,,,0,17,17,17,,,,,,,,,,,,,,,,,,,,,,,,,,,,,,,,,,,,,,,,,,,,,,,,,,,,,,,,,,,,,,,,,,,,,,,,,,,,,,,,,,,,,2,1.724313999991864,252.9689686000056,None,ScrollUp,정답입니다,252.9689686000056,None,252.9689686000056,None,252.9689686000056,None,252.9689686000056,None,254.46012550001615,None,254.46012550001615,254.96341850000317,,,,,,,,,,,,,,,,113,2022-05-04_12h05.52.642,FishGame,2022.1.1,60.07030628335177,
,19,넌 신경과민이야,5,Orange,A,2.541666666666667,2.166666666666667,ScrollDown,ScrollUp,Orange.png,1,Negative,Incongruent,0,0,0,0,,,,,,,,,,,,,0,18,18,18,,,,,,,,,,,,,,,,,,,,,,,,,,,,,,,,,,,,,,,,,,,,,,,,,,,,,,,,,,,,,,,,,,,,,,,,,,,,,,,,,,,,,1,1.7451931000105105,255.83198300001095,None,ScrollDown,정답입니다,255.83198300001095,None,255.83198300001095,None,255.83198300001095,None,255.83198300001095,None,257.2929706000141,None,257.2929706000141,257.7971461999987,,,,,,,,,,,,,,,,113,2022-05-04_12h05.52.642,FishGame,2022.1.1,60.07030628335177,
,20,넌 편안해,1,Orange,A,5.916666666666666,5.866666666666666,ScrollDown,ScrollUp,Orange.png,1,Positive,Congruent,0,0,0,0,,,,,,,,,,,,,0,19,19,19,,,,,,,,,,,,,,,,,,,,,,,,,,,,,,,,,,,,,,,,,,,,,,,,,,,,,,,,,,,,,,,,,,,,,,,,,,,,,,,,,,,,,1,1.4316428000165615,258.6288327999937,None,ScrollDown,정답입니다,258.6288327999937,None,258.6288327999937,None,258.6288327999937,None,258.6288327999937,None,259.81548320001457,None,259.81548320001457,260.33028960000956,,,,,,,,,,,,,,,,113,2022-05-04_12h05.52.642,FishGame,2022.1.1,60.07030628335177,
,21,넌 품위있어,2,Green,B,5.291666666666666,4.466666666666667,ScrollUp,ScrollDown,Green.png,1,Positive,Incongruent,0,0,0,0,,,,,,,,,,,,,0,20,20,20,,,,,,,,,,,,,,,,,,,,,,,,,,,,,,,,,,,,,,,,,,,,,,,,,,,,,,,,,,,,,,,,,,,,,,,,,,,,,,,,,,,,,1.9182098805904388,1.8981776000000536,261.12399389999337,None,ScrollUp,정답입니다,261.12399389999337,None,261.12399389999337,None,261.12399389999337,None,261.12399389999337,None,262.81227320001926,None,262.81227320001926,263.3136852000025,,,,,,,,,,,,,,,,113,2022-05-04_12h05.52.642,FishGame,2022.1.1,60.07030628335177,
,22,넌 빈틈없어,3,Orange,A,4.833333333333333,3.966666666666667,ScrollDown,ScrollUp,Orange.png,1,Neutral,Neutral,0,0,0,0,,,,,,,,,,,,,0,21,21,21,,,,,,,,,,,,,,,,,,,,,,,,,,,,,,,,,,,,,,,,,,,,,,,,,,,,,,,,,,,,,,,,,,,,,,,,,,,,,,,,,,,,,1,1.675725600012811,264.1689819000021,None,ScrollDown,정답입니다,264.1689819000021,None,264.1689819000021,None,264.1689819000021,None,264.1689819000021,None,265.5775877000124,None,265.5775877000124,266.08047360001365,,,,,,,,,,,,,,,,113,2022-05-04_12h05.52.642,FishGame,2022.1.1,60.07030628335177,
,23,넌 상상력없어,4,Green,B,2.833333333333333,3.133333333333333,ScrollUp,ScrollDown,Green.png,1,Negative,Congruent,0,0,0,0,,,,,,,,,,,,,0,22,22,22,,,,,,,,,,,,,,,,,,,,,,,,,,,,,,,,,,,,,,,,,,,,,,,,,,,,,,,,,,,,,,,,,,,,,,,,,,,,,,,,,,,,,2,1.7575923999829683,266.8916113000014,None,ScrollUp,정답입니다,266.8916113000014,None,266.8916113000014,None,266.8916113000014,None,266.8916113000014,None,268.42008320000605,None,268.42008320000605,268.93052950000856,,,,,,,,,,,,,,,,113,2022-05-04_12h05.52.642,FishGame,2022.1.1,60.07030628335177,
,24,넌 지혜로워,2,Green,B,6.333333333333334,4.633333333333334,ScrollUp,ScrollDown,Green.png,1,Positive,Incongruent,0,0,0,0,,,,,,,,,,,,,0,23,23,23,,,,,,,,,,,,,,,,,,,,,,,,,,,,,,,,,,,,,,,,,,,,,,,,,,,,,,,,,,,,,,,,,,,,,,,,,,,,,,,,,,,,,1.9567901293436687,1.7965350000013132,269.7363913000154,None,ScrollUp,정답입니다,269.7363913000154,None,269.7363913000154,None,269.7363913000154,None,269.7363913000154,None,271.29332080000313,None,271.29332080000313,271.79736180001055,,,,,,,,,,,,,,,,113,2022-05-04_12h05.52.642,FishGame,2022.1.1,60.07030628335177,
,25,넌 시끄러워,4,Orange,A,2.833333333333333,3.033333333333333,ScrollDown,ScrollUp,Orange.png,1,Negative,Incongruent,0,0,0,0,,,,,,,,,,,,,0,24,24,24,,,,,,,,,,,,,,,,,,,,,,,,,,,,,,,,,,,,,,,,,,,,,,,,,,,,,,,,,,,,,,,,,,,,,,,,,,,,,,,,,,,,,1,1.5529332000005525,272.6152677999926,None,ScrollDown,정답입니다,272.6152677999926,None,272.6152677999926,None,272.6152677999926,None,272.6152677999926,None,273.9281649000186,None,273.9281649000186,274.43077219999395,,,,,,,,,,,,,,,,113,2022-05-04_12h05.52.642,FishGame,2022.1.1,60.07030628335177,
,26,넌 만사태평이야,3,Green,B,4,4.333333333333333,ScrollUp,ScrollDown,Green.png,1,Neutral,Neutral,0,0,0,0,,,,,,,,,,,,,0,25,25,25,,,,,,,,,,,,,,,,,,,,,,,,,,,,,,,,,,,,,,,,,,,,,,,,,,,,,,,,,,,,,,,,,,,,,,,,,,,,,,,,,,,,,2,1.813949400006095,275.248674500006,None,ScrollUp,정답입니다,275.248674500006,None,275.248674500006,None,275.248674500006,None,275.248674500006,None,276.82792800001334,None,276.82792800001334,277.33074400000623,,,,,,,,,,,,,,,,113,2022-05-04_12h05.52.642,FishGame,2022.1.1,60.07030628335177,
,27,넌 붙임성있어,1,Orange,A,5.708333333333333,5.633333333333334,ScrollDown,ScrollUp,Orange.png,1,Positive,Congruent,0,0,0,0,,,,,,,,,,,,,0,26,26,26,,,,,,,,,,,,,,,,,,,,,,,,,,,,,,,,,,,,,,,,,,,,,,,,,,,,,,,,,,,,,,,,,,,,,,,,,,,,,,,,,,,,,1.200617293516795,1.427304999990156,278.19388160001836,None,ScrollDown,정답입니다,278.19388160001836,None,278.19388160001836,None,278.19388160001836,None,278.19388160001836,None,279.34383729999536,None,279.34383729999536,279.8475446999946,,,,,,,,,,,,,,,,113,2022-05-04_12h05.52.642,FishGame,2022.1.1,60.07030628335177,
,28,넌 영리해,2,Orange,A,6,4.033333333333333,ScrollDown,ScrollUp,Orange.png,1,Positive,Congruent,0,0,0,0,,,,,,,,,,,,,0,27,27,27,,,,,,,,,,,,,,,,,,,,,,,,,,,,,,,,,,,,,,,,,,,,,,,,,,,,,,,,,,,,,,,,,,,,,,,,,,,,,,,,,,,,,1.0015431940555573,1.343301800021436,280.6918641999946,None,ScrollDown,정답입니다,280.6918641999946,None,280.6918641999946,None,280.6918641999946,None,280.6918641999946,None,281.77220999999554,None,281.77220999999554,282.2807734000089,,,,,,,,,,,,,,,,113,2022-05-04_12h05.52.642,FishGame,2022.1.1,60.07030628335177,
,29,넌 열심이야,1,Green,B,6.041666666666667,5.833333333333333,ScrollUp,ScrollDown,Green.png,1,Positive,Incongruent,0,0,0,0,,,,,,,,,,,,,0,28,28,28,,,,,,,,,,,,,,,,,,,,,,,,,,,,,,,,,,,,,,,,,,,,,,,,,,,,,,,,,,,,,,,,,,,,,,,,,,,,,,,,,,,,,2,1.7757888000051025,283.07755149999866,None,ScrollUp,정답입니다,283.07755149999866,None,283.07755149999866,None,283.07755149999866,None,283.07755149999866,None,284.63960650001536,None,284.63960650001536,285.14740560000064,,,,,,,,,,,,,,,,113,2022-05-04_12h05.52.642,FishGame,2022.1.1,60.07030628335177,
,30,넌 인기없어,4,Green,B,3,3.3,ScrollUp,ScrollDown,Green.png,1,Negative,Congruent,0,0,0,0,,,,,,,,,,,,,0,29,29,29,,,,,,,,,,,,,,,,,,,,,,,,,,,,,,,,,,,,,,,,,,,,,,,,,,,,,,,,,,,,,,,,,,,,,,,,,,,,,,,,,,,,,2,1.5955187999934424,285.95981759999995,None,ScrollUp,정답입니다,285.95981759999995,None,285.95981759999995,None,285.95981759999995,None,285.95981759999995,None,287.3059338000021,None,287.3059338000021,287.814211000019,,,,,,,,,,,,,,,,113,2022-05-04_12h05.52.642,FishGame,2022.1.1,60.07030628335177,
,31,넌 익살스러워,3,Orange,A,4.708333333333334,4.833333333333333,ScrollDown,ScrollUp,Orange.png,1,Neutral,Neutral,0,0,0,0,,,,,,,,,,,,,0,30,30,30,,,,,,,,,,,,,,,,,,,,,,,,,,,,,,,,,,,,,,,,,,,,,,,,,,,,,,,,,,,,,,,,,,,,,,,,,,,,,,,,,,,,,1.141975313425064,1.3353415999736171,288.6313466000138,None,ScrollDown,정답입니다,288.6313466000138,None,288.6313466000138,None,288.6313466000138,None,288.6313466000138,None,289.73234149999917,None,289.73234149999917,290.2476278000104,,,,,,,,,,,,,,,,113,2022-05-04_12h05.52.642,FishGame,2022.1.1,60.07030628335177,
,32,넌 이기적이야,5,Green,B,2.291666666666667,2.333333333333333,ScrollUp,ScrollDown,Green.png,1,Negative,Congruent,0,0,0,0,,,,,,,,,,,,,0,31,31,31,,,,,,,,,,,,,,,,,,,,,,,,,,,,,,,,,,,,,,,,,,,,,,,,,,,,,,,,,,,,,,,,,,,,,,,,,,,,,,,,,,,,,2,1.8083246999885887,291.0637747000146,None,ScrollUp,정답입니다,291.0637747000146,None,291.0637747000146,None,291.0637747000146,None,291.0637747000146,None,292.63939850000315,None,292.63939850000315,293.1478887000121,,,,,,,,,,,,,,,,113,2022-05-04_12h05.52.642,FishGame,2022.1.1,60.07030628335177,
,33,나를 데려가줘,6,Green,B,0,0,ScrollDown,ScrollUp,Green.png,1,NonTarget,NonTarget,0,0,0,0,,,,,,,,,,,,,0,32,32,32,,,,,,,,,,,,,,,,,,,,,,,,,,,,,,,,,,,,,,,,,,,,,,,,,,,,,,,,,,,,,,,,,,,,,,,,,,,,,,,,,,,,,1,1.487171099986881,293.9470864000032,None,ScrollDown,정답입니다,293.9470864000032,None,293.9470864000032,None,293.9470864000032,None,293.9470864000032,None,295.2247672000085,None,295.2247672000085,295.7311597999942,,,,,,,,,,,,,,,,113,2022-05-04_12h05.52.642,FishGame,2022.1.1,60.07030628335177,
,34,넌 기회주의자야,5,Orange,A,2.875,2.133333333333333,ScrollDown,ScrollUp,Orange.png,1,Negative,Incongruent,0,0,0,0,,,,,,,,,,,,,0,33,33,33,,,,,,,,,,,,,,,,,,,,,,,,,,,,,,,,,,,,,,,,,,,,,,,,,,,,,,,,,,,,,,,,,,,,,,,,,,,,,,,,,,,,,1,1.7553584999986924,296.55582450001384,None,ScrollDown,정답입니다,296.55582450001384,None,296.55582450001384,None,296.55582450001384,None,296.55582450001384,None,298.07571980002103,None,298.07571980002103,298.58101300001726,,,,,,,,,,,,,,,,113,2022-05-04_12h05.52.642,FishGame,2022.1.1,60.07030628335177,
,1,넌 미성숙해,4,Orange,A,3,3.2,ScrollDown,ScrollUp,Orange.png,2,Negative,Incongruent,0,0,0,0,,,,,,,,,,,,,,,,,0,0,0,0,,,,,,,,,,,,,,,,,,,,,,,,,,,,,,,,,,,,,,,,339.14799910000875,340.64902030001394,340.6819516000105,341.6322153999936,341.6822589999938,342.63208330000634,342.63208330000634,None,,,,,,,,,,,,,,,,,,,,,,,,,,,,,,,,,,1,1.7676990000181831,343.97062070001266,None,ScrollDown,정답입니다,343.97062070001266,None,343.97062070001266,None,343.97062070001266,None,343.97062070001266,None,345.4967292000074,None,345.4967292000074,345.99909349999507,299.09156390000135,None,299.09156390000135,None,0.23703703,-0.075925924,1,0,0,0.014414899982511997,None,329.0863929000043,None,,,113,2022-05-04_12h05.52.642,FishGame,2022.1.1,60.07030628335177,
,2,넌 반사회적이야,5,Green,B,2.416666666666667,2.033333333333333,ScrollUp,ScrollDown,Green.png,2,Negative,Congruent,0,0,0,0,,,,,,,,,,,,,,,,,0,1,1,1,,,,,,,,,,,,,,,,,,,,,,,,,,,,,,,,,,,,,,,,,,,,,,,,,,,,,,,,,,,,,,,,,,,,,,,,,,,,,,,,,1.9012345770994823,1.6792668999987654,346.8131593000144,None,ScrollUp,정답입니다,346.8131593000144,None,346.8131593000144,None,346.8131593000144,None,346.8131593000144,None,348.2631726000109,None,348.2631726000109,348.76562409999315,,,,,,,,,,,,,,,,113,2022-05-04_12h05.52.642,FishGame,2022.1.1,60.07030628335177,
,3,넌 유능해,2,Orange,A,6.208333333333333,4.433333333333334,ScrollDown,ScrollUp,Orange.png,2,Positive,Congruent,0,0,0,0,,,,,,,,,,,,,,,,,0,2,2,2,,,,,,,,,,,,,,,,,,,,,,,,,,,,,,,,,,,,,,,,,,,,,,,,,,,,,,,,,,,,,,,,,,,,,,,,,,,,,,,,,1.1666666616996129,1.307556800020393,349.55957060001674,None,ScrollDown,정답입니다,349.55957060001674,None,349.55957060001674,None,349.55957060001674,None,349.55957060001674,None,350.65709510000306,None,350.65709510000306,351.16550450000796,,,,,,,,,,,,,,,,113,2022-05-04_12h05.52.642,FishGame,2022.1.1,60.07030628335177,
,4,넌 능숙해,2,Green,B,5.666666666666667,4.733333333333333,ScrollUp,ScrollDown,Green.png,2,Positive,Incongruent,0,0,0,0,,,,,,,,,,,,,,,,,0,3,3,3,,,,,,,,,,,,,,,,,,,,,,,,,,,,,,,,,,,,,,,,,,,,,,,,,,,,,,,,,,,,,,,,,,,,,,,,,,,,,,,,,2,1.528070900007151,351.95378770001116,None,ScrollUp,정답입니다,351.95378770001116,None,351.95378770001116,None,351.95378770001116,None,351.95378770001116,None,353.2793331000139,None,353.2793331000139,353.78229380000266,,,,,,,,,,,,,,,,113,2022-05-04_12h05.52.642,FishGame,2022.1.1,60.07030628335177,
,5,넌 진부해,4,Green,B,2.458333333333333,3.166666666666667,ScrollUp,ScrollDown,Green.png,2,Negative,Congruent,0,0,0,0,,,,,,,,,,,,,,,,,0,4,4,4,,,,,,,,,,,,,,,,,,,,,,,,,,,,,,,,,,,,,,,,,,,,,,,,,,,,,,,,,,,,,,,,,,,,,,,,,,,,,,,,,2,1.616194700007327,354.56969220002065,None,ScrollUp,정답입니다,354.56969220002065,None,354.56969220002065,None,354.56969220002065,None,354.56969220002065,None,355.98254230001476,None,355.98254230001476,356.48224270000355,,,,,,,,,,,,,,,,113,2022-05-04_12h05.52.642,FishGame,2022.1.1,60.07030628335177,
,6,나를 보내줘,6,Orange,A,0,0,ScrollUp,ScrollDown,Orange.png,2,NonTarget,NonTarget,0,0,0,0,,,,,,,,,,,,,,,,,0,5,5,5,,,,,,,,,,,,,,,,,,,,,,,,,,,,,,,,,,,,,,,,,,,,,,,,,,,,,,,,,,,,,,,,,,,,,,,,,,,,,,,,,2,1.5680862000153866,357.3244159000169,None,ScrollUp,정답입니다,357.3244159000169,None,357.3244159000169,None,357.3244159000169,None,357.3244159000169,None,358.61878499999875,None,358.61878499999875,359.13250989999506,,,,,,,,,,,,,,,,113,2022-05-04_12h05.52.642,FishGame,2022.1.1,60.07030628335177,
,7,넌 엄격해,3,Orange,A,4.166666666666666,4.1,ScrollDown,ScrollUp,Orange.png,2,Neutral,Neutral,0,0,0,0,,,,,,,,,,,,,,,,,0,6,6,6,,,,,,,,,,,,,,,,,,,,,,,,,,,,,,,,,,,,,,,,,,,,,,,,,,,,,,,,,,,,,,,,,,,,,,,,,,,,,,,,,1.325617286066214,1.3723123999952804,359.9741670000076,None,ScrollDown,정답입니다,359.9741670000076,None,359.9741670000076,None,359.9741670000076,None,359.9741670000076,None,361.09123970000655,None,361.09123970000655,361.59929149999516,,,,,,,,,,,,,,,,113,2022-05-04_12h05.52.642,FishGame,2022.1.1,60.07030628335177,
,8,나를 보내줘,6,Orange,A,0,0,ScrollUp,ScrollDown,Orange.png,2,NonTarget,NonTarget,0,0,0,0,,,,,,,,,,,,,,,,,0,7,7,7,,,,,,,,,,,,,,,,,,,,,,,,,,,,,,,,,,,,,,,,,,,,,,,,,,,,,,,,,,,,,,,,,,,,,,,,,,,,,,,,,1.839506169160207,1.4559812000079546,362.4154153999989,None,ScrollUp,정답입니다,362.4154153999989,None,362.4154153999989,None,362.4154153999989,None,362.4154153999989,None,363.6397974000138,None,363.6397974000138,364.1493174000061,,,,,,,,,,,,,,,,113,2022-05-04_12h05.52.642,FishGame,2022.1.1,60.07030628335177,
,9,넌 대담해,3,Green,B,4.875,4.866666666666666,ScrollUp,ScrollDown,Green.png,2,Neutral,Neutral,0,0,0,0,,,,,,,,,,,,,,,,,0,8,8,8,,,,,,,,,,,,,,,,,,,,,,,,,,,,,,,,,,,,,,,,,,,,,,,,,,,,,,,,,,,,,,,,,,,,,,,,,,,,,,,,,1.8333333383003871,1.5739275999949314,364.89595080001163,None,ScrollUp,정답입니다,364.89595080001163,None,364.89595080001163,None,364.89595080001163,None,364.89595080001163,None,366.30741770000895,None,366.30741770000895,366.81597660001717,,,,,,,,,,,,,,,,113,2022-05-04_12h05.52.642,FishGame,2022.1.1,60.07030628335177,
,10,넌 꾸준해,1,Orange,A,5.916666666666668,5.8,ScrollDown,ScrollUp,Orange.png,2,Positive,Congruent,0,0,0,0,,,,,,,,,,,,,,,,,0,9,9,9,,,,,,,,,,,,,,,,,,,,,,,,,,,,,,,,,,,,,,,,,,,,,,,,,,,,,,,,,,,,,,,,,,,,,,,,,,,,,,,,,1.1728395173947017,1.346585099992808,367.62723939999705,None,ScrollDown,정답입니다,367.62723939999705,None,367.62723939999705,None,367.62723939999705,None,367.62723939999705,None,368.7484891000204,None,368.7484891000204,369.24944650000543,,,,,,,,,,,,,,,,113,2022-05-04_12h05.52.642,FishGame,2022.1.1,60.07030628335177,
,11,나를 데려가줘,6,Green,B,0,0,ScrollDown,ScrollUp,Green.png,2,NonTarget,NonTarget,0,0,0,0,,,,,,,,,,,,,,,,,0,10,10,10,,,,,,,,,,,,,,,,,,,,,,,,,,,,,,,,,,,,,,,,,,,,,,,,,,,,,,,,,,,,,,,,,,,,,,,,,,,,,,,,,1.0740740497907002,1.3960249999945518,370.0715968000004,None,ScrollDown,정답입니다,370.0715968000004,None,370.0715968000004,None,370.0715968000004,None,370.0715968000004,None,371.22389620001195,None,371.22389620001195,371.7325949000078,,,,,,,,,,,,,,,,113,2022-05-04_12h05.52.642,FishGame,2022.1.1,60.07030628335177,
,12,넌 독선적이야,5,Orange,A,2.458333333333333,1.933333333333333,ScrollDown,ScrollUp,Orange.png,2,Negative,Incongruent,0,0,0,0,,,,,,,,,,,,,,,,,0,11,11,11,,,,,,,,,,,,,,,,,,,,,,,,,,,,,,,,,,,,,,,,,,,,,,,,,,,,,,,,,,,,,,,,,,,,,,,,,,,,,,,,,1.0540123681227367,1.2828049999952782,372.52097559999675,None,ScrollDown,정답입니다,372.52097559999675,None,372.52097559999675,None,372.52097559999675,None,372.52097559999675,None,373.59300970000913,None,373.59300970000913,374.0995397999941,,,,,,,,,,,,,,,,113,2022-05-04_12h05.52.642,FishGame,2022.1.1,60.07030628335177,
,13,나를 보내줘,6,Orange,A,0,0,ScrollUp,ScrollDown,Orange.png,2,NonTarget,NonTarget,0,0,0,0,,,,,,,,,,,,,,,,,0,12,12,12,,,,,,,,,,,,,,,,,,,,,,,,,,,,,,,,,,,,,,,,,,,,,,,,,,,,,,,,,,,,,,,,,,,,,,,,,,,,,,,,,1.8672839452823002,1.541311000008136,374.9021902999957,None,ScrollUp,정답입니다,374.9021902999957,None,374.9021902999957,None,374.9021902999957,None,374.9021902999957,None,376.216232900013,None,376.216232900013,376.716002000001,,,,,,,,,,,,,,,,113,2022-05-04_12h05.52.642,FishGame,2022.1.1,60.07030628335177,
,14,넌 책임감있어,1,Green,B,6.347826086956522,6,ScrollUp,ScrollDown,Green.png,2,Positive,Incongruent,0,0,0,0,,,,,,,,,,,,,,,,,0,13,13,13,,,,,,,,,,,,,,,,,,,,,,,,,,,,,,,,,,,,,,,,,,,,,,,,,,,,,,,,,,,,,,,,,,,,,,,,,,,,,,,,,1.8425925970077515,1.491493800014723,377.51666630001273,None,ScrollUp,정답입니다,377.51666630001273,None,377.51666630001273,None,377.51666630001273,None,377.51666630001273,None,378.79686740000034,None,378.79686740000034,379.30046160001075,,,,,,,,,,,,,,,,113,2022-05-04_12h05.52.642,FishGame,2022.1.1,60.07030628335177,
,15,넌 문학적이야,3,Orange,A,4.708333333333334,4.333333333333333,ScrollDown,ScrollUp,Orange.png,2,Neutral,Neutral,0,0,0,0,,,,,,,,,,,,,,,,,0,14,14,14,,,,,,,,,,,,,,,,,,,,,,,,,,,,,,,,,,,,,,,,,,,,,,,,,,,,,,,,,,,,,,,,,,,,,,,,,,,,,,,,,1.060185174147288,1.5659282999986317,380.1426439000061,None,ScrollDown,정답입니다,380.1426439000061,None,380.1426439000061,None,380.1426439000061,None,380.1426439000061,None,381.44949440000346,None,381.44949440000346,381.94975630001863,,,,,,,,,,,,,,,,113,2022-05-04_12h05.52.642,FishGame,2022.1.1,60.07030628335177,
,16,넌 재미있어,1,Green,B,5.875,5.7,ScrollUp,ScrollDown,Green.png,2,Positive,Incongruent,0,0,0,0,,,,,,,,,,,,,,,,,0,15,15,15,,,,,,,,,,,,,,,,,,,,,,,,,,,,,,,,,,,,,,,,,,,,,,,,,,,,,,,,,,,,,,,,,,,,,,,,,,,,,,,,,1.8935185074806213,1.6065462999977171,382.74172499999986,None,ScrollUp,정답입니다,382.74172499999986,None,382.74172499999986,None,382.74172499999986,None,382.74172499999986,None,384.1320857999963,None,384.1320857999963,384.6330692000047,,,,,,,,,,,,,,,,113,2022-05-04_12h05.52.642,FishGame,2022.1.1,60.07030628335177,
,17,나를 데려가줘,6,Green,B,0,0,ScrollDown,ScrollUp,Green.png,2,NonTarget,NonTarget,0,0,0,0,,,,,,,,,,,,,,,,,0,16,16,16,,,,,,,,,,,,,,,,,,,,,,,,,,,,,,,,,,,,,,,,,,,,,,,,,,,,,,,,,,,,,,,,,,,,,,,,,,,,,,,,,1,1.5813280000002123,385.49355370001285,None,ScrollDown,정답입니다,385.49355370001285,None,385.49355370001285,None,385.49355370001285,None,385.49355370001285,None,386.79954599999473,None,386.79954599999473,387.29971000002115,,,,,,,,,,,,,,,,113,2022-05-04_12h05.52.642,FishGame,2022.1.1,60.07030628335177,
,18,넌 협력적이야,1,Orange,A,5.625,5.633333333333334,ScrollDown,ScrollUp,Orange.png,2,Positive,Congruent,0,0,0,0,,,,,,,,,,,,,,,,,0,17,17,17,,,,,,,,,,,,,,,,,,,,,,,,,,,,,,,,,,,,,,,,,,,,,,,,,,,,,,,,,,,,,,,,,,,,,,,,,,,,,,,,,1.2037036965290706,1.2882492000062484,388.1064392999979,None,ScrollDown,정답입니다,388.1064392999979,None,388.1064392999979,None,388.1064392999979,None,388.1064392999979,None,389.1432410000125,None,389.1432410000125,389.65030120001757,,,,,,,,,,,,,,,,113,2022-05-04_12h05.52.642,FishGame,2022.1.1,60.07030628335177,
,19,넌 평범해,3,Green,B,4.333333333333332,4.233333333333333,ScrollUp,ScrollDown,Green.png,2,Neutral,Neutral,0,0,0,0,,,,,,,,,,,,,,,,,0,18,18,18,,,,,,,,,,,,,,,,,,,,,,,,,,,,,,,,,,,,,,,,,,,,,,,,,,,,,,,,,,,,,,,,,,,,,,,,,,,,,,,,,1.8703703731298447,1.663005800015526,390.4553783000156,None,ScrollUp,정답입니다,390.4553783000156,None,390.4553783000156,None,390.4553783000156,None,390.4553783000156,None,391.8975892000017,None,391.8975892000017,392.4001879999996,,,,,,,,,,,,,,,,113,2022-05-04_12h05.52.642,FishGame,2022.1.1,60.07030628335177,
,20,넌 오만해,5,Orange,A,2.333333333333333,2,ScrollDown,ScrollUp,Orange.png,2,Negative,Incongruent,0,0,0,0,,,,,,,,,,,,,,,,,0,19,19,19,,,,,,,,,,,,,,,,,,,,,,,,,,,,,,,,,,,,,,,,,,,,,,,,,,,,,,,,,,,,,,,,,,,,,,,,,,,,,,,,,1,1.242707600002177,393.1925029999984,None,ScrollDown,정답입니다,393.1925029999984,None,393.1925029999984,None,393.1925029999984,None,393.1925029999984,None,394.2283961000212,None,394.2283961000212,394.7332006999932,,,,,,,,,,,,,,,,113,2022-05-04_12h05.52.642,FishGame,2022.1.1,60.07030628335177,
,21,넌 운이없어,4,Green,B,3,3.466666666666667,ScrollUp,ScrollDown,Green.png,2,Negative,Congruent,0,0,0,0,,,,,,,,,,,,,,,,,0,20,20,20,,,,,,,,,,,,,,,,,,,,,,,,,,,,,,,,,,,,,,,,,,,,,,,,,,,,,,,,,,,,,,,,,,,,,,,,,,,,,,,,,2,1.8497177000099327,395.5387991000025,None,ScrollUp,정답입니다,395.5387991000025,None,395.5387991000025,None,395.5387991000025,None,395.5387991000025,None,397.1701234000211,None,397.1701234000211,397.68320990001666,,,,,,,,,,,,,,,,113,2022-05-04_12h05.52.642,FishGame,2022.1.1,60.07030628335177,
,22,넌 창조적이야,2,Green,B,6.125,4.633333333333334,ScrollUp,ScrollDown,Green.png,2,Positive,Incongruent,0,0,0,0,,,,,,,,,,,,,,,,,0,21,21,21,,,,,,,,,,,,,,,,,,,,,,,,,,,,,,,,,,,,,,,,,,,,,,,,,,,,,,,,,,,,,,,,,,,,,,,,,,,,,,,,,1.9336419701576233,1.4105044000025373,398.58749050000915,None,ScrollUp,정답입니다,398.58749050000915,None,398.58749050000915,None,398.58749050000915,None,398.58749050000915,None,399.6684823000105,None,399.6684823000105,400.1833561999956,,,,,,,,,,,,,,,,113,2022-05-04_12h05.52.642,FishGame,2022.1.1,60.07030628335177,
,23,나를 보내줘,6,Orange,A,0,0,ScrollUp,ScrollDown,Orange.png,2,NonTarget,NonTarget,0,0,0,0,,,,,,,,,,,,,,,,,0,22,22,22,,,,,,,,,,,,,,,,,,,,,,,,,,,,,,,,,,,,,,,,,,,,,,,,,,,,,,,,,,,,,,,,,,,,,,,,,,,,,,,,,2,1.6340644000156317,401.0500946000102,None,ScrollUp,정답입니다,401.0500946000102,None,401.0500946000102,None,401.0500946000102,None,401.0500946000102,None,402.4008751999936,None,402.4008751999936,402.9000489000173,,,,,,,,,,,,,,,,113,2022-05-04_12h05.52.642,FishGame,2022.1.1,60.07030628335177,
,24,넌 통찰력있어,2,Orange,A,6.5,4.8,ScrollDown,ScrollUp,Orange.png,2,Positive,Congruent,0,0,0,0,,,,,,,,,,,,,,,,,0,23,23,23,,,,,,,,,,,,,,,,,,,,,,,,,,,,,,,,,,,,,,,,,,,,,,,,,,,,,,,,,,,,,,,,,,,,,,,,,,,,,,,,,1,1.2896360000013374,403.72010970002157,None,ScrollDown,정답입니다,403.72010970002157,None,403.72010970002157,None,403.72010970002157,None,403.72010970002157,None,404.88781119999476,None,404.88781119999476,405.41130000000703,,,,,,,,,,,,,,,,113,2022-05-04_12h05.52.642,FishGame,2022.1.1,60.07030628335177,
,25,넌 경솔해,5,Green,B,2.458333333333333,2.266666666666667,ScrollUp,ScrollDown,Green.png,2,Negative,Congruent,0,0,0,0,,,,,,,,,,,,,,,,,0,24,24,24,,,,,,,,,,,,,,,,,,,,,,,,,,,,,,,,,,,,,,,,,,,,,,,,,,,,,,,,,,,,,,,,,,,,,,,,,,,,,,,,,1.9413580397764842,3.9556115999876056,406.1313094999932,None,ScrollUp,정답입니다,406.1313094999932,None,406.1313094999932,None,406.1313094999932,None,406.1313094999932,None,409.9193856000202,None,409.9193856000202,410.43353800001205,,,,,,,,,,,,,,,,113,2022-05-04_12h05.52.642,FishGame,2022.1.1,60.07030628335177,
,26,넌 초조해,4,Orange,A,2.916666666666667,3.133333333333333,ScrollDown,ScrollUp,Orange.png,2,Negative,Incongruent,0,0,0,0,,,,,,,,,,,,,,,,,0,25,25,25,,,,,,,,,,,,,,,,,,,,,,,,,,,,,,,,,,,,,,,,,,,,,,,,,,,,,,,,,,,,,,,,,,,,,,,,,,,,,,,,,1,4.943717200018,411.28286540001864,None,ScrollDown,정답입니다,411.28286540001864,None,411.28286540001864,None,411.28286540001864,None,411.28286540001864,None,415.95351190000656,None,415.95351190000656,416.4670458000037,,,,,,,,,,,,,,,,113,2022-05-04_12h05.52.642,FishGame,2022.1.1,60.07030628335177,
,27,넌 무관심해,4,Green,B,2.833333333333333,2.9,ScrollUp,ScrollDown,Green.png,2,Negative,Congruent,0,0,0,0,,,,,,,,,,,,,,,,,0,26,26,26,,,,,,,,,,,,,,,,,,,,,,,,,,,,,,,,,,,,,,,,,,,,,,,,,,,,,,,,,,,,,,,,,,,,,,,,,,,,,,,,,1.6512345671653748,3.349560200003907,417.2935441000154,None,ScrollUp,정답입니다,417.2935441000154,None,417.2935441000154,None,417.2935441000154,None,417.2935441000154,None,420.39912450002157,None,420.39912450002157,420.90043860001606,,,,,,,,,,,,,,,,113,2022-05-04_12h05.52.642,FishGame,2022.1.1,60.07030628335177,
,28,넌 감성적이야,3,Green,B,4.125,4.166666666666667,ScrollUp,ScrollDown,Green.png,2,Neutral,Neutral,0,0,0,0,,,,,,,,,,,,,,,,,0,27,27,27,,,,,,,,,,,,,,,,,,,,,,,,,,,,,,,,,,,,,,,,,,,,,,,,,,,,,,,,,,,,,,,,,,,,,,,,,,,,,,,,,1.9737654328346252,3.305017900012899,421.77183430001605,None,ScrollUp,정답입니다,421.77183430001605,None,421.77183430001605,None,421.77183430001605,None,421.77183430001605,None,424.9228551000124,None,424.9228551000124,425.4322672999988,,,,,,,,,,,,,,,,113,2022-05-04_12h05.52.642,FishGame,2022.1.1,60.07030628335177,
,29,넌 배려심있어,1,Orange,A,6.083333333333333,5.5,ScrollDown,ScrollUp,Orange.png,2,Positive,Congruent,0,0,0,0,,,,,,,,,,,,,,,,,0,28,28,28,,,,,,,,,,,,,,,,,,,,,,,,,,,,,,,,,,,,,,,,,,,,,,,,,,,,,,,,,,,,,,,,,,,,,,,,,,,,,,,,,1.0879629751046498,1.4552797000214923,426.1054400000139,None,ScrollDown,정답입니다,426.1054400000139,None,426.1054400000139,None,426.1054400000139,None,426.1054400000139,None,427.4157077000127,None,427.4157077000127,427.91559449999477,,,,,,,,,,,,,,,,113,2022-05-04_12h05.52.642,FishGame,2022.1.1,60.07030628335177,
,30,넌 숨김없어,3,Orange,A,4.5,4.933333333333334,ScrollDown,ScrollUp,Orange.png,2,Neutral,Neutral,0,0,0,0,,,,,,,,,,,,,,,,,0,29,29,29,,,,,,,,,,,,,,,,,,,,,,,,,,,,,,,,,,,,,,,,,,,,,,,,,,,,,,,,,,,,,,,,,,,,,,,,,,,,,,,,,1.1111111094554265,1.2743798000155948,428.58083710001665,None,ScrollDown,정답입니다,428.58083710001665,None,428.58083710001665,None,428.58083710001665,None,428.58083710001665,None,429.7155965999991,None,429.7155965999991,430.2164189000032,,,,,,,,,,,,,,,,113,2022-05-04_12h05.52.642,FishGame,2022.1.1,60.07030628335177,
,31,넌 훌륭해,2,Green,B,5.916666666666667,4.033333333333333,ScrollUp,ScrollDown,Green.png,2,Positive,Incongruent,0,0,0,0,,,,,,,,,,,,,,,,,0,30,30,30,,,,,,,,,,,,,,,,,,,,,,,,,,,,,,,,,,,,,,,,,,,,,,,,,,,,,,,,,,,,,,,,,,,,,,,,,,,,,,,,,2,1.2048351999837905,430.86622050000005,None,ScrollUp,정답입니다,430.86622050000005,None,430.86622050000005,None,430.86622050000005,None,430.86622050000005,None,431.9476491000096,None,431.9476491000096,432.45016500001657,,,,,,,,,,,,,,,,113,2022-05-04_12h05.52.642,FishGame,2022.1.1,60.07030628335177,
,32,넌 슬기로워,2,Orange,A,6.166666666666667,4.1,ScrollDown,ScrollUp,Orange.png,2,Positive,Congruent,0,0,0,0,,,,,,,,,,,,,,,,,0,31,31,31,,,,,,,,,,,,,,,,,,,,,,,,,,,,,,,,,,,,,,,,,,,,,,,,,,,,,,,,,,,,,,,,,,,,,,,,,,,,,,,,,1,1.0782731999934185,433.0797483000206,None,ScrollDown,정답입니다,433.0797483000206,None,433.0797483000206,None,433.0797483000206,None,433.0797483000206,None,434.0461069000012,None,434.0461069000012,434.54964169999585,,,,,,,,,,,,,,,,113,2022-05-04_12h05.52.642,FishGame,2022.1.1,60.07030628335177,
,33,넌 냉혹해,5,Orange,A,2.583333333333333,2.1,ScrollDown,ScrollUp,Orange.png,2,Negative,Incongruent,0,0,0,0,,,,,,,,,,,,,,,,,0,32,32,32,,,,,,,,,,,,,,,,,,,,,,,,,,,,,,,,,,,,,,,,,,,,,,,,,,,,,,,,,,,,,,,,,,,,,,,,,,,,,,,,,1.0833333333333333,1.0864743999845814,435.1886691999971,None,ScrollDown,정답입니다,435.1886691999971,None,435.1886691999971,None,435.1886691999971,None,435.1886691999971,None,436.1644410000008,None,436.1644410000008,436.66609440001776,,,,,,,,,,,,,,,,113,2022-05-04_12h05.52.642,FishGame,2022.1.1,60.07030628335177,
,34,나를 데려가줘,6,Green,B,0,0,ScrollDown,ScrollUp,Green.png,2,NonTarget,NonTarget,0,0,0,0,,,,,,,,,,,,,,,,,0,33,33,33,,,,,,,,,,,,,,,,,,,,,,,,,,,,,,,,,,,,,,,,,,,,,,,,,,,,,,,,,,,,,,,,,,,,,,,,,,,,,,,,,1,1.1527451000001747,437.30153810000047,None,ScrollDown,정답입니다,437.30153810000047,None,437.30153810000047,None,437.30153810000047,None,437.30153810000047,None,438.347952000011,None,438.347952000011,438.8497154000215,,,,,,,,,,,,,,,,113,2022-05-04_12h05.52.642,FishGame,2022.1.1,60.07030628335177,
,35,넌 편파적이야,5,Green,B,2.125,2,ScrollUp,ScrollDown,Green.png,2,Negative,Congruent,0,0,0,0,,,,,,,,,,,,,,,,,0,34,34,34,,,,,,,,,,,,,,,,,,,,,,,,,,,,,,,,,,,,,,,,,,,,,,,,,,,,,,,,,,,,,,,,,,,,,,,,,,,,,,,,,1.7577160547176998,1.2036909999733325,439.48363279999467,None,ScrollUp,정답입니다,439.48363279999467,None,439.48363279999467,None,439.48363279999467,None,439.48363279999467,None,440.5811212999979,None,440.5811212999979,441.0829469000164,,,,,,,,,,,,,,,,113,2022-05-04_12h05.52.642,FishGame,2022.1.1,60.07030628335177,
,36,넌 슬퍼,4,Orange,A,2.583333333333333,3.066666666666667,ScrollDown,ScrollUp,Orange.png,2,Negative,Incongruent,0,0,0,0,,,,,,,,,,,,,,,,,0,35,35,35,,,,,,,,,,,,,,,,,,,,,,,,,,,,,,,,,,,,,,,,,,,,,,,,,,,,,,,,,,,,,,,,,,,,,,,,,,,,,,,,,1.2438271592060726,0.9426938999968115,441.71276840000064,None,ScrollDown,정답입니다,441.71276840000064,None,441.71276840000064,None,441.71276840000064,None,441.71276840000064,None,442.546457599994,None,442.546457599994,443.0497757999983,,,,,,,,,,,,,,,,113,2022-05-04_12h05.52.642,FishGame,2022.1.1,60.07030628335177,
,37,나를 데려가줘,6,Green,B,0,0,ScrollDown,ScrollUp,Green.png,2,NonTarget,NonTarget,0,0,0,0,,,,,,,,,,,,,,,,,0,36,36,36,,,,,,,,,,,,,,,,,,,,,,,,,,,,,,,,,,,,,,,,,,,,,,,,,,,,,,,,,,,,,,,,,,,,,,,,,,,,,,,,,1.233024686574936,1.0387309000070672,443.6765954000002,None,ScrollDown,정답입니다,443.6765954000002,None,443.6765954000002,None,443.6765954000002,None,443.6765954000002,None,444.614269600017,None,444.614269600017,445.1164850000059,,,,,,,,,,,,,,,,113,2022-05-04_12h05.52.642,FishGame,2022.1.1,60.07030628335177,
,38,넌 친절해,1,Green,B,6.041666666666667,5.533333333333333,ScrollUp,ScrollDown,Green.png,2,Positive,Incongruent,0,0,0,0,,,,,,,,,,,,,,,,,0,37,37,37,,,,,,,,,,,,,,,,,,,,,,,,,,,,,,,,,,,,,,,,,,,,,,,,,,,,,,,,,,,,,,,,,,,,,,,,,,,,,,,,,1.8348765522241592,1.3082302000257187,445.75094500000705,None,ScrollUp,정답입니다,445.75094500000705,None,445.75094500000705,None,445.75094500000705,None,445.75094500000705,None,446.9494271000149,None,446.9494271000149,447.4498671000183,,,,,,,,,,,,,,,,113,2022-05-04_12h05.52.642,FishGame,2022.1.1,60.07030628335177,
,1,넌 엉성해,4,Orange,A,3,3.3,ScrollDown,ScrollUp,Orange.png,3,Negative,Incongruent,0,0,0,0,,,,,,,,,,,,,,,,,,,,,0,0,0,0,,,,,,,,,,,,,,,,,,,,,,,,,,,,,,,,,,,,483.75078980001854,485.25109219999285,485.2842416000203,486.2341068999958,486.28368160000537,487.2336985000002,487.2336985000002,None,,,,,,,,,,,,,,,,,,,,,,,,,,,,,,,,,,1.1296296268701553,1.563665099994978,488.3925711000047,None,ScrollDown,정답입니다,488.3925711000047,None,488.3925711000047,None,488.3925711000047,None,488.3925711000047,None,489.78867510001874,None,489.78867510001874,490.30066310000257,447.9499996000086,None,447.9499996000086,None,0.23888889,-0.09537037,1,0,0,0.015887800051132217,None,477.95013610000024,None,,,113,2022-05-04_12h05.52.642,FishGame,2022.1.1,60.07030628335177,
,2,나를 보내줘,6,Orange,A,0,0,ScrollUp,ScrollDown,Orange.png,3,NonTarget,NonTarget,0,0,0,0,,,,,,,,,,,,,,,,,,,,,0,1,1,1,,,,,,,,,,,,,,,,,,,,,,,,,,,,,,,,,,,,,,,,,,,,,,,,,,,,,,,,,,,,,,,,,,,,,,,,,,,,,2,1.3357542999729048,490.9281522000092,None,ScrollUp,정답입니다,490.9281522000092,None,490.9281522000092,None,490.9281522000092,None,490.9281522000092,None,492.15560850000475,None,492.15560850000475,492.66789820001577,,,,,,,,,,,,,,,,113,2022-05-04_12h05.52.642,FishGame,2022.1.1,60.07030628335177,
,3,넌 활발해,1,Green,B,5.666666666666667,5.6,ScrollUp,ScrollDown,Green.png,3,Positive,Incongruent,0,0,0,0,,,,,,,,,,,,,,,,,,,,,0,2,2,2,,,,,,,,,,,,,,,,,,,,,,,,,,,,,,,,,,,,,,,,,,,,,,,,,,,,,,,,,,,,,,,,,,,,,,,,,,,,,2,1.3098437000007834,493.3006022000045,None,ScrollUp,정답입니다,493.3006022000045,None,493.3006022000045,None,493.3006022000045,None,493.3006022000045,None,494.5009904000035,None,494.5009904000035,495.0009250000003,,,,,,,,,,,,,,,,113,2022-05-04_12h05.52.642,FishGame,2022.1.1,60.07030628335177,
,4,넌 논리적이야,2,Orange,A,5.666666666666666,4.633333333333334,ScrollDown,ScrollUp,Orange.png,3,Positive,Congruent,0,0,0,0,,,,,,,,,,,,,,,,,,,,,0,3,3,3,,,,,,,,,,,,,,,,,,,,,,,,,,,,,,,,,,,,,,,,,,,,,,,,,,,,,,,,,,,,,,,,,,,,,,,,,,,,,1.1373456716537476,1.024037800001679,495.63573130001896,None,ScrollDown,정답입니다,495.63573130001896,None,495.63573130001896,None,495.63573130001896,None,495.63573130001896,None,496.55101270001614,None,496.55101270001614,497.05123420001473,,,,,,,,,,,,,,,,113,2022-05-04_12h05.52.642,FishGame,2022.1.1,60.07030628335177,
,5,넌 과묵해,3,Orange,A,3.875,4.4,ScrollDown,ScrollUp,Orange.png,3,Neutral,Neutral,0,0,0,0,,,,,,,,,,,,,,,,,,,,,0,4,4,4,,,,,,,,,,,,,,,,,,,,,,,,,,,,,,,,,,,,,,,,,,,,,,,,,,,,,,,,,,,,,,,,,,,,,,,,,,,,,1,1.0608724000048824,497.684193699999,None,ScrollDown,정답입니다,497.684193699999,None,497.684193699999,None,497.684193699999,None,497.684193699999,None,498.634040200006,None,498.634040200006,499.1343850000121,,,,,,,,,,,,,,,,113,2022-05-04_12h05.52.642,FishGame,2022.1.1,60.07030628335177,
,6,나를 데려가줘,6,Green,B,0,0,ScrollDown,ScrollUp,Green.png,3,NonTarget,NonTarget,0,0,0,0,,,,,,,,,,,,,,,,,,,,,0,5,5,5,,,,,,,,,,,,,,,,,,,,,,,,,,,,,,,,,,,,,,,,,,,,,,,,,,,,,,,,,,,,,,,,,,,,,,,,,,,,,1.0231481393178303,0.9989181999990251,499.76163480000105,None,ScrollDown,정답입니다,499.76163480000105,None,499.76163480000105,None,499.76163480000105,None,499.76163480000105,None,500.65607060000184,None,500.65607060000184,501.16798130000825,,,,,,,,,,,,,,,,113,2022-05-04_12h05.52.642,FishGame,2022.1.1,60.07030628335177,
,7,넌 미숙해,4,Green,B,3,3,ScrollUp,ScrollDown,Green.png,3,Negative,Congruent,0,0,0,0,,,,,,,,,,,,,,,,,,,,,0,6,6,6,,,,,,,,,,,,,,,,,,,,,,,,,,,,,,,,,,,,,,,,,,,,,,,,,,,,,,,,,,,,,,,,,,,,,,,,,,,,,1.6558641965190568,1.0829583999875467,501.794060300017,None,ScrollUp,정답입니다,501.794060300017,None,501.794060300017,None,501.794060300017,None,501.794060300017,None,502.7727425000048,None,502.7727425000048,503.2843186999962,,,,,,,,,,,,,,,,113,2022-05-04_12h05.52.642,FishGame,2022.1.1,60.07030628335177,
,8,나를 보내줘,6,Orange,A,0,0,ScrollUp,ScrollDown,Orange.png,3,NonTarget,NonTarget,0,0,0,0,,,,,,,,,,,,,,,,,,,,,0,7,7,7,,,,,,,,,,,,,,,,,,,,,,,,,,,,,,,,,,,,,,,,,,,,,,,,,,,,,,,,,,,,,,,,,,,,,,,,,,,,,1.6265432064731917,1.101070400007302,503.9166324000107,None,ScrollUp,정답입니다,503.9166324000107,None,503.9166324000107,None,503.9166324000107,None,503.9166324000107,None,504.9061542999989,None,504.9061542999989,505.4179115000006,,,,,,,,,,,,,,,,113,2022-05-04_12h05.52.642,FishGame,2022.1.1,60.07030628335177,
,9,넌 자신만만해,3,Green,B,4.833333333333334,4.333333333333333,ScrollUp,ScrollDown,Green.png,3,Neutral,Neutral,0,0,0,0,,,,,,,,,,,,,,,,,,,,,0,8,8,8,,,,,,,,,,,,,,,,,,,,,,,,,,,,,,,,,,,,,,,,,,,,,,,,,,,,,,,,,,,,,,,,,,,,,,,,,,,,,2,1.6441864999942482,506.0434789000137,None,ScrollUp,정답입니다,506.0434789000137,None,506.0434789000137,None,506.0434789000137,None,506.0434789000137,None,507.5840891000116,None,507.5840891000116,508.0844025000115,,,,,,,,,,,,,,,,113,2022-05-04_12h05.52.642,FishGame,2022.1.1,60.07030628335177,
,10,넌 탐욕스러워,5,Orange,A,2.25,2.1,ScrollDown,ScrollUp,Orange.png,3,Negative,Incongruent,0,0,0,0,,,,,,,,,,,,,,,,,,,,,0,9,9,9,,,,,,,,,,,,,,,,,,,,,,,,,,,,,,,,,,,,,,,,,,,,,,,,,,,,,,,,,,,,,,,,,,,,,,,,,,,,,1,1.0495373000157997,508.72564129999955,None,ScrollDown,정답입니다,508.72564129999955,None,508.72564129999955,None,508.72564129999955,None,508.72564129999955,None,509.65612850000616,None,509.65612850000616,510.1681046000158,,,,,,,,,,,,,,,,113,2022-05-04_12h05.52.642,FishGame,2022.1.1,60.07030628335177,
,11,넌 인기있어,2,Orange,A,5.458333333333333,4.5,ScrollDown,ScrollUp,Orange.png,3,Positive,Congruent,0,0,0,0,,,,,,,,,,,,,,,,,,,,,0,10,10,10,,,,,,,,,,,,,,,,,,,,,,,,,,,,,,,,,,,,,,,,,,,,,,,,,,,,,,,,,,,,,,,,,,,,,,,,,,,,,1.0185184975465138,1.4522892000095453,510.7992731000122,None,ScrollDown,정답입니다,510.7992731000122,None,510.7992731000122,None,510.7992731000122,None,510.7992731000122,None,512.139674200007,None,512.139674200007,512.6516544000187,,,,,,,,,,,,,,,,113,2022-05-04_12h05.52.642,FishGame,2022.1.1,60.07030628335177,
,12,나를 데려가줘,6,Green,B,0,0,ScrollDown,ScrollUp,Green.png,3,NonTarget,NonTarget,0,0,0,0,,,,,,,,,,,,,,,,,,,,,0,11,11,11,,,,,,,,,,,,,,,,,,,,,,,,,,,,,,,,,,,,,,,,,,,,,,,,,,,,,,,,,,,,,,,,,,,,,,,,,,,,,1,1.1490984999982174,513.2809279000212,None,ScrollDown,정답입니다,513.2809279000212,None,513.2809279000212,None,513.2809279000212,None,513.2809279000212,None,514.3225530000054,None,514.3225530000054,514.8345359000086,,,,,,,,,,,,,,,,113,2022-05-04_12h05.52.642,FishGame,2022.1.1,60.07030628335177,
,13,넌 뛰어나,2,Green,B,6.166666666666667,4,ScrollUp,ScrollDown,Green.png,3,Positive,Incongruent,0,0,0,0,,,,,,,,,,,,,,,,,,,,,0,12,12,12,,,,,,,,,,,,,,,,,,,,,,,,,,,,,,,,,,,,,,,,,,,,,,,,,,,,,,,,,,,,,,,,,,,,,,,,,,,,,1.9212963084379833,1.2571736999962013,515.4630419000168,None,ScrollUp,정답입니다,515.4630419000168,None,515.4630419000168,None,515.4630419000168,None,515.4630419000168,None,516.6160339000053,None,516.6160339000053,517.1184813000145,,,,,,,,,,,,,,,,113,2022-05-04_12h05.52.642,FishGame,2022.1.1,60.07030628335177,
,14,넌 낙관적이야,1,Orange,A,5.75,5.8,ScrollDown,ScrollUp,Orange.png,3,Positive,Congruent,0,0,0,0,,,,,,,,,,,,,,,,,,,,,0,13,13,13,,,,,,,,,,,,,,,,,,,,,,,,,,,,,,,,,,,,,,,,,,,,,,,,,,,,,,,,,,,,,,,,,,,,,,,,,,,,,1,1.2702668999845628,517.7538706000196,None,ScrollDown,정답입니다,517.7538706000196,None,517.7538706000196,None,517.7538706000196,None,517.7538706000196,None,518.9162954000058,None,518.9162954000058,519.4181423000118,,,,,,,,,,,,,,,,113,2022-05-04_12h05.52.642,FishGame,2022.1.1,60.07030628335177,
,15,넌 산만해,4,Green,B,2.695652173913043,3.033333333333333,ScrollUp,ScrollDown,Green.png,3,Negative,Congruent,0,0,0,0,,,,,,,,,,,,,,,,,,,,,0,14,14,14,,,,,,,,,,,,,,,,,,,,,,,,,,,,,,,,,,,,,,,,,,,,,,,,,,,,,,,,,,,,,,,,,,,,,,,,,,,,,2,1.3269638000056148,520.0494870000111,None,ScrollUp,정답입니다,520.0494870000111,None,520.0494870000111,None,520.0494870000111,None,520.0494870000111,None,521.2677739000064,None,521.2677739000064,521.7682695999974,,,,,,,,,,,,,,,,113,2022-05-04_12h05.52.642,FishGame,2022.1.1,60.07030628335177,
,16,나를 보내줘,6,Orange,A,0,0,ScrollUp,ScrollDown,Orange.png,3,NonTarget,NonTarget,0,0,0,0,,,,,,,,,,,,,,,,,,,,,0,15,15,15,,,,,,,,,,,,,,,,,,,,,,,,,,,,,,,,,,,,,,,,,,,,,,,,,,,,,,,,,,,,,,,,,,,,,,,,,,,,,2,1.1855105999857187,522.3980509999965,None,ScrollUp,정답입니다,522.3980509999965,None,522.3980509999965,None,522.3980509999965,None,522.3980509999965,None,523.472668500006,None,523.472668500006,523.9845764000202,,,,,,,,,,,,,,,,113,2022-05-04_12h05.52.642,FishGame,2022.1.1,60.07030628335177,
,17,넌 교활해,5,Green,B,2.333333333333333,2.133333333333333,ScrollUp,ScrollDown,Green.png,3,Negative,Congruent,0,0,0,0,,,,,,,,,,,,,,,,,,,,,0,16,16,16,,,,,,,,,,,,,,,,,,,,,,,,,,,,,,,,,,,,,,,,,,,,,,,,,,,,,,,,,,,,,,,,,,,,,,,,,,,,,2,1.331557800003793,524.6306077000045,None,ScrollUp,정답입니다,524.6306077000045,None,524.6306077000045,None,524.6306077000045,None,524.6306077000045,None,525.8368929999997,None,525.8368929999997,526.3520651000144,,,,,,,,,,,,,,,,113,2022-05-04_12h05.52.642,FishGame,2022.1.1,60.07030628335177,
,18,나를 보내줘,6,Orange,A,0,0,ScrollUp,ScrollDown,Orange.png,3,NonTarget,NonTarget,0,0,0,0,,,,,,,,,,,,,,,,,,,,,0,17,17,17,,,,,,,,,,,,,,,,,,,,,,,,,,,,,,,,,,,,,,,,,,,,,,,,,,,,,,,,,,,,,,,,,,,,,,,,,,,,,2,1.1815182999998797,526.9855867000006,None,ScrollUp,정답입니다,526.9855867000006,None,526.9855867000006,None,526.9855867000006,None,526.9855867000006,None,528.0553976999945,None,528.0553976999945,528.5687913000002,,,,,,,,,,,,,,,,113,2022-05-04_12h05.52.642,FishGame,2022.1.1,60.07030628335177,
,19,넌 불친절해,5,Green,B,2.208333333333333,2.033333333333333,ScrollUp,ScrollDown,Green.png,3,Negative,Congruent,0,0,0,0,,,,,,,,,,,,,,,,,,,,,0,18,18,18,,,,,,,,,,,,,,,,,,,,,,,,,,,,,,,,,,,,,,,,,,,,,,,,,,,,,,,,,,,,,,,,,,,,,,,,,,,,,2,1.280365200014785,529.2025834000087,None,ScrollUp,정답입니다,529.2025834000087,None,529.2025834000087,None,529.2025834000087,None,529.2025834000087,None,530.3702645000012,None,530.3702645000012,530.8852112000168,,,,,,,,,,,,,,,,113,2022-05-04_12h05.52.642,FishGame,2022.1.1,60.07030628335177,
,20,넌 지적이야,2,Green,B,5.75,4.366666666666666,ScrollUp,ScrollDown,Green.png,3,Positive,Incongruent,0,0,0,0,,,,,,,,,,,,,,,,,,,,,0,19,19,19,,,,,,,,,,,,,,,,,,,,,,,,,,,,,,,,,,,,,,,,,,,,,,,,,,,,,,,,,,,,,,,,,,,,,,,,,,,,,2,1.0496751999889966,531.5099103999964,None,ScrollUp,정답입니다,531.5099103999964,None,531.5099103999964,None,531.5099103999964,None,531.5099103999964,None,532.4561145000043,None,532.4561145000043,532.9686639000138,,,,,,,,,,,,,,,,113,2022-05-04_12h05.52.642,FishGame,2022.1.1,60.07030628335177,
,21,넌 우유부단해,4,Orange,A,2.666666666666667,3.166666666666667,ScrollDown,ScrollUp,Orange.png,3,Negative,Incongruent,0,0,0,0,,,,,,,,,,,,,,,,,,,,,0,20,20,20,,,,,,,,,,,,,,,,,,,,,,,,,,,,,,,,,,,,,,,,,,,,,,,,,,,,,,,,,,,,,,,,,,,,,,,,,,,,,1,1.125546099996427,533.6129324000212,None,ScrollDown,정답입니다,533.6129324000212,None,533.6129324000212,None,533.6129324000212,None,533.6129324000212,None,534.6185230000119,None,534.6185230000119,535.1187374000147,,,,,,,,,,,,,,,,113,2022-05-04_12h05.52.642,FishGame,2022.1.1,60.07030628335177,
,22,나를 데려가줘,6,Green,B,0,0,ScrollDown,ScrollUp,Green.png,3,NonTarget,NonTarget,0,0,0,0,,,,,,,,,,,,,,,,,,,,,0,21,21,21,,,,,,,,,,,,,,,,,,,,,,,,,,,,,,,,,,,,,,,,,,,,,,,,,,,,,,,,,,,,,,,,,,,,,,,,,,,,,1.1311728407939274,1.2126813000068069,535.7449096000055,None,ScrollDown,정답입니다,535.7449096000055,None,535.7449096000055,None,535.7449096000055,None,535.7449096000055,None,536.8511913999973,None,536.8511913999973,537.3515333000105,,,,,,,,,,,,,,,,113,2022-05-04_12h05.52.642,FishGame,2022.1.1,60.07030628335177,
,23,넌 성실해,1,Green,B,6.041666666666666,5.7,ScrollUp,ScrollDown,Green.png,3,Positive,Incongruent,0,0,0,0,,,,,,,,,,,,,,,,,,,,,0,22,22,22,,,,,,,,,,,,,,,,,,,,,,,,,,,,,,,,,,,,,,,,,,,,,,,,,,,,,,,,,,,,,,,,,,,,,,,,,,,,,1.9583333432674408,1.3374294000095688,537.9766643000185,None,ScrollUp,정답입니다,537.9766643000185,None,537.9766643000185,None,537.9766643000185,None,537.9766643000185,None,539.216665999993,None,539.216665999993,539.7187337999931,,,,,,,,,,,,,,,,113,2022-05-04_12h05.52.642,FishGame,2022.1.1,60.07030628335177,
,24,넌 현실주의적이야,3,Orange,A,4.625,4.4,ScrollDown,ScrollUp,Orange.png,3,Neutral,Neutral,0,0,0,0,,,,,,,,,,,,,,,,,,,,,0,23,23,23,,,,,,,,,,,,,,,,,,,,,,,,,,,,,,,,,,,,,,,,,,,,,,,,,,,,,,,,,,,,,,,,,,,,,,,,,,,,,1,1.111163800000213,540.3514949000091,None,ScrollDown,정답입니다,540.3514949000091,None,540.3514949000091,None,540.3514949000091,None,540.3514949000091,None,541.3520865000028,None,541.3520865000028,541.8515583999979,,,,,,,,,,,,,,,,113,2022-05-04_12h05.52.642,FishGame,2022.1.1,60.07030628335177,
,25,넌 진실돼,1,Orange,A,6.625,5.566666666666666,ScrollDown,ScrollUp,Orange.png,3,Positive,Congruent,0,0,0,0,,,,,,,,,,,,,,,,,,,,,0,24,24,24,,,,,,,,,,,,,,,,,,,,,,,,,,,,,,,,,,,,,,,,,,,,,,,,,,,,,,,,,,,,,,,,,,,,,,,,,,,,,1,1.0309019999986049,542.4866858000169,None,ScrollDown,정답입니다,542.4866858000169,None,542.4866858000169,None,542.4866858000169,None,542.4866858000169,None,543.4056625000085,None,543.4056625000085,543.9189368000079,,,,,,,,,,,,,,,,113,2022-05-04_12h05.52.642,FishGame,2022.1.1,60.07030628335177,
,26,넌 천진난만해,3,Green,B,4.958333333333334,4.833333333333333,ScrollUp,ScrollDown,Green.png,3,Neutral,Neutral,0,0,0,0,,,,,,,,,,,,,,,,,,,,,0,25,25,25,,,,,,,,,,,,,,,,,,,,,,,,,,,,,,,,,,,,,,,,,,,,,,,,,,,,,,,,,,,,,,,,,,,,,,,,,,,,,2,1.1657035000098404,544.5552838000003,None,ScrollUp,정답입니다,544.5552838000003,None,544.5552838000003,None,544.5552838000003,None,544.5552838000003,None,545.6057340000116,None,545.6057340000116,546.1187915000191,,,,,,,,,,,,,,,,113,2022-05-04_12h05.52.642,FishGame,2022.1.1,60.07030628335177,
,27,넌 교양없어,5,Orange,A,2.416666666666667,2.2,ScrollDown,ScrollUp,Orange.png,3,Negative,Incongruent,0,0,0,0,,,,,,,,,,,,,,,,,,,,,0,26,26,26,,,,,,,,,,,,,,,,,,,,,,,,,,,,,,,,,,,,,,,,,,,,,,,,,,,,,,,,,,,,,,,,,,,,,,,,,,,,,1,1.15852779999841,546.7553975000046,None,ScrollDown,정답입니다,546.7553975000046,None,546.7553975000046,None,546.7553975000046,None,546.7553975000046,None,547.8016050000151,None,547.8016050000151,548.3020496999961,,,,,,,,,,,,,,,,113,2022-05-04_12h05.52.642,FishGame,2022.1.1,60.07030628335177,
,28,나를 보내줘,6,Orange,A,0,0,ScrollUp,ScrollDown,Orange.png,3,NonTarget,NonTarget,0,0,0,0,,,,,,,,,,,,,,,,,,,,,0,27,27,27,,,,,,,,,,,,,,,,,,,,,,,,,,,,,,,,,,,,,,,,,,,,,,,,,,,,,,,,,,,,,,,,,,,,,,,,,,,,,2,1.3159670000022743,548.9325504000008,None,ScrollUp,정답입니다,548.9325504000008,None,548.9325504000008,None,548.9325504000008,None,548.9325504000008,None,550.1411487000005,None,550.1411487000005,550.6517307000177,,,,,,,,,,,,,,,,113,2022-05-04_12h05.52.642,FishGame,2022.1.1,60.07030628335177,
,29,넌 엉뚱스러워,3,Orange,A,4.166666666666667,4.133333333333334,ScrollDown,ScrollUp,Orange.png,3,Neutral,Neutral,0,0,0,0,,,,,,,,,,,,,,,,,,,,,0,28,28,28,,,,,,,,,,,,,,,,,,,,,,,,,,,,,,,,,,,,,,,,,,,,,,,,,,,,,,,,,,,,,,,,,,,,,,,,,,,,,1.0030864079793294,1.2575113000057172,551.2904528999934,None,ScrollDown,정답입니다,551.2904528999934,None,551.2904528999934,None,551.2904528999934,None,551.2904528999934,None,552.4352817000181,None,552.4352817000181,552.9352481999958,,,,,,,,,,,,,,,,113,2022-05-04_12h05.52.642,FishGame,2022.1.1,60.07030628335177,
,30,넌 무지해,4,Green,B,2.541666666666667,3.066666666666667,ScrollUp,ScrollDown,Green.png,3,Negative,Congruent,0,0,0,0,,,,,,,,,,,,,,,,,,,,,0,29,29,29,,,,,,,,,,,,,,,,,,,,,,,,,,,,,,,,,,,,,,,,,,,,,,,,,,,,,,,,,,,,,,,,,,,,,,,,,,,,,1.9876543084780376,1.2342278999858536,553.5608266000054,None,ScrollUp,정답입니다,553.5608266000054,None,553.5608266000054,None,553.5608266000054,None,553.5608266000054,None,554.69017300001,None,554.69017300001,555.2025560000038,,,,,,,,,,,,,,,,113,2022-05-04_12h05.52.642,FishGame,2022.1.1,60.07030628335177,
,31,넌 음울해,5,Green,B,2.25,2.233333333333333,ScrollUp,ScrollDown,Green.png,3,Negative,Congruent,0,0,0,0,,,,,,,,,,,,,,,,,,,,,0,30,30,30,,,,,,,,,,,,,,,,,,,,,,,,,,,,,,,,,,,,,,,,,,,,,,,,,,,,,,,,,,,,,,,,,,,,,,,,,,,,,1.9166666666666667,1.094999099994311,555.8340597000206,None,ScrollUp,정답입니다,555.8340597000206,None,555.8340597000206,None,555.8340597000206,None,555.8340597000206,None,556.8185924999998,None,556.8185924999998,557.3194717000006,,,,,,,,,,,,,,,,113,2022-05-04_12h05.52.642,FishGame,2022.1.1,60.07030628335177,
,32,넌 냉소적이야,5,Orange,A,2.916666666666667,2.4,ScrollDown,ScrollUp,Orange.png,3,Negative,Incongruent,0,0,0,0,,,,,,,,,,,,,,,,,,,,,0,31,31,31,,,,,,,,,,,,,,,,,,,,,,,,,,,,,,,,,,,,,,,,,,,,,,,,,,,,,,,,,,,,,,,,,,,,,,,,,,,,,1,0.9941003999847453,557.9501172000018,None,ScrollDown,정답입니다,557.9501172000018,None,557.9501172000018,None,557.9501172000018,None,557.9501172000018,None,558.8354665999941,None,558.8354665999941,559.3357029000181,,,,,,,,,,,,,,,,113,2022-05-04_12h05.52.642,FishGame,2022.1.1,60.07030628335177,
,33,나를 데려가줘,6,Green,B,0,0,ScrollDown,ScrollUp,Green.png,3,NonTarget,NonTarget,0,0,0,0,,,,,,,,,,,,,,,,,,,,,0,32,32,32,,,,,,,,,,,,,,,,,,,,,,,,,,,,,,,,,,,,,,,,,,,,,,,,,,,,,,,,,,,,,,,,,,,,,,,,,,,,,1,1.1813658000028227,559.9617463000177,None,ScrollDown,정답입니다,559.9617463000177,None,559.9617463000177,None,559.9617463000177,None,559.9617463000177,None,561.0392617000034,None,561.0392617000034,561.5519200999988,,,,,,,,,,,,,,,,113,2022-05-04_12h05.52.642,FishGame,2022.1.1,60.07030628335177,
,34,넌 쾌활해,1,Orange,A,5.541666666666666,5.733333333333333,ScrollDown,ScrollUp,Orange.png,3,Positive,Congruent,0,0,0,0,,,,,,,,,,,,,,,,,,,,,0,33,33,33,,,,,,,,,,,,,,,,,,,,,,,,,,,,,,,,,,,,,,,,,,,,,,,,,,,,,,,,,,,,,,,,,,,,,,,,,,,,,1.1481481442848842,1.306484599976102,562.1905457999965,None,ScrollDown,정답입니다,562.1905457999965,None,562.1905457999965,None,562.1905457999965,None,562.1905457999965,None,563.3834682000161,None,563.3834682000161,563.885420000006,,,,,,,,,,,,,,,,113,2022-05-04_12h05.52.642,FishGame,2022.1.1,60.07030628335177,
,35,나를 보내줘,6,Orange,A,0,0,ScrollUp,ScrollDown,Orange.png,3,NonTarget,NonTarget,0,0,0,0,,,,,,,,,,,,,,,,,,,,,0,34,34,34,,,,,,,,,,,,,,,,,,,,,,,,,,,,,,,,,,,,,,,,,,,,,,,,,,,,,,,,,,,,,,,,,,,,,,,,,,,,,1.9969135920206706,1.54333729998325,564.5212805000192,None,ScrollUp,정답입니다,564.5212805000192,None,564.5212805000192,None,564.5212805000192,None,564.5212805000192,None,565.9525435999967,None,565.9525435999967,566.4526937000046,,,,,,,,,,,,,,,,113,2022-05-04_12h05.52.642,FishGame,2022.1.1,60.07030628335177,
,36,넌 명랑해,1,Green,B,5.739130434782609,5.666666666666667,ScrollUp,ScrollDown,Green.png,3,Positive,Incongruent,0,0,0,0,,,,,,,,,,,,,,,,,,,,,0,35,35,35,,,,,,,,,,,,,,,,,,,,,,,,,,,,,,,,,,,,,,,,,,,,,,,,,,,,,,,,,,,,,,,,,,,,,,,,,,,,,1.837962955236435,1.1903426999924704,567.0804364999931,None,ScrollUp,정답입니다,567.0804364999931,None,567.0804364999931,None,567.0804364999931,None,567.0804364999931,None,568.1673672000179,None,568.1673672000179,568.6697275000042,,,,,,,,,,,,,,,,113,2022-05-04_12h05.52.642,FishGame,2022.1.1,60.07030628335177,
,37,넌 멍해,4,Orange,A,2.833333333333333,3.4,ScrollDown,ScrollUp,Orange.png,3,Negative,Incongruent,0,0,0,0,,,,,,,,,,,,,,,,,,,,,0,36,36,36,,,,,,,,,,,,,,,,,,,,,,,,,,,,,,,,,,,,,,,,,,,,,,,,,,,,,,,,,,,,,,,,,,,,,,,,,,,,,1,1.0874229000182822,569.3047931000183,None,ScrollDown,정답입니다,569.3047931000183,None,569.3047931000183,None,569.3047931000183,None,569.3047931000183,None,570.2840043000178,None,570.2840043000178,570.7863051000168,,,,,,,,,,,,,,,,113,2022-05-04_12h05.52.642,FishGame,2022.1.1,60.07030628335177,
,38,나를 데려가줘,6,Green,B,0,0,ScrollDown,ScrollUp,Green.png,3,NonTarget,NonTarget,0,0,0,0,,,,,,,,,,,,,,,,,,,,,0,37,37,37,,,,,,,,,,,,,,,,,,,,,,,,,,,,,,,,,,,,,,,,,,,,,,,,,,,,,,,,,,,,,,,,,,,,,,,,,,,,,1,1.0954748000076506,571.4130265999993,None,ScrollDown,정답입니다,571.4130265999993,None,571.4130265999993,None,571.4130265999993,None,571.4130265999993,None,572.4020959000045,None,572.4020959000045,572.9026685999997,,,,,,,,,,,,,,,,113,2022-05-04_12h05.52.642,FishGame,2022.1.1,60.07030628335177,
,39,넌 현명해,2,Orange,A,6.541666666666666,4.533333333333333,ScrollDown,ScrollUp,Orange.png,3,Positive,Congruent,0,0,0,0,,,,,,,,,,,,,,,,,,,,,0,38,38,38,,,,,,,,,,,,,,,,,,,,,,,,,,,,,,,,,,,,,,,,,,,,,,,,,,,,,,,,,,,,,,,,,,,,,,,,,,,,,1.0987654229005177,1.0421814000001177,573.5320172999927,None,ScrollDown,정답입니다,573.5320172999927,None,573.5320172999927,None,573.5320172999927,None,573.5320172999927,None,574.4690640000044,None,574.4690640000044,574.9696803000115,,,,,,,,,,,,,,,,113,2022-05-04_12h05.52.642,FishGame,2022.1.1,60.07030628335177,
,40,넌 수줍어,3,Green,B,3.541666666666666,4.366666666666666,ScrollUp,ScrollDown,Green.png,3,Neutral,Neutral,0,0,0,0,,,,,,,,,,,,,,,,,,,,,0,39,39,39,,,,,,,,,,,,,,,,,,,,,,,,,,,,,,,,,,,,,,,,,,,,,,,,,,,,,,,,,,,,,,,,,,,,,,,,,,,,,1.9212963084379833,1.1381231999839656,575.5995475999953,None,ScrollUp,정답입니다,575.5995475999953,None,575.5995475999953,None,575.5995475999953,None,575.5995475999953,None,576.6339013999968,None,576.6339013999968,577.1360456999973,,,,,,,,,,,,,,,,113,2022-05-04_12h05.52.642,FishGame,2022.1.1,60.07030628335177,
,41,나를 데려가줘,6,Green,B,0,0,ScrollDown,ScrollUp,Green.png,3,NonTarget,NonTarget,0,0,0,0,,,,,,,,,,,,,,,,,,,,,0,40,40,40,,,,,,,,,,,,,,,,,,,,,,,,,,,,,,,,,,,,,,,,,,,,,,,,,,,,,,,,,,,,,,,,,,,,,,,,,,,,,1,1.169273700012127,577.7630979999958,None,ScrollDown,정답입니다,577.7630979999958,None,577.7630979999958,None,577.7630979999958,None,577.7630979999958,None,578.8342001000128,None,578.8342001000128,579.3358329000184,,,,,,,,,,,,,,,,113,2022-05-04_12h05.52.642,FishGame,2022.1.1,60.07030628335177,
,42,넌 성숙해,2,Green,B,5.833333333333333,4.533333333333333,ScrollUp,ScrollDown,Green.png,3,Positive,Incongruent,0,0,0,0,,,,,,,,,,,,,,,,,,,,,0,41,41,41,,,,,,,,,,,,,,,,,,,,,,,,,,,,,,,,,,,,,,,,,,,,,,,,,,,,,,,,,,,,,,,,,,,,,,,,,,,,,1.8117283930381138,1.1178328999958467,579.9595408000168,None,ScrollUp,정답입니다,579.9595408000168,None,579.9595408000168,None,579.9595408000168,None,579.9595408000168,None,580.9746856999991,None,580.9746856999991,581.4859538000019,,,,,,,,,,,,,,,,113,2022-05-04_12h05.52.642,FishGame,2022.1.1,60.07030628335177,
,1,넌 매력적이야,2,Green,B,6.125,4.666666666666667,ScrollUp,ScrollDown,Green.png,4,Positive,Incongruent,0,0,0,0,,,,,,,,,,,,,,,,,,,,,,,,,0,0,0,0,,,,,,,,,,,,,,,,,,,,,,,,,,,,,,,,623.5375495000044,625.037061400013,625.0702996000182,626.0208905000181,626.0703108000162,627.0205411000061,627.0205411000061,None,,,,,,,,,,,,,,,,,,,,,,,,,,,,,,,,,,2,1.6691267999995034,628.1658093000005,None,ScrollUp,정답입니다,628.1658093000005,None,628.1658093000005,None,628.1658093000005,None,628.1658093000005,None,629.6854364000028,None,629.6854364000028,630.1870523999969,581.9858645000204,None,581.9858645000204,None,-0.09074074,-0.11018518,1,0,0,0.016250600019702688,None,611.9869906000094,None,,,113,2022-05-04_12h05.52.642,FishGame,2022.1.1,60.07030628335177,
,2,나를 보내줘,6,Orange,A,0,0,ScrollUp,ScrollDown,Orange.png,4,NonTarget,NonTarget,0,0,0,0,,,,,,,,,,,,,,,,,,,,,,,,,0,1,1,1,,,,,,,,,,,,,,,,,,,,,,,,,,,,,,,,,,,,,,,,,,,,,,,,,,,,,,,,,,,,,,,,,,,,,,,,,2,1.2998012000171002,630.8176874000055,None,ScrollUp,정답입니다,630.8176874000055,None,630.8176874000055,None,630.8176874000055,None,630.8176874000055,None,632.0075438000204,None,632.0075438000204,632.5206101000076,,,,,,,,,,,,,,,,113,2022-05-04_12h05.52.642,FishGame,2022.1.1,60.07030628335177,
,3,넌 조심스러워,3,Orange,A,4.791666666666666,4.666666666666667,ScrollDown,ScrollUp,Orange.png,4,Neutral,Neutral,0,0,0,0,,,,,,,,,,,,,,,,,,,,,,,,,0,2,2,2,,,,,,,,,,,,,,,,,,,,,,,,,,,,,,,,,,,,,,,,,,,,,,,,,,,,,,,,,,,,,,,,,,,,,,,,,1,1.0013345000043046,633.158520500001,None,ScrollDown,정답입니다,633.158520500001,None,633.158520500001,None,633.158520500001,None,633.158520500001,None,634.0521754999936,None,634.0521754999936,634.5539446000184,,,,,,,,,,,,,,,,113,2022-05-04_12h05.52.642,FishGame,2022.1.1,60.07030628335177,
,4,넌 철학적이야,3,Green,B,4.5,4.266666666666667,ScrollUp,ScrollDown,Green.png,4,Neutral,Neutral,0,0,0,0,,,,,,,,,,,,,,,,,,,,,,,,,0,3,3,3,,,,,,,,,,,,,,,,,,,,,,,,,,,,,,,,,,,,,,,,,,,,,,,,,,,,,,,,,,,,,,,,,,,,,,,,,2,1.0785051999846473,635.1869573000004,None,ScrollUp,정답입니다,635.1869573000004,None,635.1869573000004,None,635.1869573000004,None,635.1869573000004,None,636.1540775000176,None,636.1540775000176,636.6537838999939,,,,,,,,,,,,,,,,113,2022-05-04_12h05.52.642,FishGame,2022.1.1,60.07030628335177,
,5,넌 쩨쩨해,5,Orange,A,2.375,2.133333333333333,ScrollDown,ScrollUp,Orange.png,4,Negative,Incongruent,0,0,0,0,,,,,,,,,,,,,,,,,,,,,,,,,0,4,4,4,,,,,,,,,,,,,,,,,,,,,,,,,,,,,,,,,,,,,,,,,,,,,,,,,,,,,,,,,,,,,,,,,,,,,,,,,1.253086417913437,1.1527231000072788,637.2922083000012,None,ScrollDown,정답입니다,637.2922083000012,None,637.2922083000012,None,637.2922083000012,None,637.2922083000012,None,638.3354267000104,None,638.3354267000104,638.8376416999963,,,,,,,,,,,,,,,,113,2022-05-04_12h05.52.642,FishGame,2022.1.1,60.07030628335177,
,6,나를 데려가줘,6,Green,B,0,0,ScrollDown,ScrollUp,Green.png,4,NonTarget,NonTarget,0,0,0,0,,,,,,,,,,,,,,,,,,,,,,,,,0,5,5,5,,,,,,,,,,,,,,,,,,,,,,,,,,,,,,,,,,,,,,,,,,,,,,,,,,,,,,,,,,,,,,,,,,,,,,,,,1.0694444576899211,0.9917010000208393,639.4644193999993,None,ScrollDown,정답입니다,639.4644193999993,None,639.4644193999993,None,639.4644193999993,None,639.4644193999993,None,640.3539096000022,None,640.3539096000022,640.8538560000015,,,,,,,,,,,,,,,,113,2022-05-04_12h05.52.642,FishGame,2022.1.1,60.07030628335177,
,7,넌 고집불통이야,5,Green,B,2.875,2,ScrollUp,ScrollDown,Green.png,4,Negative,Congruent,0,0,0,0,,,,,,,,,,,,,,,,,,,,,,,,,0,6,6,6,,,,,,,,,,,,,,,,,,,,,,,,,,,,,,,,,,,,,,,,,,,,,,,,,,,,,,,,,,,,,,,,,,,,,,,,,1.68364197264115,0.9081936000147834,641.492671200016,None,ScrollUp,정답입니다,641.492671200016,None,641.492671200016,None,641.492671200016,None,641.492671200016,None,642.2869392000139,None,642.2869392000139,642.787321700016,,,,,,,,,,,,,,,,113,2022-05-04_12h05.52.642,FishGame,2022.1.1,60.07030628335177,
,8,넌 무심해,4,Orange,A,2.875,3.2,ScrollDown,ScrollUp,Orange.png,4,Negative,Incongruent,0,0,0,0,,,,,,,,,,,,,,,,,,,,,,,,,0,7,7,7,,,,,,,,,,,,,,,,,,,,,,,,,,,,,,,,,,,,,,,,,,,,,,,,,,,,,,,,,,,,,,,,,,,,,,,,,1,1.2410695000144187,643.4169900999987,None,ScrollDown,정답입니다,643.4169900999987,None,643.4169900999987,None,643.4169900999987,None,643.4169900999987,None,644.5542343000125,None,644.5542343000125,645.0541104000004,,,,,,,,,,,,,,,,113,2022-05-04_12h05.52.642,FishGame,2022.1.1,60.07030628335177,
,9,넌 정겨워,1,Orange,A,5.791666666666667,5.666666666666667,ScrollDown,ScrollUp,Orange.png,4,Positive,Congruent,0,0,0,0,,,,,,,,,,,,,,,,,,,,,,,,,0,8,8,8,,,,,,,,,,,,,,,,,,,,,,,,,,,,,,,,,,,,,,,,,,,,,,,,,,,,,,,,,,,,,,,,,,,,,,,,,1,1.2340166000067256,645.6981247999938,None,ScrollDown,정답입니다,645.6981247999938,None,645.6981247999938,None,645.6981247999938,None,645.6981247999938,None,646.8087727999955,None,646.8087727999955,647.3206311000104,,,,,,,,,,,,,,,,113,2022-05-04_12h05.52.642,FishGame,2022.1.1,60.07030628335177,
,10,나를 데려가줘,6,Green,B,0,0,ScrollDown,ScrollUp,Green.png,4,NonTarget,NonTarget,0,0,0,0,,,,,,,,,,,,,,,,,,,,,,,,,0,9,9,9,,,,,,,,,,,,,,,,,,,,,,,,,,,,,,,,,,,,,,,,,,,,,,,,,,,,,,,,,,,,,,,,,,,,,,,,,1,1.0465238000033423,647.9461198000063,None,ScrollDown,정답입니다,647.9461198000063,None,647.9461198000063,None,647.9461198000063,None,647.9461198000063,None,648.8875020999985,None,648.8875020999985,649.3879091000126,,,,,,,,,,,,,,,,113,2022-05-04_12h05.52.642,FishGame,2022.1.1,60.07030628335177,
,11,넌 체제순응적이야,4,Green,B,3,3.6,ScrollUp,ScrollDown,Green.png,4,Negative,Congruent,0,0,0,0,,,,,,,,,,,,,,,,,,,,,,,,,0,10,10,10,,,,,,,,,,,,,,,,,,,,,,,,,,,,,,,,,,,,,,,,,,,,,,,,,,,,,,,,,,,,,,,,,,,,,,,,,2,1.199911500007147,650.0294132000126,None,ScrollUp,정답입니다,650.0294132000126,None,650.0294132000126,None,650.0294132000126,None,650.0294132000126,None,651.109440500004,None,651.109440500004,651.6211509999994,,,,,,,,,,,,,,,,113,2022-05-04_12h05.52.642,FishGame,2022.1.1,60.07030628335177,
,12,나를 보내줘,6,Orange,A,0,0,ScrollUp,ScrollDown,Orange.png,4,NonTarget,NonTarget,0,0,0,0,,,,,,,,,,,,,,,,,,,,,,,,,0,11,11,11,,,,,,,,,,,,,,,,,,,,,,,,,,,,,,,,,,,,,,,,,,,,,,,,,,,,,,,,,,,,,,,,,,,,,,,,,2,1.171515099995304,652.250763100019,None,ScrollUp,정답입니다,652.250763100019,None,652.250763100019,None,652.250763100019,None,652.250763100019,None,653.3192628000106,None,653.3192628000106,653.8206534000055,,,,,,,,,,,,,,,,113,2022-05-04_12h05.52.642,FishGame,2022.1.1,60.07030628335177,
,13,넌 박식해,2,Orange,A,5.625,3.933333333333333,ScrollDown,ScrollUp,Orange.png,4,Positive,Congruent,0,0,0,0,,,,,,,,,,,,,,,,,,,,,,,,,0,12,12,12,,,,,,,,,,,,,,,,,,,,,,,,,,,,,,,,,,,,,,,,,,,,,,,,,,,,,,,,,,,,,,,,,,,,,,,,,1,1.0284643000049982,654.459274599998,None,ScrollDown,정답입니다,654.459274599998,None,654.459274599998,None,654.459274599998,None,654.459274599998,None,655.3710694000183,None,655.3710694000183,655.8713011000073,,,,,,,,,,,,,,,,113,2022-05-04_12h05.52.642,FishGame,2022.1.1,60.07030628335177,
,14,나를 보내줘,6,Orange,A,0,0,ScrollUp,ScrollDown,Orange.png,4,NonTarget,NonTarget,0,0,0,0,,,,,,,,,,,,,,,,,,,,,,,,,0,13,13,13,,,,,,,,,,,,,,,,,,,,,,,,,,,,,,,,,,,,,,,,,,,,,,,,,,,,,,,,,,,,,,,,,,,,,,,,,2,1.2780314999981783,656.4990251999989,None,ScrollUp,정답입니다,656.4990251999989,None,656.4990251999989,None,656.4990251999989,None,656.4990251999989,None,657.6706438999972,None,657.6706438999972,658.171385499998,,,,,,,,,,,,,,,,113,2022-05-04_12h05.52.642,FishGame,2022.1.1,60.07030628335177,
,15,넌 침착해,1,Green,B,5.458333333333333,5.566666666666666,ScrollUp,ScrollDown,Green.png,4,Positive,Incongruent,0,0,0,0,,,,,,,,,,,,,,,,,,,,,,,,,0,14,14,14,,,,,,,,,,,,,,,,,,,,,,,,,,,,,,,,,,,,,,,,,,,,,,,,,,,,,,,,,,,,,,,,,,,,,,,,,1.8827160596847534,0.9356991000240669,658.8037759000144,None,ScrollUp,정답입니다,658.8037759000144,None,658.8037759000144,None,658.8037759000144,None,658.8037759000144,None,659.6359806999972,None,659.6359806999972,660.138263300003,,,,,,,,,,,,,,,,113,2022-05-04_12h05.52.642,FishGame,2022.1.1,60.07030628335177,
,16,나를 데려가줘,6,Green,B,0,0,ScrollDown,ScrollUp,Green.png,4,NonTarget,NonTarget,0,0,0,0,,,,,,,,,,,,,,,,,,,,,,,,,0,15,15,15,,,,,,,,,,,,,,,,,,,,,,,,,,,,,,,,,,,,,,,,,,,,,,,,,,,,,,,,,,,,,,,,,,,,,,,,,1,1.0317305999924429,660.7643661000184,None,ScrollDown,정답입니다,660.7643661000184,None,660.7643661000184,None,660.7643661000184,None,660.7643661000184,None,661.6915734000213,None,661.6915734000213,662.204825199995,,,,,,,,,,,,,,,,113,2022-05-04_12h05.52.642,FishGame,2022.1.1,60.07030628335177,
,17,넌 행복해,1,Orange,A,6.416666666666666,6.166666666666667,ScrollDown,ScrollUp,Orange.png,4,Positive,Congruent,0,0,0,0,,,,,,,,,,,,,,,,,,,,,,,,,0,16,16,16,,,,,,,,,,,,,,,,,,,,,,,,,,,,,,,,,,,,,,,,,,,,,,,,,,,,,,,,,,,,,,,,,,,,,,,,,1,1.6523113999865018,662.8455958999984,None,ScrollDown,정답입니다,662.8455958999984,None,662.8455958999984,None,662.8455958999984,None,662.8455958999984,None,664.3764752999996,None,664.3764752999996,664.8882105000084,,,,,,,,,,,,,,,,113,2022-05-04_12h05.52.642,FishGame,2022.1.1,60.07030628335177,
,18,넌 겸손해,2,Green,B,5.791666666666667,4.766666666666667,ScrollUp,ScrollDown,Green.png,4,Positive,Incongruent,0,0,0,0,,,,,,,,,,,,,,,,,,,,,,,,,0,17,17,17,,,,,,,,,,,,,,,,,,,,,,,,,,,,,,,,,,,,,,,,,,,,,,,,,,,,,,,,,,,,,,,,,,,,,,,,,2,1.177994600002421,665.5221332999936,None,ScrollUp,정답입니다,665.5221332999936,None,665.5221332999936,None,665.5221332999936,None,665.5221332999936,None,666.5880872000125,None,666.5880872000125,667.088404900016,,,,,,,,,,,,,,,,113,2022-05-04_12h05.52.642,FishGame,2022.1.1,60.07030628335177,
,19,나를 보내줘,6,Orange,A,0,0,ScrollUp,ScrollDown,Orange.png,4,NonTarget,NonTarget,0,0,0,0,,,,,,,,,,,,,,,,,,,,,,,,,0,18,18,18,,,,,,,,,,,,,,,,,,,,,,,,,,,,,,,,,,,,,,,,,,,,,,,,,,,,,,,,,,,,,,,,,,,,,,,,,1.9629629850387573,1.0962913999974262,667.7199465000012,None,ScrollUp,정답입니다,667.7199465000012,None,667.7199465000012,None,667.7199465000012,None,667.7199465000012,None,668.7044101000065,None,668.7044101000065,669.2045633000089,,,,,,,,,,,,,,,,113,2022-05-04_12h05.52.642,FishGame,2022.1.1,60.07030628335177,
,20,넌 의심없어,3,Orange,A,4.166666666666667,4.6,ScrollDown,ScrollUp,Orange.png,4,Neutral,Neutral,0,0,0,0,,,,,,,,,,,,,,,,,,,,,,,,,0,19,19,19,,,,,,,,,,,,,,,,,,,,,,,,,,,,,,,,,,,,,,,,,,,,,,,,,,,,,,,,,,,,,,,,,,,,,,,,,1,1.3072992000088561,669.8339005000016,None,ScrollDown,정답입니다,669.8339005000016,None,669.8339005000016,None,669.8339005000016,None,669.8339005000016,None,671.037903599994,None,671.037903599994,671.5383229000145,,,,,,,,,,,,,,,,113,2022-05-04_12h05.52.642,FishGame,2022.1.1,60.07030628335177,
,21,넌 시시해,4,Orange,A,2.666666666666667,2.966666666666667,ScrollDown,ScrollUp,Orange.png,4,Negative,Incongruent,0,0,0,0,,,,,,,,,,,,,,,,,,,,,,,,,0,20,20,20,,,,,,,,,,,,,,,,,,,,,,,,,,,,,,,,,,,,,,,,,,,,,,,,,,,,,,,,,,,,,,,,,,,,,,,,,1,1.0650954000011552,672.1703326000134,None,ScrollDown,정답입니다,672.1703326000134,None,672.1703326000134,None,672.1703326000134,None,672.1703326000134,None,673.1263329999929,None,673.1263329999929,673.6388680000091,,,,,,,,,,,,,,,,113,2022-05-04_12h05.52.642,FishGame,2022.1.1,60.07030628335177,
,22,나를 데려가줘,6,Green,B,0,0,ScrollDown,ScrollUp,Green.png,4,NonTarget,NonTarget,0,0,0,0,,,,,,,,,,,,,,,,,,,,,,,,,0,21,21,21,,,,,,,,,,,,,,,,,,,,,,,,,,,,,,,,,,,,,,,,,,,,,,,,,,,,,,,,,,,,,,,,,,,,,,,,,1,1.2029675999947358,674.2665084000037,None,ScrollDown,정답입니다,674.2665084000037,None,674.2665084000037,None,674.2665084000037,None,674.2665084000037,None,675.3700149000215,None,675.3700149000215,675.8715838000062,,,,,,,,,,,,,,,,113,2022-05-04_12h05.52.642,FishGame,2022.1.1,60.07030628335177,
,23,넌 무정해,5,Orange,A,2.5,2.2,ScrollDown,ScrollUp,Orange.png,4,Negative,Incongruent,0,0,0,0,,,,,,,,,,,,,,,,,,,,,,,,,0,22,22,22,,,,,,,,,,,,,,,,,,,,,,,,,,,,,,,,,,,,,,,,,,,,,,,,,,,,,,,,,,,,,,,,,,,,,,,,,1,1.3999806999927387,676.5020266000065,None,ScrollDown,정답입니다,676.5020266000065,None,676.5020266000065,None,676.5020266000065,None,676.5020266000065,None,677.7936411999981,None,677.7936411999981,678.3047035000054,,,,,,,,,,,,,,,,113,2022-05-04_12h05.52.642,FishGame,2022.1.1,60.07030628335177,
,24,넌 긍정적이야,1,Green,B,6.041666666666667,6.066666666666666,ScrollUp,ScrollDown,Green.png,4,Positive,Incongruent,0,0,0,0,,,,,,,,,,,,,,,,,,,,,,,,,0,23,23,23,,,,,,,,,,,,,,,,,,,,,,,,,,,,,,,,,,,,,,,,,,,,,,,,,,,,,,,,,,,,,,,,,,,,,,,,,2,1.197865099995397,678.9420635999995,None,ScrollUp,정답입니다,678.9420635999995,None,678.9420635999995,None,678.9420635999995,None,678.9420635999995,None,680.0208577000012,None,680.0208577000012,680.521603000001,,,,,,,,,,,,,,,,113,2022-05-04_12h05.52.642,FishGame,2022.1.1,60.07030628335177,
,25,나를 보내줘,6,Orange,A,0,0,ScrollUp,ScrollDown,Orange.png,4,NonTarget,NonTarget,0,0,0,0,,,,,,,,,,,,,,,,,,,,,,,,,0,24,24,24,,,,,,,,,,,,,,,,,,,,,,,,,,,,,,,,,,,,,,,,,,,,,,,,,,,,,,,,,,,,,,,,,,,,,,,,,1.873456800977389,1.0863510000053793,681.1505968999991,None,ScrollUp,정답입니다,681.1505968999991,None,681.1505968999991,None,681.1505968999991,None,681.1505968999991,None,682.1363908000058,None,682.1363908000058,682.6388550999982,,,,,,,,,,,,,,,,113,2022-05-04_12h05.52.642,FishGame,2022.1.1,60.07030628335177,
,26,넌 시기심이 많아,5,Green,B,2.458333333333333,2.233333333333333,ScrollUp,ScrollDown,Green.png,4,Negative,Congruent,0,0,0,0,,,,,,,,,,,,,,,,,,,,,,,,,0,25,25,25,,,,,,,,,,,,,,,,,,,,,,,,,,,,,,,,,,,,,,,,,,,,,,,,,,,,,,,,,,,,,,,,,,,,,,,,,1.9521604875723522,1.3813049999880604,683.2744437000074,None,ScrollUp,정답입니다,683.2744437000074,None,683.2744437000074,None,683.2744437000074,None,683.2744437000074,None,684.5420793000085,None,684.5420793000085,685.0550615999964,,,,,,,,,,,,,,,,113,2022-05-04_12h05.52.642,FishGame,2022.1.1,60.07030628335177,
,27,넌 탁월해,2,Orange,A,5.708333333333334,4.5,ScrollDown,ScrollUp,Orange.png,4,Positive,Congruent,0,0,0,0,,,,,,,,,,,,,,,,,,,,,,,,,0,26,26,26,,,,,,,,,,,,,,,,,,,,,,,,,,,,,,,,,,,,,,,,,,,,,,,,,,,,,,,,,,,,,,,,,,,,,,,,,1,1.051966300001368,685.6944391000143,None,ScrollDown,정답입니다,685.6944391000143,None,685.6944391000143,None,685.6944391000143,None,685.6944391000143,None,686.6271088000212,None,686.6271088000212,687.1381849000172,,,,,,,,,,,,,,,,113,2022-05-04_12h05.52.642,FishGame,2022.1.1,60.07030628335177,
,28,나를 데려가줘,6,Green,B,0,0,ScrollDown,ScrollUp,Green.png,4,NonTarget,NonTarget,0,0,0,0,,,,,,,,,,,,,,,,,,,,,,,,,0,27,27,27,,,,,,,,,,,,,,,,,,,,,,,,,,,,,,,,,,,,,,,,,,,,,,,,,,,,,,,,,,,,,,,,,,,,,,,,,1.1064814925193787,1.1243840999959502,687.7640357000055,None,ScrollDown,정답입니다,687.7640357000055,None,687.7640357000055,None,687.7640357000055,None,687.7640357000055,None,688.7883560000046,None,688.7883560000046,689.2885884999996,,,,,,,,,,,,,,,,113,2022-05-04_12h05.52.642,FishGame,2022.1.1,60.07030628335177,
,29,넌 조용해,3,Green,B,4.333333333333333,4.166666666666667,ScrollUp,ScrollDown,Green.png,4,Neutral,Neutral,0,0,0,0,,,,,,,,,,,,,,,,,,,,,,,,,0,28,28,28,,,,,,,,,,,,,,,,,,,,,,,,,,,,,,,,,,,,,,,,,,,,,,,,,,,,,,,,,,,,,,,,,,,,,,,,,1.879629631837209,1.0211834000074305,689.921917700005,None,ScrollUp,정답입니다,689.921917700005,None,689.921917700005,None,689.921917700005,None,689.921917700005,None,690.8365456000029,None,690.8365456000029,691.3386538000195,,,,,,,,,,,,,,,,113,2022-05-04_12h05.52.642,FishGame,2022.1.1,60.07030628335177,
,30,넌 다정해,1,Orange,A,5.833333333333334,5.7,ScrollDown,ScrollUp,Orange.png,4,Positive,Congruent,0,0,0,0,,,,,,,,,,,,,,,,,,,,,,,,,0,29,29,29,,,,,,,,,,,,,,,,,,,,,,,,,,,,,,,,,,,,,,,,,,,,,,,,,,,,,,,,,,,,,,,,,,,,,,,,,1,1.1430524000024889,691.9709116000158,None,ScrollDown,정답입니다,691.9709116000158,None,691.9709116000158,None,691.9709116000158,None,691.9709116000158,None,693.0049975000147,None,693.0049975000147,693.5053490000137,,,,,,,,,,,,,,,,113,2022-05-04_12h05.52.642,FishGame,2022.1.1,60.07030628335177,
,31,넌 능력있어,2,Green,B,6.166666666666666,4.6,ScrollUp,ScrollDown,Green.png,4,Positive,Incongruent,0,0,0,0,,,,,,,,,,,,,,,,,,,,,,,,,0,30,30,30,,,,,,,,,,,,,,,,,,,,,,,,,,,,,,,,,,,,,,,,,,,,,,,,,,,,,,,,,,,,,,,,,,,,,,,,,2,1.3247256000177003,694.1343113000039,None,ScrollUp,정답입니다,694.1343113000039,None,694.1343113000039,None,694.1343113000039,None,694.1343113000039,None,695.3550954000093,None,695.3550954000093,695.8550793000031,,,,,,,,,,,,,,,,113,2022-05-04_12h05.52.642,FishGame,2022.1.1,60.07030628335177,
,32,넌 불쾌해,5,Orange,A,2.125,1.933333333333333,ScrollDown,ScrollUp,Orange.png,4,Negative,Incongruent,0,0,0,0,,,,,,,,,,,,,,,,,,,,,,,,,0,31,31,31,,,,,,,,,,,,,,,,,,,,,,,,,,,,,,,,,,,,,,,,,,,,,,,,,,,,,,,,,,,,,,,,,,,,,,,,,1,1.0040389000205323,696.4854628000176,None,ScrollDown,정답입니다,696.4854628000176,None,696.4854628000176,None,696.4854628000176,None,696.4854628000176,None,697.3866563000192,None,697.3866563000192,697.888846899994,,,,,,,,,,,,,,,,113,2022-05-04_12h05.52.642,FishGame,2022.1.1,60.07030628335177,
,33,나를 데려가줘,6,Green,B,0,0,ScrollDown,ScrollUp,Green.png,4,NonTarget,NonTarget,0,0,0,0,,,,,,,,,,,,,,,,,,,,,,,,,0,32,32,32,,,,,,,,,,,,,,,,,,,,,,,,,,,,,,,,,,,,,,,,,,,,,,,,,,,,,,,,,,,,,,,,,,,,,,,,,1.0648148159186046,1.1983747000049334,698.516536900017,None,ScrollDown,정답입니다,698.516536900017,None,698.516536900017,None,698.516536900017,None,698.516536900017,None,699.6102043999999,None,699.6102043999999,700.1222527000064,,,,,,,,,,,,,,,,113,2022-05-04_12h05.52.642,FishGame,2022.1.1,60.07030628335177,
,34,넌 유순해,3,Orange,A,4.458333333333333,5,ScrollDown,ScrollUp,Orange.png,4,Neutral,Neutral,0,0,0,0,,,,,,,,,,,,,,,,,,,,,,,,,0,33,33,33,,,,,,,,,,,,,,,,,,,,,,,,,,,,,,,,,,,,,,,,,,,,,,,,,,,,,,,,,,,,,,,,,,,,,,,,,1.0910493781169255,0.9928435999900103,700.7502165000187,None,ScrollDown,정답입니다,700.7502165000187,None,700.7502165000187,None,700.7502165000187,None,700.7502165000187,None,701.638703900011,None,701.638703900011,702.1392920000071,,,,,,,,,,,,,,,,113,2022-05-04_12h05.52.642,FishGame,2022.1.1,60.07030628335177,
,35,넌 근심스러워,4,Green,B,2.708333333333333,3.133333333333333,ScrollUp,ScrollDown,Green.png,4,Negative,Congruent,0,0,0,0,,,,,,,,,,,,,,,,,,,,,,,,,0,34,34,34,,,,,,,,,,,,,,,,,,,,,,,,,,,,,,,,,,,,,,,,,,,,,,,,,,,,,,,,,,,,,,,,,,,,,,,,,1.9583333432674408,1.0952088999911211,702.7717538000143,None,ScrollUp,정답입니다,702.7717538000143,None,702.7717538000143,None,702.7717538000143,None,702.7717538000143,None,703.7552239000215,None,703.7552239000215,704.2554828000139,,,,,,,,,,,,,,,,113,2022-05-04_12h05.52.642,FishGame,2022.1.1,60.07030628335177,
,36,넌 세련되었어,2,Orange,A,5.5,4.6,ScrollDown,ScrollUp,Orange.png,4,Positive,Congruent,0,0,0,0,,,,,,,,,,,,,,,,,,,,,,,,,0,35,35,35,,,,,,,,,,,,,,,,,,,,,,,,,,,,,,,,,,,,,,,,,,,,,,,,,,,,,,,,,,,,,,,,,,,,,,,,,1,1.0127535000210628,704.9054058000038,None,ScrollDown,정답입니다,704.9054058000038,None,704.9054058000038,None,704.9054058000038,None,704.9054058000038,None,705.7887870999984,None,705.7887870999984,706.2892109999957,,,,,,,,,,,,,,,,113,2022-05-04_12h05.52.642,FishGame,2022.1.1,60.07030628335177,
,37,나를 보내줘,6,Orange,A,0,0,ScrollUp,ScrollDown,Orange.png,4,NonTarget,NonTarget,0,0,0,0,,,,,,,,,,,,,,,,,,,,,,,,,0,36,36,36,,,,,,,,,,,,,,,,,,,,,,,,,,,,,,,,,,,,,,,,,,,,,,,,,,,,,,,,,,,,,,,,,,,,,,,,,2,1.4892554999969434,706.9189072000154,None,ScrollUp,정답입니다,706.9189072000154,None,706.9189072000154,None,706.9189072000154,None,706.9189072000154,None,708.3037506999972,None,708.3037506999972,708.8052526999963,,,,,,,,,,,,,,,,113,2022-05-04_12h05.52.642,FishGame,2022.1.1,60.07030628335177,
,38,넌 확고해,3,Green,B,4.708333333333334,4.566666666666666,ScrollUp,ScrollDown,Green.png,4,Neutral,Neutral,0,0,0,0,,,,,,,,,,,,,,,,,,,,,,,,,0,37,37,37,,,,,,,,,,,,,,,,,,,,,,,,,,,,,,,,,,,,,,,,,,,,,,,,,,,,,,,,,,,,,,,,,,,,,,,,,1.785493830839793,0.9914770000032149,709.437492099998,None,ScrollUp,정답입니다,709.437492099998,None,709.437492099998,None,709.437492099998,None,709.437492099998,None,710.3219962000148,None,710.3219962000148,710.8224853000138,,,,,,,,,,,,,,,,113,2022-05-04_12h05.52.642,FishGame,2022.1.1,60.07030628335177,
,39,넌 이해심이 많아,1,Green,B,6.041666666666668,5.533333333333333,ScrollUp,ScrollDown,Green.png,4,Positive,Incongruent,0,0,0,0,,,,,,,,,,,,,,,,,,,,,,,,,0,38,38,38,,,,,,,,,,,,,,,,,,,,,,,,,,,,,,,,,,,,,,,,,,,,,,,,,,,,,,,,,,,,,,,,,,,,,,,,,1.9413580397764842,1.644658300006995,711.4531735000201,None,ScrollUp,정답입니다,711.4531735000201,None,711.4531735000201,None,711.4531735000201,None,711.4531735000201,None,712.9892869000032,None,712.9892869000032,713.4893056000001,,,,,,,,,,,,,,,,113,2022-05-04_12h05.52.642,FishGame,2022.1.1,60.07030628335177,
,40,나를 보내줘,6,Orange,A,0,0,ScrollUp,ScrollDown,Orange.png,4,NonTarget,NonTarget,0,0,0,0,,,,,,,,,,,,,,,,,,,,,,,,,0,39,39,39,,,,,,,,,,,,,,,,,,,,,,,,,,,,,,,,,,,,,,,,,,,,,,,,,,,,,,,,,,,,,,,,,,,,,,,,,2,1.1222210999985691,714.1196699000138,None,ScrollUp,정답입니다,714.1196699000138,None,714.1196699000138,None,714.1196699000138,None,714.1196699000138,None,715.1374307000078,None,715.1374307000078,715.638858899998,,,,,,,,,,,,,,,,113,2022-05-04_12h05.52.642,FishGame,2022.1.1,60.07030628335177,
,41,넌 거칠어,4,Orange,A,2.625,3.033333333333333,ScrollDown,ScrollUp,Orange.png,4,Negative,Incongruent,0,0,0,0,,,,,,,,,,,,,,,,,,,,,,,,,0,40,40,40,,,,,,,,,,,,,,,,,,,,,,,,,,,,,,,,,,,,,,,,,,,,,,,,,,,,,,,,,,,,,,,,,,,,,,,,,1.0895061641931534,1.0260467999905813,716.2746647000022,None,ScrollDown,정답입니다,716.2746647000022,None,716.2746647000022,None,716.2746647000022,None,716.2746647000022,None,717.1890272000164,None,717.1890272000164,717.6890519000008,,,,,,,,,,,,,,,,113,2022-05-04_12h05.52.642,FishGame,2022.1.1,60.07030628335177,
,42,넌 변덕맞아,5,Green,B,2.75,2.166666666666667,ScrollUp,ScrollDown,Green.png,4,Negative,Congruent,0,0,0,0,,,,,,,,,,,,,,,,,,,,,,,,,0,41,41,41,,,,,,,,,,,,,,,,,,,,,,,,,,,,,,,,,,,,,,,,,,,,,,,,,,,,,,,,,,,,,,,,,,,,,,,,,2,1.4675456999975722,718.3261160000111,None,ScrollUp,정답입니다,718.3261160000111,None,718.3261160000111,None,718.3261160000111,None,718.3261160000111,None,719.6775532000174,None,719.6775532000174,720.189544599998,,,,,,,,,,,,,,,,113,2022-05-04_12h05.52.642,FishGame,2022.1.1,60.07030628335177,
,43,나를 데려가줘,6,Green,B,0,0,ScrollDown,ScrollUp,Green.png,4,NonTarget,NonTarget,0,0,0,0,,,,,,,,,,,,,,,,,,,,,,,,,0,42,42,42,,,,,,,,,,,,,,,,,,,,,,,,,,,,,,,,,,,,,,,,,,,,,,,,,,,,,,,,,,,,,,,,,,,,,,,,,1,1.1202641999989282,720.8122958000167,None,ScrollDown,정답입니다,720.8122958000167,None,720.8122958000167,None,720.8122958000167,None,720.8122958000167,None,721.8374399000022,None,721.8374399000022,722.3394625000074,,,,,,,,,,,,,,,,113,2022-05-04_12h05.52.642,FishGame,2022.1.1,60.07030628335177,
,44,넌 외로워,4,Green,B,2.833333333333333,3.3,ScrollUp,ScrollDown,Green.png,4,Negative,Congruent,0,0,0,0,,,,,,,,,,,,,,,,,,,,,,,,,0,43,43,43,,,,,,,,,,,,,,,,,,,,,,,,,,,,,,,,,,,,,,,,,,,,,,,,,,,,,,,,,,,,,,,,,,,,,,,,,1.9891975224018097,1.3531045999843627,722.9754635000136,None,ScrollUp,정답입니다,722.9754635000136,None,722.9754635000136,None,722.9754635000136,None,722.9754635000136,None,724.2106536999927,None,724.2106536999927,724.7220803000091,,,,,,,,,,,,,,,,113,2022-05-04_12h05.52.642,FishGame,2022.1.1,60.07030628335177,
,1,넌 불평스러워,5,Orange,A,2.25,2.066666666666667,ScrollDown,ScrollUp,Orange.png,5,Negative,Incongruent,0,0,0,0,,,,,,,,,,,,,,,,,,,,,,,,,,,,,0,0,0,0,,,,,,,,,,,,,,,,,,,,,,,,,,,,775.4736056000111,776.9734982000082,777.0070448000042,777.9569512000016,778.0073763999972,778.9573413000035,778.9573413000035,None,,,,,,,,,,,,,,,,,,,,,,,,,,,,,,,,,,1,1.5381077000056393,780.1082122999942,None,ScrollDown,정답입니다,780.1082122999942,None,780.1082122999942,None,780.1082122999942,None,780.1082122999942,None,781.4900621999986,None,781.4900621999986,781.9904143000022,725.2221164999937,None,725.2221164999937,None,-0.047222223,-0.107407406,1,0,0,0.016305999975884333,None,755.2232024999976,None,,,113,2022-05-04_12h05.52.642,FishGame,2022.1.1,60.07030628335177,
,2,나를 보내줘,6,Orange,A,0,0,ScrollUp,ScrollDown,Orange.png,5,NonTarget,NonTarget,0,0,0,0,,,,,,,,,,,,,,,,,,,,,,,,,,,,,0,1,1,1,,,,,,,,,,,,,,,,,,,,,,,,,,,,,,,,,,,,,,,,,,,,,,,,,,,,,,,,,,,,,,,,,,,,,2,1.2569164000160526,782.6237706000102,None,ScrollUp,정답입니다,782.6237706000102,None,782.6237706000102,None,782.6237706000102,None,782.6237706000102,None,783.7721470000106,None,783.7721470000106,784.2743519000069,,,,,,,,,,,,,,,,113,2022-05-04_12h05.52.642,FishGame,2022.1.1,60.07030628335177,
,3,넌 다재다능해,2,Green,B,6.208333333333333,4.5,ScrollUp,ScrollDown,Green.png,5,Positive,Incongruent,0,0,0,0,,,,,,,,,,,,,,,,,,,,,,,,,,,,,0,2,2,2,,,,,,,,,,,,,,,,,,,,,,,,,,,,,,,,,,,,,,,,,,,,,,,,,,,,,,,,,,,,,,,,,,,,,2,1.1161098000011407,784.9034837000072,None,ScrollUp,정답입니다,784.9034837000072,None,784.9034837000072,None,784.9034837000072,None,784.9034837000072,None,785.9111799999955,None,785.9111799999955,786.4242224000045,,,,,,,,,,,,,,,,113,2022-05-04_12h05.52.642,FishGame,2022.1.1,60.07030628335177,
,4,넌 과감해,3,Orange,A,4.833333333333334,4.6,ScrollDown,ScrollUp,Orange.png,5,Neutral,Neutral,0,0,0,0,,,,,,,,,,,,,,,,,,,,,,,,,,,,,0,3,3,3,,,,,,,,,,,,,,,,,,,,,,,,,,,,,,,,,,,,,,,,,,,,,,,,,,,,,,,,,,,,,,,,,,,,,1.0756172637144725,0.9854802000045311,787.0547137999965,None,ScrollDown,정답입니다,787.0547137999965,None,787.0547137999965,None,787.0547137999965,None,787.0547137999965,None,787.928621900006,None,787.928621900006,788.4408748999995,,,,,,,,,,,,,,,,113,2022-05-04_12h05.52.642,FishGame,2022.1.1,60.07030628335177,
,5,넌 고분고분해,3,Green,B,3.75,4.033333333333333,ScrollUp,ScrollDown,Green.png,5,Neutral,Neutral,0,0,0,0,,,,,,,,,,,,,,,,,,,,,,,,,,,,,0,4,4,4,,,,,,,,,,,,,,,,,,,,,,,,,,,,,,,,,,,,,,,,,,,,,,,,,,,,,,,,,,,,,,,,,,,,,1.9737654328346252,1.049511799996253,789.071426200011,None,ScrollUp,정답입니다,789.071426200011,None,789.071426200011,None,789.071426200011,None,789.071426200011,None,790.0112070000032,None,790.0112070000032,790.5241324999952,,,,,,,,,,,,,,,,113,2022-05-04_12h05.52.642,FishGame,2022.1.1,60.07030628335177,
,6,나를 보내줘,6,Orange,A,0,0,ScrollUp,ScrollDown,Orange.png,5,NonTarget,NonTarget,0,0,0,0,,,,,,,,,,,,,,,,,,,,,,,,,,,,,0,5,5,5,,,,,,,,,,,,,,,,,,,,,,,,,,,,,,,,,,,,,,,,,,,,,,,,,,,,,,,,,,,,,,,,,,,,,2,1.1767677000025287,791.1531682000204,None,ScrollUp,정답입니다,791.1531682000204,None,791.1531682000204,None,791.1531682000204,None,791.1531682000204,None,792.224056600011,None,792.224056600011,792.7245106000046,,,,,,,,,,,,,,,,113,2022-05-04_12h05.52.642,FishGame,2022.1.1,60.07030628335177,
,7,넌 잘 잊어,4,Orange,A,3,3.7,ScrollDown,ScrollUp,Orange.png,5,Negative,Incongruent,0,0,0,0,,,,,,,,,,,,,,,,,,,,,,,,,,,,,0,6,6,6,,,,,,,,,,,,,,,,,,,,,,,,,,,,,,,,,,,,,,,,,,,,,,,,,,,,,,,,,,,,,,,,,,,,,1.0339506367842357,1.0195949000190012,793.3606966999942,None,ScrollDown,정답입니다,793.3606966999942,None,793.3606966999942,None,793.3606966999942,None,793.3606966999942,None,794.2722664000175,None,794.2722664000175,794.7739825000172,,,,,,,,,,,,,,,,113,2022-05-04_12h05.52.642,FishGame,2022.1.1,60.07030628335177,
,8,넌 탐구심이없어,4,Green,B,2.833333333333333,3.066666666666667,ScrollUp,ScrollDown,Green.png,5,Negative,Congruent,0,0,0,0,,,,,,,,,,,,,,,,,,,,,,,,,,,,,0,7,7,7,,,,,,,,,,,,,,,,,,,,,,,,,,,,,,,,,,,,,,,,,,,,,,,,,,,,,,,,,,,,,,,,,,,,,1.9969135920206706,1.0659550999989733,795.4097919000196,None,ScrollUp,정답입니다,795.4097919000196,None,795.4097919000196,None,795.4097919000196,None,795.4097919000196,None,796.3606708000007,None,796.3606708000007,796.874042600015,,,,,,,,,,,,,,,,113,2022-05-04_12h05.52.642,FishGame,2022.1.1,60.07030628335177,
,9,나를 데려가줘,6,Green,B,0,0,ScrollDown,ScrollUp,Green.png,5,NonTarget,NonTarget,0,0,0,0,,,,,,,,,,,,,,,,,,,,,,,,,,,,,0,8,8,8,,,,,,,,,,,,,,,,,,,,,,,,,,,,,,,,,,,,,,,,,,,,,,,,,,,,,,,,,,,,,,,,,,,,,1.0231481393178303,1.0356331999937538,797.5020089000172,None,ScrollDown,정답입니다,797.5020089000172,None,797.5020089000172,None,797.5020089000172,None,797.5020089000172,None,798.429931599996,None,798.429931599996,798.9411061000137,,,,,,,,,,,,,,,,113,2022-05-04_12h05.52.642,FishGame,2022.1.1,60.07030628335177,
,10,넌 참되어,2,Orange,A,6.041666666666664,4.733333333333333,ScrollDown,ScrollUp,Orange.png,5,Positive,Congruent,0,0,0,0,,,,,,,,,,,,,,,,,,,,,,,,,,,,,0,9,9,9,,,,,,,,,,,,,,,,,,,,,,,,,,,,,,,,,,,,,,,,,,,,,,,,,,,,,,,,,,,,,,,,,,,,,1.180555562178294,1.1701115999894682,799.577372300002,None,ScrollDown,정답입니다,799.577372300002,None,799.577372300002,None,799.577372300002,None,799.577372300002,None,800.6393402999965,None,800.6393402999965,801.1410562999954,,,,,,,,,,,,,,,,113,2022-05-04_12h05.52.642,FishGame,2022.1.1,60.07030628335177,
,11,넌 생기있어,1,Green,B,5.875,5.633333333333334,ScrollUp,ScrollDown,Green.png,5,Positive,Incongruent,0,0,0,0,,,,,,,,,,,,,,,,,,,,,,,,,,,,,0,10,10,10,,,,,,,,,,,,,,,,,,,,,,,,,,,,,,,,,,,,,,,,,,,,,,,,,,,,,,,,,,,,,,,,,,,,,2,1.161887199996272,801.769231000013,None,ScrollUp,정답입니다,801.769231000013,None,801.769231000013,None,801.769231000013,None,801.769231000013,None,802.8207475999952,None,802.8207475999952,803.324317999999,,,,,,,,,,,,,,,,113,2022-05-04_12h05.52.642,FishGame,2022.1.1,60.07030628335177,
,12,넌 비사교적이야,4,Green,B,2.875,2.9,ScrollUp,ScrollDown,Green.png,5,Negative,Congruent,0,0,0,0,,,,,,,,,,,,,,,,,,,,,,,,,,,,,0,11,11,11,,,,,,,,,,,,,,,,,,,,,,,,,,,,,,,,,,,,,,,,,,,,,,,,,,,,,,,,,,,,,,,,,,,,,2,1.0599890000012238,803.9503152999969,None,ScrollUp,정답입니다,803.9503152999969,None,803.9503152999969,None,803.9503152999969,None,803.9503152999969,None,804.9077025000006,None,804.9077025000006,805.4077306000108,,,,,,,,,,,,,,,,113,2022-05-04_12h05.52.642,FishGame,2022.1.1,60.07030628335177,
,13,나를 데려가줘,6,Green,B,0,0,ScrollDown,ScrollUp,Green.png,5,NonTarget,NonTarget,0,0,0,0,,,,,,,,,,,,,,,,,,,,,,,,,,,,,0,12,12,12,,,,,,,,,,,,,,,,,,,,,,,,,,,,,,,,,,,,,,,,,,,,,,,,,,,,,,,,,,,,,,,,,,,,,1.0154321193695068,1.2806012000073679,806.0392468000064,None,ScrollDown,정답입니다,806.0392468000064,None,806.0392468000064,None,806.0392468000064,None,806.0392468000064,None,807.2112151000183,None,807.2112151000183,807.7244190000056,,,,,,,,,,,,,,,,113,2022-05-04_12h05.52.642,FishGame,2022.1.1,60.07030628335177,
,14,넌 고독해,4,Orange,A,2.916666666666667,3.233333333333333,ScrollDown,ScrollUp,Orange.png,5,Negative,Incongruent,0,0,0,0,,,,,,,,,,,,,,,,,,,,,,,,,,,,,0,13,13,13,,,,,,,,,,,,,,,,,,,,,,,,,,,,,,,,,,,,,,,,,,,,,,,,,,,,,,,,,,,,,,,,,,,,,1,1.2524374999920838,808.3541300999932,None,ScrollDown,정답입니다,808.3541300999932,None,808.3541300999932,None,808.3541300999932,None,808.3541300999932,None,809.4960871000076,None,809.4960871000076,810.0080457000004,,,,,,,,,,,,,,,,113,2022-05-04_12h05.52.642,FishGame,2022.1.1,60.07030628335177,
,15,넌 신경질적이야,5,Green,B,2.375,2.233333333333333,ScrollUp,ScrollDown,Green.png,5,Negative,Congruent,0,0,0,0,,,,,,,,,,,,,,,,,,,,,,,,,,,,,0,14,14,14,,,,,,,,,,,,,,,,,,,,,,,,,,,,,,,,,,,,,,,,,,,,,,,,,,,,,,,,,,,,,,,,,,,,,2,1.087118700001156,810.643946199998,None,ScrollUp,정답입니다,810.643946199998,None,810.643946199998,None,810.643946199998,None,810.643946199998,None,811.6225885000022,None,811.6225885000022,812.1245790999965,,,,,,,,,,,,,,,,113,2022-05-04_12h05.52.642,FishGame,2022.1.1,60.07030628335177,
,16,넌 똑똑해,2,Green,B,5.666666666666667,3.966666666666667,ScrollUp,ScrollDown,Green.png,5,Positive,Incongruent,0,0,0,0,,,,,,,,,,,,,,,,,,,,,,,,,,,,,0,15,15,15,,,,,,,,,,,,,,,,,,,,,,,,,,,,,,,,,,,,,,,,,,,,,,,,,,,,,,,,,,,,,,,,,,,,,2,1.2233576999860816,812.7560838999925,None,ScrollUp,정답입니다,812.7560838999925,None,812.7560838999925,None,812.7560838999925,None,812.7560838999925,None,813.8727796000021,None,813.8727796000021,814.3748411000124,,,,,,,,,,,,,,,,113,2022-05-04_12h05.52.642,FishGame,2022.1.1,60.07030628335177,
,17,나를 보내줘,6,Orange,A,0,0,ScrollUp,ScrollDown,Orange.png,5,NonTarget,NonTarget,0,0,0,0,,,,,,,,,,,,,,,,,,,,,,,,,,,,,0,16,16,16,,,,,,,,,,,,,,,,,,,,,,,,,,,,,,,,,,,,,,,,,,,,,,,,,,,,,,,,,,,,,,,,,,,,,2,1.3891617999761365,815.0063538000104,None,ScrollUp,정답입니다,815.0063538000104,None,815.0063538000104,None,815.0063538000104,None,815.0063538000104,None,816.2894934000215,None,816.2894934000215,816.7910250000132,,,,,,,,,,,,,,,,113,2022-05-04_12h05.52.642,FishGame,2022.1.1,60.07030628335177,
,18,넌 협조적이야,1,Orange,A,5.625,5.666666666666667,ScrollDown,ScrollUp,Orange.png,5,Positive,Congruent,0,0,0,0,,,,,,,,,,,,,,,,,,,,,,,,,,,,,0,17,17,17,,,,,,,,,,,,,,,,,,,,,,,,,,,,,,,,,,,,,,,,,,,,,,,,,,,,,,,,,,,,,,,,,,,,,1,1.1103016999841202,817.424705500016,None,ScrollDown,정답입니다,817.424705500016,None,817.424705500016,None,817.424705500016,None,817.424705500016,None,818.4246041000006,None,818.4246041000006,818.9247447999951,,,,,,,,,,,,,,,,113,2022-05-04_12h05.52.642,FishGame,2022.1.1,60.07030628335177,
,19,나를 데려가줘,6,Green,B,0,0,ScrollDown,ScrollUp,Green.png,5,NonTarget,NonTarget,0,0,0,0,,,,,,,,,,,,,,,,,,,,,,,,,,,,,0,18,18,18,,,,,,,,,,,,,,,,,,,,,,,,,,,,,,,,,,,,,,,,,,,,,,,,,,,,,,,,,,,,,,,,,,,,,1.1342592686414719,1.5919983999920078,819.5549559000065,None,ScrollDown,정답입니다,819.5549559000065,None,819.5549559000065,None,819.5549559000065,None,819.5549559000065,None,821.0413088000205,None,821.0413088000205,821.5410501000006,,,,,,,,,,,,,,,,113,2022-05-04_12h05.52.642,FishGame,2022.1.1,60.07030628335177,
,20,넌 몰인정해,5,Green,B,2.541666666666667,2.066666666666667,ScrollUp,ScrollDown,Green.png,5,Negative,Congruent,0,0,0,0,,,,,,,,,,,,,,,,,,,,,,,,,,,,,0,19,19,19,,,,,,,,,,,,,,,,,,,,,,,,,,,,,,,,,,,,,,,,,,,,,,,,,,,,,,,,,,,,,,,,,,,,,2,1.2769331999879796,822.1722202000092,None,ScrollUp,정답입니다,822.1722202000092,None,822.1722202000092,None,822.1722202000092,None,822.1722202000092,None,823.3412384999974,None,823.3412384999974,823.8414960000082,,,,,,,,,,,,,,,,113,2022-05-04_12h05.52.642,FishGame,2022.1.1,60.07030628335177,
,21,나를 데려가줘,6,Green,B,0,0,ScrollDown,ScrollUp,Green.png,5,NonTarget,NonTarget,0,0,0,0,,,,,,,,,,,,,,,,,,,,,,,,,,,,,0,20,20,20,,,,,,,,,,,,,,,,,,,,,,,,,,,,,,,,,,,,,,,,,,,,,,,,,,,,,,,,,,,,,,,,,,,,,1,1.2482730000047013,824.4710829000105,None,ScrollDown,정답입니다,824.4710829000105,None,824.4710829000105,None,824.4710829000105,None,824.4710829000105,None,825.6116317000124,None,825.6116317000124,826.1250953999988,,,,,,,,,,,,,,,,113,2022-05-04_12h05.52.642,FishGame,2022.1.1,60.07030628335177,
,22,넌 순진해,3,Green,B,4.125,4.166666666666667,ScrollUp,ScrollDown,Green.png,5,Neutral,Neutral,0,0,0,0,,,,,,,,,,,,,,,,,,,,,,,,,,,,,0,21,21,21,,,,,,,,,,,,,,,,,,,,,,,,,,,,,,,,,,,,,,,,,,,,,,,,,,,,,,,,,,,,,,,,,,,,,2,1.4328470000182278,826.7488550000126,None,ScrollUp,정답입니다,826.7488550000126,None,826.7488550000126,None,826.7488550000126,None,826.7488550000126,None,828.0800279999967,None,828.0800279999967,828.5918822000094,,,,,,,,,,,,,,,,113,2022-05-04_12h05.52.642,FishGame,2022.1.1,60.07030628335177,
,23,넌 신뢰할만해,1,Orange,A,6.625,5.533333333333333,ScrollDown,ScrollUp,Orange.png,5,Positive,Congruent,0,0,0,0,,,,,,,,,,,,,,,,,,,,,,,,,,,,,0,22,22,22,,,,,,,,,,,,,,,,,,,,,,,,,,,,,,,,,,,,,,,,,,,,,,,,,,,,,,,,,,,,,,,,,,,,,1,1.2248454999935348,829.2333791000128,None,ScrollDown,정답입니다,829.2333791000128,None,829.2333791000128,None,829.2333791000128,None,829.2333791000128,None,830.3411784000054,None,830.3411784000054,830.841207999998,,,,,,,,,,,,,,,,113,2022-05-04_12h05.52.642,FishGame,2022.1.1,60.07030628335177,
,24,나를 보내줘,6,Orange,A,0,0,ScrollUp,ScrollDown,Orange.png,5,NonTarget,NonTarget,0,0,0,0,,,,,,,,,,,,,,,,,,,,,,,,,,,,,0,23,23,23,,,,,,,,,,,,,,,,,,,,,,,,,,,,,,,,,,,,,,,,,,,,,,,,,,,,,,,,,,,,,,,,,,,,,2,1.4847723999992013,831.4727052999951,None,ScrollUp,정답입니다,831.4727052999951,None,831.4727052999951,None,831.4727052999951,None,831.4727052999951,None,832.8469678999973,None,832.8469678999973,833.3586604000011,,,,,,,,,,,,,,,,113,2022-05-04_12h05.52.642,FishGame,2022.1.1,60.07030628335177,
,25,넌 인색해,5,Orange,A,2.625,2.233333333333333,ScrollDown,ScrollUp,Orange.png,5,Negative,Incongruent,0,0,0,0,,,,,,,,,,,,,,,,,,,,,,,,,,,,,0,24,24,24,,,,,,,,,,,,,,,,,,,,,,,,,,,,,,,,,,,,,,,,,,,,,,,,,,,,,,,,,,,,,,,,,,,,,1.0586419602235158,1.1538659999787342,833.9946372999984,None,ScrollDown,정답입니다,833.9946372999984,None,833.9946372999984,None,833.9946372999984,None,833.9946372999984,None,835.0396637000085,None,835.0396637000085,835.5417519000184,,,,,,,,,,,,,,,,113,2022-05-04_12h05.52.642,FishGame,2022.1.1,60.07030628335177,
