name,TrialNum,Word,WordCategory,FishType,WordList,WordValence,WordReputation,CorrectResp,IncorrectResp,FishTypeFile,Round,WordType,Condition,LoopforOrange.thisRepN,LoopforOrange.thisTrialN,LoopforOrange.thisN,LoopforOrange.thisIndex,LoopForGreen.thisRepN,LoopForGreen.thisTrialN,LoopForGreen.thisN,LoopForGreen.thisIndex,GreenInstLoop.thisRepN,GreenInstLoop.thisTrialN,GreenInstLoop.thisN,GreenInstLoop.thisIndex,GreenPrac.thisRepN,GreenPrac.thisTrialN,GreenPrac.thisN,GreenPrac.thisIndex,trials_2.thisRepN,trials_2.thisTrialN,trials_2.thisN,trials_2.thisIndex,GreenRound1.thisRepN,GreenRound1.thisTrialN,GreenRound1.thisN,GreenRound1.thisIndex,GreenRound2.thisRepN,GreenRound2.thisTrialN,GreenRound2.thisN,GreenRound2.thisIndex,GreenRound3.thisRepN,GreenRound3.thisTrialN,GreenRound3.thisN,GreenRound3.thisIndex,GreenRound4.thisRepN,GreenRound4.thisTrialN,GreenRound4.thisN,GreenRound4.thisIndex,GreenRound5.thisRepN,GreenRound5.thisTrialN,GreenRound5.thisN,GreenRound5.thisIndex,text_2.started,text_2.stopped,text_3.started,text_3.stopped,key_resp.keys,key_resp.rt,key_resp.started,key_resp.stopped,PassI.started,PassI.stopped,PassInst.keys,PassInst.rt,PassInst.started,PassInst.stopped,mouse_2.x,mouse_2.y,mouse_2.leftButton,mouse_2.midButton,mouse_2.rightButton,mouse_2.started,mouse_2.stopped,image.started,image.stopped,text_5.started,text_5.stopped,text_6.started,text_6.stopped,text_7.started,text_7.stopped,text_8.started,text_8.stopped,slider_3.response,slider_3.rt,slider_3.started,slider_3.stopped,Response_3,Feedback_3,BackGround_3.started,BackGround_3.stopped,Fish_3.started,Fish_3.stopped,WordBox_3.started,WordBox_3.stopped,Words_3.started,Words_3.stopped,BackGround_Feedback_3.started,BackGround_Feedback_3.stopped,Feedbacks_3.started,Feedbacks_3.stopped,Continue_or_not_2.keys,Continue_or_not_2.rt,Continue_or_not_2.started,Continue_or_not_2.stopped,image_4.started,image_4.stopped,mouse_3.x,mouse_3.y,mouse_3.leftButton,mouse_3.midButton,mouse_3.rightButton,mouse_3.started,mouse_3.stopped,startmain.started,startmain.stopped,slider_4.response,slider_4.rt,slider_4.started,slider_4.stopped,Response_4,Feedback_4,BackGround_4.started,BackGround_4.stopped,Fish_4.started,Fish_4.stopped,WordBox_4.started,WordBox_4.stopped,Words_4.started,Words_4.stopped,BackGround_Feedback_4.started,BackGround_Feedback_4.stopped,Feedbacks_4.started,Feedbacks_4.stopped,text.started,text.stopped,break_interval.started,break_interval.stopped,mouse.x,mouse.y,mouse.leftButton,mouse.midButton,mouse.rightButton,mouse.started,mouse.stopped,stratnextround.started,stratnextround.stopped,endgame.started,endgame.stopped,participant,date,expName,psychopyVersion,frameRate,
,,,,,,,,,,,,,,,,,,,,,,,,,,,,,,,,,,,,,,,,,,,,,,,,,,,,,,21.698471999989124,None,21.698471999989124,None,space,6.268020999996224,22.170974500011653,None,,,,,,,,,,,,,,,,,,,,,,,,,,,,,,,,,,,,,,,,,,,,,,,,,,,,,,,,,,,,,,,,,,,,,,,,,,,,,,,,,,,,,,,,,,114,2022-05-04_13h57.52.338,FishGame,2022.1.1,59.84941886168048,
물고기과제_instruction(참가자용)GreenVersion.mp4,,,,,,,,,,,,,,,,,,0,0,0,0,0,0,0,0,,,,,,,,,,,,,,,,,,,,,,,,,,,,,,,,,,,,,95.17088230000809,None,n,7.262109000002965,95.17088230000809,None,,,,,,,,,,,,,,,,,,,,,,,,,,,,,,,,,,,,,,,,,,,,,,,,,,,,,,,,,,,,,,,,,,,,,,,,,,,,,,,,,,,,114,2022-05-04_13h57.52.338,FishGame,2022.1.1,59.84941886168048,
,1,넌 교활해,5,Orange,B,2.333333333333333,2.133333333333333,ScrollUp,ScrollDown,Orange.png,practice,,,,,,,0,0,0,0,,,,,0,0,0,0,0,0,0,0,,,,,,,,,,,,,,,,,,,,,,,,,,,,,,,,,,,0.5240741,-0.33425927,1,0,0,0.5139439000340644,None,102.4559203000099,None,123.58979910000926,125.08976969998912,125.12253230001079,126.07271050001145,126.12293449998833,127.07291499999701,127.07291499999701,None,1.6450617238879204,1.8722337000072002,128.24002679999103,None,ScrollUp,정답입니다,128.24002679999103,None,128.24002679999103,None,128.24002679999103,None,128.24002679999103,None,129.94122300000163,None,129.94122300000163,130.45636690000538,,,,,,,,,,,,,,,,,,,,,,,,,,,,,,,,,,,,,,,,,,,,,,,,,114,2022-05-04_13h57.52.338,FishGame,2022.1.1,59.84941886168048,
,2,넌 슬기로워,2,Green,A,6.166666666666667,4.1,ScrollDown,ScrollUp,Green.png,practice,,,,,,,0,0,0,0,,,,,0,0,0,0,0,1,1,1,,,,,,,,,,,,,,,,,,,,,,,,,,,,,,,,,,,,,,,,,,,,,,,,,,,,1.0138889054457347,1.126828900014516,131.0701546999917,None,ScrollDown,정답입니다,131.0701546999917,None,131.0701546999917,None,131.0701546999917,None,131.0701546999917,None,132.0898329000047,None,132.0898329000047,132.58976500001154,,,,,,,,,,,,,,,,,,,,,,,,,,,,,,,,,,,,,,,,,,,,,,,,,114,2022-05-04_13h57.52.338,FishGame,2022.1.1,59.84941886168048,
,3,나를 보내줘,6,Green,A,0,0,ScrollUp,ScrollDown,Green.png,practice,,,,,,,0,0,0,0,,,,,0,0,0,0,0,2,2,2,,,,,,,,,,,,,,,,,,,,,,,,,,,,,,,,,,,,,,,,,,,,,,,,,,,,1.6574074104428291,1.119003799976781,133.22315549998893,None,ScrollUp,정답입니다,133.22315549998893,None,133.22315549998893,None,133.22315549998893,None,133.22315549998893,None,134.23786269998527,None,134.23786269998527,134.74019380001118,,,,,,,,,,,,,,,,,,,,,,,,,,,,,,,,,,,,,,,,,,,,,,,,,114,2022-05-04_13h57.52.338,FishGame,2022.1.1,59.84941886168048,
,4,나를 데려가줘,6,Orange,B,0,0,ScrollDown,ScrollUp,Orange.png,practice,,,,,,,0,0,0,0,,,,,0,0,0,0,0,3,3,3,,,,,,,,,,,,,,,,,,,,,,,,,,,,,,,,,,,,,,,,,,,,,,,,,,,,1,0.9059472999942955,135.37905489999685,None,ScrollDown,정답입니다,135.37905489999685,None,135.37905489999685,None,135.37905489999685,None,135.37905489999685,None,136.17111560000922,None,136.17111560000922,136.67314470000565,,,,,,,,,,,,,,,,,,,,,,,,,,,,,,,,,,,,,,,,,,,,,,,,,114,2022-05-04_13h57.52.338,FishGame,2022.1.1,59.84941886168048,
,1,넌 교활해,5,Orange,B,2.333333333333333,2.133333333333333,ScrollUp,ScrollDown,Orange.png,practice,,,,,,,0,0,0,0,,,,,0,0,0,0,,,,,,,,,,,,,,,,,,,,,,,,,,,,,,,,,,,,,,,,,,,,,,,,,,,,,,,,,,,,,,,,,,,,,,,,,,n,9.622831699991366,137.17327249998925,None,137.17327249998925,None,,,,,,,,,,,,,,,,,,,,,,,,,,,,,,,,,,,,,,,,,,,114,2022-05-04_13h57.52.338,FishGame,2022.1.1,59.84941886168048,
,1,넌 따뜻해,1,Orange,B,6.083333333333333,5.6,ScrollUp,ScrollDown,Orange.png,1,Positive,Incongruent,,,,,0,0,0,0,,,,,,,,,,,,,0,0,0,0,,,,,,,,,,,,,,,,,,,,,,,,,,,,,,,,,,,,,,,,149.55679140001303,151.05732799999532,151.09040039998945,152.04056069999933,152.10715440000058,153.05674999998882,153.03984700000728,None,,,,,,,,,,,,,,,,,,,,,,,,,0.12314815,-0.11111111,1,0,0,0.3138796999992337,None,146.8238185000082,None,1.6404320945342383,1.6849244000040926,154.22301620000508,None,ScrollUp,정답입니다,154.22301620000508,None,154.22301620000508,None,154.22301620000508,None,154.22301620000508,None,155.72356690000743,None,155.72356690000743,156.22342890000436,,,,,,,,,,,,,,,,114,2022-05-04_13h57.52.338,FishGame,2022.1.1,59.84941886168048,
,2,넌 기품있어,2,Orange,B,5.791666666666668,4.5,ScrollUp,ScrollDown,Orange.png,1,Positive,Incongruent,,,,,0,0,0,0,,,,,,,,,,,,,0,1,1,1,,,,,,,,,,,,,,,,,,,,,,,,,,,,,,,,,,,,,,,,,,,,,,,,,,,,,,,,,,,,,,,,,,,,,,,,,,,,,,,,,1.4212962947785854,1.140103600017028,156.87189179999405,None,ScrollDown,오답입니다,156.87189179999405,None,156.87189179999405,None,156.87189179999405,None,156.87189179999405,None,157.88552000001073,None,157.88552000001073,158.38997769998969,,,,,,,,,,,,,,,,114,2022-05-04_13h57.52.338,FishGame,2022.1.1,59.84941886168048,
,3,나를 보내줘,6,Green,A,0,0,ScrollUp,ScrollDown,Green.png,1,NonTarget,NonTarget,,,,,0,0,0,0,,,,,,,,,,,,,0,2,2,2,,,,,,,,,,,,,,,,,,,,,,,,,,,,,,,,,,,,,,,,,,,,,,,,,,,,,,,,,,,,,,,,,,,,,,,,,,,,,,,,,1.0154321193695068,2.3406909000186715,159.03420779999578,None,ScrollDown,오답입니다,159.03420779999578,None,159.03420779999578,None,159.03420779999578,None,159.03420779999578,None,161.25656069998513,None,161.25656069998513,161.7572155999951,,,,,,,,,,,,,,,,114,2022-05-04_13h57.52.338,FishGame,2022.1.1,59.84941886168048,
,4,넌 수동적이야,4,Green,A,2.833333333333333,2.933333333333333,ScrollDown,ScrollUp,Green.png,1,Negative,Incongruent,,,,,0,0,0,0,,,,,,,,,,,,,0,3,3,3,,,,,,,,,,,,,,,,,,,,,,,,,,,,,,,,,,,,,,,,,,,,,,,,,,,,,,,,,,,,,,,,,,,,,,,,,,,,,,,,,1.0987654229005177,1.457173300004797,162.39992920000805,None,ScrollDown,정답입니다,162.39992920000805,None,162.39992920000805,None,162.39992920000805,None,162.39992920000805,None,163.73495389998425,None,163.73495389998425,164.24014939999324,,,,,,,,,,,,,,,,114,2022-05-04_13h57.52.338,FishGame,2022.1.1,59.84941886168048,
,5,넌 사심이 없어,3,Orange,B,4.916666666666666,4.333333333333333,ScrollUp,ScrollDown,Orange.png,1,Neutral,Neutral,,,,,0,0,0,0,,,,,,,,,,,,,0,4,4,4,,,,,,,,,,,,,,,,,,,,,,,,,,,,,,,,,,,,,,,,,,,,,,,,,,,,,,,,,,,,,,,,,,,,,,,,,,,,,,,,,1.5385802456488213,1.253636200010078,164.8901918999909,None,NoResponse,무응답입니다,164.8901918999909,None,164.8901918999909,None,164.8901918999909,None,164.8901918999909,None,166.01814080000622,None,166.01814080000622,166.5235771999869,,,,,,,,,,,,,,,,114,2022-05-04_13h57.52.338,FishGame,2022.1.1,59.84941886168048,
,6,넌 헤퍼,5,Green,A,2.458333333333334,2.233333333333333,ScrollDown,ScrollUp,Green.png,1,Negative,Incongruent,,,,,0,0,0,0,,,,,,,,,,,,,0,5,5,5,,,,,,,,,,,,,,,,,,,,,,,,,,,,,,,,,,,,,,,,,,,,,,,,,,,,,,,,,,,,,,,,,,,,,,,,,,,,,,,,,1,1.8128265000123065,167.16936369999894,None,ScrollDown,정답입니다,167.16936369999894,None,167.16936369999894,None,167.16936369999894,None,167.16936369999894,None,168.8627431000059,None,168.8627431000059,169.3735183000099,,,,,,,,,,,,,,,,114,2022-05-04_13h57.52.338,FishGame,2022.1.1,59.84941886168048,
,7,넌 말쑥해,3,Green,A,4.833333333333334,4.333333333333333,ScrollDown,ScrollUp,Green.png,1,Neutral,Neutral,,,,,0,0,0,0,,,,,,,,,,,,,0,6,6,6,,,,,,,,,,,,,,,,,,,,,,,,,,,,,,,,,,,,,,,,,,,,,,,,,,,,,,,,,,,,,,,,,,,,,,,,,,,,,,,,,1,1.2136484000075143,170.00667130001239,None,ScrollDown,정답입니다,170.00667130001239,None,170.00667130001239,None,170.00667130001239,None,170.00667130001239,None,171.10916779999388,None,171.10916779999388,171.6243559999857,,,,,,,,,,,,,,,,114,2022-05-04_13h57.52.338,FishGame,2022.1.1,59.84941886168048,
,8,넌 투덜거려,5,Orange,B,2.541666666666667,2.266666666666667,ScrollUp,ScrollDown,Orange.png,1,Negative,Congruent,,,,,0,0,0,0,,,,,,,,,,,,,0,7,7,7,,,,,,,,,,,,,,,,,,,,,,,,,,,,,,,,,,,,,,,,,,,,,,,,,,,,,,,,,,,,,,,,,,,,,,,,,,,,,,,,,2,1.2529252000094857,172.28582230000757,None,ScrollUp,정답입니다,172.28582230000757,None,172.28582230000757,None,172.28582230000757,None,172.28582230000757,None,173.40524210000876,None,173.40524210000876,173.90737639999134,,,,,,,,,,,,,,,,114,2022-05-04_13h57.52.338,FishGame,2022.1.1,59.84941886168048,
,9,넌 적극적이야,1,Green,A,5.708333333333333,5.533333333333333,ScrollDown,ScrollUp,Green.png,1,Positive,Congruent,,,,,0,0,0,0,,,,,,,,,,,,,0,8,8,8,,,,,,,,,,,,,,,,,,,,,,,,,,,,,,,,,,,,,,,,,,,,,,,,,,,,,,,,,,,,,,,,,,,,,,,,,,,,,,,,,1,1.0748101000208408,174.54141810000874,None,ScrollDown,정답입니다,174.54141810000874,None,174.54141810000874,None,174.54141810000874,None,174.54141810000874,None,175.50717530000838,None,175.50717530000838,176.007468900003,,,,,,,,,,,,,,,,114,2022-05-04_13h57.52.338,FishGame,2022.1.1,59.84941886168048,
,10,넌 재미없어,4,Orange,B,2.625,2.966666666666667,ScrollUp,ScrollDown,Orange.png,1,Negative,Congruent,,,,,0,0,0,0,,,,,,,,,,,,,0,9,9,9,,,,,,,,,,,,,,,,,,,,,,,,,,,,,,,,,,,,,,,,,,,,,,,,,,,,,,,,,,,,,,,,,,,,,,,,,,,,,,,,,2,1.0821102000190876,176.6593212999869,None,ScrollUp,정답입니다,176.6593212999869,None,176.6593212999869,None,176.6593212999869,None,176.6593212999869,None,177.61184500000672,None,177.61184500000672,178.12401030000183,,,,,,,,,,,,,,,,114,2022-05-04_13h57.52.338,FishGame,2022.1.1,59.84941886168048,
,11,넌 명석해,2,Green,A,5.875,4.033333333333333,ScrollDown,ScrollUp,Green.png,1,Positive,Congruent,,,,,0,0,0,0,,,,,,,,,,,,,0,10,10,10,,,,,,,,,,,,,,,,,,,,,,,,,,,,,,,,,,,,,,,,,,,,,,,,,,,,,,,,,,,,,,,,,,,,,,,,,,,,,,,,,1,0.9230116000107955,178.7567842999997,None,ScrollDown,정답입니다,178.7567842999997,None,178.7567842999997,None,178.7567842999997,None,178.7567842999997,None,179.57197140000062,None,179.57197140000062,180.07446050000726,,,,,,,,,,,,,,,,114,2022-05-04_13h57.52.338,FishGame,2022.1.1,59.84941886168048,
,12,나를 데려가줘,6,Orange,B,0,0,ScrollDown,ScrollUp,Orange.png,1,NonTarget,NonTarget,,,,,0,0,0,0,,,,,,,,,,,,,0,11,11,11,,,,,,,,,,,,,,,,,,,,,,,,,,,,,,,,,,,,,,,,,,,,,,,,,,,,,,,,,,,,,,,,,,,,,,,,,,,,,,,,,1,1.5293990999925882,180.71184780000476,None,ScrollDown,정답입니다,180.71184780000476,None,180.71184780000476,None,180.71184780000476,None,180.71184780000476,None,182.12411639999482,None,182.12411639999482,182.62389359998633,,,,,,,,,,,,,,,,114,2022-05-04_13h57.52.338,FishGame,2022.1.1,59.84941886168048,
,13,넌 소심해,4,Green,A,3,3.1,ScrollDown,ScrollUp,Green.png,1,Negative,Incongruent,,,,,0,0,0,0,,,,,,,,,,,,,0,12,12,12,,,,,,,,,,,,,,,,,,,,,,,,,,,,,,,,,,,,,,,,,,,,,,,,,,,,,,,,,,,,,,,,,,,,,,,,,,,,,,,,,1,1.1148415000061505,183.25668120000046,None,ScrollDown,정답입니다,183.25668120000046,None,183.25668120000046,None,183.25668120000046,None,183.25668120000046,None,184.2621141000127,None,184.2621141000127,184.77395719999913,,,,,,,,,,,,,,,,114,2022-05-04_13h57.52.338,FishGame,2022.1.1,59.84941886168048,
,14,넌 합리적이야,2,Green,A,5.583333333333333,4.733333333333333,ScrollDown,ScrollUp,Green.png,1,Positive,Congruent,,,,,0,0,0,0,,,,,,,,,,,,,0,13,13,13,,,,,,,,,,,,,,,,,,,,,,,,,,,,,,,,,,,,,,,,,,,,,,,,,,,,,,,,,,,,,,,,,,,,,,,,,,,,,,,,,1,1.0105420000036247,185.41031060001114,None,ScrollDown,정답입니다,185.41031060001114,None,185.41031060001114,None,185.41031060001114,None,185.41031060001114,None,186.30769690001034,None,186.30769690001034,186.8076688000001,,,,,,,,,,,,,,,,114,2022-05-04_13h57.52.338,FishGame,2022.1.1,59.84941886168048,
,15,넌 무자비해,5,Orange,B,2.333333333333333,2.1,ScrollUp,ScrollDown,Orange.png,1,Negative,Congruent,,,,,0,0,0,0,,,,,,,,,,,,,0,14,14,14,,,,,,,,,,,,,,,,,,,,,,,,,,,,,,,,,,,,,,,,,,,,,,,,,,,,,,,,,,,,,,,,,,,,,,,,,,,,,,,,,1.817901223897934,1.09039350002422,187.4511133999913,None,ScrollUp,정답입니다,187.4511133999913,None,187.4511133999913,None,187.4511133999913,None,187.4511133999913,None,188.42251440000837,None,188.42251440000837,188.92375680000987,,,,,,,,,,,,,,,,114,2022-05-04_13h57.52.338,FishGame,2022.1.1,59.84941886168048,
,16,나를 보내줘,6,Green,A,0,0,ScrollUp,ScrollDown,Green.png,1,NonTarget,NonTarget,,,,,0,0,0,0,,,,,,,,,,,,,0,15,15,15,,,,,,,,,,,,,,,,,,,,,,,,,,,,,,,,,,,,,,,,,,,,,,,,,,,,,,,,,,,,,,,,,,,,,,,,,,,,,,,,,2,1.7138189999968745,189.55274250000366,None,ScrollUp,정답입니다,189.55274250000366,None,189.55274250000366,None,189.55274250000366,None,189.55274250000366,None,191.15740769999684,None,191.15740769999684,191.65758619998815,,,,,,,,,,,,,,,,114,2022-05-04_13h57.52.338,FishGame,2022.1.1,59.84941886168048,
,17,넌 현실적이야,3,Orange,B,4.608695652173913,4.766666666666667,ScrollUp,ScrollDown,Orange.png,1,Neutral,Neutral,,,,,0,0,0,0,,,,,,,,,,,,,0,16,16,16,,,,,,,,,,,,,,,,,,,,,,,,,,,,,,,,,,,,,,,,,,,,,,,,,,,,,,,,,,,,,,,,,,,,,,,,,,,,,,,,,1.878086417913437,1.6585215000086464,192.2994891999988,None,ScrollUp,정답입니다,192.2994891999988,None,192.2994891999988,None,192.2994891999988,None,192.2994891999988,None,193.84106460001203,None,193.84106460001203,194.3415115000098,,,,,,,,,,,,,,,,114,2022-05-04_13h57.52.338,FishGame,2022.1.1,59.84941886168048,
,18,넌 의리있어,1,Orange,B,5.833333333333334,5.633333333333334,ScrollUp,ScrollDown,Orange.png,1,Positive,Incongruent,,,,,0,0,0,0,,,,,,,,,,,,,0,17,17,17,,,,,,,,,,,,,,,,,,,,,,,,,,,,,,,,,,,,,,,,,,,,,,,,,,,,,,,,,,,,,,,,,,,,,,,,,,,,,,,,,1.9475308458010356,1.1115296999923885,194.97791710001184,None,ScrollUp,정답입니다,194.97791710001184,None,194.97791710001184,None,194.97791710001184,None,194.97791710001184,None,195.97409209999023,None,195.97409209999023,196.47480540000834,,,,,,,,,,,,,,,,114,2022-05-04_13h57.52.338,FishGame,2022.1.1,59.84941886168048,
,19,넌 신경과민이야,5,Green,A,2.541666666666667,2.166666666666667,ScrollDown,ScrollUp,Green.png,1,Negative,Incongruent,,,,,0,0,0,0,,,,,,,,,,,,,0,18,18,18,,,,,,,,,,,,,,,,,,,,,,,,,,,,,,,,,,,,,,,,,,,,,,,,,,,,,,,,,,,,,,,,,,,,,,,,,,,,,,,,,1,1.3204269999987446,197.11756270000478,None,ScrollDown,정답입니다,197.11756270000478,None,197.11756270000478,None,197.11756270000478,None,197.11756270000478,None,198.32258939999156,None,198.32258939999156,198.82458879999467,,,,,,,,,,,,,,,,114,2022-05-04_13h57.52.338,FishGame,2022.1.1,59.84941886168048,
,20,넌 편안해,1,Green,A,5.916666666666666,5.866666666666666,ScrollDown,ScrollUp,Green.png,1,Positive,Congruent,,,,,0,0,0,0,,,,,,,,,,,,,0,19,19,19,,,,,,,,,,,,,,,,,,,,,,,,,,,,,,,,,,,,,,,,,,,,,,,,,,,,,,,,,,,,,,,,,,,,,,,,,,,,,,,,,1,1.0617367000086233,199.45949219999602,None,ScrollDown,정답입니다,199.45949219999602,None,199.45949219999602,None,199.45949219999602,None,199.45949219999602,None,200.40760790000786,None,200.40760790000786,200.90811660001054,,,,,,,,,,,,,,,,114,2022-05-04_13h57.52.338,FishGame,2022.1.1,59.84941886168048,
,21,넌 품위있어,2,Orange,B,5.291666666666666,4.466666666666667,ScrollUp,ScrollDown,Orange.png,1,Positive,Incongruent,,,,,0,0,0,0,,,,,,,,,,,,,0,20,20,20,,,,,,,,,,,,,,,,,,,,,,,,,,,,,,,,,,,,,,,,,,,,,,,,,,,,,,,,,,,,,,,,,,,,,,,,,,,,,,,,,2,1.1230908000143245,201.54885120000108,None,ScrollUp,정답입니다,201.54885120000108,None,201.54885120000108,None,201.54885120000108,None,201.54885120000108,None,202.55574149999302,None,202.55574149999302,203.05784870000207,,,,,,,,,,,,,,,,114,2022-05-04_13h57.52.338,FishGame,2022.1.1,59.84941886168048,
,22,넌 빈틈없어,3,Green,A,4.833333333333333,3.966666666666667,ScrollDown,ScrollUp,Green.png,1,Neutral,Neutral,,,,,0,0,0,0,,,,,,,,,,,,,0,21,21,21,,,,,,,,,,,,,,,,,,,,,,,,,,,,,,,,,,,,,,,,,,,,,,,,,,,,,,,,,,,,,,,,,,,,,,,,,,,,,,,,,1,0.9729488000157289,203.69308910000836,None,ScrollDown,정답입니다,203.69308910000836,None,203.69308910000836,None,203.69308910000836,None,203.69308910000836,None,204.5558536000026,None,204.5558536000026,205.05838179998682,,,,,,,,,,,,,,,,114,2022-05-04_13h57.52.338,FishGame,2022.1.1,59.84941886168048,
,23,넌 상상력없어,4,Orange,B,2.833333333333333,3.133333333333333,ScrollUp,ScrollDown,Orange.png,1,Negative,Congruent,,,,,0,0,0,0,,,,,,,,,,,,,0,22,22,22,,,,,,,,,,,,,,,,,,,,,,,,,,,,,,,,,,,,,,,,,,,,,,,,,,,,,,,,,,,,,,,,,,,,,,,,,,,,,,,,,2,1.120919800014235,205.69850190001307,None,ScrollUp,정답입니다,205.69850190001307,None,205.69850190001307,None,205.69850190001307,None,205.69850190001307,None,206.70620469999267,None,206.70620469999267,207.20750899999985,,,,,,,,,,,,,,,,114,2022-05-04_13h57.52.338,FishGame,2022.1.1,59.84941886168048,
,24,넌 지혜로워,2,Orange,B,6.333333333333334,4.633333333333334,ScrollUp,ScrollDown,Orange.png,1,Positive,Incongruent,,,,,0,0,0,0,,,,,,,,,,,,,0,23,23,23,,,,,,,,,,,,,,,,,,,,,,,,,,,,,,,,,,,,,,,,,,,,,,,,,,,,,,,,,,,,,,,,,,,,,,,,,,,,,,,,,2,1.2569931000180077,207.85123540001223,None,ScrollUp,정답입니다,207.85123540001223,None,207.85123540001223,None,207.85123540001223,None,207.85123540001223,None,208.98957529998734,None,208.98957529998734,209.4911771999905,,,,,,,,,,,,,,,,114,2022-05-04_13h57.52.338,FishGame,2022.1.1,59.84941886168048,
,25,넌 시끄러워,4,Green,A,2.833333333333333,3.033333333333333,ScrollDown,ScrollUp,Green.png,1,Negative,Incongruent,,,,,0,0,0,0,,,,,,,,,,,,,0,24,24,24,,,,,,,,,,,,,,,,,,,,,,,,,,,,,,,,,,,,,,,,,,,,,,,,,,,,,,,,,,,,,,,,,,,,,,,,,,,,,,,,,1,0.9920906999905128,210.1288583999849,None,ScrollDown,정답입니다,210.1288583999849,None,210.1288583999849,None,210.1288583999849,None,210.1288583999849,None,211.00792679999722,None,211.00792679999722,211.5082376000064,,,,,,,,,,,,,,,,114,2022-05-04_13h57.52.338,FishGame,2022.1.1,59.84941886168048,
,26,넌 만사태평이야,3,Orange,B,4,4.333333333333333,ScrollUp,ScrollDown,Orange.png,1,Neutral,Neutral,,,,,0,0,0,0,,,,,,,,,,,,,0,25,25,25,,,,,,,,,,,,,,,,,,,,,,,,,,,,,,,,,,,,,,,,,,,,,,,,,,,,,,,,,,,,,,,,,,,,,,,,,,,,,,,,,2,1.1548151999886613,212.15679040001123,None,ScrollUp,정답입니다,212.15679040001123,None,212.15679040001123,None,212.15679040001123,None,212.15679040001123,None,213.18938060000073,None,213.18938060000073,213.69151470001088,,,,,,,,,,,,,,,,114,2022-05-04_13h57.52.338,FishGame,2022.1.1,59.84941886168048,
,27,넌 붙임성있어,1,Green,A,5.708333333333333,5.633333333333334,ScrollDown,ScrollUp,Green.png,1,Positive,Congruent,,,,,0,0,0,0,,,,,,,,,,,,,0,26,26,26,,,,,,,,,,,,,,,,,,,,,,,,,,,,,,,,,,,,,,,,,,,,,,,,,,,,,,,,,,,,,,,,,,,,,,,,,,,,,,,,,1,0.9692460999940522,214.32905699999537,None,ScrollDown,정답입니다,214.32905699999537,None,214.32905699999537,None,214.32905699999537,None,214.32905699999537,None,215.18952200000058,None,215.18952200000058,215.69191910000518,,,,,,,,,,,,,,,,114,2022-05-04_13h57.52.338,FishGame,2022.1.1,59.84941886168048,
,28,넌 영리해,2,Green,A,6,4.033333333333333,ScrollDown,ScrollUp,Green.png,1,Positive,Congruent,,,,,0,0,0,0,,,,,,,,,,,,,0,27,27,27,,,,,,,,,,,,,,,,,,,,,,,,,,,,,,,,,,,,,,,,,,,,,,,,,,,,,,,,,,,,,,,,,,,,,,,,,,,,,,,,,1,0.9849871000042185,216.32270200000494,None,ScrollDown,정답입니다,216.32270200000494,None,216.32270200000494,None,216.32270200000494,None,216.32270200000494,None,217.20651210000506,None,217.20651210000506,217.7082531999913,,,,,,,,,,,,,,,,114,2022-05-04_13h57.52.338,FishGame,2022.1.1,59.84941886168048,
,29,넌 열심이야,1,Orange,B,6.041666666666667,5.833333333333333,ScrollUp,ScrollDown,Orange.png,1,Positive,Incongruent,,,,,0,0,0,0,,,,,,,,,,,,,0,28,28,28,,,,,,,,,,,,,,,,,,,,,,,,,,,,,,,,,,,,,,,,,,,,,,,,,,,,,,,,,,,,,,,,,,,,,,,,,,,,,,,,,2,1.115808200003812,218.34648219999508,None,ScrollUp,정답입니다,218.34648219999508,None,218.34648219999508,None,218.34648219999508,None,218.34648219999508,None,219.3467673000123,None,219.3467673000123,219.85806619998766,,,,,,,,,,,,,,,,114,2022-05-04_13h57.52.338,FishGame,2022.1.1,59.84941886168048,
,30,넌 인기없어,4,Orange,B,3,3.3,ScrollUp,ScrollDown,Orange.png,1,Negative,Congruent,,,,,0,0,0,0,,,,,,,,,,,,,0,29,29,29,,,,,,,,,,,,,,,,,,,,,,,,,,,,,,,,,,,,,,,,,,,,,,,,,,,,,,,,,,,,,,,,,,,,,,,,,,,,,,,,,2,1.1103574000007939,220.49607500000275,None,ScrollUp,정답입니다,220.49607500000275,None,220.49607500000275,None,220.49607500000275,None,220.49607500000275,None,221.49175369998557,None,221.49175369998557,221.99194259999786,,,,,,,,,,,,,,,,114,2022-05-04_13h57.52.338,FishGame,2022.1.1,59.84941886168048,
,31,넌 익살스러워,3,Green,A,4.708333333333334,4.833333333333333,ScrollDown,ScrollUp,Green.png,1,Neutral,Neutral,,,,,0,0,0,0,,,,,,,,,,,,,0,30,30,30,,,,,,,,,,,,,,,,,,,,,,,,,,,,,,,,,,,,,,,,,,,,,,,,,,,,,,,,,,,,,,,,,,,,,,,,,,,,,,,,,1,1.4596056999871507,222.629018800013,None,ScrollDown,정답입니다,222.629018800013,None,222.629018800013,None,222.629018800013,None,222.629018800013,None,223.97498150001047,None,223.97498150001047,224.47584629998892,,,,,,,,,,,,,,,,114,2022-05-04_13h57.52.338,FishGame,2022.1.1,59.84941886168048,
,32,넌 이기적이야,5,Orange,B,2.291666666666667,2.333333333333333,ScrollUp,ScrollDown,Orange.png,1,Negative,Congruent,,,,,0,0,0,0,,,,,,,,,,,,,0,31,31,31,,,,,,,,,,,,,,,,,,,,,,,,,,,,,,,,,,,,,,,,,,,,,,,,,,,,,,,,,,,,,,,,,,,,,,,,,,,,,,,,,2,1.0673759000201244,225.10980070001096,None,ScrollUp,정답입니다,225.10980070001096,None,225.10980070001096,None,225.10980070001096,None,225.10980070001096,None,226.06368759999168,None,226.06368759999168,226.57556550001027,,,,,,,,,,,,,,,,114,2022-05-04_13h57.52.338,FishGame,2022.1.1,59.84941886168048,
,33,나를 데려가줘,6,Orange,B,0,0,ScrollDown,ScrollUp,Orange.png,1,NonTarget,NonTarget,,,,,0,0,0,0,,,,,,,,,,,,,0,32,32,32,,,,,,,,,,,,,,,,,,,,,,,,,,,,,,,,,,,,,,,,,,,,,,,,,,,,,,,,,,,,,,,,,,,,,,,,,,,,,,,,,1,1.27833910001209,227.21448809999856,None,ScrollDown,정답입니다,227.21448809999856,None,227.21448809999856,None,227.21448809999856,None,227.21448809999856,None,228.37522779998835,None,228.37522779998835,228.87482890000683,,,,,,,,,,,,,,,,114,2022-05-04_13h57.52.338,FishGame,2022.1.1,59.84941886168048,
,34,넌 기회주의자야,5,Green,A,2.875,2.133333333333333,ScrollDown,ScrollUp,Green.png,1,Negative,Incongruent,,,,,0,0,0,0,,,,,,,,,,,,,0,33,33,33,,,,,,,,,,,,,,,,,,,,,,,,,,,,,,,,,,,,,,,,,,,,,,,,,,,,,,,,,,,,,,,,,,,,,,,,,,,,,,,,,1,1.3678577000100631,229.51376780000282,None,ScrollDown,정답입니다,229.51376780000282,None,229.51376780000282,None,229.51376780000282,None,229.51376780000282,None,230.77350280000246,None,230.77350280000246,231.27488939999603,,,,,,,,,,,,,,,,114,2022-05-04_13h57.52.338,FishGame,2022.1.1,59.84941886168048,
,1,넌 미성숙해,4,Green,A,3,3.2,ScrollDown,ScrollUp,Green.png,2,Negative,Incongruent,,,,,0,0,0,0,,,,,,,,,,,,,,,,,0,0,0,0,,,,,,,,,,,,,,,,,,,,,,,,,,,,,,,,,,,,263.2925652000122,264.7930126999854,264.8260350000055,265.77592869999353,265.82631460000994,266.7759381000069,266.7759381000069,None,,,,,,,,,,,,,,,,,,,,,,,,,,,,,,,,,,1,2.200144000002183,267.93018590001157,None,ScrollDown,정답입니다,267.93018590001157,None,267.93018590001157,None,267.93018590001157,None,267.93018590001157,None,269.9741697999998,None,269.9741697999998,270.47608299998683,231.7753892999899,None,231.7753892999899,None,0.3638889,-0.25462964,1,0,0,0.016110099997604266,None,261.77594029999455,None,,,114,2022-05-04_13h57.52.338,FishGame,2022.1.1,59.84941886168048,
,2,넌 반사회적이야,5,Orange,B,2.416666666666667,2.033333333333333,ScrollUp,ScrollDown,Orange.png,2,Negative,Congruent,,,,,0,0,0,0,,,,,,,,,,,,,,,,,0,1,1,1,,,,,,,,,,,,,,,,,,,,,,,,,,,,,,,,,,,,,,,,,,,,,,,,,,,,,,,,,,,,,,,,,,,,,,,,,,,,,1.9969135920206706,1.2063009999983478,271.115916699986,None,ScrollUp,정답입니다,271.115916699986,None,271.115916699986,None,271.115916699986,None,271.115916699986,None,272.2077056999842,None,272.2077056999842,272.70961220000754,,,,,,,,,,,,,,,,114,2022-05-04_13h57.52.338,FishGame,2022.1.1,59.84941886168048,
,3,넌 유능해,2,Green,A,6.208333333333333,4.433333333333334,ScrollDown,ScrollUp,Green.png,2,Positive,Congruent,,,,,0,0,0,0,,,,,,,,,,,,,,,,,0,2,2,2,,,,,,,,,,,,,,,,,,,,,,,,,,,,,,,,,,,,,,,,,,,,,,,,,,,,,,,,,,,,,,,,,,,,,,,,,,,,,1,0.9684893999947235,273.34400630000164,None,ScrollDown,정답입니다,273.34400630000164,None,273.34400630000164,None,273.34400630000164,None,273.34400630000164,None,274.19837080000434,None,274.19837080000434,274.70969190000324,,,,,,,,,,,,,,,,114,2022-05-04_13h57.52.338,FishGame,2022.1.1,59.84941886168048,
,4,넌 능숙해,2,Orange,B,5.666666666666667,4.733333333333333,ScrollUp,ScrollDown,Orange.png,2,Positive,Incongruent,,,,,0,0,0,0,,,,,,,,,,,,,,,,,0,3,3,3,,,,,,,,,,,,,,,,,,,,,,,,,,,,,,,,,,,,,,,,,,,,,,,,,,,,,,,,,,,,,,,,,,,,,,,,,,,,,1.8225308656692505,1.4495714000076987,275.34490200001164,None,ScrollUp,정답입니다,275.34490200001164,None,275.34490200001164,None,275.34490200001164,None,275.34490200001164,None,276.6809448999993,None,276.6809448999993,277.19274480000604,,,,,,,,,,,,,,,,114,2022-05-04_13h57.52.338,FishGame,2022.1.1,59.84941886168048,
,5,넌 진부해,4,Orange,B,2.458333333333333,3.166666666666667,ScrollUp,ScrollDown,Orange.png,2,Negative,Congruent,,,,,0,0,0,0,,,,,,,,,,,,,,,,,0,4,4,4,,,,,,,,,,,,,,,,,,,,,,,,,,,,,,,,,,,,,,,,,,,,,,,,,,,,,,,,,,,,,,,,,,,,,,,,,,,,,1.9645061492919922,1.0961848000006285,277.83724649998476,None,ScrollUp,정답입니다,277.83724649998476,None,277.83724649998476,None,277.83724649998476,None,277.83724649998476,None,278.80958920001285,None,278.80958920001285,279.30987040000036,,,,,,,,,,,,,,,,114,2022-05-04_13h57.52.338,FishGame,2022.1.1,59.84941886168048,
,6,나를 보내줘,6,Green,A,0,0,ScrollUp,ScrollDown,Green.png,2,NonTarget,NonTarget,,,,,0,0,0,0,,,,,,,,,,,,,,,,,0,5,5,5,,,,,,,,,,,,,,,,,,,,,,,,,,,,,,,,,,,,,,,,,,,,,,,,,,,,,,,,,,,,,,,,,,,,,,,,,,,,,2,1.2711916000116616,279.93724319999455,None,ScrollUp,정답입니다,279.93724319999455,None,279.93724319999455,None,279.93724319999455,None,279.93724319999455,None,281.10812889999943,None,281.10812889999943,281.609527099994,,,,,,,,,,,,,,,,114,2022-05-04_13h57.52.338,FishGame,2022.1.1,59.84941886168048,
,7,넌 엄격해,3,Green,A,4.166666666666666,4.1,ScrollDown,ScrollUp,Green.png,2,Neutral,Neutral,,,,,0,0,0,0,,,,,,,,,,,,,,,,,0,6,6,6,,,,,,,,,,,,,,,,,,,,,,,,,,,,,,,,,,,,,,,,,,,,,,,,,,,,,,,,,,,,,,,,,,,,,,,,,,,,,1.1682098756233852,1.083726700016996,282.24629800001276,None,ScrollDown,정답입니다,282.24629800001276,None,282.24629800001276,None,282.24629800001276,None,282.24629800001276,None,283.2143371999846,None,283.2143371999846,283.7263411000022,,,,,,,,,,,,,,,,114,2022-05-04_13h57.52.338,FishGame,2022.1.1,59.84941886168048,
,8,나를 보내줘,6,Green,A,0,0,ScrollUp,ScrollDown,Green.png,2,NonTarget,NonTarget,,,,,0,0,0,0,,,,,,,,,,,,,,,,,0,7,7,7,,,,,,,,,,,,,,,,,,,,,,,,,,,,,,,,,,,,,,,,,,,,,,,,,,,,,,,,,,,,,,,,,,,,,,,,,,,,,1.9953703780968983,0.9587634000054095,284.3542407999921,None,ScrollUp,정답입니다,284.3542407999921,None,284.3542407999921,None,284.3542407999921,None,284.3542407999921,None,285.2097778999887,None,285.2097778999887,285.7096945999947,,,,,,,,,,,,,,,,114,2022-05-04_13h57.52.338,FishGame,2022.1.1,59.84941886168048,
,9,넌 대담해,3,Orange,B,4.875,4.866666666666666,ScrollUp,ScrollDown,Orange.png,2,Neutral,Neutral,,,,,0,0,0,0,,,,,,,,,,,,,,,,,0,8,8,8,,,,,,,,,,,,,,,,,,,,,,,,,,,,,,,,,,,,,,,,,,,,,,,,,,,,,,,,,,,,,,,,,,,,,,,,,,,,,1.9243827362855275,1.2620712999778334,286.3481213999912,None,ScrollUp,정답입니다,286.3481213999912,None,286.3481213999912,None,286.3481213999912,None,286.3481213999912,None,287.49438960000407,None,287.49438960000407,288.0100139999995,,,,,,,,,,,,,,,,114,2022-05-04_13h57.52.338,FishGame,2022.1.1,59.84941886168048,
,10,넌 꾸준해,1,Green,A,5.916666666666668,5.8,ScrollDown,ScrollUp,Green.png,2,Positive,Congruent,,,,,0,0,0,0,,,,,,,,,,,,,,,,,0,9,9,9,,,,,,,,,,,,,,,,,,,,,,,,,,,,,,,,,,,,,,,,,,,,,,,,,,,,,,,,,,,,,,,,,,,,,,,,,,,,,1.0354938507080078,0.9689038000069559,288.6485432999907,None,ScrollDown,정답입니다,288.6485432999907,None,288.6485432999907,None,288.6485432999907,None,288.6485432999907,None,289.5081099999952,None,289.5081099999952,290.01012069999706,,,,,,,,,,,,,,,,114,2022-05-04_13h57.52.338,FishGame,2022.1.1,59.84941886168048,
,11,나를 데려가줘,6,Orange,B,0,0,ScrollDown,ScrollUp,Orange.png,2,NonTarget,NonTarget,,,,,0,0,0,0,,,,,,,,,,,,,,,,,0,10,10,10,,,,,,,,,,,,,,,,,,,,,,,,,,,,,,,,,,,,,,,,,,,,,,,,,,,,,,,,,,,,,,,,,,,,,,,,,,,,,1,0.9955088999995496,290.64485939999577,None,ScrollDown,정답입니다,290.64485939999577,None,290.64485939999577,None,290.64485939999577,None,290.64485939999577,None,291.5264811000088,None,291.5264811000088,292.0268594000081,,,,,,,,,,,,,,,,114,2022-05-04_13h57.52.338,FishGame,2022.1.1,59.84941886168048,
,12,넌 독선적이야,5,Green,A,2.458333333333333,1.933333333333333,ScrollDown,ScrollUp,Green.png,2,Negative,Incongruent,,,,,0,0,0,0,,,,,,,,,,,,,,,,,0,11,11,11,,,,,,,,,,,,,,,,,,,,,,,,,,,,,,,,,,,,,,,,,,,,,,,,,,,,,,,,,,,,,,,,,,,,,,,,,,,,,1,1.1190371999982744,292.66438659999403,None,ScrollDown,정답입니다,292.66438659999403,None,292.66438659999403,None,292.66438659999403,None,292.66438659999403,None,293.67491850000806,None,293.67491850000806,294.1766306000063,,,,,,,,,,,,,,,,114,2022-05-04_13h57.52.338,FishGame,2022.1.1,59.84941886168048,
,13,나를 보내줘,6,Green,A,0,0,ScrollUp,ScrollDown,Green.png,2,NonTarget,NonTarget,,,,,0,0,0,0,,,,,,,,,,,,,,,,,0,12,12,12,,,,,,,,,,,,,,,,,,,,,,,,,,,,,,,,,,,,,,,,,,,,,,,,,,,,,,,,,,,,,,,,,,,,,,,,,,,,,2,1.0520532999944407,294.8072417000076,None,ScrollUp,정답입니다,294.8072417000076,None,294.8072417000076,None,294.8072417000076,None,294.8072417000076,None,295.75801930000307,None,295.75801930000307,296.25991220001015,,,,,,,,,,,,,,,,114,2022-05-04_13h57.52.338,FishGame,2022.1.1,59.84941886168048,
,14,넌 책임감있어,1,Orange,B,6.347826086956522,6,ScrollUp,ScrollDown,Orange.png,2,Positive,Incongruent,,,,,0,0,0,0,,,,,,,,,,,,,,,,,0,13,13,13,,,,,,,,,,,,,,,,,,,,,,,,,,,,,,,,,,,,,,,,,,,,,,,,,,,,,,,,,,,,,,,,,,,,,,,,,,,,,1.7361111094554267,1.3185224999906495,296.9088439999905,None,ScrollUp,정답입니다,296.9088439999905,None,296.9088439999905,None,296.9088439999905,None,296.9088439999905,None,298.1085119000054,None,298.1085119000054,298.6102342999948,,,,,,,,,,,,,,,,114,2022-05-04_13h57.52.338,FishGame,2022.1.1,59.84941886168048,
,15,넌 문학적이야,3,Green,A,4.708333333333334,4.333333333333333,ScrollDown,ScrollUp,Green.png,2,Neutral,Neutral,,,,,0,0,0,0,,,,,,,,,,,,,,,,,0,14,14,14,,,,,,,,,,,,,,,,,,,,,,,,,,,,,,,,,,,,,,,,,,,,,,,,,,,,,,,,,,,,,,,,,,,,,,,,,,,,,1.2499999900658925,0.890746000019135,299.2477818999905,None,ScrollDown,정답입니다,299.2477818999905,None,299.2477818999905,None,299.2477818999905,None,299.2477818999905,None,300.0264625000127,None,300.0264625000127,300.5264893999847,,,,,,,,,,,,,,,,114,2022-05-04_13h57.52.338,FishGame,2022.1.1,59.84941886168048,
,16,넌 재미있어,1,Orange,B,5.875,5.7,ScrollUp,ScrollDown,Orange.png,2,Positive,Incongruent,,,,,0,0,0,0,,,,,,,,,,,,,,,,,0,15,15,15,,,,,,,,,,,,,,,,,,,,,,,,,,,,,,,,,,,,,,,,,,,,,,,,,,,,,,,,,,,,,,,,,,,,,,,,,,,,,1.7145061641931534,0.9737258999957703,301.16341939999256,None,ScrollUp,정답입니다,301.16341939999256,None,301.16341939999256,None,301.16341939999256,None,301.16341939999256,None,302.0271242999879,None,302.0271242999879,302.5271124999854,,,,,,,,,,,,,,,,114,2022-05-04_13h57.52.338,FishGame,2022.1.1,59.84941886168048,
,17,나를 데려가줘,6,Orange,B,0,0,ScrollDown,ScrollUp,Orange.png,2,NonTarget,NonTarget,,,,,0,0,0,0,,,,,,,,,,,,,,,,,0,16,16,16,,,,,,,,,,,,,,,,,,,,,,,,,,,,,,,,,,,,,,,,,,,,,,,,,,,,,,,,,,,,,,,,,,,,,,,,,,,,,1.0509259402751923,1.3447293000062928,303.1651737999928,None,ScrollDown,정답입니다,303.1651737999928,None,303.1651737999928,None,303.1651737999928,None,303.1651737999928,None,304.39338910000515,None,304.39338910000515,304.8938916999905,,,,,,,,,,,,,,,,114,2022-05-04_13h57.52.338,FishGame,2022.1.1,59.84941886168048,
,18,넌 협력적이야,1,Green,A,5.625,5.633333333333334,ScrollDown,ScrollUp,Green.png,2,Positive,Congruent,,,,,0,0,0,0,,,,,,,,,,,,,,,,,0,17,17,17,,,,,,,,,,,,,,,,,,,,,,,,,,,,,,,,,,,,,,,,,,,,,,,,,,,,,,,,,,,,,,,,,,,,,,,,,,,,,1,2.5219333000131883,305.5292699999991,None,ScrollDown,정답입니다,305.5292699999991,None,305.5292699999991,None,305.5292699999991,None,305.5292699999991,None,307.94164850001107,None,307.94164850001107,308.44344490001095,,,,,,,,,,,,,,,,114,2022-05-04_13h57.52.338,FishGame,2022.1.1,59.84941886168048,
,19,넌 평범해,3,Orange,B,4.333333333333332,4.233333333333333,ScrollUp,ScrollDown,Orange.png,2,Neutral,Neutral,,,,,0,0,0,0,,,,,,,,,,,,,,,,,0,18,18,18,,,,,,,,,,,,,,,,,,,,,,,,,,,,,,,,,,,,,,,,,,,,,,,,,,,,,,,,,,,,,,,,,,,,,,,,,,,,,1.9135802388191223,2.0421397000027355,309.08162049998646,None,ScrollUp,정답입니다,309.08162049998646,None,309.08162049998646,None,309.08162049998646,None,309.08162049998646,None,311.00528929999564,None,311.00528929999564,311.5104944999912,,,,,,,,,,,,,,,,114,2022-05-04_13h57.52.338,FishGame,2022.1.1,59.84941886168048,
,20,넌 오만해,5,Green,A,2.333333333333333,2,ScrollDown,ScrollUp,Green.png,2,Negative,Incongruent,,,,,0,0,0,0,,,,,,,,,,,,,,,,,0,19,19,19,,,,,,,,,,,,,,,,,,,,,,,,,,,,,,,,,,,,,,,,,,,,,,,,,,,,,,,,,,,,,,,,,,,,,,,,,,,,,1,1.027428899978986,312.1429419000051,None,ScrollDown,정답입니다,312.1429419000051,None,312.1429419000051,None,312.1429419000051,None,312.1429419000051,None,313.0598226999864,None,313.0598226999864,313.56046010000864,,,,,,,,,,,,,,,,114,2022-05-04_13h57.52.338,FishGame,2022.1.1,59.84941886168048,
,21,넌 운이없어,4,Orange,B,3,3.466666666666667,ScrollUp,ScrollDown,Orange.png,2,Negative,Congruent,,,,,0,0,0,0,,,,,,,,,,,,,,,,,0,20,20,20,,,,,,,,,,,,,,,,,,,,,,,,,,,,,,,,,,,,,,,,,,,,,,,,,,,,,,,,,,,,,,,,,,,,,,,,,,,,,2,1.1407921999925748,314.1994151000108,None,ScrollUp,정답입니다,314.1994151000108,None,314.1994151000108,None,314.1994151000108,None,314.1994151000108,None,315.2267653000017,None,315.2267653000017,315.72678619998624,,,,,,,,,,,,,,,,114,2022-05-04_13h57.52.338,FishGame,2022.1.1,59.84941886168048,
,22,넌 창조적이야,2,Orange,B,6.125,4.633333333333334,ScrollUp,ScrollDown,Orange.png,2,Positive,Incongruent,,,,,0,0,0,0,,,,,,,,,,,,,,,,,0,21,21,21,,,,,,,,,,,,,,,,,,,,,,,,,,,,,,,,,,,,,,,,,,,,,,,,,,,,,,,,,,,,,,,,,,,,,,,,,,,,,1.8425925970077515,1.1007434999919496,316.3706499999971,None,ScrollUp,정답입니다,316.3706499999971,None,316.3706499999971,None,316.3706499999971,None,316.3706499999971,None,317.3486823999847,None,317.3486823999847,317.861388099991,,,,,,,,,,,,,,,,114,2022-05-04_13h57.52.338,FishGame,2022.1.1,59.84941886168048,
,23,나를 보내줘,6,Green,A,0,0,ScrollUp,ScrollDown,Green.png,2,NonTarget,NonTarget,,,,,0,0,0,0,,,,,,,,,,,,,,,,,0,22,22,22,,,,,,,,,,,,,,,,,,,,,,,,,,,,,,,,,,,,,,,,,,,,,,,,,,,,,,,,,,,,,,,,,,,,,,,,,,,,,2,2.037324600009015,318.4924469999969,None,ScrollUp,정답입니다,318.4924469999969,None,318.4924469999969,None,318.4924469999969,None,318.4924469999969,None,320.4251821000071,None,320.4251821000071,320.927356900007,,,,,,,,,,,,,,,,114,2022-05-04_13h57.52.338,FishGame,2022.1.1,59.84941886168048,
,24,넌 통찰력있어,2,Green,A,6.5,4.8,ScrollDown,ScrollUp,Green.png,2,Positive,Congruent,,,,,0,0,0,0,,,,,,,,,,,,,,,,,0,23,23,23,,,,,,,,,,,,,,,,,,,,,,,,,,,,,,,,,,,,,,,,,,,,,,,,,,,,,,,,,,,,,,,,,,,,,,,,,,,,,1.0277777810891469,1.3977650000015274,321.56662319999305,None,ScrollDown,정답입니다,321.56662319999305,None,321.56662319999305,None,321.56662319999305,None,321.56662319999305,None,322.84725200000685,None,322.84725200000685,323.360425699997,,,,,,,,,,,,,,,,114,2022-05-04_13h57.52.338,FishGame,2022.1.1,59.84941886168048,
,25,넌 경솔해,5,Orange,B,2.458333333333333,2.266666666666667,ScrollUp,ScrollDown,Orange.png,2,Negative,Congruent,,,,,0,0,0,0,,,,,,,,,,,,,,,,,0,24,24,24,,,,,,,,,,,,,,,,,,,,,,,,,,,,,,,,,,,,,,,,,,,,,,,,,,,,,,,,,,,,,,,,,,,,,,,,,,,,,1.7824074029922485,1.2727920000033919,323.9954179000051,None,ScrollUp,정답입니다,323.9954179000051,None,323.9954179000051,None,323.9954179000051,None,323.9954179000051,None,325.1587590999843,None,325.1587590999843,325.660638500005,,,,,,,,,,,,,,,,114,2022-05-04_13h57.52.338,FishGame,2022.1.1,59.84941886168048,
,26,넌 초조해,4,Green,A,2.916666666666667,3.133333333333333,ScrollDown,ScrollUp,Green.png,2,Negative,Incongruent,,,,,0,0,0,0,,,,,,,,,,,,,,,,,0,25,25,25,,,,,,,,,,,,,,,,,,,,,,,,,,,,,,,,,,,,,,,,,,,,,,,,,,,,,,,,,,,,,,,,,,,,,,,,,,,,,1,2.846239799982868,326.2905526999966,None,ScrollDown,정답입니다,326.2905526999966,None,326.2905526999966,None,326.2905526999966,None,326.2905526999966,None,329.0285933999985,None,329.0285933999985,329.54431940001086,,,,,,,,,,,,,,,,114,2022-05-04_13h57.52.338,FishGame,2022.1.1,59.84941886168048,
,27,넌 무관심해,4,Orange,B,2.833333333333333,2.9,ScrollUp,ScrollDown,Orange.png,2,Negative,Congruent,,,,,0,0,0,0,,,,,,,,,,,,,,,,,0,26,26,26,,,,,,,,,,,,,,,,,,,,,,,,,,,,,,,,,,,,,,,,,,,,,,,,,,,,,,,,,,,,,,,,,,,,,,,,,,,,,2,1.5749932999897283,330.17697830000543,None,ScrollUp,정답입니다,330.17697830000543,None,330.17697830000543,None,330.17697830000543,None,330.17697830000543,None,331.64374979998684,None,331.64374979998684,332.1443949000095,,,,,,,,,,,,,,,,114,2022-05-04_13h57.52.338,FishGame,2022.1.1,59.84941886168048,
,28,넌 감성적이야,3,Orange,B,4.125,4.166666666666667,ScrollUp,ScrollDown,Orange.png,2,Neutral,Neutral,,,,,0,0,0,0,,,,,,,,,,,,,,,,,0,27,27,27,,,,,,,,,,,,,,,,,,,,,,,,,,,,,,,,,,,,,,,,,,,,,,,,,,,,,,,,,,,,,,,,,,,,,,,,,,,,,1.8641975422700245,1.106772600003751,332.78139530000044,None,ScrollUp,정답입니다,332.78139530000044,None,332.78139530000044,None,332.78139530000044,None,332.78139530000044,None,333.777253200009,None,333.777253200009,334.2774492999888,,,,,,,,,,,,,,,,114,2022-05-04_13h57.52.338,FishGame,2022.1.1,59.84941886168048,
,29,넌 배려심있어,1,Green,A,6.083333333333333,5.5,ScrollDown,ScrollUp,Green.png,2,Positive,Congruent,,,,,0,0,0,0,,,,,,,,,,,,,,,,,0,28,28,28,,,,,,,,,,,,,,,,,,,,,,,,,,,,,,,,,,,,,,,,,,,,,,,,,,,,,,,,,,,,,,,,,,,,,,,,,,,,,1,1.1744596999778878,334.9084705999994,None,ScrollDown,정답입니다,334.9084705999994,None,334.9084705999994,None,334.9084705999994,None,334.9084705999994,None,335.97719939998933,None,335.97719939998933,336.47756289999234,,,,,,,,,,,,,,,,114,2022-05-04_13h57.52.338,FishGame,2022.1.1,59.84941886168048,
,30,넌 숨김없어,3,Green,A,4.5,4.933333333333334,ScrollDown,ScrollUp,Green.png,2,Neutral,Neutral,,,,,0,0,0,0,,,,,,,,,,,,,,,,,0,29,29,29,,,,,,,,,,,,,,,,,,,,,,,,,,,,,,,,,,,,,,,,,,,,,,,,,,,,,,,,,,,,,,,,,,,,,,,,,,,,,1,0.89100909998524,337.119222600013,None,ScrollDown,정답입니다,337.119222600013,None,337.119222600013,None,337.119222600013,None,337.119222600013,None,337.89368660000036,None,337.89368660000036,338.39444450000883,,,,,,,,,,,,,,,,114,2022-05-04_13h57.52.338,FishGame,2022.1.1,59.84941886168048,
,31,넌 훌륭해,2,Orange,B,5.916666666666667,4.033333333333333,ScrollUp,ScrollDown,Orange.png,2,Positive,Incongruent,,,,,0,0,0,0,,,,,,,,,,,,,,,,,0,30,30,30,,,,,,,,,,,,,,,,,,,,,,,,,,,,,,,,,,,,,,,,,,,,,,,,,,,,,,,,,,,,,,,,,,,,,,,,,,,,,1.9182098805904388,1.1107067000120878,339.0338769000082,None,ScrollUp,정답입니다,339.0338769000082,None,339.0338769000082,None,339.0338769000082,None,339.0338769000082,None,340.0274267999921,None,340.0274267999921,340.5277788999956,,,,,,,,,,,,,,,,114,2022-05-04_13h57.52.338,FishGame,2022.1.1,59.84941886168048,
,32,넌 슬기로워,2,Green,A,6.166666666666667,4.1,ScrollDown,ScrollUp,Green.png,2,Positive,Congruent,,,,,0,0,0,0,,,,,,,,,,,,,,,,,0,31,31,31,,,,,,,,,,,,,,,,,,,,,,,,,,,,,,,,,,,,,,,,,,,,,,,,,,,,,,,,,,,,,,,,,,,,,,,,,,,,,1,1.0494857000012416,341.1648852000071,None,ScrollDown,정답입니다,341.1648852000071,None,341.1648852000071,None,341.1648852000071,None,341.1648852000071,None,342.0996564000088,None,342.0996564000088,342.6107439000043,,,,,,,,,,,,,,,,114,2022-05-04_13h57.52.338,FishGame,2022.1.1,59.84941886168048,
,33,넌 냉혹해,5,Green,A,2.583333333333333,2.1,ScrollDown,ScrollUp,Green.png,2,Negative,Incongruent,,,,,0,0,0,0,,,,,,,,,,,,,,,,,0,32,32,32,,,,,,,,,,,,,,,,,,,,,,,,,,,,,,,,,,,,,,,,,,,,,,,,,,,,,,,,,,,,,,,,,,,,,,,,,,,,,1,0.9299311000213493,343.2476609000005,None,ScrollDown,정답입니다,343.2476609000005,None,343.2476609000005,None,343.2476609000005,None,343.2476609000005,None,344.0607020999887,None,344.0607020999887,344.56129059998784,,,,,,,,,,,,,,,,114,2022-05-04_13h57.52.338,FishGame,2022.1.1,59.84941886168048,
,34,나를 데려가줘,6,Orange,B,0,0,ScrollDown,ScrollUp,Orange.png,2,NonTarget,NonTarget,,,,,0,0,0,0,,,,,,,,,,,,,,,,,0,33,33,33,,,,,,,,,,,,,,,,,,,,,,,,,,,,,,,,,,,,,,,,,,,,,,,,,,,,,,,,,,,,,,,,,,,,,,,,,,,,,1,1.2927955000195652,345.1965271999943,None,ScrollDown,정답입니다,345.1965271999943,None,345.1965271999943,None,345.1965271999943,None,345.1965271999943,None,346.3777373000048,None,346.3777373000048,346.87783680000575,,,,,,,,,,,,,,,,114,2022-05-04_13h57.52.338,FishGame,2022.1.1,59.84941886168048,
,35,넌 편파적이야,5,Orange,B,2.125,2,ScrollUp,ScrollDown,Orange.png,2,Negative,Congruent,,,,,0,0,0,0,,,,,,,,,,,,,,,,,0,34,34,34,,,,,,,,,,,,,,,,,,,,,,,,,,,,,,,,,,,,,,,,,,,,,,,,,,,,,,,,,,,,,,,,,,,,,,,,,,,,,2,1.3616750999935903,347.5250415999908,None,ScrollUp,정답입니다,347.5250415999908,None,347.5250415999908,None,347.5250415999908,None,347.5250415999908,None,348.7608879999898,None,348.7608879999898,349.261102199991,,,,,,,,,,,,,,,,114,2022-05-04_13h57.52.338,FishGame,2022.1.1,59.84941886168048,
,36,넌 슬퍼,4,Green,A,2.583333333333333,3.066666666666667,ScrollDown,ScrollUp,Green.png,2,Negative,Incongruent,,,,,0,0,0,0,,,,,,,,,,,,,,,,,0,35,35,35,,,,,,,,,,,,,,,,,,,,,,,,,,,,,,,,,,,,,,,,,,,,,,,,,,,,,,,,,,,,,,,,,,,,,,,,,,,,,1,0.8556672999984585,349.890089499997,None,ScrollDown,정답입니다,349.890089499997,None,349.890089499997,None,349.890089499997,None,349.890089499997,None,350.6424346000131,None,350.6424346000131,351.1449234999891,,,,,,,,,,,,,,,,114,2022-05-04_13h57.52.338,FishGame,2022.1.1,59.84941886168048,
,37,나를 데려가줘,6,Orange,B,0,0,ScrollDown,ScrollUp,Orange.png,2,NonTarget,NonTarget,,,,,0,0,0,0,,,,,,,,,,,,,,,,,0,36,36,36,,,,,,,,,,,,,,,,,,,,,,,,,,,,,,,,,,,,,,,,,,,,,,,,,,,,,,,,,,,,,,,,,,,,,,,,,,,,,1.3966049402952194,1.2020654000225477,351.7738757999905,None,ScrollDown,정답입니다,351.7738757999905,None,351.7738757999905,None,351.7738757999905,None,351.7738757999905,None,352.8757279999845,None,352.8757279999845,353.37781710000127,,,,,,,,,,,,,,,,114,2022-05-04_13h57.52.338,FishGame,2022.1.1,59.84941886168048,
,38,넌 친절해,1,Orange,B,6.041666666666667,5.533333333333333,ScrollUp,ScrollDown,Orange.png,2,Positive,Incongruent,,,,,0,0,0,0,,,,,,,,,,,,,,,,,0,37,37,37,,,,,,,,,,,,,,,,,,,,,,,,,,,,,,,,,,,,,,,,,,,,,,,,,,,,,,,,,,,,,,,,,,,,,,,,,,,,,1.8564814726511638,1.2580143999948632,354.01774280000245,None,ScrollUp,정답입니다,354.01774280000245,None,354.01774280000245,None,354.01774280000245,None,354.01774280000245,None,355.16106919999584,None,355.16106919999584,355.66110870000557,,,,,,,,,,,,,,,,114,2022-05-04_13h57.52.338,FishGame,2022.1.1,59.84941886168048,
,1,넌 엉성해,4,Green,A,3,3.3,ScrollDown,ScrollUp,Green.png,3,Negative,Incongruent,,,,,0,0,0,0,,,,,,,,,,,,,,,,,,,,,0,0,0,0,,,,,,,,,,,,,,,,,,,,,,,,,,,,,,,,387.8459077999869,389.34528400001,389.3787972999853,390.3289192999946,390.3787228000001,391.3290266999975,391.3290266999975,None,,,,,,,,,,,,,,,,,,,,,,,,,,,,,,,,,,1.0447530845801036,1.3266015000117477,392.49162539999816,None,ScrollDown,정답입니다,392.49162539999816,None,392.49162539999816,None,392.49162539999816,None,392.49162539999816,None,393.6485332000011,None,393.6485332000011,394.1621249000018,356.1610965,None,356.1610965,None,0.14444445,-0.26944444,1,0,0,0.0162772000185214,None,386.1617857000092,None,,,114,2022-05-04_13h57.52.338,FishGame,2022.1.1,59.84941886168048,
,2,나를 보내줘,6,Green,A,0,0,ScrollUp,ScrollDown,Green.png,3,NonTarget,NonTarget,,,,,0,0,0,0,,,,,,,,,,,,,,,,,,,,,0,1,1,1,,,,,,,,,,,,,,,,,,,,,,,,,,,,,,,,,,,,,,,,,,,,,,,,,,,,,,,,,,,,,,,,,,,,,,,,,1.8302469104528427,1.1565136999997776,394.7909049000009,None,ScrollUp,정답입니다,394.7909049000009,None,394.7909049000009,None,394.7909049000009,None,394.7909049000009,None,395.84575239999685,None,395.84575239999685,396.3453226000129,,,,,,,,,,,,,,,,114,2022-05-04_13h57.52.338,FishGame,2022.1.1,59.84941886168048,
,3,넌 활발해,1,Orange,B,5.666666666666667,5.6,ScrollUp,ScrollDown,Orange.png,3,Positive,Incongruent,,,,,0,0,0,0,,,,,,,,,,,,,,,,,,,,,0,2,2,2,,,,,,,,,,,,,,,,,,,,,,,,,,,,,,,,,,,,,,,,,,,,,,,,,,,,,,,,,,,,,,,,,,,,,,,,,1.5416666672875485,1.0684857000014745,396.98770749999676,None,NoResponse,무응답입니다,396.98770749999676,None,396.98770749999676,None,396.98770749999676,None,396.98770749999676,None,397.93566419999115,None,397.93566419999115,398.4458775999956,,,,,,,,,,,,,,,,114,2022-05-04_13h57.52.338,FishGame,2022.1.1,59.84941886168048,
,4,넌 논리적이야,2,Green,A,5.666666666666666,4.633333333333334,ScrollDown,ScrollUp,Green.png,3,Positive,Congruent,,,,,0,0,0,0,,,,,,,,,,,,,,,,,,,,,0,3,3,3,,,,,,,,,,,,,,,,,,,,,,,,,,,,,,,,,,,,,,,,,,,,,,,,,,,,,,,,,,,,,,,,,,,,,,,,,1.0385802288850148,0.9528416999964975,399.0818173000007,None,ScrollDown,정답입니다,399.0818173000007,None,399.0818173000007,None,399.0818173000007,None,399.0818173000007,None,399.9185262999963,None,399.9185262999963,400.42906049999874,,,,,,,,,,,,,,,,114,2022-05-04_13h57.52.338,FishGame,2022.1.1,59.84941886168048,
,5,넌 과묵해,3,Green,A,3.875,4.4,ScrollDown,ScrollUp,Green.png,3,Neutral,Neutral,,,,,0,0,0,0,,,,,,,,,,,,,,,,,,,,,0,4,4,4,,,,,,,,,,,,,,,,,,,,,,,,,,,,,,,,,,,,,,,,,,,,,,,,,,,,,,,,,,,,,,,,,,,,,,,,,1,0.8653488999989349,401.0617296999844,None,ScrollDown,정답입니다,401.0617296999844,None,401.0617296999844,None,401.0617296999844,None,401.0617296999844,None,401.81734690000303,None,401.81734690000303,402.329319499986,,,,,,,,,,,,,,,,114,2022-05-04_13h57.52.338,FishGame,2022.1.1,59.84941886168048,
,6,나를 데려가줘,6,Orange,B,0,0,ScrollDown,ScrollUp,Orange.png,3,NonTarget,NonTarget,,,,,0,0,0,0,,,,,,,,,,,,,,,,,,,,,0,5,5,5,,,,,,,,,,,,,,,,,,,,,,,,,,,,,,,,,,,,,,,,,,,,,,,,,,,,,,,,,,,,,,,,,,,,,,,,,1,1.2086517999996431,402.9613115999964,None,ScrollDown,정답입니다,402.9613115999964,None,402.9613115999964,None,402.9613115999964,None,402.9613115999964,None,404.06248819999746,None,404.06248819999746,404.5619843000022,,,,,,,,,,,,,,,,114,2022-05-04_13h57.52.338,FishGame,2022.1.1,59.84941886168048,
,7,넌 미숙해,4,Orange,B,3,3,ScrollUp,ScrollDown,Orange.png,3,Negative,Congruent,,,,,0,0,0,0,,,,,,,,,,,,,,,,,,,,,0,6,6,6,,,,,,,,,,,,,,,,,,,,,,,,,,,,,,,,,,,,,,,,,,,,,,,,,,,,,,,,,,,,,,,,,,,,,,,,,1.9768518606821697,0.8838547000195831,405.20055780000985,None,ScrollUp,정답입니다,405.20055780000985,None,405.20055780000985,None,405.20055780000985,None,405.20055780000985,None,405.96785049999016,None,405.96785049999016,406.4791411999904,,,,,,,,,,,,,,,,114,2022-05-04_13h57.52.338,FishGame,2022.1.1,59.84941886168048,
,8,나를 보내줘,6,Green,A,0,0,ScrollUp,ScrollDown,Green.png,3,NonTarget,NonTarget,,,,,0,0,0,0,,,,,,,,,,,,,,,,,,,,,0,7,7,7,,,,,,,,,,,,,,,,,,,,,,,,,,,,,,,,,,,,,,,,,,,,,,,,,,,,,,,,,,,,,,,,,,,,,,,,,2,1.360669699992286,407.106506000011,None,ScrollUp,정답입니다,407.106506000011,None,407.106506000011,None,407.106506000011,None,407.106506000011,None,408.3618387999886,None,408.3618387999886,408.8631822000025,,,,,,,,,,,,,,,,114,2022-05-04_13h57.52.338,FishGame,2022.1.1,59.84941886168048,
,9,넌 자신만만해,3,Orange,B,4.833333333333334,4.333333333333333,ScrollUp,ScrollDown,Orange.png,3,Neutral,Neutral,,,,,0,0,0,0,,,,,,,,,,,,,,,,,,,,,0,8,8,8,,,,,,,,,,,,,,,,,,,,,,,,,,,,,,,,,,,,,,,,,,,,,,,,,,,,,,,,,,,,,,,,,,,,,,,,,2,1.1664313999935985,409.4956026999862,None,ScrollUp,정답입니다,409.4956026999862,None,409.4956026999862,None,409.4956026999862,None,409.4956026999862,None,410.5501554000075,None,410.5501554000075,411.0628655999899,,,,,,,,,,,,,,,,114,2022-05-04_13h57.52.338,FishGame,2022.1.1,59.84941886168048,
,10,넌 탐욕스러워,5,Green,A,2.25,2.1,ScrollDown,ScrollUp,Green.png,3,Negative,Incongruent,,,,,0,0,0,0,,,,,,,,,,,,,,,,,,,,,0,9,9,9,,,,,,,,,,,,,,,,,,,,,,,,,,,,,,,,,,,,,,,,,,,,,,,,,,,,,,,,,,,,,,,,,,,,,,,,,1,0.9932456999958958,411.70320459999493,None,ScrollDown,정답입니다,411.70320459999493,None,411.70320459999493,None,411.70320459999493,None,411.70320459999493,None,412.5791309000051,None,412.5791309000051,413.07905629999004,,,,,,,,,,,,,,,,114,2022-05-04_13h57.52.338,FishGame,2022.1.1,59.84941886168048,
,11,넌 인기있어,2,Green,A,5.458333333333333,4.5,ScrollDown,ScrollUp,Green.png,3,Positive,Congruent,,,,,0,0,0,0,,,,,,,,,,,,,,,,,,,,,0,10,10,10,,,,,,,,,,,,,,,,,,,,,,,,,,,,,,,,,,,,,,,,,,,,,,,,,,,,,,,,,,,,,,,,,,,,,,,,,1,1.4029698999947868,413.70895759999985,None,ScrollDown,정답입니다,413.70895759999985,None,413.70895759999985,None,413.70895759999985,None,413.70895759999985,None,415.01080819999333,None,415.01080819999333,415.51253410000936,,,,,,,,,,,,,,,,114,2022-05-04_13h57.52.338,FishGame,2022.1.1,59.84941886168048,
,12,나를 데려가줘,6,Orange,B,0,0,ScrollDown,ScrollUp,Orange.png,3,NonTarget,NonTarget,,,,,0,0,0,0,,,,,,,,,,,,,,,,,,,,,0,11,11,11,,,,,,,,,,,,,,,,,,,,,,,,,,,,,,,,,,,,,,,,,,,,,,,,,,,,,,,,,,,,,,,,,,,,,,,,,1,1.265910400019493,416.1558689000085,None,ScrollDown,정답입니다,416.1558689000085,None,416.1558689000085,None,416.1558689000085,None,416.1558689000085,None,417.30151560000377,None,417.30151560000377,417.8123384999926,,,,,,,,,,,,,,,,114,2022-05-04_13h57.52.338,FishGame,2022.1.1,59.84941886168048,
,13,넌 뛰어나,2,Orange,B,6.166666666666667,4,ScrollUp,ScrollDown,Orange.png,3,Positive,Incongruent,,,,,0,0,0,0,,,,,,,,,,,,,,,,,,,,,0,12,12,12,,,,,,,,,,,,,,,,,,,,,,,,,,,,,,,,,,,,,,,,,,,,,,,,,,,,,,,,,,,,,,,,,,,,,,,,,1.8287036965290706,1.4242119000118691,418.455770200002,None,ScrollUp,정답입니다,418.455770200002,None,418.455770200002,None,418.455770200002,None,418.455770200002,None,419.76290719999815,None,419.76290719999815,420.26274649999687,,,,,,,,,,,,,,,,114,2022-05-04_13h57.52.338,FishGame,2022.1.1,59.84941886168048,
,14,넌 낙관적이야,1,Green,A,5.75,5.8,ScrollDown,ScrollUp,Green.png,3,Positive,Congruent,,,,,0,0,0,0,,,,,,,,,,,,,,,,,,,,,0,13,13,13,,,,,,,,,,,,,,,,,,,,,,,,,,,,,,,,,,,,,,,,,,,,,,,,,,,,,,,,,,,,,,,,,,,,,,,,,1.0864197611808777,1.469459599989932,420.8959649000026,None,ScrollDown,정답입니다,420.8959649000026,None,420.8959649000026,None,420.8959649000026,None,420.8959649000026,None,422.2610200000054,None,422.2610200000054,422.76295269999537,,,,,,,,,,,,,,,,114,2022-05-04_13h57.52.338,FishGame,2022.1.1,59.84941886168048,
,15,넌 산만해,4,Orange,B,2.695652173913043,3.033333333333333,ScrollUp,ScrollDown,Orange.png,3,Negative,Congruent,,,,,0,0,0,0,,,,,,,,,,,,,,,,,,,,,0,14,14,14,,,,,,,,,,,,,,,,,,,,,,,,,,,,,,,,,,,,,,,,,,,,,,,,,,,,,,,,,,,,,,,,,,,,,,,,,1.8935185074806213,1.0234998000087216,423.4032537000021,None,ScrollUp,정답입니다,423.4032537000021,None,423.4032537000021,None,423.4032537000021,None,423.4032537000021,None,424.3126881000062,None,424.3126881000062,424.8129675000091,,,,,,,,,,,,,,,,114,2022-05-04_13h57.52.338,FishGame,2022.1.1,59.84941886168048,
,16,나를 보내줘,6,Green,A,0,0,ScrollUp,ScrollDown,Green.png,3,NonTarget,NonTarget,,,,,0,0,0,0,,,,,,,,,,,,,,,,,,,,,0,15,15,15,,,,,,,,,,,,,,,,,,,,,,,,,,,,,,,,,,,,,,,,,,,,,,,,,,,,,,,,,,,,,,,,,,,,,,,,,1.8487654278675716,1.6243476000090595,425.44188040000154,None,ScrollUp,정답입니다,425.44188040000154,None,425.44188040000154,None,425.44188040000154,None,425.44188040000154,None,426.9610932999931,None,426.9610932999931,427.46288300000015,,,,,,,,,,,,,,,,114,2022-05-04_13h57.52.338,FishGame,2022.1.1,59.84941886168048,
,17,넌 교활해,5,Orange,B,2.333333333333333,2.133333333333333,ScrollUp,ScrollDown,Orange.png,3,Negative,Congruent,,,,,0,0,0,0,,,,,,,,,,,,,,,,,,,,,0,16,16,16,,,,,,,,,,,,,,,,,,,,,,,,,,,,,,,,,,,,,,,,,,,,,,,,,,,,,,,,,,,,,,,,,,,,,,,,,1.9691357910633087,1.0444838000112213,428.09652960000676,None,ScrollUp,정답입니다,428.09652960000676,None,428.09652960000676,None,428.09652960000676,None,428.09652960000676,None,429.0293617999996,None,429.0293617999996,429.5294017000124,,,,,,,,,,,,,,,,114,2022-05-04_13h57.52.338,FishGame,2022.1.1,59.84941886168048,
,18,나를 보내줘,6,Green,A,0,0,ScrollUp,ScrollDown,Green.png,3,NonTarget,NonTarget,,,,,0,0,0,0,,,,,,,,,,,,,,,,,,,,,0,17,17,17,,,,,,,,,,,,,,,,,,,,,,,,,,,,,,,,,,,,,,,,,,,,,,,,,,,,,,,,,,,,,,,,,,,,,,,,,2,1.1946220000099856,430.1571477999969,None,ScrollUp,정답입니다,430.1571477999969,None,430.1571477999969,None,430.1571477999969,None,430.1571477999969,None,431.24651070000255,None,431.24651070000255,431.74653189998935,,,,,,,,,,,,,,,,114,2022-05-04_13h57.52.338,FishGame,2022.1.1,59.84941886168048,
,19,넌 불친절해,5,Orange,B,2.208333333333333,2.033333333333333,ScrollUp,ScrollDown,Orange.png,3,Negative,Congruent,,,,,0,0,0,0,,,,,,,,,,,,,,,,,,,,,0,18,18,18,,,,,,,,,,,,,,,,,,,,,,,,,,,,,,,,,,,,,,,,,,,,,,,,,,,,,,,,,,,,,,,,,,,,,,,,,1.9351851840813954,1.1782508000032976,432.3903943999903,None,ScrollUp,정답입니다,432.3903943999903,None,432.3903943999903,None,432.3903943999903,None,432.3903943999903,None,433.4462796000007,None,433.4462796000007,433.9467220999941,,,,,,,,,,,,,,,,114,2022-05-04_13h57.52.338,FishGame,2022.1.1,59.84941886168048,
,20,넌 지적이야,2,Orange,B,5.75,4.366666666666666,ScrollUp,ScrollDown,Orange.png,3,Positive,Incongruent,,,,,0,0,0,0,,,,,,,,,,,,,,,,,,,,,0,19,19,19,,,,,,,,,,,,,,,,,,,,,,,,,,,,,,,,,,,,,,,,,,,,,,,,,,,,,,,,,,,,,,,,,,,,,,,,,1.8040123482545216,1.1577668000245467,434.577478399995,None,ScrollUp,정답입니다,434.577478399995,None,434.577478399995,None,434.577478399995,None,434.577478399995,None,435.6298846999998,None,435.6298846999998,436.129783100012,,,,,,,,,,,,,,,,114,2022-05-04_13h57.52.338,FishGame,2022.1.1,59.84941886168048,
,21,넌 우유부단해,4,Green,A,2.666666666666667,3.166666666666667,ScrollDown,ScrollUp,Green.png,3,Negative,Incongruent,,,,,0,0,0,0,,,,,,,,,,,,,,,,,,,,,0,20,20,20,,,,,,,,,,,,,,,,,,,,,,,,,,,,,,,,,,,,,,,,,,,,,,,,,,,,,,,,,,,,,,,,,,,,,,,,,1.0648148159186046,1.39170369997737,436.77349270001287,None,ScrollDown,정답입니다,436.77349270001287,None,436.77349270001287,None,436.77349270001287,None,436.77349270001287,None,438.04659049998736,None,438.04659049998736,438.54628390001017,,,,,,,,,,,,,,,,114,2022-05-04_13h57.52.338,FishGame,2022.1.1,59.84941886168048,
,22,나를 데려가줘,6,Orange,B,0,0,ScrollDown,ScrollUp,Orange.png,3,NonTarget,NonTarget,,,,,0,0,0,0,,,,,,,,,,,,,,,,,,,,,0,21,21,21,,,,,,,,,,,,,,,,,,,,,,,,,,,,,,,,,,,,,,,,,,,,,,,,,,,,,,,,,,,,,,,,,,,,,,,,,1,2.4903730000078212,439.18098330000066,None,ScrollDown,정답입니다,439.18098330000066,None,439.18098330000066,None,439.18098330000066,None,439.18098330000066,None,441.56317020001006,None,441.56317020001006,442.0628362999996,,,,,,,,,,,,,,,,114,2022-05-04_13h57.52.338,FishGame,2022.1.1,59.84941886168048,
,23,넌 성실해,1,Orange,B,6.041666666666666,5.7,ScrollUp,ScrollDown,Orange.png,3,Positive,Incongruent,,,,,0,0,0,0,,,,,,,,,,,,,,,,,,,,,0,22,22,22,,,,,,,,,,,,,,,,,,,,,,,,,,,,,,,,,,,,,,,,,,,,,,,,,,,,,,,,,,,,,,,,,,,,,,,,,1.8981481492519379,1.3247730000002775,442.69810069998493,None,ScrollUp,정답입니다,442.69810069998493,None,442.69810069998493,None,442.69810069998493,None,442.69810069998493,None,443.9131846000091,None,443.9131846000091,444.4130004000035,,,,,,,,,,,,,,,,114,2022-05-04_13h57.52.338,FishGame,2022.1.1,59.84941886168048,
,24,넌 현실주의적이야,3,Green,A,4.625,4.4,ScrollDown,ScrollUp,Green.png,3,Neutral,Neutral,,,,,0,0,0,0,,,,,,,,,,,,,,,,,,,,,0,23,23,23,,,,,,,,,,,,,,,,,,,,,,,,,,,,,,,,,,,,,,,,,,,,,,,,,,,,,,,,,,,,,,,,,,,,,,,,,1.180555562178294,0.9257679999864195,445.0395887999912,None,ScrollDown,정답입니다,445.0395887999912,None,445.0395887999912,None,445.0395887999912,None,445.0395887999912,None,445.8632636000111,None,445.8632636000111,446.36294429999543,,,,,,,,,,,,,,,,114,2022-05-04_13h57.52.338,FishGame,2022.1.1,59.84941886168048,
,25,넌 진실돼,1,Green,A,6.625,5.566666666666666,ScrollDown,ScrollUp,Green.png,3,Positive,Congruent,,,,,0,0,0,0,,,,,,,,,,,,,,,,,,,,,0,24,24,24,,,,,,,,,,,,,,,,,,,,,,,,,,,,,,,,,,,,,,,,,,,,,,,,,,,,,,,,,,,,,,,,,,,,,,,,,1,1.0577313000103459,446.99875589998555,None,ScrollDown,정답입니다,446.99875589998555,None,446.99875589998555,None,446.99875589998555,None,446.99875589998555,None,447.9467533999996,None,447.9467533999996,448.44637940000393,,,,,,,,,,,,,,,,114,2022-05-04_13h57.52.338,FishGame,2022.1.1,59.84941886168048,
,26,넌 천진난만해,3,Orange,B,4.958333333333334,4.833333333333333,ScrollUp,ScrollDown,Orange.png,3,Neutral,Neutral,,,,,0,0,0,0,,,,,,,,,,,,,,,,,,,,,0,25,25,25,,,,,,,,,,,,,,,,,,,,,,,,,,,,,,,,,,,,,,,,,,,,,,,,,,,,,,,,,,,,,,,,,,,,,,,,,2,1.0903445000003558,449.0891535000119,None,ScrollUp,정답입니다,449.0891535000119,None,449.0891535000119,None,449.0891535000119,None,449.0891535000119,None,450.063252699998,None,450.063252699998,450.56352809999953,,,,,,,,,,,,,,,,114,2022-05-04_13h57.52.338,FishGame,2022.1.1,59.84941886168048,
,27,넌 교양없어,5,Green,A,2.416666666666667,2.2,ScrollDown,ScrollUp,Green.png,3,Negative,Incongruent,,,,,0,0,0,0,,,,,,,,,,,,,,,,,,,,,0,26,26,26,,,,,,,,,,,,,,,,,,,,,,,,,,,,,,,,,,,,,,,,,,,,,,,,,,,,,,,,,,,,,,,,,,,,,,,,,1,1.1069527000072412,451.19560320000164,None,ScrollDown,정답입니다,451.19560320000164,None,451.19560320000164,None,451.19560320000164,None,451.19560320000164,None,452.19686890000594,None,452.19686890000594,452.6970519000024,,,,,,,,,,,,,,,,114,2022-05-04_13h57.52.338,FishGame,2022.1.1,59.84941886168048,
,28,나를 보내줘,6,Green,A,0,0,ScrollUp,ScrollDown,Green.png,3,NonTarget,NonTarget,,,,,0,0,0,0,,,,,,,,,,,,,,,,,,,,,0,27,27,27,,,,,,,,,,,,,,,,,,,,,,,,,,,,,,,,,,,,,,,,,,,,,,,,,,,,,,,,,,,,,,,,,,,,,,,,,1.9382716119289398,1.5087032000010367,453.32231899999897,None,ScrollUp,정답입니다,453.32231899999897,None,453.32231899999897,None,453.32231899999897,None,453.32231899999897,None,454.7299677999981,None,454.7299677999981,455.2299127999868,,,,,,,,,,,,,,,,114,2022-05-04_13h57.52.338,FishGame,2022.1.1,59.84941886168048,
,29,넌 엉뚱스러워,3,Green,A,4.166666666666667,4.133333333333334,ScrollDown,ScrollUp,Green.png,3,Neutral,Neutral,,,,,0,0,0,0,,,,,,,,,,,,,,,,,,,,,0,28,28,28,,,,,,,,,,,,,,,,,,,,,,,,,,,,,,,,,,,,,,,,,,,,,,,,,,,,,,,,,,,,,,,,,,,,,,,,,1,1.01980090001598,455.8614646999922,None,ScrollDown,정답입니다,455.8614646999922,None,455.8614646999922,None,455.8614646999922,None,455.8614646999922,None,456.77859820000594,None,456.77859820000594,457.2799638999859,,,,,,,,,,,,,,,,114,2022-05-04_13h57.52.338,FishGame,2022.1.1,59.84941886168048,
,30,넌 무지해,4,Orange,B,2.541666666666667,3.066666666666667,ScrollUp,ScrollDown,Orange.png,3,Negative,Congruent,,,,,0,0,0,0,,,,,,,,,,,,,,,,,,,,,0,29,29,29,,,,,,,,,,,,,,,,,,,,,,,,,,,,,,,,,,,,,,,,,,,,,,,,,,,,,,,,,,,,,,,,,,,,,,,,,2,1.2463472000090405,457.91067119999207,None,ScrollUp,정답입니다,457.91067119999207,None,457.91067119999207,None,457.91067119999207,None,457.91067119999207,None,459.04844610000146,None,459.04844610000146,459.5634826000023,,,,,,,,,,,,,,,,114,2022-05-04_13h57.52.338,FishGame,2022.1.1,59.84941886168048,
,31,넌 음울해,5,Orange,B,2.25,2.233333333333333,ScrollUp,ScrollDown,Orange.png,3,Negative,Congruent,,,,,0,0,0,0,,,,,,,,,,,,,,,,,,,,,0,30,30,30,,,,,,,,,,,,,,,,,,,,,,,,,,,,,,,,,,,,,,,,,,,,,,,,,,,,,,,,,,,,,,,,,,,,,,,,,2,1.0736567999992985,460.20810250000795,None,ScrollUp,정답입니다,460.20810250000795,None,460.20810250000795,None,460.20810250000795,None,460.20810250000795,None,461.16366419999395,None,461.16366419999395,461.664003199985,,,,,,,,,,,,,,,,114,2022-05-04_13h57.52.338,FishGame,2022.1.1,59.84941886168048,
,32,넌 냉소적이야,5,Green,A,2.916666666666667,2.4,ScrollDown,ScrollUp,Green.png,3,Negative,Incongruent,,,,,0,0,0,0,,,,,,,,,,,,,,,,,,,,,0,31,31,31,,,,,,,,,,,,,,,,,,,,,,,,,,,,,,,,,,,,,,,,,,,,,,,,,,,,,,,,,,,,,,,,,,,,,,,,,1.1728395173947017,1.175422600004822,462.2902681000123,None,ScrollDown,정답입니다,462.2902681000123,None,462.2902681000123,None,462.2902681000123,None,462.2902681000123,None,463.36330259998795,None,463.36330259998795,463.86371219999273,,,,,,,,,,,,,,,,114,2022-05-04_13h57.52.338,FishGame,2022.1.1,59.84941886168048,
,33,나를 데려가줘,6,Orange,B,0,0,ScrollDown,ScrollUp,Orange.png,3,NonTarget,NonTarget,,,,,0,0,0,0,,,,,,,,,,,,,,,,,,,,,0,32,32,32,,,,,,,,,,,,,,,,,,,,,,,,,,,,,,,,,,,,,,,,,,,,,,,,,,,,,,,,,,,,,,,,,,,,,,,,,1.0632716019948323,1.2298441999882925,464.4994054000126,None,ScrollDown,정답입니다,464.4994054000126,None,464.4994054000126,None,464.4994054000126,None,464.4994054000126,None,465.6167104000051,None,465.6167104000051,466.13055520001217,,,,,,,,,,,,,,,,114,2022-05-04_13h57.52.338,FishGame,2022.1.1,59.84941886168048,
,34,넌 쾌활해,1,Green,A,5.541666666666666,5.733333333333333,ScrollDown,ScrollUp,Green.png,3,Positive,Congruent,,,,,0,0,0,0,,,,,,,,,,,,,,,,,,,,,0,33,33,33,,,,,,,,,,,,,,,,,,,,,,,,,,,,,,,,,,,,,,,,,,,,,,,,,,,,,,,,,,,,,,,,,,,,,,,,,1.6111111169060073,1.9031543000019155,466.77420009998605,None,ScrollUp,오답입니다,466.77420009998605,None,466.77420009998605,None,466.77420009998605,None,466.77420009998605,None,468.55468120001024,None,468.55468120001024,469.06386910000583,,,,,,,,,,,,,,,,114,2022-05-04_13h57.52.338,FishGame,2022.1.1,59.84941886168048,
,35,나를 보내줘,6,Green,A,0,0,ScrollUp,ScrollDown,Green.png,3,NonTarget,NonTarget,,,,,0,0,0,0,,,,,,,,,,,,,,,,,,,,,0,34,34,34,,,,,,,,,,,,,,,,,,,,,,,,,,,,,,,,,,,,,,,,,,,,,,,,,,,,,,,,,,,,,,,,,,,,,,,,,1.6450617238879204,1.422945600003004,469.68838209999376,None,ScrollUp,정답입니다,469.68838209999376,None,469.68838209999376,None,469.68838209999376,None,469.68838209999376,None,471.00815290000173,None,471.00815290000173,471.51358329999493,,,,,,,,,,,,,,,,114,2022-05-04_13h57.52.338,FishGame,2022.1.1,59.84941886168048,
,36,넌 명랑해,1,Orange,B,5.739130434782609,5.666666666666667,ScrollUp,ScrollDown,Orange.png,3,Positive,Incongruent,,,,,0,0,0,0,,,,,,,,,,,,,,,,,,,,,0,35,35,35,,,,,,,,,,,,,,,,,,,,,,,,,,,,,,,,,,,,,,,,,,,,,,,,,,,,,,,,,,,,,,,,,,,,,,,,,1.9567901293436687,1.4947557999985293,472.1488607999927,None,ScrollUp,정답입니다,472.1488607999927,None,472.1488607999927,None,472.1488607999927,None,472.1488607999927,None,473.53028249999625,None,473.53028249999625,474.03039369999897,,,,,,,,,,,,,,,,114,2022-05-04_13h57.52.338,FishGame,2022.1.1,59.84941886168048,
,37,넌 멍해,4,Green,A,2.833333333333333,3.4,ScrollDown,ScrollUp,Green.png,3,Negative,Incongruent,,,,,0,0,0,0,,,,,,,,,,,,,,,,,,,,,0,36,36,36,,,,,,,,,,,,,,,,,,,,,,,,,,,,,,,,,,,,,,,,,,,,,,,,,,,,,,,,,,,,,,,,,,,,,,,,,1.0231481393178303,1.1909507999953348,474.66057760000695,None,ScrollDown,정답입니다,474.66057760000695,None,474.66057760000695,None,474.66057760000695,None,474.66057760000695,None,475.7471242999891,None,475.7471242999891,476.2471738999884,,,,,,,,,,,,,,,,114,2022-05-04_13h57.52.338,FishGame,2022.1.1,59.84941886168048,
,38,나를 데려가줘,6,Orange,B,0,0,ScrollDown,ScrollUp,Orange.png,3,NonTarget,NonTarget,,,,,0,0,0,0,,,,,,,,,,,,,,,,,,,,,0,37,37,37,,,,,,,,,,,,,,,,,,,,,,,,,,,,,,,,,,,,,,,,,,,,,,,,,,,,,,,,,,,,,,,,,,,,,,,,,1.0077160497506459,1.1406375000078697,476.8794089999865,None,ScrollDown,정답입니다,476.8794089999865,None,476.8794089999865,None,476.8794089999865,None,476.8794089999865,None,477.91412830000627,None,477.91412830000627,478.4144709999964,,,,,,,,,,,,,,,,114,2022-05-04_13h57.52.338,FishGame,2022.1.1,59.84941886168048,
,39,넌 현명해,2,Green,A,6.541666666666666,4.533333333333333,ScrollDown,ScrollUp,Green.png,3,Positive,Congruent,,,,,0,0,0,0,,,,,,,,,,,,,,,,,,,,,0,38,38,38,,,,,,,,,,,,,,,,,,,,,,,,,,,,,,,,,,,,,,,,,,,,,,,,,,,,,,,,,,,,,,,,,,,,,,,,,1.0185184975465138,4.722873599996092,479.0394816999906,None,ScrollDown,정답입니다,479.0394816999906,None,479.0394816999906,None,479.0394816999906,None,479.0394816999906,None,483.6625403999933,None,483.6625403999933,484.1639930999954,,,,,,,,,,,,,,,,114,2022-05-04_13h57.52.338,FishGame,2022.1.1,59.84941886168048,
,40,넌 수줍어,3,Orange,B,3.541666666666666,4.366666666666666,ScrollUp,ScrollDown,Orange.png,3,Neutral,Neutral,,,,,0,0,0,0,,,,,,,,,,,,,,,,,,,,,0,39,39,39,,,,,,,,,,,,,,,,,,,,,,,,,,,,,,,,,,,,,,,,,,,,,,,,,,,,,,,,,,,,,,,,,,,,,,,,,1.8564814726511638,1.2257044999860227,484.853838799987,None,ScrollUp,정답입니다,484.853838799987,None,484.853838799987,None,484.853838799987,None,484.853838799987,None,485.91440959999454,None,485.91440959999454,486.41457669998636,,,,,,,,,,,,,,,,114,2022-05-04_13h57.52.338,FishGame,2022.1.1,59.84941886168048,
,41,나를 데려가줘,6,Orange,B,0,0,ScrollDown,ScrollUp,Orange.png,3,NonTarget,NonTarget,,,,,0,0,0,0,,,,,,,,,,,,,,,,,,,,,0,40,40,40,,,,,,,,,,,,,,,,,,,,,,,,,,,,,,,,,,,,,,,,,,,,,,,,,,,,,,,,,,,,,,,,,,,,,,,,,1.1867283930381138,1.3741421999875456,487.0471147999924,None,ScrollDown,정답입니다,487.0471147999924,None,487.0471147999924,None,487.0471147999924,None,487.0471147999924,None,488.3141437000013,None,488.3141437000013,488.8145755000005,,,,,,,,,,,,,,,,114,2022-05-04_13h57.52.338,FishGame,2022.1.1,59.84941886168048,
,42,넌 성숙해,2,Orange,B,5.833333333333333,4.533333333333333,ScrollUp,ScrollDown,Orange.png,3,Positive,Incongruent,,,,,0,0,0,0,,,,,,,,,,,,,,,,,,,,,0,41,41,41,,,,,,,,,,,,,,,,,,,,,,,,,,,,,,,,,,,,,,,,,,,,,,,,,,,,,,,,,,,,,,,,,,,,,,,,,1.9922839502493541,1.269964200007962,489.4436612999998,None,ScrollUp,정답입니다,489.4436612999998,None,489.4436612999998,None,489.4436612999998,None,489.4436612999998,None,490.6122308000049,None,490.6122308000049,491.1142065000022,,,,,,,,,,,,,,,,114,2022-05-04_13h57.52.338,FishGame,2022.1.1,59.84941886168048,
,1,넌 매력적이야,2,Orange,B,6.125,4.666666666666667,ScrollUp,ScrollDown,Orange.png,4,Positive,Incongruent,,,,,0,0,0,0,,,,,,,,,,,,,,,,,,,,,,,,,0,0,0,0,,,,,,,,,,,,,,,,,,,,,,,,,,,,523.5151553000032,525.0152769999986,525.0652621999907,526.0154500000062,526.0658322999952,527.0152566999895,526.998228899989,None,,,,,,,,,,,,,,,,,,,,,,,,,,,,,,,,,,1.8317901243766148,1.3863957000139635,528.170148300007,None,ScrollUp,정답입니다,528.170148300007,None,528.170148300007,None,528.170148300007,None,528.170148300007,None,529.3861538000056,None,529.3861538000056,529.8984261000005,491.6144496999914,None,491.6144496999914,None,0.15277778,-0.29074073,1,0,0,0.016269799991277978,None,521.6146430000081,None,,,114,2022-05-04_13h57.52.338,FishGame,2022.1.1,59.84941886168048,
,2,나를 보내줘,6,Green,A,0,0,ScrollUp,ScrollDown,Green.png,4,NonTarget,NonTarget,,,,,0,0,0,0,,,,,,,,,,,,,,,,,,,,,,,,,0,1,1,1,,,,,,,,,,,,,,,,,,,,,,,,,,,,,,,,,,,,,,,,,,,,,,,,,,,,,,,,,,,,,,,,,,,,,1.6651234552264214,1.1856998000002932,530.5231550000026,None,ScrollUp,정답입니다,530.5231550000026,None,530.5231550000026,None,530.5231550000026,None,530.5231550000026,None,531.6131946000096,None,531.6131946000096,532.1156363000046,,,,,,,,,,,,,,,,114,2022-05-04_13h57.52.338,FishGame,2022.1.1,59.84941886168048,
,3,넌 조심스러워,3,Green,A,4.791666666666666,4.666666666666667,ScrollDown,ScrollUp,Green.png,4,Neutral,Neutral,,,,,0,0,0,0,,,,,,,,,,,,,,,,,,,,,,,,,0,2,2,2,,,,,,,,,,,,,,,,,,,,,,,,,,,,,,,,,,,,,,,,,,,,,,,,,,,,,,,,,,,,,,,,,,,,,1.1774691343307495,1.1536856000020634,532.7445194000029,None,ScrollDown,정답입니다,532.7445194000029,None,532.7445194000029,None,532.7445194000029,None,532.7445194000029,None,533.7967568000022,None,533.7967568000022,534.2987801000127,,,,,,,,,,,,,,,,114,2022-05-04_13h57.52.338,FishGame,2022.1.1,59.84941886168048,
,4,넌 철학적이야,3,Orange,B,4.5,4.266666666666667,ScrollUp,ScrollDown,Orange.png,4,Neutral,Neutral,,,,,0,0,0,0,,,,,,,,,,,,,,,,,,,,,,,,,0,3,3,3,,,,,,,,,,,,,,,,,,,,,,,,,,,,,,,,,,,,,,,,,,,,,,,,,,,,,,,,,,,,,,,,,,,,,1.8688271592060726,1.0294964000058826,534.9362166000064,None,ScrollUp,정답입니다,534.9362166000064,None,534.9362166000064,None,534.9362166000064,None,534.9362166000064,None,535.8506416000018,None,535.8506416000018,536.3656317999994,,,,,,,,,,,,,,,,114,2022-05-04_13h57.52.338,FishGame,2022.1.1,59.84941886168048,
,5,넌 쩨쩨해,5,Green,A,2.375,2.133333333333333,ScrollDown,ScrollUp,Green.png,4,Negative,Incongruent,,,,,0,0,0,0,,,,,,,,,,,,,,,,,,,,,,,,,0,4,4,4,,,,,,,,,,,,,,,,,,,,,,,,,,,,,,,,,,,,,,,,,,,,,,,,,,,,,,,,,,,,,,,,,,,,,1.2700617214043937,0.9404552999767475,536.9981106999912,None,ScrollDown,정답입니다,536.9981106999912,None,536.9981106999912,None,536.9981106999912,None,536.9981106999912,None,537.8316211999918,None,537.8316211999918,538.3319506999978,,,,,,,,,,,,,,,,114,2022-05-04_13h57.52.338,FishGame,2022.1.1,59.84941886168048,
,6,나를 데려가줘,6,Orange,B,0,0,ScrollDown,ScrollUp,Orange.png,4,NonTarget,NonTarget,,,,,0,0,0,0,,,,,,,,,,,,,,,,,,,,,,,,,0,5,5,5,,,,,,,,,,,,,,,,,,,,,,,,,,,,,,,,,,,,,,,,,,,,,,,,,,,,,,,,,,,,,,,,,,,,,1,1.2362871999794152,538.9611360999988,None,ScrollDown,정답입니다,538.9611360999988,None,538.9611360999988,None,538.9611360999988,None,538.9611360999988,None,540.0970582999871,None,540.0970582999871,540.598556699988,,,,,,,,,,,,,,,,114,2022-05-04_13h57.52.338,FishGame,2022.1.1,59.84941886168048,
,7,넌 고집불통이야,5,Orange,B,2.875,2,ScrollUp,ScrollDown,Orange.png,4,Negative,Congruent,,,,,0,0,0,0,,,,,,,,,,,,,,,,,,,,,,,,,0,6,6,6,,,,,,,,,,,,,,,,,,,,,,,,,,,,,,,,,,,,,,,,,,,,,,,,,,,,,,,,,,,,,,,,,,,,,2,1.1999209999921732,541.2393687999866,None,ScrollUp,정답입니다,541.2393687999866,None,541.2393687999866,None,541.2393687999866,None,541.2393687999866,None,542.3210328999849,None,542.3210328999849,542.8318804999872,,,,,,,,,,,,,,,,114,2022-05-04_13h57.52.338,FishGame,2022.1.1,59.84941886168048,
,8,넌 무심해,4,Green,A,2.875,3.2,ScrollDown,ScrollUp,Green.png,4,Negative,Incongruent,,,,,0,0,0,0,,,,,,,,,,,,,,,,,,,,,,,,,0,7,7,7,,,,,,,,,,,,,,,,,,,,,,,,,,,,,,,,,,,,,,,,,,,,,,,,,,,,,,,,,,,,,,,,,,,,,1.2206790000200272,1.7914645000128075,543.4590356000117,None,ScrollDown,정답입니다,543.4590356000117,None,543.4590356000117,None,543.4590356000117,None,543.4590356000117,None,545.1489299999957,None,545.1489299999957,545.6491657999868,,,,,,,,,,,,,,,,114,2022-05-04_13h57.52.338,FishGame,2022.1.1,59.84941886168048,
,9,넌 정겨워,1,Green,A,5.791666666666667,5.666666666666667,ScrollDown,ScrollUp,Green.png,4,Positive,Congruent,,,,,0,0,0,0,,,,,,,,,,,,,,,,,,,,,,,,,0,8,8,8,,,,,,,,,,,,,,,,,,,,,,,,,,,,,,,,,,,,,,,,,,,,,,,,,,,,,,,,,,,,,,,,,,,,,1.141975313425064,0.929051300015999,546.2815120999876,None,ScrollDown,정답입니다,546.2815120999876,None,546.2815120999876,None,546.2815120999876,None,546.2815120999876,None,547.0987343000015,None,547.0987343000015,547.5990389999934,,,,,,,,,,,,,,,,114,2022-05-04_13h57.52.338,FishGame,2022.1.1,59.84941886168048,
,10,나를 데려가줘,6,Orange,B,0,0,ScrollDown,ScrollUp,Orange.png,4,NonTarget,NonTarget,,,,,0,0,0,0,,,,,,,,,,,,,,,,,,,,,,,,,0,9,9,9,,,,,,,,,,,,,,,,,,,,,,,,,,,,,,,,,,,,,,,,,,,,,,,,,,,,,,,,,,,,,,,,,,,,,1.0864197611808777,0.9582793999870773,548.2278316000011,None,ScrollDown,정답입니다,548.2278316000011,None,548.2278316000011,None,548.2278316000011,None,548.2278316000011,None,549.0823826999986,None,549.0823826999986,549.5819828000094,,,,,,,,,,,,,,,,114,2022-05-04_13h57.52.338,FishGame,2022.1.1,59.84941886168048,
,11,넌 체제순응적이야,4,Orange,B,3,3.6,ScrollUp,ScrollDown,Orange.png,4,Negative,Congruent,,,,,0,0,0,0,,,,,,,,,,,,,,,,,,,,,,,,,0,10,10,10,,,,,,,,,,,,,,,,,,,,,,,,,,,,,,,,,,,,,,,,,,,,,,,,,,,,,,,,,,,,,,,,,,,,,1.7361111094554267,1.3862596999970265,550.2303783000098,None,ScrollUp,정답입니다,550.2303783000098,None,550.2303783000098,None,550.2303783000098,None,550.2303783000098,None,551.4971313000133,None,551.4971313000133,551.9992248000053,,,,,,,,,,,,,,,,114,2022-05-04_13h57.52.338,FishGame,2022.1.1,59.84941886168048,
,12,나를 보내줘,6,Green,A,0,0,ScrollUp,ScrollDown,Green.png,4,NonTarget,NonTarget,,,,,0,0,0,0,,,,,,,,,,,,,,,,,,,,,,,,,0,11,11,11,,,,,,,,,,,,,,,,,,,,,,,,,,,,,,,,,,,,,,,,,,,,,,,,,,,,,,,,,,,,,,,,,,,,,1.9367283980051677,1.2152198000112548,552.620115800004,None,ScrollUp,정답입니다,552.620115800004,None,552.620115800004,None,552.620115800004,None,552.620115800004,None,553.7366891999845,None,553.7366891999845,554.2492423999938,,,,,,,,,,,,,,,,114,2022-05-04_13h57.52.338,FishGame,2022.1.1,59.84941886168048,
,13,넌 박식해,2,Green,A,5.625,3.933333333333333,ScrollDown,ScrollUp,Green.png,4,Positive,Congruent,,,,,0,0,0,0,,,,,,,,,,,,,,,,,,,,,,,,,0,12,12,12,,,,,,,,,,,,,,,,,,,,,,,,,,,,,,,,,,,,,,,,,,,,,,,,,,,,,,,,,,,,,,,,,,,,,1.0925925920406978,0.8172464000235777,554.8834693999961,None,ScrollDown,정답입니다,554.8834693999961,None,554.8834693999961,None,554.8834693999961,None,554.8834693999961,None,555.5868727999914,None,555.5868727999914,556.0993520999909,,,,,,,,,,,,,,,,114,2022-05-04_13h57.52.338,FishGame,2022.1.1,59.84941886168048,
,14,나를 보내줘,6,Green,A,0,0,ScrollUp,ScrollDown,Green.png,4,NonTarget,NonTarget,,,,,0,0,0,0,,,,,,,,,,,,,,,,,,,,,,,,,0,13,13,13,,,,,,,,,,,,,,,,,,,,,,,,,,,,,,,,,,,,,,,,,,,,,,,,,,,,,,,,,,,,,,,,,,,,,1.632716049750646,1.0876910999941174,556.7333639999852,None,ScrollUp,정답입니다,556.7333639999852,None,556.7333639999852,None,556.7333639999852,None,556.7333639999852,None,557.7140548999887,None,557.7140548999887,558.2159567000053,,,,,,,,,,,,,,,,114,2022-05-04_13h57.52.338,FishGame,2022.1.1,59.84941886168048,
,15,넌 침착해,1,Orange,B,5.458333333333333,5.566666666666666,ScrollUp,ScrollDown,Orange.png,4,Positive,Incongruent,,,,,0,0,0,0,,,,,,,,,,,,,,,,,,,,,,,,,0,14,14,14,,,,,,,,,,,,,,,,,,,,,,,,,,,,,,,,,,,,,,,,,,,,,,,,,,,,,,,,,,,,,,,,,,,,,2,1.4950068999896757,558.8538311999873,None,ScrollUp,정답입니다,558.8538311999873,None,558.8538311999873,None,558.8538311999873,None,558.8538311999873,None,560.2286765000026,None,560.2286765000026,560.7322551000107,,,,,,,,,,,,,,,,114,2022-05-04_13h57.52.338,FishGame,2022.1.1,59.84941886168048,
,16,나를 데려가줘,6,Orange,B,0,0,ScrollDown,ScrollUp,Orange.png,4,NonTarget,NonTarget,,,,,0,0,0,0,,,,,,,,,,,,,,,,,,,,,,,,,0,15,15,15,,,,,,,,,,,,,,,,,,,,,,,,,,,,,,,,,,,,,,,,,,,,,,,,,,,,,,,,,,,,,,,,,,,,,1,1.268090800003847,561.366798300005,None,ScrollDown,정답입니다,561.366798300005,None,561.366798300005,None,561.366798300005,None,561.366798300005,None,562.5210885000124,None,562.5210885000124,563.0329055000038,,,,,,,,,,,,,,,,114,2022-05-04_13h57.52.338,FishGame,2022.1.1,59.84941886168048,
,17,넌 행복해,1,Green,A,6.416666666666666,6.166666666666667,ScrollDown,ScrollUp,Green.png,4,Positive,Congruent,,,,,0,0,0,0,,,,,,,,,,,,,,,,,,,,,,,,,0,16,16,16,,,,,,,,,,,,,,,,,,,,,,,,,,,,,,,,,,,,,,,,,,,,,,,,,,,,,,,,,,,,,,,,,,,,,1,1.3536593999888282,563.6636302999977,None,ScrollDown,정답입니다,563.6636302999977,None,563.6636302999977,None,563.6636302999977,None,563.6636302999977,None,564.9140300999861,None,564.9140300999861,565.4161767000041,,,,,,,,,,,,,,,,114,2022-05-04_13h57.52.338,FishGame,2022.1.1,59.84941886168048,
,18,넌 겸손해,2,Orange,B,5.791666666666667,4.766666666666667,ScrollUp,ScrollDown,Orange.png,4,Positive,Incongruent,,,,,0,0,0,0,,,,,,,,,,,,,,,,,,,,,,,,,0,17,17,17,,,,,,,,,,,,,,,,,,,,,,,,,,,,,,,,,,,,,,,,,,,,,,,,,,,,,,,,,,,,,,,,,,,,,2,1.182302199973492,566.0541367999977,None,ScrollUp,정답입니다,566.0541367999977,None,566.0541367999977,None,566.0541367999977,None,566.0541367999977,None,567.1216263000097,None,567.1216263000097,567.6325724000053,,,,,,,,,,,,,,,,114,2022-05-04_13h57.52.338,FishGame,2022.1.1,59.84941886168048,
,19,나를 보내줘,6,Green,A,0,0,ScrollUp,ScrollDown,Green.png,4,NonTarget,NonTarget,,,,,0,0,0,0,,,,,,,,,,,,,,,,,,,,,,,,,0,18,18,18,,,,,,,,,,,,,,,,,,,,,,,,,,,,,,,,,,,,,,,,,,,,,,,,,,,,,,,,,,,,,,,,,,,,,1.9891975224018097,1.2400328000076115,568.259521,None,ScrollUp,정답입니다,568.259521,None,568.259521,None,568.259521,None,568.259521,None,569.3977627999848,None,569.3977627999848,569.8997485,,,,,,,,,,,,,,,,114,2022-05-04_13h57.52.338,FishGame,2022.1.1,59.84941886168048,
,20,넌 의심없어,3,Green,A,4.166666666666667,4.6,ScrollDown,ScrollUp,Green.png,4,Neutral,Neutral,,,,,0,0,0,0,,,,,,,,,,,,,,,,,,,,,,,,,0,19,19,19,,,,,,,,,,,,,,,,,,,,,,,,,,,,,,,,,,,,,,,,,,,,,,,,,,,,,,,,,,,,,,,,,,,,,1,1.343061099993065,570.5229292000004,None,ScrollDown,정답입니다,570.5229292000004,None,570.5229292000004,None,570.5229292000004,None,570.5229292000004,None,571.7659596999874,None,571.7659596999874,572.2664323000063,,,,,,,,,,,,,,,,114,2022-05-04_13h57.52.338,FishGame,2022.1.1,59.84941886168048,
,21,넌 시시해,4,Green,A,2.666666666666667,2.966666666666667,ScrollDown,ScrollUp,Green.png,4,Negative,Incongruent,,,,,0,0,0,0,,,,,,,,,,,,,,,,,,,,,,,,,0,20,20,20,,,,,,,,,,,,,,,,,,,,,,,,,,,,,,,,,,,,,,,,,,,,,,,,,,,,,,,,,,,,,,,,,,,,,1.0092592636744182,0.9853368999902159,572.8899514999939,None,ScrollDown,정답입니다,572.8899514999939,None,572.8899514999939,None,572.8899514999939,None,572.8899514999939,None,573.7809573000122,None,573.7809573000122,574.2825013000111,,,,,,,,,,,,,,,,114,2022-05-04_13h57.52.338,FishGame,2022.1.1,59.84941886168048,
,22,나를 데려가줘,6,Orange,B,0,0,ScrollDown,ScrollUp,Orange.png,4,NonTarget,NonTarget,,,,,0,0,0,0,,,,,,,,,,,,,,,,,,,,,,,,,0,21,21,21,,,,,,,,,,,,,,,,,,,,,,,,,,,,,,,,,,,,,,,,,,,,,,,,,,,,,,,,,,,,,,,,,,,,,1,1.6127556999854278,574.9151296000055,None,ScrollDown,정답입니다,574.9151296000055,None,574.9151296000055,None,574.9151296000055,None,574.9151296000055,None,576.4176252000034,None,576.4176252000034,576.9327861999918,,,,,,,,,,,,,,,,114,2022-05-04_13h57.52.338,FishGame,2022.1.1,59.84941886168048,
,23,넌 무정해,5,Green,A,2.5,2.2,ScrollDown,ScrollUp,Green.png,4,Negative,Incongruent,,,,,0,0,0,0,,,,,,,,,,,,,,,,,,,,,,,,,0,22,22,22,,,,,,,,,,,,,,,,,,,,,,,,,,,,,,,,,,,,,,,,,,,,,,,,,,,,,,,,,,,,,,,,,,,,,1.0246913532416027,1.3922939999902155,577.5641700999986,None,ScrollDown,정답입니다,577.5641700999986,None,577.5641700999986,None,577.5641700999986,None,577.5641700999986,None,578.8494385000085,None,578.8494385000085,579.3490670000028,,,,,,,,,,,,,,,,114,2022-05-04_13h57.52.338,FishGame,2022.1.1,59.84941886168048,
,24,넌 긍정적이야,1,Orange,B,6.041666666666667,6.066666666666666,ScrollUp,ScrollDown,Orange.png,4,Positive,Incongruent,,,,,0,0,0,0,,,,,,,,,,,,,,,,,,,,,,,,,0,23,23,23,,,,,,,,,,,,,,,,,,,,,,,,,,,,,,,,,,,,,,,,,,,,,,,,,,,,,,,,,,,,,,,,,,,,,1.9166666666666667,1.5791686000011396,579.9965364999953,None,ScrollUp,정답입니다,579.9965364999953,None,579.9965364999953,None,579.9965364999953,None,579.9965364999953,None,581.4515510000056,None,581.4515510000056,581.9666166999959,,,,,,,,,,,,,,,,114,2022-05-04_13h57.52.338,FishGame,2022.1.1,59.84941886168048,
,25,나를 보내줘,6,Green,A,0,0,ScrollUp,ScrollDown,Green.png,4,NonTarget,NonTarget,,,,,0,0,0,0,,,,,,,,,,,,,,,,,,,,,,,,,0,24,24,24,,,,,,,,,,,,,,,,,,,,,,,,,,,,,,,,,,,,,,,,,,,,,,,,,,,,,,,,,,,,,,,,,,,,,1.8888888905445735,1.4859226999979,582.5941232999903,None,ScrollUp,정답입니다,582.5941232999903,None,582.5941232999903,None,582.5941232999903,None,582.5941232999903,None,583.9812556999968,None,583.9812556999968,584.4832138000056,,,,,,,,,,,,,,,,114,2022-05-04_13h57.52.338,FishGame,2022.1.1,59.84941886168048,
,26,넌 시기심이 많아,5,Orange,B,2.458333333333333,2.233333333333333,ScrollUp,ScrollDown,Orange.png,4,Negative,Congruent,,,,,0,0,0,0,,,,,,,,,,,,,,,,,,,,,,,,,0,25,25,25,,,,,,,,,,,,,,,,,,,,,,,,,,,,,,,,,,,,,,,,,,,,,,,,,,,,,,,,,,,,,,,,,,,,,1,0.9890521999914199,585.1211660999979,None,ScrollDown,오답입니다,585.1211660999979,None,585.1211660999979,None,585.1211660999979,None,585.1211660999979,None,585.9933161000081,None,585.9933161000081,586.4997148000111,,,,,,,,,,,,,,,,114,2022-05-04_13h57.52.338,FishGame,2022.1.1,59.84941886168048,
,27,넌 탁월해,2,Green,A,5.708333333333334,4.5,ScrollDown,ScrollUp,Green.png,4,Positive,Congruent,,,,,0,0,0,0,,,,,,,,,,,,,,,,,,,,,,,,,0,26,26,26,,,,,,,,,,,,,,,,,,,,,,,,,,,,,,,,,,,,,,,,,,,,,,,,,,,,,,,,,,,,,,,,,,,,,1,1.212464500014903,587.1419760999852,None,ScrollDown,정답입니다,587.1419760999852,None,587.1419760999852,None,587.1419760999852,None,587.1419760999852,None,588.2335237000079,None,588.2335237000079,588.7327080999967,,,,,,,,,,,,,,,,114,2022-05-04_13h57.52.338,FishGame,2022.1.1,59.84941886168048,
,28,나를 데려가줘,6,Orange,B,0,0,ScrollDown,ScrollUp,Orange.png,4,NonTarget,NonTarget,,,,,0,0,0,0,,,,,,,,,,,,,,,,,,,,,,,,,0,27,27,27,,,,,,,,,,,,,,,,,,,,,,,,,,,,,,,,,,,,,,,,,,,,,,,,,,,,,,,,,,,,,,,,,,,,,1.1172839403152466,1.1015447000099812,589.3624463999877,None,ScrollDown,정답입니다,589.3624463999877,None,589.3624463999877,None,589.3624463999877,None,589.3624463999877,None,590.3550924999872,None,590.3550924999872,590.8667360999971,,,,,,,,,,,,,,,,114,2022-05-04_13h57.52.338,FishGame,2022.1.1,59.84941886168048,
,29,넌 조용해,3,Orange,B,4.333333333333333,4.166666666666667,ScrollUp,ScrollDown,Orange.png,4,Neutral,Neutral,,,,,0,0,0,0,,,,,,,,,,,,,,,,,,,,,,,,,0,28,28,28,,,,,,,,,,,,,,,,,,,,,,,,,,,,,,,,,,,,,,,,,,,,,,,,,,,,,,,,,,,,,,,,,,,,,1.9382716119289398,1.4679098000051454,591.5011973000073,None,ScrollUp,정답입니다,591.5011973000073,None,591.5011973000073,None,591.5011973000073,None,591.5011973000073,None,592.8551546999952,None,592.8551546999952,593.3667559000023,,,,,,,,,,,,,,,,114,2022-05-04_13h57.52.338,FishGame,2022.1.1,59.84941886168048,
,30,넌 다정해,1,Green,A,5.833333333333334,5.7,ScrollDown,ScrollUp,Green.png,4,Positive,Congruent,,,,,0,0,0,0,,,,,,,,,,,,,,,,,,,,,,,,,0,29,29,29,,,,,,,,,,,,,,,,,,,,,,,,,,,,,,,,,,,,,,,,,,,,,,,,,,,,,,,,,,,,,,,,,,,,,1.0092592636744182,0.9411464000004344,594.0008282999916,None,ScrollDown,정답입니다,594.0008282999916,None,594.0008282999916,None,594.0008282999916,None,594.0008282999916,None,594.8330044999893,None,594.8330044999893,595.3335932999908,,,,,,,,,,,,,,,,114,2022-05-04_13h57.52.338,FishGame,2022.1.1,59.84941886168048,
,31,넌 능력있어,2,Orange,B,6.166666666666666,4.6,ScrollUp,ScrollDown,Orange.png,4,Positive,Incongruent,,,,,0,0,0,0,,,,,,,,,,,,,,,,,,,,,,,,,0,30,30,30,,,,,,,,,,,,,,,,,,,,,,,,,,,,,,,,,,,,,,,,,,,,,,,,,,,,,,,,,,,,,,,,,,,,,1.9151234527428944,1.127142699988326,595.9645714999933,None,ScrollUp,정답입니다,595.9645714999933,None,595.9645714999933,None,595.9645714999933,None,595.9645714999933,None,596.9832117999904,None,596.9832117999904,597.4834408999886,,,,,,,,,,,,,,,,114,2022-05-04_13h57.52.338,FishGame,2022.1.1,59.84941886168048,
,32,넌 불쾌해,5,Green,A,2.125,1.933333333333333,ScrollDown,ScrollUp,Green.png,4,Negative,Incongruent,,,,,0,0,0,0,,,,,,,,,,,,,,,,,,,,,,,,,0,31,31,31,,,,,,,,,,,,,,,,,,,,,,,,,,,,,,,,,,,,,,,,,,,,,,,,,,,,,,,,,,,,,,,,,,,,,1,1.1240898999967612,598.1070285000023,None,ScrollDown,정답입니다,598.1070285000023,None,598.1070285000023,None,598.1070285000023,None,598.1070285000023,None,599.1333045999927,None,599.1333045999927,599.6337398999895,,,,,,,,,,,,,,,,114,2022-05-04_13h57.52.338,FishGame,2022.1.1,59.84941886168048,
,33,나를 데려가줘,6,Orange,B,0,0,ScrollDown,ScrollUp,Orange.png,4,NonTarget,NonTarget,,,,,0,0,0,0,,,,,,,,,,,,,,,,,,,,,,,,,0,32,32,32,,,,,,,,,,,,,,,,,,,,,,,,,,,,,,,,,,,,,,,,,,,,,,,,,,,,,,,,,,,,,,,,,,,,,1.1682098756233852,1.0930106000159867,600.2675245999999,None,ScrollDown,정답입니다,600.2675245999999,None,600.2675245999999,None,600.2675245999999,None,600.2675245999999,None,601.2497244999977,None,601.2497244999977,601.7496577000129,,,,,,,,,,,,,,,,114,2022-05-04_13h57.52.338,FishGame,2022.1.1,59.84941886168048,
,34,넌 유순해,3,Green,A,4.458333333333333,5,ScrollDown,ScrollUp,Green.png,4,Neutral,Neutral,,,,,0,0,0,0,,,,,,,,,,,,,,,,,,,,,,,,,0,33,33,33,,,,,,,,,,,,,,,,,,,,,,,,,,,,,,,,,,,,,,,,,,,,,,,,,,,,,,,,,,,,,,,,,,,,,1.0324074228604634,1.2035914000007324,602.3769212999905,None,ScrollDown,정답입니다,602.3769212999905,None,602.3769212999905,None,602.3769212999905,None,602.3769212999905,None,603.4816619000048,None,603.4816619000048,603.983158899995,,,,,,,,,,,,,,,,114,2022-05-04_13h57.52.338,FishGame,2022.1.1,59.84941886168048,
,35,넌 근심스러워,4,Orange,B,2.708333333333333,3.133333333333333,ScrollUp,ScrollDown,Orange.png,4,Negative,Congruent,,,,,0,0,0,0,,,,,,,,,,,,,,,,,,,,,,,,,0,34,34,34,,,,,,,,,,,,,,,,,,,,,,,,,,,,,,,,,,,,,,,,,,,,,,,,,,,,,,,,,,,,,,,,,,,,,1.9074074079593022,1.9840128000068944,604.6322754999856,None,ScrollUp,정답입니다,604.6322754999856,None,604.6322754999856,None,604.6322754999856,None,604.6322754999856,None,606.4878727000032,None,606.4878727000032,606.9999699000036,,,,,,,,,,,,,,,,114,2022-05-04_13h57.52.338,FishGame,2022.1.1,59.84941886168048,
,36,넌 세련되었어,2,Green,A,5.5,4.6,ScrollDown,ScrollUp,Green.png,4,Positive,Congruent,,,,,0,0,0,0,,,,,,,,,,,,,,,,,,,,,,,,,0,35,35,35,,,,,,,,,,,,,,,,,,,,,,,,,,,,,,,,,,,,,,,,,,,,,,,,,,,,,,,,,,,,,,,,,,,,,1,1.0754366000182927,607.6401626000006,None,ScrollDown,정답입니다,607.6401626000006,None,607.6401626000006,None,607.6401626000006,None,607.6401626000006,None,608.5999512999842,None,608.5999512999842,609.1003318000003,,,,,,,,,,,,,,,,114,2022-05-04_13h57.52.338,FishGame,2022.1.1,59.84941886168048,
,37,나를 보내줘,6,Green,A,0,0,ScrollUp,ScrollDown,Green.png,4,NonTarget,NonTarget,,,,,0,0,0,0,,,,,,,,,,,,,,,,,,,,,,,,,0,36,36,36,,,,,,,,,,,,,,,,,,,,,,,,,,,,,,,,,,,,,,,,,,,,,,,,,,,,,,,,,,,,,,,,,,,,,1.7453703681627908,1.6266872999840416,609.7251870000036,None,ScrollUp,정답입니다,609.7251870000036,None,609.7251870000036,None,609.7251870000036,None,609.7251870000036,None,611.2500118000025,None,611.2500118000025,611.7501214999938,,,,,,,,,,,,,,,,114,2022-05-04_13h57.52.338,FishGame,2022.1.1,59.84941886168048,
,38,넌 확고해,3,Orange,B,4.708333333333334,4.566666666666666,ScrollUp,ScrollDown,Orange.png,4,Neutral,Neutral,,,,,0,0,0,0,,,,,,,,,,,,,,,,,,,,,,,,,0,37,37,37,,,,,,,,,,,,,,,,,,,,,,,,,,,,,,,,,,,,,,,,,,,,,,,,,,,,,,,,,,,,,,,,,,,,,2,7.509986099990783,612.3860358000093,None,ScrollUp,정답입니다,612.3860358000093,None,612.3860358000093,None,612.3860358000093,None,612.3860358000093,None,619.7835531999881,None,619.7835531999881,620.2841601000109,,,,,,,,,,,,,,,,114,2022-05-04_13h57.52.338,FishGame,2022.1.1,59.84941886168048,
,39,넌 이해심이 많아,1,Orange,B,6.041666666666668,5.533333333333333,ScrollUp,ScrollDown,Orange.png,4,Positive,Incongruent,,,,,0,0,0,0,,,,,,,,,,,,,,,,,,,,,,,,,0,38,38,38,,,,,,,,,,,,,,,,,,,,,,,,,,,,,,,,,,,,,,,,,,,,,,,,,,,,,,,,,,,,,,,,,,,,,2,1.7120431000075769,620.9155872999982,None,ScrollUp,정답입니다,620.9155872999982,None,620.9155872999982,None,620.9155872999982,None,620.9155872999982,None,622.5168223000073,None,622.5168223000073,623.0172373999958,,,,,,,,,,,,,,,,114,2022-05-04_13h57.52.338,FishGame,2022.1.1,59.84941886168048,
,40,나를 보내줘,6,Green,A,0,0,ScrollUp,ScrollDown,Green.png,4,NonTarget,NonTarget,,,,,0,0,0,0,,,,,,,,,,,,,,,,,,,,,,,,,0,39,39,39,,,,,,,,,,,,,,,,,,,,,,,,,,,,,,,,,,,,,,,,,,,,,,,,,,,,,,,,,,,,,,,,,,,,,2,1.1340010999992955,623.6385629999859,None,ScrollUp,정답입니다,623.6385629999859,None,623.6385629999859,None,623.6385629999859,None,623.6385629999859,None,624.6727150999941,None,624.6727150999941,625.183889500011,,,,,,,,,,,,,,,,114,2022-05-04_13h57.52.338,FishGame,2022.1.1,59.84941886168048,
,41,넌 거칠어,4,Green,A,2.625,3.033333333333333,ScrollDown,ScrollUp,Green.png,4,Negative,Incongruent,,,,,0,0,0,0,,,,,,,,,,,,,,,,,,,,,,,,,0,40,40,40,,,,,,,,,,,,,,,,,,,,,,,,,,,,,,,,,,,,,,,,,,,,,,,,,,,,,,,,,,,,,,,,,,,,,1,1.2584271999949124,625.8132649000036,None,ScrollDown,정답입니다,625.8132649000036,None,625.8132649000036,None,625.8132649000036,None,625.8132649000036,None,626.9671059999964,None,626.9671059999964,627.4674674000125,,,,,,,,,,,,,,,,114,2022-05-04_13h57.52.338,FishGame,2022.1.1,59.84941886168048,
,42,넌 변덕맞아,5,Orange,B,2.75,2.166666666666667,ScrollUp,ScrollDown,Orange.png,4,Negative,Congruent,,,,,0,0,0,0,,,,,,,,,,,,,,,,,,,,,,,,,0,41,41,41,,,,,,,,,,,,,,,,,,,,,,,,,,,,,,,,,,,,,,,,,,,,,,,,,,,,,,,,,,,,,,,,,,,,,2,1.3801858999941032,628.1127579000022,None,ScrollUp,정답입니다,628.1127579000022,None,628.1127579000022,None,628.1127579000022,None,628.1127579000022,None,629.3698299000098,None,629.3698299000098,629.884186100011,,,,,,,,,,,,,,,,114,2022-05-04_13h57.52.338,FishGame,2022.1.1,59.84941886168048,
,43,나를 데려가줘,6,Orange,B,0,0,ScrollDown,ScrollUp,Orange.png,4,NonTarget,NonTarget,,,,,0,0,0,0,,,,,,,,,,,,,,,,,,,,,,,,,0,42,42,42,,,,,,,,,,,,,,,,,,,,,,,,,,,,,,,,,,,,,,,,,,,,,,,,,,,,,,,,,,,,,,,,,,,,,1.0740740497907002,1.2254703999788035,630.5125470999919,None,ScrollDown,정답입니다,630.5125470999919,None,630.5125470999919,None,630.5125470999919,None,630.5125470999919,None,631.6341436000075,None,631.6341436000075,632.1338034000073,,,,,,,,,,,,,,,,114,2022-05-04_13h57.52.338,FishGame,2022.1.1,59.84941886168048,
,44,넌 외로워,4,Orange,B,2.833333333333333,3.3,ScrollUp,ScrollDown,Orange.png,4,Negative,Congruent,,,,,0,0,0,0,,,,,,,,,,,,,,,,,,,,,,,,,0,43,43,43,,,,,,,,,,,,,,,,,,,,,,,,,,,,,,,,,,,,,,,,,,,,,,,,,,,,,,,,,,,,,,,,,,,,,2,1.6458789999887813,632.7715010000102,None,ScrollUp,정답입니다,632.7715010000102,None,632.7715010000102,None,632.7715010000102,None,632.7715010000102,None,634.3024860000005,None,634.3024860000005,634.8173212000111,,,,,,,,,,,,,,,,114,2022-05-04_13h57.52.338,FishGame,2022.1.1,59.84941886168048,
,1,넌 불평스러워,5,Green,A,2.25,2.066666666666667,ScrollDown,ScrollUp,Green.png,5,Negative,Incongruent,,,,,0,0,0,0,,,,,,,,,,,,,,,,,,,,,,,,,,,,,0,0,0,0,,,,,,,,,,,,,,,,,,,,,,,,695.8855772000097,697.3853496999945,697.4184993999952,698.368444599997,698.4188092999975,699.3685399999958,699.3685399999958,None,,,,,,,,,,,,,,,,,,,,,,,,,,,,,,,,,,1.3132715995113053,1.6236599999829195,700.5550775000011,None,ScrollDown,정답입니다,700.5550775000011,None,700.5550775000011,None,700.5550775000011,None,700.5550775000011,None,701.9898734999879,None,701.9898734999879,702.5019079000049,635.3174230000004,None,635.3174230000004,None,0.2638889,-0.13703704,1,0,0,0.016286700003547594,None,665.3184202999983,None,,,114,2022-05-04_13h57.52.338,FishGame,2022.1.1,59.84941886168048,
,2,나를 보내줘,6,Green,A,0,0,ScrollUp,ScrollDown,Green.png,5,NonTarget,NonTarget,,,,,0,0,0,0,,,,,,,,,,,,,,,,,,,,,,,,,,,,,0,1,1,1,,,,,,,,,,,,,,,,,,,,,,,,,,,,,,,,,,,,,,,,,,,,,,,,,,,,,,,,,,,,,,,,,1.4691358022391796,1.306147499999497,703.1332037000102,None,NoResponse,무응답입니다,703.1332037000102,None,703.1332037000102,None,703.1332037000102,None,703.1332037000102,None,704.3307387999957,None,704.3307387999957,704.8354504999879,,,,,,,,,,,,,,,,114,2022-05-04_13h57.52.338,FishGame,2022.1.1,59.84941886168048,
,3,넌 다재다능해,2,Orange,B,6.208333333333333,4.5,ScrollUp,ScrollDown,Orange.png,5,Positive,Incongruent,,,,,0,0,0,0,,,,,,,,,,,,,,,,,,,,,,,,,,,,,0,2,2,2,,,,,,,,,,,,,,,,,,,,,,,,,,,,,,,,,,,,,,,,,,,,,,,,,,,,,,,,,,,,,,,,,2,1.1883011999889277,705.4710517000058,None,ScrollUp,정답입니다,705.4710517000058,None,705.4710517000058,None,705.4710517000058,None,705.4710517000058,None,706.5460428000079,None,706.5460428000079,707.0524624999962,,,,,,,,,,,,,,,,114,2022-05-04_13h57.52.338,FishGame,2022.1.1,59.84941886168048,
,4,넌 과감해,3,Green,A,4.833333333333334,4.6,ScrollDown,ScrollUp,Green.png,5,Neutral,Neutral,,,,,0,0,0,0,,,,,,,,,,,,,,,,,,,,,,,,,,,,,0,3,3,3,,,,,,,,,,,,,,,,,,,,,,,,,,,,,,,,,,,,,,,,,,,,,,,,,,,,,,,,,,,,,,,,,1.0586419602235158,0.8789439999964088,707.6793279999983,None,ScrollDown,정답입니다,707.6793279999983,None,707.6793279999983,None,707.6793279999983,None,707.6793279999983,None,708.4557886999974,None,708.4557886999974,708.9691836999846,,,,,,,,,,,,,,,,114,2022-05-04_13h57.52.338,FishGame,2022.1.1,59.84941886168048,
,5,넌 고분고분해,3,Orange,B,3.75,4.033333333333333,ScrollUp,ScrollDown,Orange.png,5,Neutral,Neutral,,,,,0,0,0,0,,,,,,,,,,,,,,,,,,,,,,,,,,,,,0,4,4,4,,,,,,,,,,,,,,,,,,,,,,,,,,,,,,,,,,,,,,,,,,,,,,,,,,,,,,,,,,,,,,,,,1.9629629850387573,1.0749451000010595,709.6330917000014,None,ScrollUp,정답입니다,709.6330917000014,None,709.6330917000014,None,709.6330917000014,None,709.6330917000014,None,710.5692801999976,None,710.5692801999976,711.0693176999921,,,,,,,,,,,,,,,,114,2022-05-04_13h57.52.338,FishGame,2022.1.1,59.84941886168048,
,6,나를 보내줘,6,Green,A,0,0,ScrollUp,ScrollDown,Green.png,5,NonTarget,NonTarget,,,,,0,0,0,0,,,,,,,,,,,,,,,,,,,,,,,,,,,,,0,5,5,5,,,,,,,,,,,,,,,,,,,,,,,,,,,,,,,,,,,,,,,,,,,,,,,,,,,,,,,,,,,,,,,,,1.71913580596447,1.1736576000112109,711.7011377000017,None,ScrollUp,정답입니다,711.7011377000017,None,711.7011377000017,None,711.7011377000017,None,711.7011377000017,None,712.769289399992,None,712.769289399992,713.2691478999914,,,,,,,,,,,,,,,,114,2022-05-04_13h57.52.338,FishGame,2022.1.1,59.84941886168048,
,7,넌 잘 잊어,4,Green,A,3,3.7,ScrollDown,ScrollUp,Green.png,5,Negative,Incongruent,,,,,0,0,0,0,,,,,,,,,,,,,,,,,,,,,,,,,,,,,0,6,6,6,,,,,,,,,,,,,,,,,,,,,,,,,,,,,,,,,,,,,,,,,,,,,,,,,,,,,,,,,,,,,,,,,1.1388888855775197,1.1721350000007078,713.9020107999968,None,ScrollDown,정답입니다,713.9020107999968,None,713.9020107999968,None,713.9020107999968,None,713.9020107999968,None,714.967218500009,None,714.967218500009,715.4691577999911,,,,,,,,,,,,,,,,114,2022-05-04_13h57.52.338,FishGame,2022.1.1,59.84941886168048,
,8,넌 탐구심이없어,4,Orange,B,2.833333333333333,3.066666666666667,ScrollUp,ScrollDown,Orange.png,5,Negative,Congruent,,,,,0,0,0,0,,,,,,,,,,,,,,,,,,,,,,,,,,,,,0,7,7,7,,,,,,,,,,,,,,,,,,,,,,,,,,,,,,,,,,,,,,,,,,,,,,,,,,,,,,,,,,,,,,,,,2,1.2633143000130076,716.1098386000085,None,ScrollUp,정답입니다,716.1098386000085,None,716.1098386000085,None,716.1098386000085,None,716.1098386000085,None,717.254627199989,None,717.254627199989,717.7690210999863,,,,,,,,,,,,,,,,114,2022-05-04_13h57.52.338,FishGame,2022.1.1,59.84941886168048,
,9,나를 데려가줘,6,Orange,B,0,0,ScrollDown,ScrollUp,Orange.png,5,NonTarget,NonTarget,,,,,0,0,0,0,,,,,,,,,,,,,,,,,,,,,,,,,,,,,0,8,8,8,,,,,,,,,,,,,,,,,,,,,,,,,,,,,,,,,,,,,,,,,,,,,,,,,,,,,,,,,,,,,,,,,1,1.2294220000039786,718.4064348000102,None,ScrollDown,정답입니다,718.4064348000102,None,718.4064348000102,None,718.4064348000102,None,718.4064348000102,None,719.5192911000049,None,719.5192911000049,720.0197487999976,,,,,,,,,,,,,,,,114,2022-05-04_13h57.52.338,FishGame,2022.1.1,59.84941886168048,
,10,넌 참되어,2,Green,A,6.041666666666664,4.733333333333333,ScrollDown,ScrollUp,Green.png,5,Positive,Congruent,,,,,0,0,0,0,,,,,,,,,,,,,,,,,,,,,,,,,,,,,0,9,9,9,,,,,,,,,,,,,,,,,,,,,,,,,,,,,,,,,,,,,,,,,,,,,,,,,,,,,,,,,,,,,,,,,1.1373456716537476,1.0586250000051223,720.6596812999924,None,ScrollDown,정답입니다,720.6596812999924,None,720.6596812999924,None,720.6596812999924,None,720.6596812999924,None,721.6028093000059,None,721.6028093000059,722.1024056999886,,,,,,,,,,,,,,,,114,2022-05-04_13h57.52.338,FishGame,2022.1.1,59.84941886168048,
,11,넌 생기있어,1,Orange,B,5.875,5.633333333333334,ScrollUp,ScrollDown,Orange.png,5,Positive,Incongruent,,,,,0,0,0,0,,,,,,,,,,,,,,,,,,,,,,,,,,,,,0,10,10,10,,,,,,,,,,,,,,,,,,,,,,,,,,,,,,,,,,,,,,,,,,,,,,,,,,,,,,,,,,,,,,,,,1.4722222207734983,1.4155544999812264,722.7404704999935,None,NoResponse,무응답입니다,722.7404704999935,None,722.7404704999935,None,722.7404704999935,None,722.7404704999935,None,724.0416208000097,None,724.0416208000097,724.552360200003,,,,,,,,,,,,,,,,114,2022-05-04_13h57.52.338,FishGame,2022.1.1,59.84941886168048,
,12,넌 비사교적이야,4,Orange,B,2.875,2.9,ScrollUp,ScrollDown,Orange.png,5,Negative,Congruent,,,,,0,0,0,0,,,,,,,,,,,,,,,,,,,,,,,,,,,,,0,11,11,11,,,,,,,,,,,,,,,,,,,,,,,,,,,,,,,,,,,,,,,,,,,,,,,,,,,,,,,,,,,,,,,,,1.7793209999799728,0.9513396999973338,725.1810798000079,None,ScrollUp,정답입니다,725.1810798000079,None,725.1810798000079,None,725.1810798000079,None,725.1810798000079,None,726.0256680999883,None,726.0256680999883,726.5364136999997,,,,,,,,,,,,,,,,114,2022-05-04_13h57.52.338,FishGame,2022.1.1,59.84941886168048,
,13,나를 데려가줘,6,Orange,B,0,0,ScrollDown,ScrollUp,Orange.png,5,NonTarget,NonTarget,,,,,0,0,0,0,,,,,,,,,,,,,,,,,,,,,,,,,,,,,0,12,12,12,,,,,,,,,,,,,,,,,,,,,,,,,,,,,,,,,,,,,,,,,,,,,,,,,,,,,,,,,,,,,,,,,1.060185174147288,1.594719399989117,727.1654096999846,None,ScrollDown,정답입니다,727.1654096999846,None,727.1654096999846,None,727.1654096999846,None,727.1654096999846,None,728.6526350000058,None,728.6526350000058,729.1526393000095,,,,,,,,,,,,,,,,114,2022-05-04_13h57.52.338,FishGame,2022.1.1,59.84941886168048,
,14,넌 고독해,4,Green,A,2.916666666666667,3.233333333333333,ScrollDown,ScrollUp,Green.png,5,Negative,Incongruent,,,,,0,0,0,0,,,,,,,,,,,,,,,,,,,,,,,,,,,,,0,13,13,13,,,,,,,,,,,,,,,,,,,,,,,,,,,,,,,,,,,,,,,,,,,,,,,,,,,,,,,,,,,,,,,,,1.1327160547176998,1.190145600005053,729.7814047999855,None,ScrollDown,정답입니다,729.7814047999855,None,729.7814047999855,None,729.7814047999855,None,729.7814047999855,None,730.8693779000023,None,730.8693779000023,731.3698278999946,,,,,,,,,,,,,,,,114,2022-05-04_13h57.52.338,FishGame,2022.1.1,59.84941886168048,
,15,넌 신경질적이야,5,Orange,B,2.375,2.233333333333333,ScrollUp,ScrollDown,Orange.png,5,Negative,Congruent,,,,,0,0,0,0,,,,,,,,,,,,,,,,,,,,,,,,,,,,,0,14,14,14,,,,,,,,,,,,,,,,,,,,,,,,,,,,,,,,,,,,,,,,,,,,,,,,,,,,,,,,,,,,,,,,,2,1.2787495000229683,732.0051456000074,None,ScrollUp,정답입니다,732.0051456000074,None,732.0051456000074,None,732.0051456000074,None,732.0051456000074,None,733.169622699992,None,733.169622699992,733.6698460000043,,,,,,,,,,,,,,,,114,2022-05-04_13h57.52.338,FishGame,2022.1.1,59.84941886168048,
,16,넌 똑똑해,2,Orange,B,5.666666666666667,3.966666666666667,ScrollUp,ScrollDown,Orange.png,5,Positive,Incongruent,,,,,0,0,0,0,,,,,,,,,,,,,,,,,,,,,,,,,,,,,0,15,15,15,,,,,,,,,,,,,,,,,,,,,,,,,,,,,,,,,,,,,,,,,,,,,,,,,,,,,,,,,,,,,,,,,2,1.5348218000144698,734.3054026000027,None,ScrollUp,정답입니다,734.3054026000027,None,734.3054026000027,None,734.3054026000027,None,734.3054026000027,None,735.7246952000132,None,735.7246952000132,736.2365773000056,,,,,,,,,,,,,,,,114,2022-05-04_13h57.52.338,FishGame,2022.1.1,59.84941886168048,
,17,나를 보내줘,6,Green,A,0,0,ScrollUp,ScrollDown,Green.png,5,NonTarget,NonTarget,,,,,0,0,0,0,,,,,,,,,,,,,,,,,,,,,,,,,,,,,0,16,16,16,,,,,,,,,,,,,,,,,,,,,,,,,,,,,,,,,,,,,,,,,,,,,,,,,,,,,,,,,,,,,,,,,2,1.3897721999965142,736.8702065999969,None,ScrollUp,정답입니다,736.8702065999969,None,736.8702065999969,None,736.8702065999969,None,736.8702065999969,None,738.151257599995,None,738.151257599995,738.6530876999896,,,,,,,,,,,,,,,,114,2022-05-04_13h57.52.338,FishGame,2022.1.1,59.84941886168048,
,18,넌 협조적이야,1,Green,A,5.625,5.666666666666667,ScrollDown,ScrollUp,Green.png,5,Positive,Congruent,,,,,0,0,0,0,,,,,,,,,,,,,,,,,,,,,,,,,,,,,0,17,17,17,,,,,,,,,,,,,,,,,,,,,,,,,,,,,,,,,,,,,,,,,,,,,,,,,,,,,,,,,,,,,,,,,1,1.5895973999868147,739.2899340000004,None,ScrollDown,정답입니다,739.2899340000004,None,739.2899340000004,None,739.2899340000004,None,739.2899340000004,None,740.7696233000024,None,740.7696233000024,741.2698773999873,,,,,,,,,,,,,,,,114,2022-05-04_13h57.52.338,FishGame,2022.1.1,59.84941886168048,
,19,나를 데려가줘,6,Orange,B,0,0,ScrollDown,ScrollUp,Orange.png,5,NonTarget,NonTarget,,,,,0,0,0,0,,,,,,,,,,,,,,,,,,,,,,,,,,,,,0,18,18,18,,,,,,,,,,,,,,,,,,,,,,,,,,,,,,,,,,,,,,,,,,,,,,,,,,,,,,,,,,,,,,,,,1.0648148159186046,1.4015719999733847,741.9070503000112,None,ScrollDown,정답입니다,741.9070503000112,None,741.9070503000112,None,741.9070503000112,None,741.9070503000112,None,743.1923228999949,None,743.1923228999949,743.7029874,,,,,,,,,,,,,,,,114,2022-05-04_13h57.52.338,FishGame,2022.1.1,59.84941886168048,
,20,넌 몰인정해,5,Orange,B,2.541666666666667,2.066666666666667,ScrollUp,ScrollDown,Orange.png,5,Negative,Congruent,,,,,0,0,0,0,,,,,,,,,,,,,,,,,,,,,,,,,,,,,0,19,19,19,,,,,,,,,,,,,,,,,,,,,,,,,,,,,,,,,,,,,,,,,,,,,,,,,,,,,,,,,,,,,,,,,2,2.5189226000220515,744.3476847999846,None,ScrollUp,정답입니다,744.3476847999846,None,744.3476847999846,None,744.3476847999846,None,744.3476847999846,None,746.7515524000046,None,746.7515524000046,747.2533160999883,,,,,,,,,,,,,,,,114,2022-05-04_13h57.52.338,FishGame,2022.1.1,59.84941886168048,
,21,나를 데려가줘,6,Orange,B,0,0,ScrollDown,ScrollUp,Orange.png,5,NonTarget,NonTarget,,,,,0,0,0,0,,,,,,,,,,,,,,,,,,,,,,,,,,,,,0,20,20,20,,,,,,,,,,,,,,,,,,,,,,,,,,,,,,,,,,,,,,,,,,,,,,,,,,,,,,,,,,,,,,,,,1,1.2352595999836922,747.8859507000016,None,ScrollDown,정답입니다,747.8859507000016,None,747.8859507000016,None,747.8859507000016,None,747.8859507000016,None,749.0183102999872,None,749.0183102999872,749.5195983999874,,,,,,,,,,,,,,,,114,2022-05-04_13h57.52.338,FishGame,2022.1.1,59.84941886168048,
,22,넌 순진해,3,Orange,B,4.125,4.166666666666667,ScrollUp,ScrollDown,Orange.png,5,Neutral,Neutral,,,,,0,0,0,0,,,,,,,,,,,,,,,,,,,,,,,,,,,,,0,21,21,21,,,,,,,,,,,,,,,,,,,,,,,,,,,,,,,,,,,,,,,,,,,,,,,,,,,,,,,,,,,,,,,,,2,1.2725490999873728,750.1692939999921,None,ScrollUp,정답입니다,750.1692939999921,None,750.1692939999921,None,750.1692939999921,None,750.1692939999921,None,751.3182276999869,None,751.3182276999869,751.8203416999895,,,,,,,,,,,,,,,,114,2022-05-04_13h57.52.338,FishGame,2022.1.1,59.84941886168048,
,23,넌 신뢰할만해,1,Green,A,6.625,5.533333333333333,ScrollDown,ScrollUp,Green.png,5,Positive,Congruent,,,,,0,0,0,0,,,,,,,,,,,,,,,,,,,,,,,,,,,,,0,22,22,22,,,,,,,,,,,,,,,,,,,,,,,,,,,,,,,,,,,,,,,,,,,,,,,,,,,,,,,,,,,,,,,,,1,1.4632529999944381,752.4586960999877,None,ScrollDown,정답입니다,752.4586960999877,None,752.4586960999877,None,752.4586960999877,None,752.4586960999877,None,753.803330900002,None,753.803330900002,754.303430800006,,,,,,,,,,,,,,,,114,2022-05-04_13h57.52.338,FishGame,2022.1.1,59.84941886168048,
,24,나를 보내줘,6,Green,A,0,0,ScrollUp,ScrollDown,Green.png,5,NonTarget,NonTarget,,,,,0,0,0,0,,,,,,,,,,,,,,,,,,,,,,,,,,,,,0,23,23,23,,,,,,,,,,,,,,,,,,,,,,,,,,,,,,,,,,,,,,,,,,,,,,,,,,,,,,,,,,,,,,,,,2,1.690580599999521,754.9359615999856,None,ScrollUp,정답입니다,754.9359615999856,None,754.9359615999856,None,754.9359615999856,None,754.9359615999856,None,756.5201793999877,None,756.5201793999877,757.0198935999942,,,,,,,,,,,,,,,,114,2022-05-04_13h57.52.338,FishGame,2022.1.1,59.84941886168048,
