name,TrialNum,Word,WordCategory,FishType,WordList,WordValence,WordReputation,CorrectResp,IncorrectResp,FishTypeFile,Round,WordType,Condition,LoopforOrange.thisRepN,LoopforOrange.thisTrialN,LoopforOrange.thisN,LoopforOrange.thisIndex,OrangeInstLoop.thisRepN,OrangeInstLoop.thisTrialN,OrangeInstLoop.thisN,OrangeInstLoop.thisIndex,OrangePrac.thisRepN,OrangePrac.thisTrialN,OrangePrac.thisN,OrangePrac.thisIndex,temp1.thisRepN,temp1.thisTrialN,temp1.thisN,temp1.thisIndex,OrangeRound1.thisRepN,OrangeRound1.thisTrialN,OrangeRound1.thisN,OrangeRound1.thisIndex,OrangeRound2.thisRepN,OrangeRound2.thisTrialN,OrangeRound2.thisN,OrangeRound2.thisIndex,OrangeRound3.thisRepN,OrangeRound3.thisTrialN,OrangeRound3.thisN,OrangeRound3.thisIndex,OrangeRound4.thisRepN,OrangeRound4.thisTrialN,OrangeRound4.thisN,OrangeRound4.thisIndex,OrangeRound5.thisRepN,OrangeRound5.thisTrialN,OrangeRound5.thisN,OrangeRound5.thisIndex,LoopForGreen.thisRepN,LoopForGreen.thisTrialN,LoopForGreen.thisN,LoopForGreen.thisIndex,text_2.started,text_2.stopped,text_3.started,text_3.stopped,key_resp.keys,key_resp.rt,key_resp.started,key_resp.stopped,PassI_2.started,PassI_2.stopped,PassInst_2.keys,PassInst_2.rt,PassInst_2.started,PassInst_2.stopped,mouse_2.x,mouse_2.y,mouse_2.leftButton,mouse_2.midButton,mouse_2.rightButton,mouse_2.started,mouse_2.stopped,image.started,image.stopped,text_5.started,text_5.stopped,text_6.started,text_6.stopped,text_7.started,text_7.stopped,text_8.started,text_8.stopped,slider_2.response,slider_2.rt,slider_2.started,slider_2.stopped,Response_2,Feedback_2,BackGround_2.started,BackGround_2.stopped,Fish_2.started,Fish_2.stopped,WordBox_2.started,WordBox_2.stopped,Words_2.started,Words_2.stopped,BackGround_Feedback_2.started,BackGround_Feedback_2.stopped,Feedbacks_2.started,Feedbacks_2.stopped,Continue_or_not.keys,Continue_or_not.rt,Continue_or_not.started,Continue_or_not.stopped,image_3.started,image_3.stopped,mouse_3.x,mouse_3.y,mouse_3.leftButton,mouse_3.midButton,mouse_3.rightButton,mouse_3.started,mouse_3.stopped,startmain.started,startmain.stopped,slider.response,slider.rt,slider.started,slider.stopped,Response,Feedback,BackGround.started,BackGround.stopped,Fish.started,Fish.stopped,WordBox.started,WordBox.stopped,Words.started,Words.stopped,BackGround_Feedback.started,BackGround_Feedback.stopped,Feedbacks.started,Feedbacks.stopped,text.started,text.stopped,break_interval.started,break_interval.stopped,mouse.x,mouse.y,mouse.leftButton,mouse.midButton,mouse.rightButton,mouse.started,mouse.stopped,stratnextround.started,stratnextround.stopped,endgame.started,endgame.stopped,participant,date,expName,psychopyVersion,frameRate,
,,,,,,,,,,,,,,,,,,,,,,,,,,,,,,,,,,,,,,,,,,,,,,,,,,,,,,21.38064319998375,None,21.38064319998375,None,space,1.4222015999839641,21.834527200000593,None,,,,,,,,,,,,,,,,,,,,,,,,,,,,,,,,,,,,,,,,,,,,,,,,,,,,,,,,,,,,,,,,,,,,,,,,,,,,,,,,,,,,,,,,,,115,2022-05-05_09h21.13.743,FishGame,2022.1.1,59.88224754759778,
물고기과제_instruction(참가자용)OrangeVersion.mp4,,,,,,,,,,,,,,0,0,0,0,0,0,0,0,,,,,,,,,,,,,,,,,,,,,,,,,,,,,,,,,,,,,,,,,89.57834730000468,None,n,12.627591900003608,89.57834730000468,None,,,,,,,,,,,,,,,,,,,,,,,,,,,,,,,,,,,,,,,,,,,,,,,,,,,,,,,,,,,,,,,,,,,,,,,,,,,,,,,,,,,,115,2022-05-05_09h21.13.743,FishGame,2022.1.1,59.88224754759778,
,1,넌 교활해,5,Green,B,2.333333333333333,2.133333333333333,ScrollUp,ScrollDown,Green.png,practice,,,0,0,0,0,,,,,0,0,0,0,0,0,0,0,,,,,,,,,,,,,,,,,,,,,,,,,,,,,,,,,,,,,,,0.08611111,-0.22870371,1,0,0,0.5140100499847904,None,102.23561840000912,None,105.31937089998974,106.81905799999367,106.85257479999564,107.8031631000049,107.85365350000211,108.80323230000795,108.80323230000795,None,1.4830246918524306,1.3262651000113692,109.9802165000001,None,NoResponse,무응답입니다,109.9802165000001,None,109.9802165000001,None,109.9802165000001,None,109.9802165000001,None,111.13193919998594,None,111.13193919998594,111.63593359998777,,,,,,,,,,,,,,,,,,,,,,,,,,,,,,,,,,,,,,,,,,,,,,,,,115,2022-05-05_09h21.13.743,FishGame,2022.1.1,59.88224754759778,
,2,넌 슬기로워,2,Orange,A,6.166666666666667,4.1,ScrollDown,ScrollUp,Orange.png,practice,,,0,0,0,0,,,,,0,0,0,0,0,1,1,1,,,,,,,,,,,,,,,,,,,,,,,,,,,,,,,,,,,,,,,,,,,,,,,,,,,,,,,,1,1.2894021999964025,112.26842720000423,None,ScrollDown,정답입니다,112.26842720000423,None,112.26842720000423,None,112.26842720000423,None,112.26842720000423,None,113.42989249998936,None,113.42989249998936,113.9361668000056,,,,,,,,,,,,,,,,,,,,,,,,,,,,,,,,,,,,,,,,,,,,,,,,,115,2022-05-05_09h21.13.743,FishGame,2022.1.1,59.88224754759778,
,3,나를 보내줘,6,Orange,A,0,0,ScrollUp,ScrollDown,Orange.png,practice,,,0,0,0,0,,,,,0,0,0,0,0,2,2,2,,,,,,,,,,,,,,,,,,,,,,,,,,,,,,,,,,,,,,,,,,,,,,,,,,,,,,,,2,1.5627104999730363,114.57479919999605,None,ScrollUp,정답입니다,114.57479919999605,None,114.57479919999605,None,114.57479919999605,None,114.57479919999605,None,116.02126429998316,None,116.02126429998316,116.5360604999878,,,,,,,,,,,,,,,,,,,,,,,,,,,,,,,,,,,,,,,,,,,,,,,,,115,2022-05-05_09h21.13.743,FishGame,2022.1.1,59.88224754759778,
,4,나를 데려가줘,6,Green,B,0,0,ScrollDown,ScrollUp,Green.png,practice,,,0,0,0,0,,,,,0,0,0,0,0,3,3,3,,,,,,,,,,,,,,,,,,,,,,,,,,,,,,,,,,,,,,,,,,,,,,,,,,,,,,,,1,1.4722366999776568,117.1683143999835,None,ScrollDown,정답입니다,117.1683143999835,None,117.1683143999835,None,117.1683143999835,None,117.1683143999835,None,118.53466089998255,None,118.53466089998255,119.03625390000525,,,,,,,,,,,,,,,,,,,,,,,,,,,,,,,,,,,,,,,,,,,,,,,,,115,2022-05-05_09h21.13.743,FishGame,2022.1.1,59.88224754759778,
,1,넌 교활해,5,Green,B,2.333333333333333,2.133333333333333,ScrollUp,ScrollDown,Green.png,practice,,,0,0,0,0,,,,,0,0,0,0,,,,,,,,,,,,,,,,,,,,,,,,,,,,,,,,,,,,,,,,,,,,,,,,,,,,,,,,,,,,,,,,,,,,,,,,,,,,,,y,4.2629580999782775,119.53639829999884,None,119.53639829999884,None,,,,,,,,,,,,,,,,,,,,,,,,,,,,,,,,,,,,,,,,,,,115,2022-05-05_09h21.13.743,FishGame,2022.1.1,59.88224754759778,
,1,넌 교활해,5,Green,B,2.333333333333333,2.133333333333333,ScrollUp,ScrollDown,Green.png,practice,,,0,0,0,0,,,,,0,1,1,1,0,0,0,0,,,,,,,,,,,,,,,,,,,,,,,,,,,,,,,,,,,,,,,,,,,,,,,,,,,,,,,,2,1.4766069000179414,123.96801509999204,None,ScrollUp,정답입니다,123.96801509999204,None,123.96801509999204,None,123.96801509999204,None,123.96801509999204,None,125.32416059999377,None,125.32416059999377,125.8362256999826,,,,,,,,,,,,,,,,,,,,,,,,,,,,,,,,,,,,,,,,,,,,,,,,,115,2022-05-05_09h21.13.743,FishGame,2022.1.1,59.88224754759778,
,2,넌 슬기로워,2,Orange,A,6.166666666666667,4.1,ScrollDown,ScrollUp,Orange.png,practice,,,0,0,0,0,,,,,0,1,1,1,0,1,1,1,,,,,,,,,,,,,,,,,,,,,,,,,,,,,,,,,,,,,,,,,,,,,,,,,,,,,,,,1,1.3855938999913633,126.46983039999031,None,ScrollDown,정답입니다,126.46983039999031,None,126.46983039999031,None,126.46983039999031,None,126.46983039999031,None,127.74160879998817,None,127.74160879998817,128.25328929998796,,,,,,,,,,,,,,,,,,,,,,,,,,,,,,,,,,,,,,,,,,,,,,,,,115,2022-05-05_09h21.13.743,FishGame,2022.1.1,59.88224754759778,
,3,나를 보내줘,6,Orange,A,0,0,ScrollUp,ScrollDown,Orange.png,practice,,,0,0,0,0,,,,,0,1,1,1,0,2,2,2,,,,,,,,,,,,,,,,,,,,,,,,,,,,,,,,,,,,,,,,,,,,,,,,,,,,,,,,2,1.4331492999917828,128.88582659998792,None,ScrollUp,정답입니다,128.88582659998792,None,128.88582659998792,None,128.88582659998792,None,128.88582659998792,None,130.2080733999901,None,130.2080733999901,130.7195980999968,,,,,,,,,,,,,,,,,,,,,,,,,,,,,,,,,,,,,,,,,,,,,,,,,115,2022-05-05_09h21.13.743,FishGame,2022.1.1,59.88224754759778,
,4,나를 데려가줘,6,Green,B,0,0,ScrollDown,ScrollUp,Green.png,practice,,,0,0,0,0,,,,,0,1,1,1,0,3,3,3,,,,,,,,,,,,,,,,,,,,,,,,,,,,,,,,,,,,,,,,,,,,,,,,,,,,,,,,1,1.2464385000057518,131.3497245000035,None,ScrollDown,정답입니다,131.3497245000035,None,131.3497245000035,None,131.3497245000035,None,131.3497245000035,None,132.4890463000047,None,132.4890463000047,133.0035913999891,,,,,,,,,,,,,,,,,,,,,,,,,,,,,,,,,,,,,,,,,,,,,,,,,115,2022-05-05_09h21.13.743,FishGame,2022.1.1,59.88224754759778,
,2,넌 슬기로워,2,Orange,A,6.166666666666667,4.1,ScrollDown,ScrollUp,Orange.png,practice,,,0,0,0,0,,,,,0,1,1,1,,,,,,,,,,,,,,,,,,,,,,,,,,,,,,,,,,,,,,,,,,,,,,,,,,,,,,,,,,,,,,,,,,,,,,,,,,,,,,n,5.732068799989065,133.50336699999752,None,133.50336699999752,None,,,,,,,,,,,,,,,,,,,,,,,,,,,,,,,,,,,,,,,,,,,115,2022-05-05_09h21.13.743,FishGame,2022.1.1,59.88224754759778,
,1,넌 따뜻해,1,Green,B,6.083333333333333,5.6,ScrollUp,ScrollDown,Green.png,1,Positive,Incongruent,0,0,0,0,,,,,,,,,,,,,0,0,0,0,,,,,,,,,,,,,,,,,,,,,,,,,,,,,,,,,,,,,,,,,,,,159.60471439998946,161.1044072000077,161.13758999999845,162.08749030000763,162.13727609999478,163.08711409999523,163.08711409999523,None,,,,,,,,,,,,,,,,,,,,,,,,,-0.08425926,-0.11388889,1,0,0,0.31421885002055205,None,139.25352189998375,None,2,1.5914359999878798,164.2646402999817,None,ScrollUp,정답입니다,164.2646402999817,None,164.2646402999817,None,164.2646402999817,None,164.2646402999817,None,165.6759910999972,None,165.6759910999972,166.18728690000717,,,,,,,,,,,,,,,,115,2022-05-05_09h21.13.743,FishGame,2022.1.1,59.88224754759778,
,2,넌 기품있어,2,Green,B,5.791666666666668,4.5,ScrollUp,ScrollDown,Green.png,1,Positive,Incongruent,0,0,0,0,,,,,,,,,,,,,0,1,1,1,,,,,,,,,,,,,,,,,,,,,,,,,,,,,,,,,,,,,,,,,,,,,,,,,,,,,,,,,,,,,,,,,,,,,,,,,,,,,,,,,,,,,2,1.6538180000206921,166.83610680000857,None,ScrollUp,정답입니다,166.83610680000857,None,166.83610680000857,None,166.83610680000857,None,166.83610680000857,None,168.36893219998456,None,168.36893219998456,168.87067740000202,,,,,,,,,,,,,,,,115,2022-05-05_09h21.13.743,FishGame,2022.1.1,59.88224754759778,
,3,나를 보내줘,6,Orange,A,0,0,ScrollUp,ScrollDown,Orange.png,1,NonTarget,NonTarget,0,0,0,0,,,,,,,,,,,,,0,2,2,2,,,,,,,,,,,,,,,,,,,,,,,,,,,,,,,,,,,,,,,,,,,,,,,,,,,,,,,,,,,,,,,,,,,,,,,,,,,,,,,,,,,,,2,1.3612450999789871,169.5211369000026,None,ScrollUp,정답입니다,169.5211369000026,None,169.5211369000026,None,169.5211369000026,None,169.5211369000026,None,170.7542167000065,None,170.7542167000065,171.25423630001023,,,,,,,,,,,,,,,,115,2022-05-05_09h21.13.743,FishGame,2022.1.1,59.88224754759778,
,4,넌 수동적이야,4,Orange,A,2.833333333333333,2.933333333333333,ScrollDown,ScrollUp,Orange.png,1,Negative,Incongruent,0,0,0,0,,,,,,,,,,,,,0,3,3,3,,,,,,,,,,,,,,,,,,,,,,,,,,,,,,,,,,,,,,,,,,,,,,,,,,,,,,,,,,,,,,,,,,,,,,,,,,,,,,,,,,,,,1,1.6332762999809347,171.9062269999995,None,ScrollDown,정답입니다,171.9062269999995,None,171.9062269999995,None,171.9062269999995,None,171.9062269999995,None,173.40860419999808,None,173.40860419999808,173.92096099999617,,,,,,,,,,,,,,,,115,2022-05-05_09h21.13.743,FishGame,2022.1.1,59.88224754759778,
,5,넌 사심이 없어,3,Green,B,4.916666666666666,4.333333333333333,ScrollUp,ScrollDown,Green.png,1,Neutral,Neutral,0,0,0,0,,,,,,,,,,,,,0,4,4,4,,,,,,,,,,,,,,,,,,,,,,,,,,,,,,,,,,,,,,,,,,,,,,,,,,,,,,,,,,,,,,,,,,,,,,,,,,,,,,,,,,,,,2,1.554760200000601,174.5618919999979,None,ScrollUp,정답입니다,174.5618919999979,None,174.5618919999979,None,174.5618919999979,None,174.5618919999979,None,176.00218219999806,None,176.00218219999806,176.5043078000017,,,,,,,,,,,,,,,,115,2022-05-05_09h21.13.743,FishGame,2022.1.1,59.88224754759778,
,6,넌 헤퍼,5,Orange,A,2.458333333333334,2.233333333333333,ScrollDown,ScrollUp,Orange.png,1,Negative,Incongruent,0,0,0,0,,,,,,,,,,,,,0,5,5,5,,,,,,,,,,,,,,,,,,,,,,,,,,,,,,,,,,,,,,,,,,,,,,,,,,,,,,,,,,,,,,,,,,,,,,,,,,,,,,,,,,,,,1,1.4848586000152864,177.1598946999875,None,ScrollDown,정답입니다,177.1598946999875,None,177.1598946999875,None,177.1598946999875,None,177.1598946999875,None,178.50878319999902,None,178.50878319999902,179.02102290000767,,,,,,,,,,,,,,,,115,2022-05-05_09h21.13.743,FishGame,2022.1.1,59.88224754759778,
,7,넌 말쑥해,3,Orange,A,4.833333333333334,4.333333333333333,ScrollDown,ScrollUp,Orange.png,1,Neutral,Neutral,0,0,0,0,,,,,,,,,,,,,0,6,6,6,,,,,,,,,,,,,,,,,,,,,,,,,,,,,,,,,,,,,,,,,,,,,,,,,,,,,,,,,,,,,,,,,,,,,,,,,,,,,,,,,,,,,1,1.379232499981299,179.65830449998612,None,ScrollDown,정답입니다,179.65830449998612,None,179.65830449998612,None,179.65830449998612,None,179.65830449998612,None,180.9210087999818,None,180.9210087999818,181.42076949999318,,,,,,,,,,,,,,,,115,2022-05-05_09h21.13.743,FishGame,2022.1.1,59.88224754759778,
,8,넌 투덜거려,5,Green,B,2.541666666666667,2.266666666666667,ScrollUp,ScrollDown,Green.png,1,Negative,Congruent,0,0,0,0,,,,,,,,,,,,,0,7,7,7,,,,,,,,,,,,,,,,,,,,,,,,,,,,,,,,,,,,,,,,,,,,,,,,,,,,,,,,,,,,,,,,,,,,,,,,,,,,,,,,,,,,,2,1.3612691999878734,182.06200129998615,None,ScrollUp,정답입니다,182.06200129998615,None,182.06200129998615,None,182.06200129998615,None,182.06200129998615,None,183.30434850000893,None,183.30434850000893,183.80484649998834,,,,,,,,,,,,,,,,115,2022-05-05_09h21.13.743,FishGame,2022.1.1,59.88224754759778,
,9,넌 적극적이야,1,Orange,A,5.708333333333333,5.533333333333333,ScrollDown,ScrollUp,Orange.png,1,Positive,Congruent,0,0,0,0,,,,,,,,,,,,,0,8,8,8,,,,,,,,,,,,,,,,,,,,,,,,,,,,,,,,,,,,,,,,,,,,,,,,,,,,,,,,,,,,,,,,,,,,,,,,,,,,,,,,,,,,,1,1.352082600002177,184.44299619999947,None,ScrollDown,정답입니다,184.44299619999947,None,184.44299619999947,None,184.44299619999947,None,184.44299619999947,None,185.67639579999377,None,185.67639579999377,186.18741449998925,,,,,,,,,,,,,,,,115,2022-05-05_09h21.13.743,FishGame,2022.1.1,59.88224754759778,
,10,넌 재미없어,4,Green,B,2.625,2.966666666666667,ScrollUp,ScrollDown,Green.png,1,Negative,Congruent,0,0,0,0,,,,,,,,,,,,,0,9,9,9,,,,,,,,,,,,,,,,,,,,,,,,,,,,,,,,,,,,,,,,,,,,,,,,,,,,,,,,,,,,,,,,,,,,,,,,,,,,,,,,,,,,,2,1.4397966999968048,186.82371430000057,None,ScrollUp,정답입니다,186.82371430000057,None,186.82371430000057,None,186.82371430000057,None,186.82371430000057,None,188.1524161999987,None,188.1524161999987,188.65455099998508,,,,,,,,,,,,,,,,115,2022-05-05_09h21.13.743,FishGame,2022.1.1,59.88224754759778,
,11,넌 명석해,2,Orange,A,5.875,4.033333333333333,ScrollDown,ScrollUp,Orange.png,1,Positive,Congruent,0,0,0,0,,,,,,,,,,,,,0,10,10,10,,,,,,,,,,,,,,,,,,,,,,,,,,,,,,,,,,,,,,,,,,,,,,,,,,,,,,,,,,,,,,,,,,,,,,,,,,,,,,,,,,,,,1,1.3027253999898676,189.29637629998615,None,ScrollDown,정답입니다,189.29637629998615,None,189.29637629998615,None,189.29637629998615,None,189.29637629998615,None,190.4858430000022,None,190.4858430000022,190.98810099999537,,,,,,,,,,,,,,,,115,2022-05-05_09h21.13.743,FishGame,2022.1.1,59.88224754759778,
,12,나를 데려가줘,6,Green,B,0,0,ScrollDown,ScrollUp,Green.png,1,NonTarget,NonTarget,0,0,0,0,,,,,,,,,,,,,0,11,11,11,,,,,,,,,,,,,,,,,,,,,,,,,,,,,,,,,,,,,,,,,,,,,,,,,,,,,,,,,,,,,,,,,,,,,,,,,,,,,,,,,,,,,1,1.3697430999891367,191.62649500000407,None,ScrollDown,정답입니다,191.62649500000407,None,191.62649500000407,None,191.62649500000407,None,191.62649500000407,None,192.87540550000267,None,192.87540550000267,193.38805730000604,,,,,,,,,,,,,,,,115,2022-05-05_09h21.13.743,FishGame,2022.1.1,59.88224754759778,
,13,넌 소심해,4,Orange,A,3,3.1,ScrollDown,ScrollUp,Orange.png,1,Negative,Incongruent,0,0,0,0,,,,,,,,,,,,,0,12,12,12,,,,,,,,,,,,,,,,,,,,,,,,,,,,,,,,,,,,,,,,,,,,,,,,,,,,,,,,,,,,,,,,,,,,,,,,,,,,,,,,,,,,,1,1.300287699996261,194.02978129999246,None,ScrollDown,정답입니다,194.02978129999246,None,194.02978129999246,None,194.02978129999246,None,194.02978129999246,None,195.21009720000438,None,195.21009720000438,195.7214282999921,,,,,,,,,,,,,,,,115,2022-05-05_09h21.13.743,FishGame,2022.1.1,59.88224754759778,
,14,넌 합리적이야,2,Orange,A,5.583333333333333,4.733333333333333,ScrollDown,ScrollUp,Orange.png,1,Positive,Congruent,0,0,0,0,,,,,,,,,,,,,0,13,13,13,,,,,,,,,,,,,,,,,,,,,,,,,,,,,,,,,,,,,,,,,,,,,,,,,,,,,,,,,,,,,,,,,,,,,,,,,,,,,,,,,,,,,1,1.1856134999834467,196.36476820000098,None,ScrollDown,정답입니다,196.36476820000098,None,196.36476820000098,None,196.36476820000098,None,196.36476820000098,None,197.43623180000577,None,197.43623180000577,197.93797249998897,,,,,,,,,,,,,,,,115,2022-05-05_09h21.13.743,FishGame,2022.1.1,59.88224754759778,
,15,넌 무자비해,5,Green,B,2.333333333333333,2.1,ScrollUp,ScrollDown,Green.png,1,Negative,Congruent,0,0,0,0,,,,,,,,,,,,,0,14,14,14,,,,,,,,,,,,,,,,,,,,,,,,,,,,,,,,,,,,,,,,,,,,,,,,,,,,,,,,,,,,,,,,,,,,,,,,,,,,,,,,,,,,,2,1.3228450999886263,198.5761089999869,None,ScrollUp,정답입니다,198.5761089999869,None,198.5761089999869,None,198.5761089999869,None,198.5761089999869,None,199.78599649999524,None,199.78599649999524,200.28795299999183,,,,,,,,,,,,,,,,115,2022-05-05_09h21.13.743,FishGame,2022.1.1,59.88224754759778,
,16,나를 보내줘,6,Orange,A,0,0,ScrollUp,ScrollDown,Orange.png,1,NonTarget,NonTarget,0,0,0,0,,,,,,,,,,,,,0,15,15,15,,,,,,,,,,,,,,,,,,,,,,,,,,,,,,,,,,,,,,,,,,,,,,,,,,,,,,,,,,,,,,,,,,,,,,,,,,,,,,,,,,,,,2,1.335387900006026,200.9202289999812,None,ScrollUp,정답입니다,200.9202289999812,None,200.9202289999812,None,200.9202289999812,None,200.9202289999812,None,202.14281630000914,None,202.14281630000914,202.65479739999864,,,,,,,,,,,,,,,,115,2022-05-05_09h21.13.743,FishGame,2022.1.1,59.88224754759778,
,17,넌 현실적이야,3,Green,B,4.608695652173913,4.766666666666667,ScrollUp,ScrollDown,Green.png,1,Neutral,Neutral,0,0,0,0,,,,,,,,,,,,,0,16,16,16,,,,,,,,,,,,,,,,,,,,,,,,,,,,,,,,,,,,,,,,,,,,,,,,,,,,,,,,,,,,,,,,,,,,,,,,,,,,,,,,,,,,,2,1.5250136999820825,203.29676500000642,None,ScrollUp,정답입니다,203.29676500000642,None,203.29676500000642,None,203.29676500000642,None,203.29676500000642,None,204.7044928999967,None,204.7044928999967,205.2048542999837,,,,,,,,,,,,,,,,115,2022-05-05_09h21.13.743,FishGame,2022.1.1,59.88224754759778,
,18,넌 의리있어,1,Green,B,5.833333333333334,5.633333333333334,ScrollUp,ScrollDown,Green.png,1,Positive,Incongruent,0,0,0,0,,,,,,,,,,,,,0,17,17,17,,,,,,,,,,,,,,,,,,,,,,,,,,,,,,,,,,,,,,,,,,,,,,,,,,,,,,,,,,,,,,,,,,,,,,,,,,,,,,,,,,,,,2,1.395278399984818,205.8406630999816,None,ScrollUp,정답입니다,205.8406630999816,None,205.8406630999816,None,205.8406630999816,None,205.8406630999816,None,207.12096369999927,None,207.12096369999927,207.6216427999898,,,,,,,,,,,,,,,,115,2022-05-05_09h21.13.743,FishGame,2022.1.1,59.88224754759778,
,19,넌 신경과민이야,5,Orange,A,2.541666666666667,2.166666666666667,ScrollDown,ScrollUp,Orange.png,1,Negative,Incongruent,0,0,0,0,,,,,,,,,,,,,0,18,18,18,,,,,,,,,,,,,,,,,,,,,,,,,,,,,,,,,,,,,,,,,,,,,,,,,,,,,,,,,,,,,,,,,,,,,,,,,,,,,,,,,,,,,1,1.3268704000220168,208.2702549000096,None,ScrollDown,정답입니다,208.2702549000096,None,208.2702549000096,None,208.2702549000096,None,208.2702549000096,None,209.47123319999082,None,209.47123319999082,209.97190740000224,,,,,,,,,,,,,,,,115,2022-05-05_09h21.13.743,FishGame,2022.1.1,59.88224754759778,
,20,넌 편안해,1,Orange,A,5.916666666666666,5.866666666666666,ScrollDown,ScrollUp,Orange.png,1,Positive,Congruent,0,0,0,0,,,,,,,,,,,,,0,19,19,19,,,,,,,,,,,,,,,,,,,,,,,,,,,,,,,,,,,,,,,,,,,,,,,,,,,,,,,,,,,,,,,,,,,,,,,,,,,,,,,,,,,,,1,1.2955600999994203,210.61112339998363,None,ScrollDown,정답입니다,210.61112339998363,None,210.61112339998363,None,210.61112339998363,None,210.61112339998363,None,211.78782769999816,None,211.78782769999816,212.28850229998352,,,,,,,,,,,,,,,,115,2022-05-05_09h21.13.743,FishGame,2022.1.1,59.88224754759778,
,21,넌 품위있어,2,Green,B,5.291666666666666,4.466666666666667,ScrollUp,ScrollDown,Green.png,1,Positive,Incongruent,0,0,0,0,,,,,,,,,,,,,0,20,20,20,,,,,,,,,,,,,,,,,,,,,,,,,,,,,,,,,,,,,,,,,,,,,,,,,,,,,,,,,,,,,,,,,,,,,,,,,,,,,,,,,,,,,2,1.323046900011832,212.92275379999774,None,ScrollUp,정답입니다,212.92275379999774,None,212.92275379999774,None,212.92275379999774,None,212.92275379999774,None,214.1368082999834,None,214.1368082999834,214.6386811999837,,,,,,,,,,,,,,,,115,2022-05-05_09h21.13.743,FishGame,2022.1.1,59.88224754759778,
,22,넌 빈틈없어,3,Orange,A,4.833333333333333,3.966666666666667,ScrollDown,ScrollUp,Orange.png,1,Neutral,Neutral,0,0,0,0,,,,,,,,,,,,,0,21,21,21,,,,,,,,,,,,,,,,,,,,,,,,,,,,,,,,,,,,,,,,,,,,,,,,,,,,,,,,,,,,,,,,,,,,,,,,,,,,,,,,,,,,,1,1.3055255000072066,215.28013520000968,None,ScrollDown,정답입니다,215.28013520000968,None,215.28013520000968,None,215.28013520000968,None,215.28013520000968,None,216.47142869999516,None,216.47142869999516,216.9719439999899,,,,,,,,,,,,,,,,115,2022-05-05_09h21.13.743,FishGame,2022.1.1,59.88224754759778,
,23,넌 상상력없어,4,Green,B,2.833333333333333,3.133333333333333,ScrollUp,ScrollDown,Green.png,1,Negative,Congruent,0,0,0,0,,,,,,,,,,,,,0,22,22,22,,,,,,,,,,,,,,,,,,,,,,,,,,,,,,,,,,,,,,,,,,,,,,,,,,,,,,,,,,,,,,,,,,,,,,,,,,,,,,,,,,,,,2,1.3016080999805126,217.60671279998496,None,ScrollUp,정답입니다,217.60671279998496,None,217.60671279998496,None,217.60671279998496,None,217.60671279998496,None,218.79324289999204,None,218.79324289999204,219.30498359998455,,,,,,,,,,,,,,,,115,2022-05-05_09h21.13.743,FishGame,2022.1.1,59.88224754759778,
,24,넌 지혜로워,2,Green,B,6.333333333333334,4.633333333333334,ScrollUp,ScrollDown,Green.png,1,Positive,Incongruent,0,0,0,0,,,,,,,,,,,,,0,23,23,23,,,,,,,,,,,,,,,,,,,,,,,,,,,,,,,,,,,,,,,,,,,,,,,,,,,,,,,,,,,,,,,,,,,,,,,,,,,,,,,,,,,,,2,1.3562334000016563,219.94580960000167,None,ScrollUp,정답입니다,219.94580960000167,None,219.94580960000167,None,219.94580960000167,None,219.94580960000167,None,221.18668069998967,None,221.18668069998967,221.68857199998456,,,,,,,,,,,,,,,,115,2022-05-05_09h21.13.743,FishGame,2022.1.1,59.88224754759778,
,25,넌 시끄러워,4,Orange,A,2.833333333333333,3.033333333333333,ScrollDown,ScrollUp,Orange.png,1,Negative,Incongruent,0,0,0,0,,,,,,,,,,,,,0,24,24,24,,,,,,,,,,,,,,,,,,,,,,,,,,,,,,,,,,,,,,,,,,,,,,,,,,,,,,,,,,,,,,,,,,,,,,,,,,,,,,,,,,,,,1,1.408396900020307,222.33185499999672,None,ScrollDown,정답입니다,222.33185499999672,None,222.33185499999672,None,222.33185499999672,None,222.33185499999672,None,223.62206439999864,None,223.62206439999864,224.12178719998337,,,,,,,,,,,,,,,,115,2022-05-05_09h21.13.743,FishGame,2022.1.1,59.88224754759778,
,26,넌 만사태평이야,3,Green,B,4,4.333333333333333,ScrollUp,ScrollDown,Green.png,1,Neutral,Neutral,0,0,0,0,,,,,,,,,,,,,0,25,25,25,,,,,,,,,,,,,,,,,,,,,,,,,,,,,,,,,,,,,,,,,,,,,,,,,,,,,,,,,,,,,,,,,,,,,,,,,,,,,,,,,,,,,2,1.2735751000000164,224.76252970000496,None,ScrollUp,정답입니다,224.76252970000496,None,224.76252970000496,None,224.76252970000496,None,224.76252970000496,None,225.92023580000387,None,225.92023580000387,226.4221952999942,,,,,,,,,,,,,,,,115,2022-05-05_09h21.13.743,FishGame,2022.1.1,59.88224754759778,
,27,넌 붙임성있어,1,Orange,A,5.708333333333333,5.633333333333334,ScrollDown,ScrollUp,Orange.png,1,Positive,Congruent,0,0,0,0,,,,,,,,,,,,,0,26,26,26,,,,,,,,,,,,,,,,,,,,,,,,,,,,,,,,,,,,,,,,,,,,,,,,,,,,,,,,,,,,,,,,,,,,,,,,,,,,,,,,,,,,,1,1.2225392000109423,227.06639629998244,None,ScrollDown,정답입니다,227.06639629998244,None,227.06639629998244,None,227.06639629998244,None,227.06639629998244,None,228.17030999998678,None,228.17030999998678,228.67177469999297,,,,,,,,,,,,,,,,115,2022-05-05_09h21.13.743,FishGame,2022.1.1,59.88224754759778,
,28,넌 영리해,2,Orange,A,6,4.033333333333333,ScrollDown,ScrollUp,Orange.png,1,Positive,Congruent,0,0,0,0,,,,,,,,,,,,,0,27,27,27,,,,,,,,,,,,,,,,,,,,,,,,,,,,,,,,,,,,,,,,,,,,,,,,,,,,,,,,,,,,,,,,,,,,,,,,,,,,,,,,,,,,,1,1.2304445000190753,229.31615739999688,None,ScrollDown,정답입니다,229.31615739999688,None,229.31615739999688,None,229.31615739999688,None,229.31615739999688,None,230.4253103999945,None,230.4253103999945,230.93843229999766,,,,,,,,,,,,,,,,115,2022-05-05_09h21.13.743,FishGame,2022.1.1,59.88224754759778,
,29,넌 열심이야,1,Green,B,6.041666666666667,5.833333333333333,ScrollUp,ScrollDown,Green.png,1,Positive,Incongruent,0,0,0,0,,,,,,,,,,,,,0,28,28,28,,,,,,,,,,,,,,,,,,,,,,,,,,,,,,,,,,,,,,,,,,,,,,,,,,,,,,,,,,,,,,,,,,,,,,,,,,,,,,,,,,,,,2,1.216980600001989,231.57433810000657,None,ScrollUp,정답입니다,231.57433810000657,None,231.57433810000657,None,231.57433810000657,None,231.57433810000657,None,232.67717479998828,None,232.67717479998828,233.1890916999837,,,,,,,,,,,,,,,,115,2022-05-05_09h21.13.743,FishGame,2022.1.1,59.88224754759778,
,30,넌 인기없어,4,Green,B,3,3.3,ScrollUp,ScrollDown,Green.png,1,Negative,Congruent,0,0,0,0,,,,,,,,,,,,,0,29,29,29,,,,,,,,,,,,,,,,,,,,,,,,,,,,,,,,,,,,,,,,,,,,,,,,,,,,,,,,,,,,,,,,,,,,,,,,,,,,,,,,,,,,,2,1.234957700013183,233.8187660999829,None,ScrollUp,정답입니다,233.8187660999829,None,233.8187660999829,None,233.8187660999829,None,233.8187660999829,None,234.9435211000091,None,234.9435211000091,235.45539519999875,,,,,,,,,,,,,,,,115,2022-05-05_09h21.13.743,FishGame,2022.1.1,59.88224754759778,
,31,넌 익살스러워,3,Orange,A,4.708333333333334,4.833333333333333,ScrollDown,ScrollUp,Orange.png,1,Neutral,Neutral,0,0,0,0,,,,,,,,,,,,,0,30,30,30,,,,,,,,,,,,,,,,,,,,,,,,,,,,,,,,,,,,,,,,,,,,,,,,,,,,,,,,,,,,,,,,,,,,,,,,,,,,,,,,,,,,,1,1.1450214000069536,236.10103019999224,None,ScrollDown,정답입니다,236.10103019999224,None,236.10103019999224,None,236.10103019999224,None,236.10103019999224,None,237.12235960000544,None,237.12235960000544,237.6221535000077,,,,,,,,,,,,,,,,115,2022-05-05_09h21.13.743,FishGame,2022.1.1,59.88224754759778,
,32,넌 이기적이야,5,Green,B,2.291666666666667,2.333333333333333,ScrollUp,ScrollDown,Green.png,1,Negative,Congruent,0,0,0,0,,,,,,,,,,,,,0,31,31,31,,,,,,,,,,,,,,,,,,,,,,,,,,,,,,,,,,,,,,,,,,,,,,,,,,,,,,,,,,,,,,,,,,,,,,,,,,,,,,,,,,,,,2,1.2036262000037823,238.25420450000092,None,ScrollUp,정답입니다,238.25420450000092,None,238.25420450000092,None,238.25420450000092,None,238.25420450000092,None,239.3536146999977,None,239.3536146999977,239.85597489998327,,,,,,,,,,,,,,,,115,2022-05-05_09h21.13.743,FishGame,2022.1.1,59.88224754759778,
,33,나를 데려가줘,6,Green,B,0,0,ScrollDown,ScrollUp,Green.png,1,NonTarget,NonTarget,0,0,0,0,,,,,,,,,,,,,0,32,32,32,,,,,,,,,,,,,,,,,,,,,,,,,,,,,,,,,,,,,,,,,,,,,,,,,,,,,,,,,,,,,,,,,,,,,,,,,,,,,,,,,,,,,1,1.3240444000111893,240.4851750000089,None,ScrollDown,정답입니다,240.4851750000089,None,240.4851750000089,None,240.4851750000089,None,240.4851750000089,None,241.70570409999345,None,241.70570409999345,242.2059067999944,,,,,,,,,,,,,,,,115,2022-05-05_09h21.13.743,FishGame,2022.1.1,59.88224754759778,
,34,넌 기회주의자야,5,Orange,A,2.875,2.133333333333333,ScrollDown,ScrollUp,Orange.png,1,Negative,Incongruent,0,0,0,0,,,,,,,,,,,,,0,33,33,33,,,,,,,,,,,,,,,,,,,,,,,,,,,,,,,,,,,,,,,,,,,,,,,,,,,,,,,,,,,,,,,,,,,,,,,,,,,,,,,,,,,,,1,1.235273900005268,242.84962580000865,None,ScrollDown,정답입니다,242.84962580000865,None,242.84962580000865,None,242.84962580000865,None,242.84962580000865,None,243.96075709999423,None,243.96075709999423,244.472691700008,,,,,,,,,,,,,,,,115,2022-05-05_09h21.13.743,FishGame,2022.1.1,59.88224754759778,
,1,넌 미성숙해,4,Orange,A,3,3.2,ScrollDown,ScrollUp,Orange.png,2,Negative,Incongruent,0,0,0,0,,,,,,,,,,,,,,,,,0,0,0,0,,,,,,,,,,,,,,,,,,,,,,,,,,,,,,,,,,,,,,,,276.73967049998464,278.23992739999085,278.27310590000707,279.2235503999982,279.2733833999955,280.2233713000023,280.2233713000023,None,,,,,,,,,,,,,,,,,,,,,,,,,,,,,,,,,,1,1.3710633000009693,281.377596300008,None,ScrollDown,정답입니다,281.377596300008,None,281.377596300008,None,281.377596300008,None,281.377596300008,None,282.5877982999955,None,282.5877982999955,283.0900419999962,244.97274430000107,None,244.97274430000107,None,-0.17777778,-0.097222224,1,0,0,0.0161993500078097,None,274.97302330000093,None,,,115,2022-05-05_09h21.13.743,FishGame,2022.1.1,59.88224754759778,
,2,넌 반사회적이야,5,Green,B,2.416666666666667,2.033333333333333,ScrollUp,ScrollDown,Green.png,2,Negative,Congruent,0,0,0,0,,,,,,,,,,,,,,,,,0,1,1,1,,,,,,,,,,,,,,,,,,,,,,,,,,,,,,,,,,,,,,,,,,,,,,,,,,,,,,,,,,,,,,,,,,,,,,,,,,,,,,,,,2,1.3302777000062633,283.7255058999872,None,ScrollUp,정답입니다,283.7255058999872,None,283.7255058999872,None,283.7255058999872,None,283.7255058999872,None,284.94187750000856,None,284.94187750000856,285.4563743000035,,,,,,,,,,,,,,,,115,2022-05-05_09h21.13.743,FishGame,2022.1.1,59.88224754759778,
,3,넌 유능해,2,Orange,A,6.208333333333333,4.433333333333334,ScrollDown,ScrollUp,Orange.png,2,Positive,Congruent,0,0,0,0,,,,,,,,,,,,,,,,,0,2,2,2,,,,,,,,,,,,,,,,,,,,,,,,,,,,,,,,,,,,,,,,,,,,,,,,,,,,,,,,,,,,,,,,,,,,,,,,,,,,,,,,,1,1.238298100011889,286.100193899998,None,ScrollDown,정답입니다,286.100193899998,None,286.100193899998,None,286.100193899998,None,286.100193899998,None,287.2216261999856,None,287.2216261999856,287.7231395999843,,,,,,,,,,,,,,,,115,2022-05-05_09h21.13.743,FishGame,2022.1.1,59.88224754759778,
,4,넌 능숙해,2,Green,B,5.666666666666667,4.733333333333333,ScrollUp,ScrollDown,Green.png,2,Positive,Incongruent,0,0,0,0,,,,,,,,,,,,,,,,,0,3,3,3,,,,,,,,,,,,,,,,,,,,,,,,,,,,,,,,,,,,,,,,,,,,,,,,,,,,,,,,,,,,,,,,,,,,,,,,,,,,,,,,,2,1.250107100000605,288.3521621999971,None,ScrollUp,정답입니다,288.3521621999971,None,288.3521621999971,None,288.3521621999971,None,288.3521621999971,None,289.4948851999943,None,289.4948851999943,290.0067432000069,,,,,,,,,,,,,,,,115,2022-05-05_09h21.13.743,FishGame,2022.1.1,59.88224754759778,
,5,넌 진부해,4,Green,B,2.458333333333333,3.166666666666667,ScrollUp,ScrollDown,Green.png,2,Negative,Congruent,0,0,0,0,,,,,,,,,,,,,,,,,0,4,4,4,,,,,,,,,,,,,,,,,,,,,,,,,,,,,,,,,,,,,,,,,,,,,,,,,,,,,,,,,,,,,,,,,,,,,,,,,,,,,,,,,2,1.2349198999872897,290.64019559998997,None,ScrollUp,정답입니다,290.64019559998997,None,290.64019559998997,None,290.64019559998997,None,290.64019559998997,None,291.7612465999846,None,291.7612465999846,292.2735992000089,,,,,,,,,,,,,,,,115,2022-05-05_09h21.13.743,FishGame,2022.1.1,59.88224754759778,
,6,나를 보내줘,6,Orange,A,0,0,ScrollUp,ScrollDown,Orange.png,2,NonTarget,NonTarget,0,0,0,0,,,,,,,,,,,,,,,,,0,5,5,5,,,,,,,,,,,,,,,,,,,,,,,,,,,,,,,,,,,,,,,,,,,,,,,,,,,,,,,,,,,,,,,,,,,,,,,,,,,,,,,,,2,1.2833810999873094,292.9082649000047,None,ScrollUp,정답입니다,292.9082649000047,None,292.9082649000047,None,292.9082649000047,None,292.9082649000047,None,294.07910209998954,None,294.07910209998954,294.59012670000084,,,,,,,,,,,,,,,,115,2022-05-05_09h21.13.743,FishGame,2022.1.1,59.88224754759778,
,7,넌 엄격해,3,Orange,A,4.166666666666666,4.1,ScrollDown,ScrollUp,Orange.png,2,Neutral,Neutral,0,0,0,0,,,,,,,,,,,,,,,,,0,6,6,6,,,,,,,,,,,,,,,,,,,,,,,,,,,,,,,,,,,,,,,,,,,,,,,,,,,,,,,,,,,,,,,,,,,,,,,,,,,,,,,,,1,1.2949575999809895,295.23224660000415,None,ScrollDown,정답입니다,295.23224660000415,None,295.23224660000415,None,295.23224660000415,None,295.23224660000415,None,296.4068916999968,None,296.4068916999968,296.9072308999894,,,,,,,,,,,,,,,,115,2022-05-05_09h21.13.743,FishGame,2022.1.1,59.88224754759778,
,8,나를 보내줘,6,Orange,A,0,0,ScrollUp,ScrollDown,Orange.png,2,NonTarget,NonTarget,0,0,0,0,,,,,,,,,,,,,,,,,0,7,7,7,,,,,,,,,,,,,,,,,,,,,,,,,,,,,,,,,,,,,,,,,,,,,,,,,,,,,,,,,,,,,,,,,,,,,,,,,,,,,,,,,2,1.2393498999881558,297.5485483999946,None,ScrollUp,정답입니다,297.5485483999946,None,297.5485483999946,None,297.5485483999946,None,297.5485483999946,None,298.6720428999979,None,298.6720428999979,299.17399149999255,,,,,,,,,,,,,,,,115,2022-05-05_09h21.13.743,FishGame,2022.1.1,59.88224754759778,
,9,넌 대담해,3,Green,B,4.875,4.866666666666666,ScrollUp,ScrollDown,Green.png,2,Neutral,Neutral,0,0,0,0,,,,,,,,,,,,,,,,,0,8,8,8,,,,,,,,,,,,,,,,,,,,,,,,,,,,,,,,,,,,,,,,,,,,,,,,,,,,,,,,,,,,,,,,,,,,,,,,,,,,,,,,,2,1.3556520999991335,299.81232209998416,None,ScrollUp,정답입니다,299.81232209998416,None,299.81232209998416,None,299.81232209998416,None,299.81232209998416,None,301.0550512000045,None,301.0550512000045,301.5569671999838,,,,,,,,,,,,,,,,115,2022-05-05_09h21.13.743,FishGame,2022.1.1,59.88224754759778,
,10,넌 꾸준해,1,Orange,A,5.916666666666668,5.8,ScrollDown,ScrollUp,Orange.png,2,Positive,Congruent,0,0,0,0,,,,,,,,,,,,,,,,,0,9,9,9,,,,,,,,,,,,,,,,,,,,,,,,,,,,,,,,,,,,,,,,,,,,,,,,,,,,,,,,,,,,,,,,,,,,,,,,,,,,,,,,,1,1.2796713999996427,302.2105618999922,None,ScrollDown,정답입니다,302.2105618999922,None,302.2105618999922,None,302.2105618999922,None,302.2105618999922,None,303.35697210000944,None,303.35697210000944,303.8568779999914,,,,,,,,,,,,,,,,115,2022-05-05_09h21.13.743,FishGame,2022.1.1,59.88224754759778,
,11,나를 데려가줘,6,Green,B,0,0,ScrollDown,ScrollUp,Green.png,2,NonTarget,NonTarget,0,0,0,0,,,,,,,,,,,,,,,,,0,10,10,10,,,,,,,,,,,,,,,,,,,,,,,,,,,,,,,,,,,,,,,,,,,,,,,,,,,,,,,,,,,,,,,,,,,,,,,,,,,,,,,,,1,1.2601437999983318,304.49413869998534,None,ScrollDown,정답입니다,304.49413869998534,None,304.49413869998534,None,304.49413869998534,None,304.49413869998534,None,305.6404040000052,None,305.6404040000052,306.1400837999827,,,,,,,,,,,,,,,,115,2022-05-05_09h21.13.743,FishGame,2022.1.1,59.88224754759778,
,12,넌 독선적이야,5,Orange,A,2.458333333333333,1.933333333333333,ScrollDown,ScrollUp,Orange.png,2,Negative,Incongruent,0,0,0,0,,,,,,,,,,,,,,,,,0,11,11,11,,,,,,,,,,,,,,,,,,,,,,,,,,,,,,,,,,,,,,,,,,,,,,,,,,,,,,,,,,,,,,,,,,,,,,,,,,,,,,,,,1,1.2115318999858573,306.78416049998486,None,ScrollDown,정답입니다,306.78416049998486,None,306.78416049998486,None,306.78416049998486,None,306.78416049998486,None,307.8735016999999,None,307.8735016999999,308.3741882999893,,,,,,,,,,,,,,,,115,2022-05-05_09h21.13.743,FishGame,2022.1.1,59.88224754759778,
,13,나를 보내줘,6,Orange,A,0,0,ScrollUp,ScrollDown,Orange.png,2,NonTarget,NonTarget,0,0,0,0,,,,,,,,,,,,,,,,,0,12,12,12,,,,,,,,,,,,,,,,,,,,,,,,,,,,,,,,,,,,,,,,,,,,,,,,,,,,,,,,,,,,,,,,,,,,,,,,,,,,,,,,,2,1.177460599981714,309.01010109999334,None,ScrollUp,정답입니다,309.01010109999334,None,309.01010109999334,None,309.01010109999334,None,309.01010109999334,None,310.07383360000676,None,310.07383360000676,310.5736450999975,,,,,,,,,,,,,,,,115,2022-05-05_09h21.13.743,FishGame,2022.1.1,59.88224754759778,
,14,넌 책임감있어,1,Green,B,6.347826086956522,6,ScrollUp,ScrollDown,Green.png,2,Positive,Incongruent,0,0,0,0,,,,,,,,,,,,,,,,,0,13,13,13,,,,,,,,,,,,,,,,,,,,,,,,,,,,,,,,,,,,,,,,,,,,,,,,,,,,,,,,,,,,,,,,,,,,,,,,,,,,,,,,,2,1.2948709999909624,311.20898140000645,None,ScrollUp,정답입니다,311.20898140000645,None,311.20898140000645,None,311.20898140000645,None,311.20898140000645,None,312.38983840000583,None,312.38983840000583,312.89098969998304,,,,,,,,,,,,,,,,115,2022-05-05_09h21.13.743,FishGame,2022.1.1,59.88224754759778,
,15,넌 문학적이야,3,Orange,A,4.708333333333334,4.333333333333333,ScrollDown,ScrollUp,Orange.png,2,Neutral,Neutral,0,0,0,0,,,,,,,,,,,,,,,,,0,14,14,14,,,,,,,,,,,,,,,,,,,,,,,,,,,,,,,,,,,,,,,,,,,,,,,,,,,,,,,,,,,,,,,,,,,,,,,,,,,,,,,,,1,1.1776741999783553,313.53367000000435,None,ScrollDown,정답입니다,313.53367000000435,None,313.53367000000435,None,313.53367000000435,None,313.53367000000435,None,314.59019990000525,None,314.59019990000525,315.0907448999933,,,,,,,,,,,,,,,,115,2022-05-05_09h21.13.743,FishGame,2022.1.1,59.88224754759778,
,16,넌 재미있어,1,Green,B,5.875,5.7,ScrollUp,ScrollDown,Green.png,2,Positive,Incongruent,0,0,0,0,,,,,,,,,,,,,,,,,0,15,15,15,,,,,,,,,,,,,,,,,,,,,,,,,,,,,,,,,,,,,,,,,,,,,,,,,,,,,,,,,,,,,,,,,,,,,,,,,,,,,,,,,2,1.1742724000068847,315.720665300003,None,ScrollUp,정답입니다,315.720665300003,None,315.720665300003,None,315.720665300003,None,315.720665300003,None,316.7902712000068,None,316.7902712000068,317.2909232999955,,,,,,,,,,,,,,,,115,2022-05-05_09h21.13.743,FishGame,2022.1.1,59.88224754759778,
,17,나를 데려가줘,6,Green,B,0,0,ScrollDown,ScrollUp,Green.png,2,NonTarget,NonTarget,0,0,0,0,,,,,,,,,,,,,,,,,0,16,16,16,,,,,,,,,,,,,,,,,,,,,,,,,,,,,,,,,,,,,,,,,,,,,,,,,,,,,,,,,,,,,,,,,,,,,,,,,,,,,,,,,1,1.2140778999892063,317.92248390000896,None,ScrollDown,정답입니다,317.92248390000896,None,317.92248390000896,None,317.92248390000896,None,317.92248390000896,None,319.0275344999973,None,319.0275344999973,319.5408958999906,,,,,,,,,,,,,,,,115,2022-05-05_09h21.13.743,FishGame,2022.1.1,59.88224754759778,
,18,넌 협력적이야,1,Orange,A,5.625,5.633333333333334,ScrollDown,ScrollUp,Orange.png,2,Positive,Congruent,0,0,0,0,,,,,,,,,,,,,,,,,0,17,17,17,,,,,,,,,,,,,,,,,,,,,,,,,,,,,,,,,,,,,,,,,,,,,,,,,,,,,,,,,,,,,,,,,,,,,,,,,,,,,,,,,1,1.0919354000070598,320.1801906999899,None,ScrollDown,정답입니다,320.1801906999899,None,320.1801906999899,None,320.1801906999899,None,320.1801906999899,None,321.1570056999917,None,321.1570056999917,321.6574158000003,,,,,,,,,,,,,,,,115,2022-05-05_09h21.13.743,FishGame,2022.1.1,59.88224754759778,
,19,넌 평범해,3,Green,B,4.333333333333332,4.233333333333333,ScrollUp,ScrollDown,Green.png,2,Neutral,Neutral,0,0,0,0,,,,,,,,,,,,,,,,,0,18,18,18,,,,,,,,,,,,,,,,,,,,,,,,,,,,,,,,,,,,,,,,,,,,,,,,,,,,,,,,,,,,,,,,,,,,,,,,,,,,,,,,,2,1.2194937999884132,322.2942314000102,None,ScrollUp,정답입니다,322.2942314000102,None,322.2942314000102,None,322.2942314000102,None,322.2942314000102,None,323.40572079998674,None,323.40572079998674,323.9071136999992,,,,,,,,,,,,,,,,115,2022-05-05_09h21.13.743,FishGame,2022.1.1,59.88224754759778,
,20,넌 오만해,5,Orange,A,2.333333333333333,2,ScrollDown,ScrollUp,Orange.png,2,Negative,Incongruent,0,0,0,0,,,,,,,,,,,,,,,,,0,19,19,19,,,,,,,,,,,,,,,,,,,,,,,,,,,,,,,,,,,,,,,,,,,,,,,,,,,,,,,,,,,,,,,,,,,,,,,,,,,,,,,,,1,1.2034701999800745,324.5469254000054,None,ScrollDown,정답입니다,324.5469254000054,None,324.5469254000054,None,324.5469254000054,None,324.5469254000054,None,325.6388595000026,None,325.6388595000026,326.1412577999872,,,,,,,,,,,,,,,,115,2022-05-05_09h21.13.743,FishGame,2022.1.1,59.88224754759778,
,21,넌 운이없어,4,Green,B,3,3.466666666666667,ScrollUp,ScrollDown,Green.png,2,Negative,Congruent,0,0,0,0,,,,,,,,,,,,,,,,,0,20,20,20,,,,,,,,,,,,,,,,,,,,,,,,,,,,,,,,,,,,,,,,,,,,,,,,,,,,,,,,,,,,,,,,,,,,,,,,,,,,,,,,,2,1.0699428000079934,326.77318819999346,None,ScrollUp,정답입니다,326.77318819999346,None,326.77318819999346,None,326.77318819999346,None,326.77318819999346,None,327.73929530000896,None,327.73929530000896,328.2410270999826,,,,,,,,,,,,,,,,115,2022-05-05_09h21.13.743,FishGame,2022.1.1,59.88224754759778,
,22,넌 창조적이야,2,Green,B,6.125,4.633333333333334,ScrollUp,ScrollDown,Green.png,2,Positive,Incongruent,0,0,0,0,,,,,,,,,,,,,,,,,0,21,21,21,,,,,,,,,,,,,,,,,,,,,,,,,,,,,,,,,,,,,,,,,,,,,,,,,,,,,,,,,,,,,,,,,,,,,,,,,,,,,,,,,2,1.1433519000129309,328.87561200000346,None,ScrollUp,정답입니다,328.87561200000346,None,328.87561200000346,None,328.87561200000346,None,328.87561200000346,None,329.9072357999976,None,329.9072357999976,330.4079824000073,,,,,,,,,,,,,,,,115,2022-05-05_09h21.13.743,FishGame,2022.1.1,59.88224754759778,
,23,나를 보내줘,6,Orange,A,0,0,ScrollUp,ScrollDown,Orange.png,2,NonTarget,NonTarget,0,0,0,0,,,,,,,,,,,,,,,,,0,22,22,22,,,,,,,,,,,,,,,,,,,,,,,,,,,,,,,,,,,,,,,,,,,,,,,,,,,,,,,,,,,,,,,,,,,,,,,,,,,,,,,,,2,1.2619394999928772,331.04018599999836,None,ScrollUp,정답입니다,331.04018599999836,None,331.04018599999836,None,331.04018599999836,None,331.04018599999836,None,332.1904579999973,None,332.1904579999973,332.6909592000011,,,,,,,,,,,,,,,,115,2022-05-05_09h21.13.743,FishGame,2022.1.1,59.88224754759778,
,24,넌 통찰력있어,2,Orange,A,6.5,4.8,ScrollDown,ScrollUp,Orange.png,2,Positive,Congruent,0,0,0,0,,,,,,,,,,,,,,,,,0,23,23,23,,,,,,,,,,,,,,,,,,,,,,,,,,,,,,,,,,,,,,,,,,,,,,,,,,,,,,,,,,,,,,,,,,,,,,,,,,,,,,,,,1,1.1380892000161111,333.3336839999829,None,ScrollDown,정답입니다,333.3336839999829,None,333.3336839999829,None,333.3336839999829,None,333.3336839999829,None,334.35560569999507,None,334.35560569999507,334.8578254999884,,,,,,,,,,,,,,,,115,2022-05-05_09h21.13.743,FishGame,2022.1.1,59.88224754759778,
,25,넌 경솔해,5,Green,B,2.458333333333333,2.266666666666667,ScrollUp,ScrollDown,Green.png,2,Negative,Congruent,0,0,0,0,,,,,,,,,,,,,,,,,0,24,24,24,,,,,,,,,,,,,,,,,,,,,,,,,,,,,,,,,,,,,,,,,,,,,,,,,,,,,,,,,,,,,,,,,,,,,,,,,,,,,,,,,2,1.1345513999985997,335.50628539998434,None,ScrollUp,정답입니다,335.50628539998434,None,335.50628539998434,None,335.50628539998434,None,335.50628539998434,None,336.5123437999864,None,336.5123437999864,337.02428029998555,,,,,,,,,,,,,,,,115,2022-05-05_09h21.13.743,FishGame,2022.1.1,59.88224754759778,
,26,넌 초조해,4,Orange,A,2.916666666666667,3.133333333333333,ScrollDown,ScrollUp,Orange.png,2,Negative,Incongruent,0,0,0,0,,,,,,,,,,,,,,,,,0,25,25,25,,,,,,,,,,,,,,,,,,,,,,,,,,,,,,,,,,,,,,,,,,,,,,,,,,,,,,,,,,,,,,,,,,,,,,,,,,,,,,,,,1,1.2778423999843653,337.6628097000066,None,ScrollDown,정답입니다,337.6628097000066,None,337.6628097000066,None,337.6628097000066,None,337.6628097000066,None,338.8240826999827,None,338.8240826999827,339.3244160999893,,,,,,,,,,,,,,,,115,2022-05-05_09h21.13.743,FishGame,2022.1.1,59.88224754759778,
,27,넌 무관심해,4,Green,B,2.833333333333333,2.9,ScrollUp,ScrollDown,Green.png,2,Negative,Congruent,0,0,0,0,,,,,,,,,,,,,,,,,0,26,26,26,,,,,,,,,,,,,,,,,,,,,,,,,,,,,,,,,,,,,,,,,,,,,,,,,,,,,,,,,,,,,,,,,,,,,,,,,,,,,,,,,2,1.1923083000001498,339.95807639998384,None,ScrollUp,정답입니다,339.95807639998384,None,339.95807639998384,None,339.95807639998384,None,339.95807639998384,None,341.04082150000613,None,341.04082150000613,341.54106359998696,,,,,,,,,,,,,,,,115,2022-05-05_09h21.13.743,FishGame,2022.1.1,59.88224754759778,
,28,넌 감성적이야,3,Green,B,4.125,4.166666666666667,ScrollUp,ScrollDown,Green.png,2,Neutral,Neutral,0,0,0,0,,,,,,,,,,,,,,,,,0,27,27,27,,,,,,,,,,,,,,,,,,,,,,,,,,,,,,,,,,,,,,,,,,,,,,,,,,,,,,,,,,,,,,,,,,,,,,,,,,,,,,,,,2,1.1491887000156567,342.1724650999822,None,ScrollUp,정답입니다,342.1724650999822,None,342.1724650999822,None,342.1724650999822,None,342.1724650999822,None,343.21295960000134,None,343.21295960000134,343.7245561000018,,,,,,,,,,,,,,,,115,2022-05-05_09h21.13.743,FishGame,2022.1.1,59.88224754759778,
,29,넌 배려심있어,1,Orange,A,6.083333333333333,5.5,ScrollDown,ScrollUp,Orange.png,2,Positive,Congruent,0,0,0,0,,,,,,,,,,,,,,,,,0,28,28,28,,,,,,,,,,,,,,,,,,,,,,,,,,,,,,,,,,,,,,,,,,,,,,,,,,,,,,,,,,,,,,,,,,,,,,,,,,,,,,,,,1,1.14505759999156,344.36191809998127,None,ScrollDown,정답입니다,344.36191809998127,None,344.36191809998127,None,344.36191809998127,None,344.36191809998127,None,345.39126129998476,None,345.39126129998476,345.89141599999857,,,,,,,,,,,,,,,,115,2022-05-05_09h21.13.743,FishGame,2022.1.1,59.88224754759778,
,30,넌 숨김없어,3,Orange,A,4.5,4.933333333333334,ScrollDown,ScrollUp,Orange.png,2,Neutral,Neutral,0,0,0,0,,,,,,,,,,,,,,,,,0,29,29,29,,,,,,,,,,,,,,,,,,,,,,,,,,,,,,,,,,,,,,,,,,,,,,,,,,,,,,,,,,,,,,,,,,,,,,,,,,,,,,,,,1,1.3056258999858983,346.5317216999829,None,ScrollDown,정답입니다,346.5317216999829,None,346.5317216999829,None,346.5317216999829,None,346.5317216999829,None,347.72261569998227,None,347.72261569998227,348.2246596000041,,,,,,,,,,,,,,,,115,2022-05-05_09h21.13.743,FishGame,2022.1.1,59.88224754759778,
,31,넌 훌륭해,2,Green,B,5.916666666666667,4.033333333333333,ScrollUp,ScrollDown,Green.png,2,Positive,Incongruent,0,0,0,0,,,,,,,,,,,,,,,,,0,30,30,30,,,,,,,,,,,,,,,,,,,,,,,,,,,,,,,,,,,,,,,,,,,,,,,,,,,,,,,,,,,,,,,,,,,,,,,,,,,,,,,,,2,1.206892299989704,348.8603744999855,None,ScrollUp,정답입니다,348.8603744999855,None,348.8603744999855,None,348.8603744999855,None,348.8603744999855,None,349.95601279998664,None,349.95601279998664,350.4577367999882,,,,,,,,,,,,,,,,115,2022-05-05_09h21.13.743,FishGame,2022.1.1,59.88224754759778,
,32,넌 슬기로워,2,Orange,A,6.166666666666667,4.1,ScrollDown,ScrollUp,Orange.png,2,Positive,Congruent,0,0,0,0,,,,,,,,,,,,,,,,,0,31,31,31,,,,,,,,,,,,,,,,,,,,,,,,,,,,,,,,,,,,,,,,,,,,,,,,,,,,,,,,,,,,,,,,,,,,,,,,,,,,,,,,,1,1.1412638000037987,351.09572139999364,None,ScrollDown,정답입니다,351.09572139999364,None,351.09572139999364,None,351.09572139999364,None,351.09572139999364,None,352.1245857999893,None,352.1245857999893,352.62460809998447,,,,,,,,,,,,,,,,115,2022-05-05_09h21.13.743,FishGame,2022.1.1,59.88224754759778,
,33,넌 냉혹해,5,Orange,A,2.583333333333333,2.1,ScrollDown,ScrollUp,Orange.png,2,Negative,Incongruent,0,0,0,0,,,,,,,,,,,,,,,,,0,32,32,32,,,,,,,,,,,,,,,,,,,,,,,,,,,,,,,,,,,,,,,,,,,,,,,,,,,,,,,,,,,,,,,,,,,,,,,,,,,,,,,,,1,1.1621714000066277,353.2658024999837,None,ScrollDown,정답입니다,353.2658024999837,None,353.2658024999837,None,353.2658024999837,None,353.2658024999837,None,354.30954859999474,None,354.30954859999474,354.8245104000089,,,,,,,,,,,,,,,,115,2022-05-05_09h21.13.743,FishGame,2022.1.1,59.88224754759778,
,34,나를 데려가줘,6,Green,B,0,0,ScrollDown,ScrollUp,Green.png,2,NonTarget,NonTarget,0,0,0,0,,,,,,,,,,,,,,,,,0,33,33,33,,,,,,,,,,,,,,,,,,,,,,,,,,,,,,,,,,,,,,,,,,,,,,,,,,,,,,,,,,,,,,,,,,,,,,,,,,,,,,,,,1,1.1853347000142094,355.4548967999872,None,ScrollDown,정답입니다,355.4548967999872,None,355.4548967999872,None,355.4548967999872,None,355.4548967999872,None,356.52995569998166,None,356.52995569998166,357.04157460000715,,,,,,,,,,,,,,,,115,2022-05-05_09h21.13.743,FishGame,2022.1.1,59.88224754759778,
,35,넌 편파적이야,5,Green,B,2.125,2,ScrollUp,ScrollDown,Green.png,2,Negative,Congruent,0,0,0,0,,,,,,,,,,,,,,,,,0,34,34,34,,,,,,,,,,,,,,,,,,,,,,,,,,,,,,,,,,,,,,,,,,,,,,,,,,,,,,,,,,,,,,,,,,,,,,,,,,,,,,,,,2,1.2031590999977197,357.68049199998495,None,ScrollUp,정답입니다,357.68049199998495,None,357.68049199998495,None,357.68049199998495,None,357.68049199998495,None,358.7729490000056,None,358.7729490000056,359.2747567000042,,,,,,,,,,,,,,,,115,2022-05-05_09h21.13.743,FishGame,2022.1.1,59.88224754759778,
,36,넌 슬퍼,4,Orange,A,2.583333333333333,3.066666666666667,ScrollDown,ScrollUp,Orange.png,2,Negative,Incongruent,0,0,0,0,,,,,,,,,,,,,,,,,0,35,35,35,,,,,,,,,,,,,,,,,,,,,,,,,,,,,,,,,,,,,,,,,,,,,,,,,,,,,,,,,,,,,,,,,,,,,,,,,,,,,,,,,1,1.2153123000171036,359.9130893999827,None,ScrollDown,정답입니다,359.9130893999827,None,359.9130893999827,None,359.9130893999827,None,359.9130893999827,None,361.0128052000073,None,361.0128052000073,361.52502719999757,,,,,,,,,,,,,,,,115,2022-05-05_09h21.13.743,FishGame,2022.1.1,59.88224754759778,
,37,나를 데려가줘,6,Green,B,0,0,ScrollDown,ScrollUp,Green.png,2,NonTarget,NonTarget,0,0,0,0,,,,,,,,,,,,,,,,,0,36,36,36,,,,,,,,,,,,,,,,,,,,,,,,,,,,,,,,,,,,,,,,,,,,,,,,,,,,,,,,,,,,,,,,,,,,,,,,,,,,,,,,,1,1.1285302999895066,362.1541113999847,None,ScrollDown,정답입니다,362.1541113999847,None,362.1541113999847,None,362.1541113999847,None,362.1541113999847,None,363.1749899999995,None,363.1749899999995,363.6747716999962,,,,,,,,,,,,,,,,115,2022-05-05_09h21.13.743,FishGame,2022.1.1,59.88224754759778,
,38,넌 친절해,1,Green,B,6.041666666666667,5.533333333333333,ScrollUp,ScrollDown,Green.png,2,Positive,Incongruent,0,0,0,0,,,,,,,,,,,,,,,,,0,37,37,37,,,,,,,,,,,,,,,,,,,,,,,,,,,,,,,,,,,,,,,,,,,,,,,,,,,,,,,,,,,,,,,,,,,,,,,,,,,,,,,,,2,1.270595100009814,364.31468069998664,None,ScrollUp,정답입니다,364.31468069998664,None,364.31468069998664,None,364.31468069998664,None,364.31468069998664,None,365.4729585000023,None,365.4729585000023,365.97471770000993,,,,,,,,,,,,,,,,115,2022-05-05_09h21.13.743,FishGame,2022.1.1,59.88224754759778,
,1,넌 엉성해,4,Orange,A,3,3.3,ScrollDown,ScrollUp,Orange.png,3,Negative,Incongruent,0,0,0,0,,,,,,,,,,,,,,,,,,,,,0,0,0,0,,,,,,,,,,,,,,,,,,,,,,,,,,,,,,,,,,,,397.59239099998376,399.09259210000164,399.1255748999829,400.07552179999766,400.12583740000264,401.07589519998874,401.07589519998874,None,,,,,,,,,,,,,,,,,,,,,,,,,,,,,,,,,,1,1.3825003999809269,402.23640219998197,None,ScrollDown,정답입니다,402.23640219998197,None,402.23640219998197,None,402.23640219998197,None,402.23640219998197,None,403.45757339999545,None,403.45757339999545,403.9595227999962,366.4747739000013,None,366.4747739000013,None,-0.19259259,-0.08611111,1,0,0,0.016232049994869158,None,396.4755837999983,None,,,115,2022-05-05_09h21.13.743,FishGame,2022.1.1,59.88224754759778,
,2,나를 보내줘,6,Orange,A,0,0,ScrollUp,ScrollDown,Orange.png,3,NonTarget,NonTarget,0,0,0,0,,,,,,,,,,,,,,,,,,,,,0,1,1,1,,,,,,,,,,,,,,,,,,,,,,,,,,,,,,,,,,,,,,,,,,,,,,,,,,,,,,,,,,,,,,,,,,,,,,,,,,,,,2,1.250378600001568,404.59596770000644,None,ScrollUp,정답입니다,404.59596770000644,None,404.59596770000644,None,404.59596770000644,None,404.59596770000644,None,405.7315127000038,None,405.7315127000038,406.2429234999872,,,,,,,,,,,,,,,,115,2022-05-05_09h21.13.743,FishGame,2022.1.1,59.88224754759778,
,3,넌 활발해,1,Green,B,5.666666666666667,5.6,ScrollUp,ScrollDown,Green.png,3,Positive,Incongruent,0,0,0,0,,,,,,,,,,,,,,,,,,,,,0,2,2,2,,,,,,,,,,,,,,,,,,,,,,,,,,,,,,,,,,,,,,,,,,,,,,,,,,,,,,,,,,,,,,,,,,,,,,,,,,,,,2,1.126965499977814,406.8790567999822,None,ScrollUp,정답입니다,406.8790567999822,None,406.8790567999822,None,406.8790567999822,None,406.8790567999822,None,407.8925834999827,None,407.8925834999827,408.3924188000092,,,,,,,,,,,,,,,,115,2022-05-05_09h21.13.743,FishGame,2022.1.1,59.88224754759778,
,4,넌 논리적이야,2,Orange,A,5.666666666666666,4.633333333333334,ScrollDown,ScrollUp,Orange.png,3,Positive,Congruent,0,0,0,0,,,,,,,,,,,,,,,,,,,,,0,3,3,3,,,,,,,,,,,,,,,,,,,,,,,,,,,,,,,,,,,,,,,,,,,,,,,,,,,,,,,,,,,,,,,,,,,,,,,,,,,,,1,1.16964039998129,409.04317409999203,None,ScrollDown,정답입니다,409.04317409999203,None,409.04317409999203,None,409.04317409999203,None,409.04317409999203,None,410.09118849999504,None,410.09118849999504,410.5934275999898,,,,,,,,,,,,,,,,115,2022-05-05_09h21.13.743,FishGame,2022.1.1,59.88224754759778,
,5,넌 과묵해,3,Orange,A,3.875,4.4,ScrollDown,ScrollUp,Orange.png,3,Neutral,Neutral,0,0,0,0,,,,,,,,,,,,,,,,,,,,,0,4,4,4,,,,,,,,,,,,,,,,,,,,,,,,,,,,,,,,,,,,,,,,,,,,,,,,,,,,,,,,,,,,,,,,,,,,,,,,,,,,,1,1.1022859999793582,411.233951000002,None,ScrollDown,정답입니다,411.233951000002,None,411.233951000002,None,411.233951000002,None,411.233951000002,None,412.2242879999976,None,412.2242879999976,412.7258305999858,,,,,,,,,,,,,,,,115,2022-05-05_09h21.13.743,FishGame,2022.1.1,59.88224754759778,
,6,나를 데려가줘,6,Green,B,0,0,ScrollDown,ScrollUp,Green.png,3,NonTarget,NonTarget,0,0,0,0,,,,,,,,,,,,,,,,,,,,,0,5,5,5,,,,,,,,,,,,,,,,,,,,,,,,,,,,,,,,,,,,,,,,,,,,,,,,,,,,,,,,,,,,,,,,,,,,,,,,,,,,,1,1.1346018000040203,413.35545929998625,None,ScrollDown,정답입니다,413.35545929998625,None,413.35545929998625,None,413.35545929998625,None,413.35545929998625,None,414.3806275999814,None,414.3806275999814,414.8925132000004,,,,,,,,,,,,,,,,115,2022-05-05_09h21.13.743,FishGame,2022.1.1,59.88224754759778,
,7,넌 미숙해,4,Green,B,3,3,ScrollUp,ScrollDown,Green.png,3,Negative,Congruent,0,0,0,0,,,,,,,,,,,,,,,,,,,,,0,6,6,6,,,,,,,,,,,,,,,,,,,,,,,,,,,,,,,,,,,,,,,,,,,,,,,,,,,,,,,,,,,,,,,,,,,,,,,,,,,,,2,1.1719056000001729,415.5310211000033,None,ScrollUp,정답입니다,415.5310211000033,None,415.5310211000033,None,415.5310211000033,None,415.5310211000033,None,416.59088209999027,None,416.59088209999027,417.09289090000675,,,,,,,,,,,,,,,,115,2022-05-05_09h21.13.743,FishGame,2022.1.1,59.88224754759778,
,8,나를 보내줘,6,Orange,A,0,0,ScrollUp,ScrollDown,Orange.png,3,NonTarget,NonTarget,0,0,0,0,,,,,,,,,,,,,,,,,,,,,0,7,7,7,,,,,,,,,,,,,,,,,,,,,,,,,,,,,,,,,,,,,,,,,,,,,,,,,,,,,,,,,,,,,,,,,,,,,,,,,,,,,2,1.2011548999871593,417.7317949999997,None,ScrollUp,정답입니다,417.7317949999997,None,417.7317949999997,None,417.7317949999997,None,417.7317949999997,None,418.81420130000333,None,418.81420130000333,419.3261921000085,,,,,,,,,,,,,,,,115,2022-05-05_09h21.13.743,FishGame,2022.1.1,59.88224754759778,
,9,넌 자신만만해,3,Green,B,4.833333333333334,4.333333333333333,ScrollUp,ScrollDown,Green.png,3,Neutral,Neutral,0,0,0,0,,,,,,,,,,,,,,,,,,,,,0,8,8,8,,,,,,,,,,,,,,,,,,,,,,,,,,,,,,,,,,,,,,,,,,,,,,,,,,,,,,,,,,,,,,,,,,,,,,,,,,,,,2,1.1558946000004653,419.9568873999815,None,ScrollUp,정답입니다,419.9568873999815,None,419.9568873999815,None,419.9568873999815,None,419.9568873999815,None,421.0077433999977,None,421.0077433999977,421.5094611000095,,,,,,,,,,,,,,,,115,2022-05-05_09h21.13.743,FishGame,2022.1.1,59.88224754759778,
,10,넌 탐욕스러워,5,Orange,A,2.25,2.1,ScrollDown,ScrollUp,Orange.png,3,Negative,Incongruent,0,0,0,0,,,,,,,,,,,,,,,,,,,,,0,9,9,9,,,,,,,,,,,,,,,,,,,,,,,,,,,,,,,,,,,,,,,,,,,,,,,,,,,,,,,,,,,,,,,,,,,,,,,,,,,,,1,1.080125299980864,422.15282920000027,None,ScrollDown,정답입니다,422.15282920000027,None,422.15282920000027,None,422.15282920000027,None,422.15282920000027,None,423.10919170000125,None,423.10919170000125,423.609352200001,,,,,,,,,,,,,,,,115,2022-05-05_09h21.13.743,FishGame,2022.1.1,59.88224754759778,
,11,넌 인기있어,2,Orange,A,5.458333333333333,4.5,ScrollDown,ScrollUp,Orange.png,3,Positive,Congruent,0,0,0,0,,,,,,,,,,,,,,,,,,,,,0,10,10,10,,,,,,,,,,,,,,,,,,,,,,,,,,,,,,,,,,,,,,,,,,,,,,,,,,,,,,,,,,,,,,,,,,,,,,,,,,,,,1,0.9581119999929797,424.2451319999818,None,ScrollDown,정답입니다,424.2451319999818,None,424.2451319999818,None,424.2451319999818,None,424.2451319999818,None,425.09251499999664,None,425.09251499999664,425.5927907000005,,,,,,,,,,,,,,,,115,2022-05-05_09h21.13.743,FishGame,2022.1.1,59.88224754759778,
,12,나를 데려가줘,6,Green,B,0,0,ScrollDown,ScrollUp,Green.png,3,NonTarget,NonTarget,0,0,0,0,,,,,,,,,,,,,,,,,,,,,0,11,11,11,,,,,,,,,,,,,,,,,,,,,,,,,,,,,,,,,,,,,,,,,,,,,,,,,,,,,,,,,,,,,,,,,,,,,,,,,,,,,1,1.2185681999835651,426.2246721999836,None,ScrollDown,정답입니다,426.2246721999836,None,426.2246721999836,None,426.2246721999836,None,426.2246721999836,None,427.34112480000476,None,427.34112480000476,427.8432448999956,,,,,,,,,,,,,,,,115,2022-05-05_09h21.13.743,FishGame,2022.1.1,59.88224754759778,
,13,넌 뛰어나,2,Green,B,6.166666666666667,4,ScrollUp,ScrollDown,Green.png,3,Positive,Incongruent,0,0,0,0,,,,,,,,,,,,,,,,,,,,,0,12,12,12,,,,,,,,,,,,,,,,,,,,,,,,,,,,,,,,,,,,,,,,,,,,,,,,,,,,,,,,,,,,,,,,,,,,,,,,,,,,,2,1.14809149998473,428.47733490000246,None,ScrollUp,정답입니다,428.47733490000246,None,428.47733490000246,None,428.47733490000246,None,428.47733490000246,None,429.51444999998785,None,429.51444999998785,430.02661969998735,,,,,,,,,,,,,,,,115,2022-05-05_09h21.13.743,FishGame,2022.1.1,59.88224754759778,
,14,넌 낙관적이야,1,Orange,A,5.75,5.8,ScrollDown,ScrollUp,Orange.png,3,Positive,Congruent,0,0,0,0,,,,,,,,,,,,,,,,,,,,,0,13,13,13,,,,,,,,,,,,,,,,,,,,,,,,,,,,,,,,,,,,,,,,,,,,,,,,,,,,,,,,,,,,,,,,,,,,,,,,,,,,,1,1.0502698000054806,430.66543259998434,None,ScrollDown,정답입니다,430.66543259998434,None,430.66543259998434,None,430.66543259998434,None,430.66543259998434,None,431.5976013999898,None,431.5976013999898,432.110011199984,,,,,,,,,,,,,,,,115,2022-05-05_09h21.13.743,FishGame,2022.1.1,59.88224754759778,
,15,넌 산만해,4,Green,B,2.695652173913043,3.033333333333333,ScrollUp,ScrollDown,Green.png,3,Negative,Congruent,0,0,0,0,,,,,,,,,,,,,,,,,,,,,0,14,14,14,,,,,,,,,,,,,,,,,,,,,,,,,,,,,,,,,,,,,,,,,,,,,,,,,,,,,,,,,,,,,,,,,,,,,,,,,,,,,2,1.135057899984531,432.74476659999345,None,ScrollUp,정답입니다,432.74476659999345,None,432.74476659999345,None,432.74476659999345,None,432.74476659999345,None,433.7650502999895,None,433.7650502999895,434.27661239999,,,,,,,,,,,,,,,,115,2022-05-05_09h21.13.743,FishGame,2022.1.1,59.88224754759778,
,16,나를 보내줘,6,Orange,A,0,0,ScrollUp,ScrollDown,Orange.png,3,NonTarget,NonTarget,0,0,0,0,,,,,,,,,,,,,,,,,,,,,0,15,15,15,,,,,,,,,,,,,,,,,,,,,,,,,,,,,,,,,,,,,,,,,,,,,,,,,,,,,,,,,,,,,,,,,,,,,,,,,,,,,2,1.2689982000156306,434.91002109998954,None,ScrollUp,정답입니다,434.91002109998954,None,434.91002109998954,None,434.91002109998954,None,434.91002109998954,None,436.0649351000029,None,436.0649351000029,436.57701799998176,,,,,,,,,,,,,,,,115,2022-05-05_09h21.13.743,FishGame,2022.1.1,59.88224754759778,
,17,넌 교활해,5,Green,B,2.333333333333333,2.133333333333333,ScrollUp,ScrollDown,Green.png,3,Negative,Congruent,0,0,0,0,,,,,,,,,,,,,,,,,,,,,0,16,16,16,,,,,,,,,,,,,,,,,,,,,,,,,,,,,,,,,,,,,,,,,,,,,,,,,,,,,,,,,,,,,,,,,,,,,,,,,,,,,2,1.3616945999965537,437.2090354000102,None,ScrollUp,정답입니다,437.2090354000102,None,437.2090354000102,None,437.2090354000102,None,437.2090354000102,None,438.4598081999866,None,438.4598081999866,438.9597737999866,,,,,,,,,,,,,,,,115,2022-05-05_09h21.13.743,FishGame,2022.1.1,59.88224754759778,
,18,나를 보내줘,6,Orange,A,0,0,ScrollUp,ScrollDown,Orange.png,3,NonTarget,NonTarget,0,0,0,0,,,,,,,,,,,,,,,,,,,,,0,17,17,17,,,,,,,,,,,,,,,,,,,,,,,,,,,,,,,,,,,,,,,,,,,,,,,,,,,,,,,,,,,,,,,,,,,,,,,,,,,,,2,1.2661696999857668,439.59879530000035,None,ScrollUp,정답입니다,439.59879530000035,None,439.59879530000035,None,439.59879530000035,None,439.59879530000035,None,440.74850630000583,None,440.74850630000583,441.2598295999924,,,,,,,,,,,,,,,,115,2022-05-05_09h21.13.743,FishGame,2022.1.1,59.88224754759778,
,19,넌 불친절해,5,Green,B,2.208333333333333,2.033333333333333,ScrollUp,ScrollDown,Green.png,3,Negative,Congruent,0,0,0,0,,,,,,,,,,,,,,,,,,,,,0,18,18,18,,,,,,,,,,,,,,,,,,,,,,,,,,,,,,,,,,,,,,,,,,,,,,,,,,,,,,,,,,,,,,,,,,,,,,,,,,,,,2,1.1233252999954857,441.8949076999852,None,ScrollUp,정답입니다,441.8949076999852,None,441.8949076999852,None,441.8949076999852,None,441.8949076999852,None,442.90834480000194,None,442.90834480000194,443.41029919998255,,,,,,,,,,,,,,,,115,2022-05-05_09h21.13.743,FishGame,2022.1.1,59.88224754759778,
,20,넌 지적이야,2,Green,B,5.75,4.366666666666666,ScrollUp,ScrollDown,Green.png,3,Positive,Incongruent,0,0,0,0,,,,,,,,,,,,,,,,,,,,,0,19,19,19,,,,,,,,,,,,,,,,,,,,,,,,,,,,,,,,,,,,,,,,,,,,,,,,,,,,,,,,,,,,,,,,,,,,,,,,,,,,,2,1.0914879000047222,444.04439110000385,None,ScrollUp,정답입니다,444.04439110000385,None,444.04439110000385,None,444.04439110000385,None,444.04439110000385,None,445.0250446999853,None,445.0250446999853,445.52691260000574,,,,,,,,,,,,,,,,115,2022-05-05_09h21.13.743,FishGame,2022.1.1,59.88224754759778,
,21,넌 우유부단해,4,Orange,A,2.666666666666667,3.166666666666667,ScrollDown,ScrollUp,Orange.png,3,Negative,Incongruent,0,0,0,0,,,,,,,,,,,,,,,,,,,,,0,20,20,20,,,,,,,,,,,,,,,,,,,,,,,,,,,,,,,,,,,,,,,,,,,,,,,,,,,,,,,,,,,,,,,,,,,,,,,,,,,,,1,1.0302980999986175,446.1693249999953,None,ScrollDown,정답입니다,446.1693249999953,None,446.1693249999953,None,446.1693249999953,None,446.1693249999953,None,447.07894760000636,None,447.07894760000636,447.59385360000306,,,,,,,,,,,,,,,,115,2022-05-05_09h21.13.743,FishGame,2022.1.1,59.88224754759778,
,22,나를 데려가줘,6,Green,B,0,0,ScrollDown,ScrollUp,Green.png,3,NonTarget,NonTarget,0,0,0,0,,,,,,,,,,,,,,,,,,,,,0,21,21,21,,,,,,,,,,,,,,,,,,,,,,,,,,,,,,,,,,,,,,,,,,,,,,,,,,,,,,,,,,,,,,,,,,,,,,,,,,,,,1,1.157107700011693,448.2260641999892,None,ScrollDown,정답입니다,448.2260641999892,None,448.2260641999892,None,448.2260641999892,None,448.2260641999892,None,449.2768322000047,None,449.2768322000047,449.7767429999949,,,,,,,,,,,,,,,,115,2022-05-05_09h21.13.743,FishGame,2022.1.1,59.88224754759778,
,23,넌 성실해,1,Green,B,6.041666666666666,5.7,ScrollUp,ScrollDown,Green.png,3,Positive,Incongruent,0,0,0,0,,,,,,,,,,,,,,,,,,,,,0,22,22,22,,,,,,,,,,,,,,,,,,,,,,,,,,,,,,,,,,,,,,,,,,,,,,,,,,,,,,,,,,,,,,,,,,,,,,,,,,,,,2,1.0905285000044387,450.4067056000058,None,ScrollUp,정답입니다,450.4067056000058,None,450.4067056000058,None,450.4067056000058,None,450.4067056000058,None,451.3919188999862,None,451.3919188999862,451.8936592999962,,,,,,,,,,,,,,,,115,2022-05-05_09h21.13.743,FishGame,2022.1.1,59.88224754759778,
,24,넌 현실주의적이야,3,Orange,A,4.625,4.4,ScrollDown,ScrollUp,Orange.png,3,Neutral,Neutral,0,0,0,0,,,,,,,,,,,,,,,,,,,,,0,23,23,23,,,,,,,,,,,,,,,,,,,,,,,,,,,,,,,,,,,,,,,,,,,,,,,,,,,,,,,,,,,,,,,,,,,,,,,,,,,,,1,1.0382666000223253,452.537657399982,None,ScrollDown,정답입니다,452.537657399982,None,452.537657399982,None,452.537657399982,None,452.537657399982,None,453.4587331000075,None,453.4587331000075,453.960310399998,,,,,,,,,,,,,,,,115,2022-05-05_09h21.13.743,FishGame,2022.1.1,59.88224754759778,
,25,넌 진실돼,1,Orange,A,6.625,5.566666666666666,ScrollDown,ScrollUp,Orange.png,3,Positive,Congruent,0,0,0,0,,,,,,,,,,,,,,,,,,,,,0,24,24,24,,,,,,,,,,,,,,,,,,,,,,,,,,,,,,,,,,,,,,,,,,,,,,,,,,,,,,,,,,,,,,,,,,,,,,,,,,,,,1,1.0412078000081237,454.6053683999926,None,ScrollDown,정답입니다,454.6053683999926,None,454.6053683999926,None,454.6053683999926,None,454.6053683999926,None,455.5269010000047,None,455.5269010000047,456.0270564999955,,,,,,,,,,,,,,,,115,2022-05-05_09h21.13.743,FishGame,2022.1.1,59.88224754759778,
,26,넌 천진난만해,3,Green,B,4.958333333333334,4.833333333333333,ScrollUp,ScrollDown,Green.png,3,Neutral,Neutral,0,0,0,0,,,,,,,,,,,,,,,,,,,,,0,25,25,25,,,,,,,,,,,,,,,,,,,,,,,,,,,,,,,,,,,,,,,,,,,,,,,,,,,,,,,,,,,,,,,,,,,,,,,,,,,,,2,1.1061437000171281,456.6652755999821,None,ScrollUp,정답입니다,456.6652755999821,None,456.6652755999821,None,456.6652755999821,None,456.6652755999821,None,457.65810780000174,None,457.65810780000174,458.1602981000033,,,,,,,,,,,,,,,,115,2022-05-05_09h21.13.743,FishGame,2022.1.1,59.88224754759778,
,27,넌 교양없어,5,Orange,A,2.416666666666667,2.2,ScrollDown,ScrollUp,Orange.png,3,Negative,Incongruent,0,0,0,0,,,,,,,,,,,,,,,,,,,,,0,26,26,26,,,,,,,,,,,,,,,,,,,,,,,,,,,,,,,,,,,,,,,,,,,,,,,,,,,,,,,,,,,,,,,,,,,,,,,,,,,,,1,1.6059439000091515,458.80948259998695,None,ScrollDown,정답입니다,458.80948259998695,None,458.80948259998695,None,458.80948259998695,None,458.80948259998695,None,460.2940525999875,None,460.2940525999875,460.7942422000051,,,,,,,,,,,,,,,,115,2022-05-05_09h21.13.743,FishGame,2022.1.1,59.88224754759778,
,28,나를 보내줘,6,Orange,A,0,0,ScrollUp,ScrollDown,Orange.png,3,NonTarget,NonTarget,0,0,0,0,,,,,,,,,,,,,,,,,,,,,0,27,27,27,,,,,,,,,,,,,,,,,,,,,,,,,,,,,,,,,,,,,,,,,,,,,,,,,,,,,,,,,,,,,,,,,,,,,,,,,,,,,2,1.2276640000054613,461.4287995999912,None,ScrollUp,정답입니다,461.4287995999912,None,461.4287995999912,None,461.4287995999912,None,461.4287995999912,None,462.54370189999463,None,462.54370189999463,463.04436450000503,,,,,,,,,,,,,,,,115,2022-05-05_09h21.13.743,FishGame,2022.1.1,59.88224754759778,
,29,넌 엉뚱스러워,3,Orange,A,4.166666666666667,4.133333333333334,ScrollDown,ScrollUp,Orange.png,3,Neutral,Neutral,0,0,0,0,,,,,,,,,,,,,,,,,,,,,0,28,28,28,,,,,,,,,,,,,,,,,,,,,,,,,,,,,,,,,,,,,,,,,,,,,,,,,,,,,,,,,,,,,,,,,,,,,,,,,,,,,1,1.1716989999986254,463.68597749999026,None,ScrollDown,정답입니다,463.68597749999026,None,463.68597749999026,None,463.68597749999026,None,463.68597749999026,None,464.7421187,None,464.7421187,465.2441785999981,,,,,,,,,,,,,,,,115,2022-05-05_09h21.13.743,FishGame,2022.1.1,59.88224754759778,
,30,넌 무지해,4,Green,B,2.541666666666667,3.066666666666667,ScrollUp,ScrollDown,Green.png,3,Negative,Congruent,0,0,0,0,,,,,,,,,,,,,,,,,,,,,0,29,29,29,,,,,,,,,,,,,,,,,,,,,,,,,,,,,,,,,,,,,,,,,,,,,,,,,,,,,,,,,,,,,,,,,,,,,,,,,,,,,2,1.080517399997916,465.87376319998293,None,ScrollUp,정답입니다,465.87376319998293,None,465.87376319998293,None,465.87376319998293,None,465.87376319998293,None,466.84562429998186,None,466.84562429998186,467.36107469999115,,,,,,,,,,,,,,,,115,2022-05-05_09h21.13.743,FishGame,2022.1.1,59.88224754759778,
,31,넌 음울해,5,Green,B,2.25,2.233333333333333,ScrollUp,ScrollDown,Green.png,3,Negative,Congruent,0,0,0,0,,,,,,,,,,,,,,,,,,,,,0,30,30,30,,,,,,,,,,,,,,,,,,,,,,,,,,,,,,,,,,,,,,,,,,,,,,,,,,,,,,,,,,,,,,,,,,,,,,,,,,,,,2,1.135244299977785,467.99806379998336,None,ScrollUp,정답입니다,467.99806379998336,None,467.99806379998336,None,467.99806379998336,None,467.99806379998336,None,469.01544479999575,None,469.01544479999575,469.5272322999954,,,,,,,,,,,,,,,,115,2022-05-05_09h21.13.743,FishGame,2022.1.1,59.88224754759778,
,32,넌 냉소적이야,5,Orange,A,2.916666666666667,2.4,ScrollDown,ScrollUp,Orange.png,3,Negative,Incongruent,0,0,0,0,,,,,,,,,,,,,,,,,,,,,0,31,31,31,,,,,,,,,,,,,,,,,,,,,,,,,,,,,,,,,,,,,,,,,,,,,,,,,,,,,,,,,,,,,,,,,,,,,,,,,,,,,1,1.0130404999945313,470.1605236000032,None,ScrollDown,정답입니다,470.1605236000032,None,470.1605236000032,None,470.1605236000032,None,470.1605236000032,None,471.0605150999909,None,471.0605150999909,471.5605125000002,,,,,,,,,,,,,,,,115,2022-05-05_09h21.13.743,FishGame,2022.1.1,59.88224754759778,
,33,나를 데려가줘,6,Green,B,0,0,ScrollDown,ScrollUp,Green.png,3,NonTarget,NonTarget,0,0,0,0,,,,,,,,,,,,,,,,,,,,,0,32,32,32,,,,,,,,,,,,,,,,,,,,,,,,,,,,,,,,,,,,,,,,,,,,,,,,,,,,,,,,,,,,,,,,,,,,,,,,,,,,,1,1.0322653999901377,472.19365209998796,None,ScrollDown,정답입니다,472.19365209998796,None,472.19365209998796,None,472.19365209998796,None,472.19365209998796,None,473.115406500001,None,473.115406500001,473.62718690000474,,,,,,,,,,,,,,,,115,2022-05-05_09h21.13.743,FishGame,2022.1.1,59.88224754759778,
,34,넌 쾌활해,1,Orange,A,5.541666666666666,5.733333333333333,ScrollDown,ScrollUp,Orange.png,3,Positive,Congruent,0,0,0,0,,,,,,,,,,,,,,,,,,,,,0,33,33,33,,,,,,,,,,,,,,,,,,,,,,,,,,,,,,,,,,,,,,,,,,,,,,,,,,,,,,,,,,,,,,,,,,,,,,,,,,,,,1,1.0572757000045385,474.270142399997,None,ScrollDown,정답입니다,474.270142399997,None,474.270142399997,None,474.270142399997,None,474.270142399997,None,475.2105169999995,None,475.2105169999995,475.7107849000022,,,,,,,,,,,,,,,,115,2022-05-05_09h21.13.743,FishGame,2022.1.1,59.88224754759778,
,35,나를 보내줘,6,Orange,A,0,0,ScrollUp,ScrollDown,Orange.png,3,NonTarget,NonTarget,0,0,0,0,,,,,,,,,,,,,,,,,,,,,0,34,34,34,,,,,,,,,,,,,,,,,,,,,,,,,,,,,,,,,,,,,,,,,,,,,,,,,,,,,,,,,,,,,,,,,,,,,,,,,,,,,2,1.045042999990983,476.34722530000727,None,ScrollUp,정답입니다,476.34722530000727,None,476.34722530000727,None,476.34722530000727,None,476.34722530000727,None,477.27758989998256,None,477.27758989998256,477.7776587999833,,,,,,,,,,,,,,,,115,2022-05-05_09h21.13.743,FishGame,2022.1.1,59.88224754759778,
,36,넌 명랑해,1,Green,B,5.739130434782609,5.666666666666667,ScrollUp,ScrollDown,Green.png,3,Positive,Incongruent,0,0,0,0,,,,,,,,,,,,,,,,,,,,,0,35,35,35,,,,,,,,,,,,,,,,,,,,,,,,,,,,,,,,,,,,,,,,,,,,,,,,,,,,,,,,,,,,,,,,,,,,,,,,,,,,,2,1.130549900000915,478.41031629999634,None,ScrollUp,정답입니다,478.41031629999634,None,478.41031629999634,None,478.41031629999634,None,478.41031629999634,None,479.4321443999943,None,479.4321443999943,479.94454369999585,,,,,,,,,,,,,,,,115,2022-05-05_09h21.13.743,FishGame,2022.1.1,59.88224754759778,
,37,넌 멍해,4,Orange,A,2.833333333333333,3.4,ScrollDown,ScrollUp,Orange.png,3,Negative,Incongruent,0,0,0,0,,,,,,,,,,,,,,,,,,,,,0,36,36,36,,,,,,,,,,,,,,,,,,,,,,,,,,,,,,,,,,,,,,,,,,,,,,,,,,,,,,,,,,,,,,,,,,,,,,,,,,,,,1,1.0363318999879993,480.5875135999813,None,ScrollDown,정답입니다,480.5875135999813,None,480.5875135999813,None,480.5875135999813,None,480.5875135999813,None,481.50889540000935,None,481.50889540000935,482.01059389999136,,,,,,,,,,,,,,,,115,2022-05-05_09h21.13.743,FishGame,2022.1.1,59.88224754759778,
,38,나를 데려가줘,6,Green,B,0,0,ScrollDown,ScrollUp,Green.png,3,NonTarget,NonTarget,0,0,0,0,,,,,,,,,,,,,,,,,,,,,0,37,37,37,,,,,,,,,,,,,,,,,,,,,,,,,,,,,,,,,,,,,,,,,,,,,,,,,,,,,,,,,,,,,,,,,,,,,,,,,,,,,1,1.1278279999969527,482.6404275999812,None,ScrollDown,정답입니다,482.6404275999812,None,482.6404275999812,None,482.6404275999812,None,482.6404275999812,None,483.6608040999854,None,483.6608040999854,484.1606671999907,,,,,,,,,,,,,,,,115,2022-05-05_09h21.13.743,FishGame,2022.1.1,59.88224754759778,
,39,넌 현명해,2,Orange,A,6.541666666666666,4.533333333333333,ScrollDown,ScrollUp,Orange.png,3,Positive,Congruent,0,0,0,0,,,,,,,,,,,,,,,,,,,,,0,38,38,38,,,,,,,,,,,,,,,,,,,,,,,,,,,,,,,,,,,,,,,,,,,,,,,,,,,,,,,,,,,,,,,,,,,,,,,,,,,,,1,1.0856684999889694,484.7993478999997,None,ScrollDown,정답입니다,484.7993478999997,None,484.7993478999997,None,484.7993478999997,None,484.7993478999997,None,485.7654379000014,None,485.7654379000014,486.27753560000565,,,,,,,,,,,,,,,,115,2022-05-05_09h21.13.743,FishGame,2022.1.1,59.88224754759778,
,40,넌 수줍어,3,Green,B,3.541666666666666,4.366666666666666,ScrollUp,ScrollDown,Green.png,3,Neutral,Neutral,0,0,0,0,,,,,,,,,,,,,,,,,,,,,0,39,39,39,,,,,,,,,,,,,,,,,,,,,,,,,,,,,,,,,,,,,,,,,,,,,,,,,,,,,,,,,,,,,,,,,,,,,,,,,,,,,2,1.2156370999873616,486.9093129999819,None,ScrollUp,정답입니다,486.9093129999819,None,486.9093129999819,None,486.9093129999819,None,486.9093129999819,None,488.01491389999865,None,488.01491389999865,488.5276991999999,,,,,,,,,,,,,,,,115,2022-05-05_09h21.13.743,FishGame,2022.1.1,59.88224754759778,
,41,나를 데려가줘,6,Green,B,0,0,ScrollDown,ScrollUp,Green.png,3,NonTarget,NonTarget,0,0,0,0,,,,,,,,,,,,,,,,,,,,,0,40,40,40,,,,,,,,,,,,,,,,,,,,,,,,,,,,,,,,,,,,,,,,,,,,,,,,,,,,,,,,,,,,,,,,,,,,,,,,,,,,,1,1.1351402000000235,489.16263449998223,None,ScrollDown,정답입니다,489.16263449998223,None,489.16263449998223,None,489.16263449998223,None,489.16263449998223,None,490.1831233999983,None,490.1831233999983,490.6944480999955,,,,,,,,,,,,,,,,115,2022-05-05_09h21.13.743,FishGame,2022.1.1,59.88224754759778,
,42,넌 성숙해,2,Green,B,5.833333333333333,4.533333333333333,ScrollUp,ScrollDown,Green.png,3,Positive,Incongruent,0,0,0,0,,,,,,,,,,,,,,,,,,,,,0,41,41,41,,,,,,,,,,,,,,,,,,,,,,,,,,,,,,,,,,,,,,,,,,,,,,,,,,,,,,,,,,,,,,,,,,,,,,,,,,,,,2,1.0430854000151157,491.32090099999914,None,ScrollUp,정답입니다,491.32090099999914,None,491.32090099999914,None,491.32090099999914,None,491.32090099999914,None,492.2613308999862,None,492.2613308999862,492.76149279999663,,,,,,,,,,,,,,,,115,2022-05-05_09h21.13.743,FishGame,2022.1.1,59.88224754759778,
,1,넌 매력적이야,2,Green,B,6.125,4.666666666666667,ScrollUp,ScrollDown,Green.png,4,Positive,Incongruent,0,0,0,0,,,,,,,,,,,,,,,,,,,,,,,,,0,0,0,0,,,,,,,,,,,,,,,,,,,,,,,,,,,,,,,,525.0456302000093,526.5455567000026,526.5786883999826,527.5290290999983,527.5783632000093,528.5288208999846,528.5288208999846,None,,,,,,,,,,,,,,,,,,,,,,,,,,,,,,,,,,2,1.197859400010202,529.6925314999826,None,ScrollUp,정답입니다,529.6925314999826,None,529.6925314999826,None,529.6925314999826,None,529.6925314999826,None,530.7164859999903,None,530.7164859999903,531.228345999989,493.2615363000077,None,493.2615363000077,None,-0.12222222,-0.09259259,1,0,0,0.01593234998290427,None,523.2623342000006,None,,,115,2022-05-05_09h21.13.743,FishGame,2022.1.1,59.88224754759778,
,2,나를 보내줘,6,Orange,A,0,0,ScrollUp,ScrollDown,Orange.png,4,NonTarget,NonTarget,0,0,0,0,,,,,,,,,,,,,,,,,,,,,,,,,0,1,1,1,,,,,,,,,,,,,,,,,,,,,,,,,,,,,,,,,,,,,,,,,,,,,,,,,,,,,,,,,,,,,,,,,,,,,,,,,2,1.0524912000109907,531.8601462999941,None,ScrollUp,정답입니다,531.8601462999941,None,531.8601462999941,None,531.8601462999941,None,531.8601462999941,None,532.799817799998,None,532.799817799998,533.3124186999921,,,,,,,,,,,,,,,,115,2022-05-05_09h21.13.743,FishGame,2022.1.1,59.88224754759778,
,3,넌 조심스러워,3,Orange,A,4.791666666666666,4.666666666666667,ScrollDown,ScrollUp,Orange.png,4,Neutral,Neutral,0,0,0,0,,,,,,,,,,,,,,,,,,,,,,,,,0,2,2,2,,,,,,,,,,,,,,,,,,,,,,,,,,,,,,,,,,,,,,,,,,,,,,,,,,,,,,,,,,,,,,,,,,,,,,,,,1,1.0582727000000887,533.9446939000045,None,ScrollDown,정답입니다,533.9446939000045,None,533.9446939000045,None,533.9446939000045,None,533.9446939000045,None,534.8949430999928,None,534.8949430999928,535.3951447999862,,,,,,,,,,,,,,,,115,2022-05-05_09h21.13.743,FishGame,2022.1.1,59.88224754759778,
,4,넌 철학적이야,3,Green,B,4.5,4.266666666666667,ScrollUp,ScrollDown,Green.png,4,Neutral,Neutral,0,0,0,0,,,,,,,,,,,,,,,,,,,,,,,,,0,3,3,3,,,,,,,,,,,,,,,,,,,,,,,,,,,,,,,,,,,,,,,,,,,,,,,,,,,,,,,,,,,,,,,,,,,,,,,,,2,1.1175351999991108,536.0360962999985,None,ScrollUp,정답입니다,536.0360962999985,None,536.0360962999985,None,536.0360962999985,None,536.0360962999985,None,537.0438130999974,None,537.0438130999974,537.5457919999899,,,,,,,,,,,,,,,,115,2022-05-05_09h21.13.743,FishGame,2022.1.1,59.88224754759778,
,5,넌 쩨쩨해,5,Orange,A,2.375,2.133333333333333,ScrollDown,ScrollUp,Orange.png,4,Negative,Incongruent,0,0,0,0,,,,,,,,,,,,,,,,,,,,,,,,,0,4,4,4,,,,,,,,,,,,,,,,,,,,,,,,,,,,,,,,,,,,,,,,,,,,,,,,,,,,,,,,,,,,,,,,,,,,,,,,,1,1.134053199988557,538.186269400001,None,ScrollDown,정답입니다,538.186269400001,None,538.186269400001,None,538.186269400001,None,538.186269400001,None,539.2002588000032,None,539.2002588000032,539.712589200004,,,,,,,,,,,,,,,,115,2022-05-05_09h21.13.743,FishGame,2022.1.1,59.88224754759778,
,6,나를 데려가줘,6,Green,B,0,0,ScrollDown,ScrollUp,Green.png,4,NonTarget,NonTarget,0,0,0,0,,,,,,,,,,,,,,,,,,,,,,,,,0,5,5,5,,,,,,,,,,,,,,,,,,,,,,,,,,,,,,,,,,,,,,,,,,,,,,,,,,,,,,,,,,,,,,,,,,,,,,,,,1,1.0226710000133608,540.3434844999865,None,ScrollDown,정답입니다,540.3434844999865,None,540.3434844999865,None,540.3434844999865,None,540.3434844999865,None,541.260251300002,None,541.260251300002,541.7625031000061,,,,,,,,,,,,,,,,115,2022-05-05_09h21.13.743,FishGame,2022.1.1,59.88224754759778,
,7,넌 고집불통이야,5,Green,B,2.875,2,ScrollUp,ScrollDown,Green.png,4,Negative,Congruent,0,0,0,0,,,,,,,,,,,,,,,,,,,,,,,,,0,6,6,6,,,,,,,,,,,,,,,,,,,,,,,,,,,,,,,,,,,,,,,,,,,,,,,,,,,,,,,,,,,,,,,,,,,,,,,,,2,0.9365242999920156,542.3972835000022,None,ScrollUp,정답입니다,542.3972835000022,None,542.3972835000022,None,542.3972835000022,None,542.3972835000022,None,543.2270117999869,None,543.2270117999869,543.728992599994,,,,,,,,,,,,,,,,115,2022-05-05_09h21.13.743,FishGame,2022.1.1,59.88224754759778,
,8,넌 무심해,4,Orange,A,2.875,3.2,ScrollDown,ScrollUp,Orange.png,4,Negative,Incongruent,0,0,0,0,,,,,,,,,,,,,,,,,,,,,,,,,0,7,7,7,,,,,,,,,,,,,,,,,,,,,,,,,,,,,,,,,,,,,,,,,,,,,,,,,,,,,,,,,,,,,,,,,,,,,,,,,1,1.1523474999994505,544.3655748000019,None,ScrollDown,정답입니다,544.3655748000019,None,544.3655748000019,None,544.3655748000019,None,544.3655748000019,None,545.4010221000062,None,545.4010221000062,545.9126131999947,,,,,,,,,,,,,,,,115,2022-05-05_09h21.13.743,FishGame,2022.1.1,59.88224754759778,
,9,넌 정겨워,1,Orange,A,5.791666666666667,5.666666666666667,ScrollDown,ScrollUp,Orange.png,4,Positive,Congruent,0,0,0,0,,,,,,,,,,,,,,,,,,,,,,,,,0,8,8,8,,,,,,,,,,,,,,,,,,,,,,,,,,,,,,,,,,,,,,,,,,,,,,,,,,,,,,,,,,,,,,,,,,,,,,,,,1,1.0598570000147447,546.5654524999845,None,ScrollDown,정답입니다,546.5654524999845,None,546.5654524999845,None,546.5654524999845,None,546.5654524999845,None,547.4954159999907,None,547.4954159999907,547.9957646999974,,,,,,,,,,,,,,,,115,2022-05-05_09h21.13.743,FishGame,2022.1.1,59.88224754759778,
,10,나를 데려가줘,6,Green,B,0,0,ScrollDown,ScrollUp,Green.png,4,NonTarget,NonTarget,0,0,0,0,,,,,,,,,,,,,,,,,,,,,,,,,0,9,9,9,,,,,,,,,,,,,,,,,,,,,,,,,,,,,,,,,,,,,,,,,,,,,,,,,,,,,,,,,,,,,,,,,,,,,,,,,1,1.019192599982489,548.6265989000094,None,ScrollDown,정답입니다,548.6265989000094,None,548.6265989000094,None,548.6265989000094,None,548.6265989000094,None,549.5441616000026,None,549.5441616000026,550.0454440999893,,,,,,,,,,,,,,,,115,2022-05-05_09h21.13.743,FishGame,2022.1.1,59.88224754759778,
,11,넌 체제순응적이야,4,Green,B,3,3.6,ScrollUp,ScrollDown,Green.png,4,Negative,Congruent,0,0,0,0,,,,,,,,,,,,,,,,,,,,,,,,,0,10,10,10,,,,,,,,,,,,,,,,,,,,,,,,,,,,,,,,,,,,,,,,,,,,,,,,,,,,,,,,,,,,,,,,,,,,,,,,,2,1.119177699991269,550.6892821000074,None,ScrollUp,정답입니다,550.6892821000074,None,550.6892821000074,None,550.6892821000074,None,550.6892821000074,None,551.683790399984,None,551.683790399984,552.1957457999815,,,,,,,,,,,,,,,,115,2022-05-05_09h21.13.743,FishGame,2022.1.1,59.88224754759778,
,12,나를 보내줘,6,Orange,A,0,0,ScrollUp,ScrollDown,Orange.png,4,NonTarget,NonTarget,0,0,0,0,,,,,,,,,,,,,,,,,,,,,,,,,0,11,11,11,,,,,,,,,,,,,,,,,,,,,,,,,,,,,,,,,,,,,,,,,,,,,,,,,,,,,,,,,,,,,,,,,,,,,,,,,2,1.207483600010164,552.8292527000012,None,ScrollUp,정답입니다,552.8292527000012,None,552.8292527000012,None,552.8292527000012,None,552.8292527000012,None,553.9274625999969,None,553.9274625999969,554.4294463999977,,,,,,,,,,,,,,,,115,2022-05-05_09h21.13.743,FishGame,2022.1.1,59.88224754759778,
,13,넌 박식해,2,Orange,A,5.625,3.933333333333333,ScrollDown,ScrollUp,Orange.png,4,Positive,Congruent,0,0,0,0,,,,,,,,,,,,,,,,,,,,,,,,,0,12,12,12,,,,,,,,,,,,,,,,,,,,,,,,,,,,,,,,,,,,,,,,,,,,,,,,,,,,,,,,,,,,,,,,,,,,,,,,,1,1.1218438000069,555.0765313000011,None,ScrollDown,정답입니다,555.0765313000011,None,555.0765313000011,None,555.0765313000011,None,555.0765313000011,None,556.0773419000034,None,556.0773419000034,556.5795338999887,,,,,,,,,,,,,,,,115,2022-05-05_09h21.13.743,FishGame,2022.1.1,59.88224754759778,
,14,나를 보내줘,6,Orange,A,0,0,ScrollUp,ScrollDown,Orange.png,4,NonTarget,NonTarget,0,0,0,0,,,,,,,,,,,,,,,,,,,,,,,,,0,13,13,13,,,,,,,,,,,,,,,,,,,,,,,,,,,,,,,,,,,,,,,,,,,,,,,,,,,,,,,,,,,,,,,,,,,,,,,,,2,1.2059900000167545,557.2131897000072,None,ScrollUp,정답입니다,557.2131897000072,None,557.2131897000072,None,557.2131897000072,None,557.2131897000072,None,558.3127246999939,None,558.3127246999939,558.8131912999961,,,,,,,,,,,,,,,,115,2022-05-05_09h21.13.743,FishGame,2022.1.1,59.88224754759778,
,15,넌 침착해,1,Green,B,5.458333333333333,5.566666666666666,ScrollUp,ScrollDown,Green.png,4,Positive,Incongruent,0,0,0,0,,,,,,,,,,,,,,,,,,,,,,,,,0,14,14,14,,,,,,,,,,,,,,,,,,,,,,,,,,,,,,,,,,,,,,,,,,,,,,,,,,,,,,,,,,,,,,,,,,,,,,,,,2,1.2544168000167701,559.4548691000091,None,ScrollUp,정답입니다,559.4548691000091,None,559.4548691000091,None,559.4548691000091,None,559.4548691000091,None,560.5939902999962,None,560.5939902999962,561.0963574000052,,,,,,,,,,,,,,,,115,2022-05-05_09h21.13.743,FishGame,2022.1.1,59.88224754759778,
,16,나를 데려가줘,6,Green,B,0,0,ScrollDown,ScrollUp,Green.png,4,NonTarget,NonTarget,0,0,0,0,,,,,,,,,,,,,,,,,,,,,,,,,0,15,15,15,,,,,,,,,,,,,,,,,,,,,,,,,,,,,,,,,,,,,,,,,,,,,,,,,,,,,,,,,,,,,,,,,,,,,,,,,1,1.4045060999924317,561.7230413999932,None,ScrollDown,정답입니다,561.7230413999932,None,561.7230413999932,None,561.7230413999932,None,561.7230413999932,None,563.0277249999926,None,563.0277249999926,563.5295353999827,,,,,,,,,,,,,,,,115,2022-05-05_09h21.13.743,FishGame,2022.1.1,59.88224754759778,
,17,넌 행복해,1,Orange,A,6.416666666666666,6.166666666666667,ScrollDown,ScrollUp,Orange.png,4,Positive,Congruent,0,0,0,0,,,,,,,,,,,,,,,,,,,,,,,,,0,16,16,16,,,,,,,,,,,,,,,,,,,,,,,,,,,,,,,,,,,,,,,,,,,,,,,,,,,,,,,,,,,,,,,,,,,,,,,,,1,1.0710228999960236,564.1730913000065,None,ScrollDown,정답입니다,564.1730913000065,None,564.1730913000065,None,564.1730913000065,None,564.1730913000065,None,565.1277301000082,None,565.1277301000082,565.6292361000087,,,,,,,,,,,,,,,,115,2022-05-05_09h21.13.743,FishGame,2022.1.1,59.88224754759778,
,18,넌 겸손해,2,Green,B,5.791666666666667,4.766666666666667,ScrollUp,ScrollDown,Green.png,4,Positive,Incongruent,0,0,0,0,,,,,,,,,,,,,,,,,,,,,,,,,0,17,17,17,,,,,,,,,,,,,,,,,,,,,,,,,,,,,,,,,,,,,,,,,,,,,,,,,,,,,,,,,,,,,,,,,,,,,,,,,2,0.959570300008636,566.2638568999828,None,ScrollUp,정답입니다,566.2638568999828,None,566.2638568999828,None,566.2638568999828,None,566.2638568999828,None,567.112919999985,None,567.112919999985,567.6133532999957,,,,,,,,,,,,,,,,115,2022-05-05_09h21.13.743,FishGame,2022.1.1,59.88224754759778,
,19,나를 보내줘,6,Orange,A,0,0,ScrollUp,ScrollDown,Orange.png,4,NonTarget,NonTarget,0,0,0,0,,,,,,,,,,,,,,,,,,,,,,,,,0,18,18,18,,,,,,,,,,,,,,,,,,,,,,,,,,,,,,,,,,,,,,,,,,,,,,,,,,,,,,,,,,,,,,,,,,,,,,,,,2,1.8379611000127625,568.245708500006,None,ScrollUp,정답입니다,568.245708500006,None,568.245708500006,None,568.245708500006,None,568.245708500006,None,569.9778910999885,None,569.9778910999885,570.4795774999948,,,,,,,,,,,,,,,,115,2022-05-05_09h21.13.743,FishGame,2022.1.1,59.88224754759778,
,20,넌 의심없어,3,Orange,A,4.166666666666667,4.6,ScrollDown,ScrollUp,Orange.png,4,Neutral,Neutral,0,0,0,0,,,,,,,,,,,,,,,,,,,,,,,,,0,19,19,19,,,,,,,,,,,,,,,,,,,,,,,,,,,,,,,,,,,,,,,,,,,,,,,,,,,,,,,,,,,,,,,,,,,,,,,,,1,1.253676299995277,571.1155539999891,None,ScrollDown,정답입니다,571.1155539999891,None,571.1155539999891,None,571.1155539999891,None,571.1155539999891,None,572.2613080999872,None,572.2613080999872,572.763181199989,,,,,,,,,,,,,,,,115,2022-05-05_09h21.13.743,FishGame,2022.1.1,59.88224754759778,
,21,넌 시시해,4,Orange,A,2.666666666666667,2.966666666666667,ScrollDown,ScrollUp,Orange.png,4,Negative,Incongruent,0,0,0,0,,,,,,,,,,,,,,,,,,,,,,,,,0,20,20,20,,,,,,,,,,,,,,,,,,,,,,,,,,,,,,,,,,,,,,,,,,,,,,,,,,,,,,,,,,,,,,,,,,,,,,,,,1.1867283930381138,0.9007883000012953,573.3976735000033,None,ScrollDown,정답입니다,573.3976735000033,None,573.3976735000033,None,573.3976735000033,None,573.3976735000033,None,574.1844562999904,None,574.1844562999904,574.6961007000064,,,,,,,,,,,,,,,,115,2022-05-05_09h21.13.743,FishGame,2022.1.1,59.88224754759778,
,22,나를 데려가줘,6,Green,B,0,0,ScrollDown,ScrollUp,Green.png,4,NonTarget,NonTarget,0,0,0,0,,,,,,,,,,,,,,,,,,,,,,,,,0,21,21,21,,,,,,,,,,,,,,,,,,,,,,,,,,,,,,,,,,,,,,,,,,,,,,,,,,,,,,,,,,,,,,,,,,,,,,,,,1,1.1773713000002317,575.3266394000093,None,ScrollDown,정답입니다,575.3266394000093,None,575.3266394000093,None,575.3266394000093,None,575.3266394000093,None,576.395837899996,None,576.395837899996,576.8962301999854,,,,,,,,,,,,,,,,115,2022-05-05_09h21.13.743,FishGame,2022.1.1,59.88224754759778,
,23,넌 무정해,5,Orange,A,2.5,2.2,ScrollDown,ScrollUp,Orange.png,4,Negative,Incongruent,0,0,0,0,,,,,,,,,,,,,,,,,,,,,,,,,0,22,22,22,,,,,,,,,,,,,,,,,,,,,,,,,,,,,,,,,,,,,,,,,,,,,,,,,,,,,,,,,,,,,,,,,,,,,,,,,1,0.9534493999963161,577.5342521999846,None,ScrollDown,정답입니다,577.5342521999846,None,577.5342521999846,None,577.5342521999846,None,577.5342521999846,None,578.3780064999883,None,578.3780064999883,578.8796325000003,,,,,,,,,,,,,,,,115,2022-05-05_09h21.13.743,FishGame,2022.1.1,59.88224754759778,
,24,넌 긍정적이야,1,Green,B,6.041666666666667,6.066666666666666,ScrollUp,ScrollDown,Green.png,4,Positive,Incongruent,0,0,0,0,,,,,,,,,,,,,,,,,,,,,,,,,0,23,23,23,,,,,,,,,,,,,,,,,,,,,,,,,,,,,,,,,,,,,,,,,,,,,,,,,,,,,,,,,,,,,,,,,,,,,,,,,2,0.986926300014602,579.5211667999974,None,ScrollUp,정답입니다,579.5211667999974,None,579.5211667999974,None,579.5211667999974,None,579.5211667999974,None,580.3945673999842,None,580.3945673999842,580.8965829999943,,,,,,,,,,,,,,,,115,2022-05-05_09h21.13.743,FishGame,2022.1.1,59.88224754759778,
,25,나를 보내줘,6,Orange,A,0,0,ScrollUp,ScrollDown,Orange.png,4,NonTarget,NonTarget,0,0,0,0,,,,,,,,,,,,,,,,,,,,,,,,,0,24,24,24,,,,,,,,,,,,,,,,,,,,,,,,,,,,,,,,,,,,,,,,,,,,,,,,,,,,,,,,,,,,,,,,,,,,,,,,,2,1.056324000004679,581.5305358000041,None,ScrollUp,정답입니다,581.5305358000041,None,581.5305358000041,None,581.5305358000041,None,581.5305358000041,None,582.478048799996,None,582.478048799996,582.9802466999972,,,,,,,,,,,,,,,,115,2022-05-05_09h21.13.743,FishGame,2022.1.1,59.88224754759778,
,26,넌 시기심이 많아,5,Green,B,2.458333333333333,2.233333333333333,ScrollUp,ScrollDown,Green.png,4,Negative,Congruent,0,0,0,0,,,,,,,,,,,,,,,,,,,,,,,,,0,25,25,25,,,,,,,,,,,,,,,,,,,,,,,,,,,,,,,,,,,,,,,,,,,,,,,,,,,,,,,,,,,,,,,,,,,,,,,,,2,1.1300443000218365,583.6193043999956,None,ScrollUp,정답입니다,583.6193043999956,None,583.6193043999956,None,583.6193043999956,None,583.6193043999956,None,584.6295378000068,None,584.6295378000068,585.1301899999962,,,,,,,,,,,,,,,,115,2022-05-05_09h21.13.743,FishGame,2022.1.1,59.88224754759778,
,27,넌 탁월해,2,Orange,A,5.708333333333334,4.5,ScrollDown,ScrollUp,Orange.png,4,Positive,Congruent,0,0,0,0,,,,,,,,,,,,,,,,,,,,,,,,,0,26,26,26,,,,,,,,,,,,,,,,,,,,,,,,,,,,,,,,,,,,,,,,,,,,,,,,,,,,,,,,,,,,,,,,,,,,,,,,,1,0.9786476000153925,585.7734568000014,None,ScrollDown,정답입니다,585.7734568000014,None,585.7734568000014,None,585.7734568000014,None,585.7734568000014,None,586.6302037999849,None,586.6302037999849,587.1297085999977,,,,,,,,,,,,,,,,115,2022-05-05_09h21.13.743,FishGame,2022.1.1,59.88224754759778,
,28,나를 데려가줘,6,Green,B,0,0,ScrollDown,ScrollUp,Green.png,4,NonTarget,NonTarget,0,0,0,0,,,,,,,,,,,,,,,,,,,,,,,,,0,27,27,27,,,,,,,,,,,,,,,,,,,,,,,,,,,,,,,,,,,,,,,,,,,,,,,,,,,,,,,,,,,,,,,,,,,,,,,,,1,1.1402275000000373,587.7610873999947,None,ScrollDown,정답입니다,587.7610873999947,None,587.7610873999947,None,587.7610873999947,None,587.7610873999947,None,588.7962954999821,None,588.7962954999821,589.2963730999909,,,,,,,,,,,,,,,,115,2022-05-05_09h21.13.743,FishGame,2022.1.1,59.88224754759778,
,29,넌 조용해,3,Green,B,4.333333333333333,4.166666666666667,ScrollUp,ScrollDown,Green.png,4,Neutral,Neutral,0,0,0,0,,,,,,,,,,,,,,,,,,,,,,,,,0,28,28,28,,,,,,,,,,,,,,,,,,,,,,,,,,,,,,,,,,,,,,,,,,,,,,,,,,,,,,,,,,,,,,,,,,,,,,,,,2,1.1198672000027727,589.9332854000095,None,ScrollUp,정답입니다,589.9332854000095,None,589.9332854000095,None,589.9332854000095,None,589.9332854000095,None,590.9445307999849,None,590.9445307999849,591.4470549999969,,,,,,,,,,,,,,,,115,2022-05-05_09h21.13.743,FishGame,2022.1.1,59.88224754759778,
,30,넌 다정해,1,Orange,A,5.833333333333334,5.7,ScrollDown,ScrollUp,Orange.png,4,Positive,Congruent,0,0,0,0,,,,,,,,,,,,,,,,,,,,,,,,,0,29,29,29,,,,,,,,,,,,,,,,,,,,,,,,,,,,,,,,,,,,,,,,,,,,,,,,,,,,,,,,,,,,,,,,,,,,,,,,,1,0.9879948000016157,592.082044299983,None,ScrollDown,정답입니다,592.082044299983,None,592.082044299983,None,592.082044299983,None,592.082044299983,None,592.9613339999923,None,592.9613339999923,593.4635995999852,,,,,,,,,,,,,,,,115,2022-05-05_09h21.13.743,FishGame,2022.1.1,59.88224754759778,
,31,넌 능력있어,2,Green,B,6.166666666666666,4.6,ScrollUp,ScrollDown,Green.png,4,Positive,Incongruent,0,0,0,0,,,,,,,,,,,,,,,,,,,,,,,,,0,30,30,30,,,,,,,,,,,,,,,,,,,,,,,,,,,,,,,,,,,,,,,,,,,,,,,,,,,,,,,,,,,,,,,,,,,,,,,,,2,1.1186893999984022,594.0904592000006,None,ScrollUp,정답입니다,594.0904592000006,None,594.0904592000006,None,594.0904592000006,None,594.0904592000006,None,595.1014219000062,None,595.1014219000062,595.6139340999944,,,,,,,,,,,,,,,,115,2022-05-05_09h21.13.743,FishGame,2022.1.1,59.88224754759778,
,32,넌 불쾌해,5,Orange,A,2.125,1.933333333333333,ScrollDown,ScrollUp,Orange.png,4,Negative,Incongruent,0,0,0,0,,,,,,,,,,,,,,,,,,,,,,,,,0,31,31,31,,,,,,,,,,,,,,,,,,,,,,,,,,,,,,,,,,,,,,,,,,,,,,,,,,,,,,,,,,,,,,,,,,,,,,,,,1,0.9499943999981042,596.2742099000025,None,ScrollDown,정답입니다,596.2742099000025,None,596.2742099000025,None,596.2742099000025,None,596.2742099000025,None,597.0947838999855,None,597.0947838999855,597.597171100002,,,,,,,,,,,,,,,,115,2022-05-05_09h21.13.743,FishGame,2022.1.1,59.88224754759778,
,33,나를 데려가줘,6,Green,B,0,0,ScrollDown,ScrollUp,Green.png,4,NonTarget,NonTarget,0,0,0,0,,,,,,,,,,,,,,,,,,,,,,,,,0,32,32,32,,,,,,,,,,,,,,,,,,,,,,,,,,,,,,,,,,,,,,,,,,,,,,,,,,,,,,,,,,,,,,,,,,,,,,,,,1,0.9892246999952476,598.223790899996,None,ScrollDown,정답입니다,598.223790899996,None,598.223790899996,None,598.223790899996,None,598.223790899996,None,599.1115865999891,None,599.1115865999891,599.613531799987,,,,,,,,,,,,,,,,115,2022-05-05_09h21.13.743,FishGame,2022.1.1,59.88224754759778,
,34,넌 유순해,3,Orange,A,4.458333333333333,5,ScrollDown,ScrollUp,Orange.png,4,Neutral,Neutral,0,0,0,0,,,,,,,,,,,,,,,,,,,,,,,,,0,33,33,33,,,,,,,,,,,,,,,,,,,,,,,,,,,,,,,,,,,,,,,,,,,,,,,,,,,,,,,,,,,,,,,,,,,,,,,,,1,1.024078099988401,600.248623099993,None,ScrollDown,정답입니다,600.248623099993,None,600.248623099993,None,600.248623099993,None,600.248623099993,None,601.1638108000043,None,601.1638108000043,601.6641016000067,,,,,,,,,,,,,,,,115,2022-05-05_09h21.13.743,FishGame,2022.1.1,59.88224754759778,
,35,넌 근심스러워,4,Green,B,2.708333333333333,3.133333333333333,ScrollUp,ScrollDown,Green.png,4,Negative,Congruent,0,0,0,0,,,,,,,,,,,,,,,,,,,,,,,,,0,34,34,34,,,,,,,,,,,,,,,,,,,,,,,,,,,,,,,,,,,,,,,,,,,,,,,,,,,,,,,,,,,,,,,,,,,,,,,,,2,1.0620223000005353,602.3027147999965,None,ScrollUp,정답입니다,602.3027147999965,None,602.3027147999965,None,602.3027147999965,None,602.3027147999965,None,603.2469063999888,None,603.2469063999888,603.7474423999956,,,,,,,,,,,,,,,,115,2022-05-05_09h21.13.743,FishGame,2022.1.1,59.88224754759778,
,36,넌 세련되었어,2,Orange,A,5.5,4.6,ScrollDown,ScrollUp,Orange.png,4,Positive,Congruent,0,0,0,0,,,,,,,,,,,,,,,,,,,,,,,,,0,35,35,35,,,,,,,,,,,,,,,,,,,,,,,,,,,,,,,,,,,,,,,,,,,,,,,,,,,,,,,,,,,,,,,,,,,,,,,,,1,1.0778745000134222,604.4057203999837,None,ScrollDown,정답입니다,604.4057203999837,None,604.4057203999837,None,604.4057203999837,None,604.4057203999837,None,605.3465999999898,None,605.3465999999898,605.8466801999894,,,,,,,,,,,,,,,,115,2022-05-05_09h21.13.743,FishGame,2022.1.1,59.88224754759778,
,37,나를 보내줘,6,Orange,A,0,0,ScrollUp,ScrollDown,Orange.png,4,NonTarget,NonTarget,0,0,0,0,,,,,,,,,,,,,,,,,,,,,,,,,0,36,36,36,,,,,,,,,,,,,,,,,,,,,,,,,,,,,,,,,,,,,,,,,,,,,,,,,,,,,,,,,,,,,,,,,,,,,,,,,2,1.1179502000159118,606.4829471999838,None,ScrollUp,정답입니다,606.4829471999838,None,606.4829471999838,None,606.4829471999838,None,606.4829471999838,None,607.4854792999977,None,607.4854792999977,607.9967413999839,,,,,,,,,,,,,,,,115,2022-05-05_09h21.13.743,FishGame,2022.1.1,59.88224754759778,
,38,넌 확고해,3,Green,B,4.708333333333334,4.566666666666666,ScrollUp,ScrollDown,Green.png,4,Neutral,Neutral,0,0,0,0,,,,,,,,,,,,,,,,,,,,,,,,,0,37,37,37,,,,,,,,,,,,,,,,,,,,,,,,,,,,,,,,,,,,,,,,,,,,,,,,,,,,,,,,,,,,,,,,,,,,,,,,,2,1.0558877000003122,608.6303728999919,None,ScrollUp,정답입니다,608.6303728999919,None,608.6303728999919,None,608.6303728999919,None,608.6303728999919,None,609.580026199983,None,609.580026199983,610.0802677999891,,,,,,,,,,,,,,,,115,2022-05-05_09h21.13.743,FishGame,2022.1.1,59.88224754759778,
,39,넌 이해심이 많아,1,Green,B,6.041666666666668,5.533333333333333,ScrollUp,ScrollDown,Green.png,4,Positive,Incongruent,0,0,0,0,,,,,,,,,,,,,,,,,,,,,,,,,0,38,38,38,,,,,,,,,,,,,,,,,,,,,,,,,,,,,,,,,,,,,,,,,,,,,,,,,,,,,,,,,,,,,,,,,,,,,,,,,2,1.1015130000014324,610.7123307999864,None,ScrollUp,정답입니다,610.7123307999864,None,610.7123307999864,None,610.7123307999864,None,610.7123307999864,None,611.7013999999908,None,611.7013999999908,612.2144119000004,,,,,,,,,,,,,,,,115,2022-05-05_09h21.13.743,FishGame,2022.1.1,59.88224754759778,
,40,나를 보내줘,6,Orange,A,0,0,ScrollUp,ScrollDown,Orange.png,4,NonTarget,NonTarget,0,0,0,0,,,,,,,,,,,,,,,,,,,,,,,,,0,39,39,39,,,,,,,,,,,,,,,,,,,,,,,,,,,,,,,,,,,,,,,,,,,,,,,,,,,,,,,,,,,,,,,,,,,,,,,,,2,1.1468992999871261,612.8559999999998,None,ScrollUp,정답입니다,612.8559999999998,None,612.8559999999998,None,612.8559999999998,None,612.8559999999998,None,613.8823278000054,None,613.8823278000054,614.3971279999823,,,,,,,,,,,,,,,,115,2022-05-05_09h21.13.743,FishGame,2022.1.1,59.88224754759778,
,41,넌 거칠어,4,Orange,A,2.625,3.033333333333333,ScrollDown,ScrollUp,Orange.png,4,Negative,Incongruent,0,0,0,0,,,,,,,,,,,,,,,,,,,,,,,,,0,40,40,40,,,,,,,,,,,,,,,,,,,,,,,,,,,,,,,,,,,,,,,,,,,,,,,,,,,,,,,,,,,,,,,,,,,,,,,,,1,1.3541320999793243,615.0359516000026,None,ScrollDown,정답입니다,615.0359516000026,None,615.0359516000026,None,615.0359516000026,None,615.0359516000026,None,616.2788410999929,None,616.2788410999929,616.7808685000055,,,,,,,,,,,,,,,,115,2022-05-05_09h21.13.743,FishGame,2022.1.1,59.88224754759778,
,42,넌 변덕맞아,5,Green,B,2.75,2.166666666666667,ScrollUp,ScrollDown,Green.png,4,Negative,Congruent,0,0,0,0,,,,,,,,,,,,,,,,,,,,,,,,,0,41,41,41,,,,,,,,,,,,,,,,,,,,,,,,,,,,,,,,,,,,,,,,,,,,,,,,,,,,,,,,,,,,,,,,,,,,,,,,,2,1.2293691000086255,617.4206791000033,None,ScrollUp,정답입니다,617.4206791000033,None,617.4206791000033,None,617.4206791000033,None,617.4206791000033,None,618.5304617999936,None,618.5304617999936,619.0305750999833,,,,,,,,,,,,,,,,115,2022-05-05_09h21.13.743,FishGame,2022.1.1,59.88224754759778,
,43,나를 데려가줘,6,Green,B,0,0,ScrollDown,ScrollUp,Green.png,4,NonTarget,NonTarget,0,0,0,0,,,,,,,,,,,,,,,,,,,,,,,,,0,42,42,42,,,,,,,,,,,,,,,,,,,,,,,,,,,,,,,,,,,,,,,,,,,,,,,,,,,,,,,,,,,,,,,,,,,,,,,,,1,1.2905807000061031,619.6609708000033,None,ScrollDown,정답입니다,619.6609708000033,None,619.6609708000033,None,619.6609708000033,None,619.6609708000033,None,620.8475082000077,None,620.8475082000077,621.3473883999977,,,,,,,,,,,,,,,,115,2022-05-05_09h21.13.743,FishGame,2022.1.1,59.88224754759778,
,44,넌 외로워,4,Green,B,2.833333333333333,3.3,ScrollUp,ScrollDown,Green.png,4,Negative,Congruent,0,0,0,0,,,,,,,,,,,,,,,,,,,,,,,,,0,43,43,43,,,,,,,,,,,,,,,,,,,,,,,,,,,,,,,,,,,,,,,,,,,,,,,,,,,,,,,,,,,,,,,,,,,,,,,,,2,1.372733199998038,621.9780517999898,None,ScrollUp,정답입니다,621.9780517999898,None,621.9780517999898,None,621.9780517999898,None,621.9780517999898,None,623.2453083999862,None,623.2453083999862,623.7474416999903,,,,,,,,,,,,,,,,115,2022-05-05_09h21.13.743,FishGame,2022.1.1,59.88224754759778,
,1,넌 불평스러워,5,Orange,A,2.25,2.066666666666667,ScrollDown,ScrollUp,Orange.png,5,Negative,Incongruent,0,0,0,0,,,,,,,,,,,,,,,,,,,,,,,,,,,,,0,0,0,0,,,,,,,,,,,,,,,,,,,,,,,,,,,,655.9151638000039,657.4145849999913,657.4478627000062,658.398354200006,658.4479974999849,659.3986737999949,659.3986737999949,None,,,,,,,,,,,,,,,,,,,,,,,,,,,,,,,,,,1,1.2576094999967609,660.6070248000033,None,ScrollDown,정답입니다,660.6070248000033,None,660.6070248000033,None,660.6070248000033,None,660.6070248000033,None,661.6981902999978,None,661.6981902999978,662.198055899993,624.2478945000039,None,624.2478945000039,None,-0.16018519,-0.09074074,1,0,0,0.016339050023816526,None,654.2477595999953,None,,,115,2022-05-05_09h21.13.743,FishGame,2022.1.1,59.88224754759778,
,2,나를 보내줘,6,Orange,A,0,0,ScrollUp,ScrollDown,Orange.png,5,NonTarget,NonTarget,0,0,0,0,,,,,,,,,,,,,,,,,,,,,,,,,,,,,0,1,1,1,,,,,,,,,,,,,,,,,,,,,,,,,,,,,,,,,,,,,,,,,,,,,,,,,,,,,,,,,,,,,,,,,,,,,2,1.095626499998616,662.8314391000022,None,ScrollUp,정답입니다,662.8314391000022,None,662.8314391000022,None,662.8314391000022,None,662.8314391000022,None,663.8148072999902,None,663.8148072999902,664.3145357999892,,,,,,,,,,,,,,,,115,2022-05-05_09h21.13.743,FishGame,2022.1.1,59.88224754759778,
,3,넌 다재다능해,2,Green,B,6.208333333333333,4.5,ScrollUp,ScrollDown,Green.png,5,Positive,Incongruent,0,0,0,0,,,,,,,,,,,,,,,,,,,,,,,,,,,,,0,2,2,2,,,,,,,,,,,,,,,,,,,,,,,,,,,,,,,,,,,,,,,,,,,,,,,,,,,,,,,,,,,,,,,,,,,,,2,1.0388662999903318,664.9513226999843,None,ScrollUp,정답입니다,664.9513226999843,None,664.9513226999843,None,664.9513226999843,None,664.9513226999843,None,665.8799034999975,None,665.8799034999975,666.3813046999858,,,,,,,,,,,,,,,,115,2022-05-05_09h21.13.743,FishGame,2022.1.1,59.88224754759778,
,4,넌 과감해,3,Orange,A,4.833333333333334,4.6,ScrollDown,ScrollUp,Orange.png,5,Neutral,Neutral,0,0,0,0,,,,,,,,,,,,,,,,,,,,,,,,,,,,,0,3,3,3,,,,,,,,,,,,,,,,,,,,,,,,,,,,,,,,,,,,,,,,,,,,,,,,,,,,,,,,,,,,,,,,,,,,,1,1.0186274999869056,667.0161008999858,None,ScrollDown,정답입니다,667.0161008999858,None,667.0161008999858,None,667.0161008999858,None,667.0161008999858,None,667.9204262999992,None,667.9204262999992,668.4321246999898,,,,,,,,,,,,,,,,115,2022-05-05_09h21.13.743,FishGame,2022.1.1,59.88224754759778,
,5,넌 고분고분해,3,Green,B,3.75,4.033333333333333,ScrollUp,ScrollDown,Green.png,5,Neutral,Neutral,0,0,0,0,,,,,,,,,,,,,,,,,,,,,,,,,,,,,0,4,4,4,,,,,,,,,,,,,,,,,,,,,,,,,,,,,,,,,,,,,,,,,,,,,,,,,,,,,,,,,,,,,,,,,,,,,2,1.1467602999764495,669.0664731999859,None,ScrollUp,정답입니다,669.0664731999859,None,669.0664731999859,None,669.0664731999859,None,669.0664731999859,None,670.0998408999876,None,670.0998408999876,670.5982821999933,,,,,,,,,,,,,,,,115,2022-05-05_09h21.13.743,FishGame,2022.1.1,59.88224754759778,
,6,나를 보내줘,6,Orange,A,0,0,ScrollUp,ScrollDown,Orange.png,5,NonTarget,NonTarget,0,0,0,0,,,,,,,,,,,,,,,,,,,,,,,,,,,,,0,5,5,5,,,,,,,,,,,,,,,,,,,,,,,,,,,,,,,,,,,,,,,,,,,,,,,,,,,,,,,,,,,,,,,,,,,,,2,1.067940600012662,671.2532422000077,None,ScrollUp,정답입니다,671.2532422000077,None,671.2532422000077,None,671.2532422000077,None,671.2532422000077,None,672.203025099996,None,672.203025099996,672.7152574000065,,,,,,,,,,,,,,,,115,2022-05-05_09h21.13.743,FishGame,2022.1.1,59.88224754759778,
,7,넌 잘 잊어,4,Orange,A,3,3.7,ScrollDown,ScrollUp,Orange.png,5,Negative,Incongruent,0,0,0,0,,,,,,,,,,,,,,,,,,,,,,,,,,,,,0,6,6,6,,,,,,,,,,,,,,,,,,,,,,,,,,,,,,,,,,,,,,,,,,,,,,,,,,,,,,,,,,,,,,,,,,,,,1,1.063536000001477,673.3599244999932,None,ScrollDown,정답입니다,673.3599244999932,None,673.3599244999932,None,673.3599244999932,None,673.3599244999932,None,674.3014610999962,None,674.3014610999962,674.8153873999836,,,,,,,,,,,,,,,,115,2022-05-05_09h21.13.743,FishGame,2022.1.1,59.88224754759778,
,8,넌 탐구심이없어,4,Green,B,2.833333333333333,3.066666666666667,ScrollUp,ScrollDown,Green.png,5,Negative,Congruent,0,0,0,0,,,,,,,,,,,,,,,,,,,,,,,,,,,,,0,7,7,7,,,,,,,,,,,,,,,,,,,,,,,,,,,,,,,,,,,,,,,,,,,,,,,,,,,,,,,,,,,,,,,,,,,,,2,1.1845149000000674,675.451837200002,None,ScrollUp,정답입니다,675.451837200002,None,675.451837200002,None,675.451837200002,None,675.451837200002,None,676.5199217000045,None,676.5199217000045,677.0317969000025,,,,,,,,,,,,,,,,115,2022-05-05_09h21.13.743,FishGame,2022.1.1,59.88224754759778,
,9,나를 데려가줘,6,Green,B,0,0,ScrollDown,ScrollUp,Green.png,5,NonTarget,NonTarget,0,0,0,0,,,,,,,,,,,,,,,,,,,,,,,,,,,,,0,8,8,8,,,,,,,,,,,,,,,,,,,,,,,,,,,,,,,,,,,,,,,,,,,,,,,,,,,,,,,,,,,,,,,,,,,,,1,1.2056555000017397,677.6633121999912,None,ScrollDown,정답입니다,677.6633121999912,None,677.6633121999912,None,677.6633121999912,None,677.6633121999912,None,678.7636939999938,None,678.7636939999938,679.2656385999871,,,,,,,,,,,,,,,,115,2022-05-05_09h21.13.743,FishGame,2022.1.1,59.88224754759778,
,10,넌 참되어,2,Orange,A,6.041666666666664,4.733333333333333,ScrollDown,ScrollUp,Orange.png,5,Positive,Congruent,0,0,0,0,,,,,,,,,,,,,,,,,,,,,,,,,,,,,0,9,9,9,,,,,,,,,,,,,,,,,,,,,,,,,,,,,,,,,,,,,,,,,,,,,,,,,,,,,,,,,,,,,,,,,,,,,1,0.9857125999988057,679.9134136000066,None,ScrollDown,정답입니다,679.9134136000066,None,679.9134136000066,None,679.9134136000066,None,679.9134136000066,None,680.7802787999972,None,680.7802787999972,681.2824018999818,,,,,,,,,,,,,,,,115,2022-05-05_09h21.13.743,FishGame,2022.1.1,59.88224754759778,
,11,넌 생기있어,1,Green,B,5.875,5.633333333333334,ScrollUp,ScrollDown,Green.png,5,Positive,Incongruent,0,0,0,0,,,,,,,,,,,,,,,,,,,,,,,,,,,,,0,10,10,10,,,,,,,,,,,,,,,,,,,,,,,,,,,,,,,,,,,,,,,,,,,,,,,,,,,,,,,,,,,,,,,,,,,,,2,1.0501259999873582,681.9164985999814,None,ScrollUp,정답입니다,681.9164985999814,None,681.9164985999814,None,681.9164985999814,None,681.9164985999814,None,682.8535296999908,None,682.8535296999908,683.365114699991,,,,,,,,,,,,,,,,115,2022-05-05_09h21.13.743,FishGame,2022.1.1,59.88224754759778,
,12,넌 비사교적이야,4,Green,B,2.875,2.9,ScrollUp,ScrollDown,Green.png,5,Negative,Congruent,0,0,0,0,,,,,,,,,,,,,,,,,,,,,,,,,,,,,0,11,11,11,,,,,,,,,,,,,,,,,,,,,,,,,,,,,,,,,,,,,,,,,,,,,,,,,,,,,,,,,,,,,,,,,,,,,2,0.988502200023504,683.9938850000035,None,ScrollUp,정답입니다,683.9938850000035,None,683.9938850000035,None,683.9938850000035,None,683.9938850000035,None,684.8799407999904,None,684.8799407999904,685.3821769999922,,,,,,,,,,,,,,,,115,2022-05-05_09h21.13.743,FishGame,2022.1.1,59.88224754759778,
,13,나를 데려가줘,6,Green,B,0,0,ScrollDown,ScrollUp,Green.png,5,NonTarget,NonTarget,0,0,0,0,,,,,,,,,,,,,,,,,,,,,,,,,,,,,0,12,12,12,,,,,,,,,,,,,,,,,,,,,,,,,,,,,,,,,,,,,,,,,,,,,,,,,,,,,,,,,,,,,,,,,,,,,1,0.9906557000067551,686.0136794999999,None,ScrollDown,정답입니다,686.0136794999999,None,686.0136794999999,None,686.0136794999999,None,686.0136794999999,None,686.8985956999823,None,686.8985956999823,687.398617800005,,,,,,,,,,,,,,,,115,2022-05-05_09h21.13.743,FishGame,2022.1.1,59.88224754759778,
,14,넌 고독해,4,Orange,A,2.916666666666667,3.233333333333333,ScrollDown,ScrollUp,Orange.png,5,Negative,Incongruent,0,0,0,0,,,,,,,,,,,,,,,,,,,,,,,,,,,,,0,13,13,13,,,,,,,,,,,,,,,,,,,,,,,,,,,,,,,,,,,,,,,,,,,,,,,,,,,,,,,,,,,,,,,,,,,,,1,1.1323881999996956,688.0321816999931,None,ScrollDown,정답입니다,688.0321816999931,None,688.0321816999931,None,688.0321816999931,None,688.0321816999931,None,689.0534602999978,None,689.0534602999978,689.5656954000005,,,,,,,,,,,,,,,,115,2022-05-05_09h21.13.743,FishGame,2022.1.1,59.88224754759778,
,15,넌 신경질적이야,5,Green,B,2.375,2.233333333333333,ScrollUp,ScrollDown,Green.png,5,Negative,Congruent,0,0,0,0,,,,,,,,,,,,,,,,,,,,,,,,,,,,,0,14,14,14,,,,,,,,,,,,,,,,,,,,,,,,,,,,,,,,,,,,,,,,,,,,,,,,,,,,,,,,,,,,,,,,,,,,,2,1.0656569999991916,690.2097173999937,None,ScrollUp,정답입니다,690.2097173999937,None,690.2097173999937,None,690.2097173999937,None,690.2097173999937,None,691.1530679999851,None,691.1530679999851,691.6654255999892,,,,,,,,,,,,,,,,115,2022-05-05_09h21.13.743,FishGame,2022.1.1,59.88224754759778,
,16,넌 똑똑해,2,Green,B,5.666666666666667,3.966666666666667,ScrollUp,ScrollDown,Green.png,5,Positive,Incongruent,0,0,0,0,,,,,,,,,,,,,,,,,,,,,,,,,,,,,0,15,15,15,,,,,,,,,,,,,,,,,,,,,,,,,,,,,,,,,,,,,,,,,,,,,,,,,,,,,,,,,,,,,,,,,,,,,2,1.0671567000099458,692.2948045000085,None,ScrollUp,정답입니다,692.2948045000085,None,692.2948045000085,None,692.2948045000085,None,692.2948045000085,None,693.254353700002,None,693.254353700002,693.7661519999965,,,,,,,,,,,,,,,,115,2022-05-05_09h21.13.743,FishGame,2022.1.1,59.88224754759778,
,17,나를 보내줘,6,Orange,A,0,0,ScrollUp,ScrollDown,Orange.png,5,NonTarget,NonTarget,0,0,0,0,,,,,,,,,,,,,,,,,,,,,,,,,,,,,0,16,16,16,,,,,,,,,,,,,,,,,,,,,,,,,,,,,,,,,,,,,,,,,,,,,,,,,,,,,,,,,,,,,,,,,,,,,2,1.184871600009501,694.4024426999968,None,ScrollUp,정답입니다,694.4024426999968,None,694.4024426999968,None,694.4024426999968,None,694.4024426999968,None,695.4705685999943,None,695.4705685999943,695.9828042000008,,,,,,,,,,,,,,,,115,2022-05-05_09h21.13.743,FishGame,2022.1.1,59.88224754759778,
,18,넌 협조적이야,1,Orange,A,5.625,5.666666666666667,ScrollDown,ScrollUp,Orange.png,5,Positive,Congruent,0,0,0,0,,,,,,,,,,,,,,,,,,,,,,,,,,,,,0,17,17,17,,,,,,,,,,,,,,,,,,,,,,,,,,,,,,,,,,,,,,,,,,,,,,,,,,,,,,,,,,,,,,,,,,,,,1,1.028688799997326,696.6252986000036,None,ScrollDown,정답입니다,696.6252986000036,None,696.6252986000036,None,696.6252986000036,None,696.6252986000036,None,697.5326281999878,None,697.5326281999878,698.0320961999823,,,,,,,,,,,,,,,,115,2022-05-05_09h21.13.743,FishGame,2022.1.1,59.88224754759778,
,19,나를 데려가줘,6,Green,B,0,0,ScrollDown,ScrollUp,Green.png,5,NonTarget,NonTarget,0,0,0,0,,,,,,,,,,,,,,,,,,,,,,,,,,,,,0,18,18,18,,,,,,,,,,,,,,,,,,,,,,,,,,,,,,,,,,,,,,,,,,,,,,,,,,,,,,,,,,,,,,,,,,,,,1,1.1275909999967553,698.6638469999889,None,ScrollDown,정답입니다,698.6638469999889,None,698.6638469999889,None,698.6638469999889,None,698.6638469999889,None,699.6819244000071,None,699.6819244000071,700.1822271999845,,,,,,,,,,,,,,,,115,2022-05-05_09h21.13.743,FishGame,2022.1.1,59.88224754759778,
,20,넌 몰인정해,5,Green,B,2.541666666666667,2.066666666666667,ScrollUp,ScrollDown,Green.png,5,Negative,Congruent,0,0,0,0,,,,,,,,,,,,,,,,,,,,,,,,,,,,,0,19,19,19,,,,,,,,,,,,,,,,,,,,,,,,,,,,,,,,,,,,,,,,,,,,,,,,,,,,,,,,,,,,,,,,,,,,,2,0.9655057000054512,700.8189455000102,None,ScrollUp,정답입니다,700.8189455000102,None,700.8189455000102,None,700.8189455000102,None,700.8189455000102,None,701.6704682999989,None,701.6704682999989,702.1821808000095,,,,,,,,,,,,,,,,115,2022-05-05_09h21.13.743,FishGame,2022.1.1,59.88224754759778,
,21,나를 데려가줘,6,Green,B,0,0,ScrollDown,ScrollUp,Green.png,5,NonTarget,NonTarget,0,0,0,0,,,,,,,,,,,,,,,,,,,,,,,,,,,,,0,20,20,20,,,,,,,,,,,,,,,,,,,,,,,,,,,,,,,,,,,,,,,,,,,,,,,,,,,,,,,,,,,,,,,,,,,,,1,0.9450297000003047,702.8144593999896,None,ScrollDown,정답입니다,702.8144593999896,None,702.8144593999896,None,702.8144593999896,None,702.8144593999896,None,703.6489648999996,None,703.6489648999996,704.149367999984,,,,,,,,,,,,,,,,115,2022-05-05_09h21.13.743,FishGame,2022.1.1,59.88224754759778,
,22,넌 순진해,3,Green,B,4.125,4.166666666666667,ScrollUp,ScrollDown,Green.png,5,Neutral,Neutral,0,0,0,0,,,,,,,,,,,,,,,,,,,,,,,,,,,,,0,21,21,21,,,,,,,,,,,,,,,,,,,,,,,,,,,,,,,,,,,,,,,,,,,,,,,,,,,,,,,,,,,,,,,,,,,,,2,1.0279789000051096,704.7809994999843,None,ScrollUp,정답입니다,704.7809994999843,None,704.7809994999843,None,704.7809994999843,None,704.7809994999843,None,705.6988083999895,None,705.6988083999895,706.1994194999861,,,,,,,,,,,,,,,,115,2022-05-05_09h21.13.743,FishGame,2022.1.1,59.88224754759778,
