name,TrialNum,Word,WordCategory,FishType,WordList,WordValence,WordReputation,CorrectResp,IncorrectResp,FishTypeFile,Round,WordType,Condition,LoopforOrange.thisRepN,LoopforOrange.thisTrialN,LoopforOrange.thisN,LoopforOrange.thisIndex,LoopForGreen.thisRepN,LoopForGreen.thisTrialN,LoopForGreen.thisN,LoopForGreen.thisIndex,GreenInstLoop.thisRepN,GreenInstLoop.thisTrialN,GreenInstLoop.thisN,GreenInstLoop.thisIndex,GreenPrac.thisRepN,GreenPrac.thisTrialN,GreenPrac.thisN,GreenPrac.thisIndex,trials_2.thisRepN,trials_2.thisTrialN,trials_2.thisN,trials_2.thisIndex,GreenRound1.thisRepN,GreenRound1.thisTrialN,GreenRound1.thisN,GreenRound1.thisIndex,GreenRound2.thisRepN,GreenRound2.thisTrialN,GreenRound2.thisN,GreenRound2.thisIndex,GreenRound3.thisRepN,GreenRound3.thisTrialN,GreenRound3.thisN,GreenRound3.thisIndex,GreenRound4.thisRepN,GreenRound4.thisTrialN,GreenRound4.thisN,GreenRound4.thisIndex,GreenRound5.thisRepN,GreenRound5.thisTrialN,GreenRound5.thisN,GreenRound5.thisIndex,text_2.started,text_2.stopped,text_3.started,text_3.stopped,key_resp.keys,key_resp.rt,key_resp.started,key_resp.stopped,PassI.started,PassI.stopped,PassInst.keys,PassInst.rt,PassInst.started,PassInst.stopped,mouse_2.x,mouse_2.y,mouse_2.leftButton,mouse_2.midButton,mouse_2.rightButton,mouse_2.started,mouse_2.stopped,image.started,image.stopped,text_5.started,text_5.stopped,text_6.started,text_6.stopped,text_7.started,text_7.stopped,text_8.started,text_8.stopped,slider_3.response,slider_3.rt,slider_3.started,slider_3.stopped,Response_3,Feedback_3,BackGround_3.started,BackGround_3.stopped,Fish_3.started,Fish_3.stopped,WordBox_3.started,WordBox_3.stopped,Words_3.started,Words_3.stopped,BackGround_Feedback_3.started,BackGround_Feedback_3.stopped,Feedbacks_3.started,Feedbacks_3.stopped,Continue_or_not_2.keys,Continue_or_not_2.rt,Continue_or_not_2.started,Continue_or_not_2.stopped,image_4.started,image_4.stopped,mouse_3.x,mouse_3.y,mouse_3.leftButton,mouse_3.midButton,mouse_3.rightButton,mouse_3.started,mouse_3.stopped,startmain.started,startmain.stopped,slider_4.response,slider_4.rt,slider_4.started,slider_4.stopped,Response_4,Feedback_4,BackGround_4.started,BackGround_4.stopped,Fish_4.started,Fish_4.stopped,WordBox_4.started,WordBox_4.stopped,Words_4.started,Words_4.stopped,BackGround_Feedback_4.started,BackGround_Feedback_4.stopped,Feedbacks_4.started,Feedbacks_4.stopped,text.started,text.stopped,break_interval.started,break_interval.stopped,mouse.x,mouse.y,mouse.leftButton,mouse.midButton,mouse.rightButton,mouse.started,mouse.stopped,stratnextround.started,stratnextround.stopped,endgame.started,endgame.stopped,participant,date,expName,psychopyVersion,frameRate,
,,,,,,,,,,,,,,,,,,,,,,,,,,,,,,,,,,,,,,,,,,,,,,,,,,,,,,21.447870200005127,None,21.447870200005127,None,space,0.8189089999941643,21.903729200013913,None,,,,,,,,,,,,,,,,,,,,,,,,,,,,,,,,,,,,,,,,,,,,,,,,,,,,,,,,,,,,,,,,,,,,,,,,,,,,,,,,,,,,,,,,,,116,2022-05-05_10h59.35.867,FishGame,2022.1.1,60.10092146615832,
물고기과제_instruction(참가자용)GreenVersion.mp4,,,,,,,,,,,,,,,,,,0,0,0,0,0,0,0,0,,,,,,,,,,,,,,,,,,,,,,,,,,,,,,,,,,,,,89.40038220002316,None,n,6.149378999980399,89.40038220002316,None,,,,,,,,,,,,,,,,,,,,,,,,,,,,,,,,,,,,,,,,,,,,,,,,,,,,,,,,,,,,,,,,,,,,,,,,,,,,,,,,,,,,116,2022-05-05_10h59.35.867,FishGame,2022.1.1,60.10092146615832,
,1,넌 교활해,5,Orange,B,2.333333333333333,2.133333333333333,ScrollUp,ScrollDown,Orange.png,practice,,,,,,,0,0,0,0,,,,,0,0,0,0,0,0,0,0,,,,,,,,,,,,,,,,,,,,,,,,,,,,,,,,,,,0.06111111,-0.22407408,1,0,0,0.5136364699865226,None,95.57172150001861,None,98.12166460001026,99.6219178000174,99.65482500000508,100.60567220000667,100.65518400000292,101.60553690002416,101.60553690002416,None,2,2.071774500014726,102.75492490001488,None,ScrollUp,정답입니다,102.75492490001488,None,102.75492490001488,None,102.75492490001488,None,102.75492490001488,None,104.67123340000398,None,104.67123340000398,105.17181140001048,,,,,,,,,,,,,,,,,,,,,,,,,,,,,,,,,,,,,,,,,,,,,,,,,116,2022-05-05_10h59.35.867,FishGame,2022.1.1,60.10092146615832,
,2,넌 슬기로워,2,Green,A,6.166666666666667,4.1,ScrollDown,ScrollUp,Green.png,practice,,,,,,,0,0,0,0,,,,,0,0,0,0,0,1,1,1,,,,,,,,,,,,,,,,,,,,,,,,,,,,,,,,,,,,,,,,,,,,,,,,,,,,1,2.4005533999879844,105.82103040002403,None,ScrollDown,정답입니다,105.82103040002403,None,105.82103040002403,None,105.82103040002403,None,105.82103040002403,None,108.09324950000155,None,108.09324950000155,108.60549950000132,,,,,,,,,,,,,,,,,,,,,,,,,,,,,,,,,,,,,,,,,,,,,,,,,116,2022-05-05_10h59.35.867,FishGame,2022.1.1,60.10092146615832,
,3,나를 보내줘,6,Green,A,0,0,ScrollUp,ScrollDown,Green.png,practice,,,,,,,0,0,0,0,,,,,0,0,0,0,0,2,2,2,,,,,,,,,,,,,,,,,,,,,,,,,,,,,,,,,,,,,,,,,,,,,,,,,,,,2,1.598901699995622,109.2372730000061,None,ScrollUp,정답입니다,109.2372730000061,None,109.2372730000061,None,109.2372730000061,None,109.2372730000061,None,110.72525990000577,None,110.72525990000577,111.23838650001562,,,,,,,,,,,,,,,,,,,,,,,,,,,,,,,,,,,,,,,,,,,,,,,,,116,2022-05-05_10h59.35.867,FishGame,2022.1.1,60.10092146615832,
,4,나를 데려가줘,6,Orange,B,0,0,ScrollDown,ScrollUp,Orange.png,practice,,,,,,,0,0,0,0,,,,,0,0,0,0,0,3,3,3,,,,,,,,,,,,,,,,,,,,,,,,,,,,,,,,,,,,,,,,,,,,,,,,,,,,1,1.7087799000146333,111.87111810001079,None,ScrollDown,정답입니다,111.87111810001079,None,111.87111810001079,None,111.87111810001079,None,111.87111810001079,None,113.47208340000361,None,113.47208340000361,113.9721546000219,,,,,,,,,,,,,,,,,,,,,,,,,,,,,,,,,,,,,,,,,,,,,,,,,116,2022-05-05_10h59.35.867,FishGame,2022.1.1,60.10092146615832,
,1,넌 교활해,5,Orange,B,2.333333333333333,2.133333333333333,ScrollUp,ScrollDown,Orange.png,practice,,,,,,,0,0,0,0,,,,,0,0,0,0,,,,,,,,,,,,,,,,,,,,,,,,,,,,,,,,,,,,,,,,,,,,,,,,,,,,,,,,,,,,,,,,,,,,,,,,,,n,7.322178600006737,114.47179460001644,None,114.47179460001644,None,,,,,,,,,,,,,,,,,,,,,,,,,,,,,,,,,,,,,,,,,,,116,2022-05-05_10h59.35.867,FishGame,2022.1.1,60.10092146615832,
,1,넌 따뜻해,1,Orange,B,6.083333333333333,5.6,ScrollUp,ScrollDown,Orange.png,1,Positive,Incongruent,,,,,0,0,0,0,,,,,,,,,,,,,0,0,0,0,,,,,,,,,,,,,,,,,,,,,,,,,,,,,,,,,,,,,,,,137.03931150000426,138.53907060000347,138.57273850002093,139.52221390002524,139.57272080000257,140.52320090000285,140.52320090000285,None,,,,,,,,,,,,,,,,,,,,,,,,,0.096296296,-0.12592593,1,0,0,0.3141852700209711,None,121.82243470000685,None,2,1.6203061999985948,141.70786840000073,None,ScrollUp,정답입니다,141.70786840000073,None,141.70786840000073,None,141.70786840000073,None,141.70786840000073,None,143.13919120002538,None,143.13919120002538,143.6391032000247,,,,,,,,,,,,,,,,116,2022-05-05_10h59.35.867,FishGame,2022.1.1,60.10092146615832,
,2,넌 기품있어,2,Orange,B,5.791666666666668,4.5,ScrollUp,ScrollDown,Orange.png,1,Positive,Incongruent,,,,,0,0,0,0,,,,,,,,,,,,,0,1,1,1,,,,,,,,,,,,,,,,,,,,,,,,,,,,,,,,,,,,,,,,,,,,,,,,,,,,,,,,,,,,,,,,,,,,,,,,,,,,,,,,,2,1.4945759999973234,144.28423970000586,None,ScrollUp,정답입니다,144.28423970000586,None,144.28423970000586,None,144.28423970000586,None,144.28423970000586,None,145.6555072000192,None,145.6555072000192,146.1560360000003,,,,,,,,,,,,,,,,116,2022-05-05_10h59.35.867,FishGame,2022.1.1,60.10092146615832,
,3,나를 보내줘,6,Green,A,0,0,ScrollUp,ScrollDown,Green.png,1,NonTarget,NonTarget,,,,,0,0,0,0,,,,,,,,,,,,,0,2,2,2,,,,,,,,,,,,,,,,,,,,,,,,,,,,,,,,,,,,,,,,,,,,,,,,,,,,,,,,,,,,,,,,,,,,,,,,,,,,,,,,,2,1.4257349999970756,146.79539060001844,None,ScrollUp,정답입니다,146.79539060001844,None,146.79539060001844,None,146.79539060001844,None,146.79539060001844,None,148.1055456000031,None,148.1055456000031,148.6058667000034,,,,,,,,,,,,,,,,116,2022-05-05_10h59.35.867,FishGame,2022.1.1,60.10092146615832,
,4,넌 수동적이야,4,Green,A,2.833333333333333,2.933333333333333,ScrollDown,ScrollUp,Green.png,1,Negative,Incongruent,,,,,0,0,0,0,,,,,,,,,,,,,0,3,3,3,,,,,,,,,,,,,,,,,,,,,,,,,,,,,,,,,,,,,,,,,,,,,,,,,,,,,,,,,,,,,,,,,,,,,,,,,,,,,,,,,1,1.9016471999930218,149.2519094000163,None,ScrollDown,정답입니다,149.2519094000163,None,149.2519094000163,None,149.2519094000163,None,149.2519094000163,None,151.02773620001972,None,151.02773620001972,151.5394501000119,,,,,,,,,,,,,,,,116,2022-05-05_10h59.35.867,FishGame,2022.1.1,60.10092146615832,
,5,넌 사심이 없어,3,Orange,B,4.916666666666666,4.333333333333333,ScrollUp,ScrollDown,Orange.png,1,Neutral,Neutral,,,,,0,0,0,0,,,,,,,,,,,,,0,4,4,4,,,,,,,,,,,,,,,,,,,,,,,,,,,,,,,,,,,,,,,,,,,,,,,,,,,,,,,,,,,,,,,,,,,,,,,,,,,,,,,,,2,1.7187213000142947,152.18501169999945,None,ScrollUp,정답입니다,152.18501169999945,None,152.18501169999945,None,152.18501169999945,None,152.18501169999945,None,153.77658170001814,None,153.77658170001814,154.2897269000241,,,,,,,,,,,,,,,,116,2022-05-05_10h59.35.867,FishGame,2022.1.1,60.10092146615832,
,6,넌 헤퍼,5,Green,A,2.458333333333334,2.233333333333333,ScrollDown,ScrollUp,Green.png,1,Negative,Incongruent,,,,,0,0,0,0,,,,,,,,,,,,,0,5,5,5,,,,,,,,,,,,,,,,,,,,,,,,,,,,,,,,,,,,,,,,,,,,,,,,,,,,,,,,,,,,,,,,,,,,,,,,,,,,,,,,,1,2.029800599993905,154.92620620000525,None,ScrollDown,정답입니다,154.92620620000525,None,154.92620620000525,None,154.92620620000525,None,154.92620620000525,None,156.8417255000095,None,156.8417255000095,157.35628490001545,,,,,,,,,,,,,,,,116,2022-05-05_10h59.35.867,FishGame,2022.1.1,60.10092146615832,
,7,넌 말쑥해,3,Green,A,4.833333333333334,4.333333333333333,ScrollDown,ScrollUp,Green.png,1,Neutral,Neutral,,,,,0,0,0,0,,,,,,,,,,,,,0,6,6,6,,,,,,,,,,,,,,,,,,,,,,,,,,,,,,,,,,,,,,,,,,,,,,,,,,,,,,,,,,,,,,,,,,,,,,,,,,,,,,,,,1,1.7582293000014033,157.99136250000447,None,ScrollDown,정답입니다,157.99136250000447,None,157.99136250000447,None,157.99136250000447,None,157.99136250000447,None,159.6396808999998,None,159.6396808999998,160.14035630002036,,,,,,,,,,,,,,,,116,2022-05-05_10h59.35.867,FishGame,2022.1.1,60.10092146615832,
,8,넌 투덜거려,5,Orange,B,2.541666666666667,2.266666666666667,ScrollUp,ScrollDown,Orange.png,1,Negative,Congruent,,,,,0,0,0,0,,,,,,,,,,,,,0,7,7,7,,,,,,,,,,,,,,,,,,,,,,,,,,,,,,,,,,,,,,,,,,,,,,,,,,,,,,,,,,,,,,,,,,,,,,,,,,,,,,,,,2,1.3712974000081886,160.78148900001543,None,ScrollUp,정답입니다,160.78148900001543,None,160.78148900001543,None,160.78148900001543,None,160.78148900001543,None,162.0381458000047,None,162.0381458000047,162.54012180000427,,,,,,,,,,,,,,,,116,2022-05-05_10h59.35.867,FishGame,2022.1.1,60.10092146615832,
,9,넌 적극적이야,1,Green,A,5.708333333333333,5.533333333333333,ScrollDown,ScrollUp,Green.png,1,Positive,Congruent,,,,,0,0,0,0,,,,,,,,,,,,,0,8,8,8,,,,,,,,,,,,,,,,,,,,,,,,,,,,,,,,,,,,,,,,,,,,,,,,,,,,,,,,,,,,,,,,,,,,,,,,,,,,,,,,,1,1.4453988999885041,163.17183500001556,None,ScrollDown,정답입니다,163.17183500001556,None,163.17183500001556,None,163.17183500001556,None,163.17183500001556,None,164.50596430001315,None,164.50596430001315,165.00695720000658,,,,,,,,,,,,,,,,116,2022-05-05_10h59.35.867,FishGame,2022.1.1,60.10092146615832,
,10,넌 재미없어,4,Orange,B,2.625,2.966666666666667,ScrollUp,ScrollDown,Orange.png,1,Negative,Congruent,,,,,0,0,0,0,,,,,,,,,,,,,0,9,9,9,,,,,,,,,,,,,,,,,,,,,,,,,,,,,,,,,,,,,,,,,,,,,,,,,,,,,,,,,,,,,,,,,,,,,,,,,,,,,,,,,2,1.2762828999839257,165.64928680000594,None,ScrollUp,정답입니다,165.64928680000594,None,165.64928680000594,None,165.64928680000594,None,165.64928680000594,None,166.80625090000103,None,166.80625090000103,167.3063955999969,,,,,,,,,,,,,,,,116,2022-05-05_10h59.35.867,FishGame,2022.1.1,60.10092146615832,
,11,넌 명석해,2,Green,A,5.875,4.033333333333333,ScrollDown,ScrollUp,Green.png,1,Positive,Congruent,,,,,0,0,0,0,,,,,,,,,,,,,0,10,10,10,,,,,,,,,,,,,,,,,,,,,,,,,,,,,,,,,,,,,,,,,,,,,,,,,,,,,,,,,,,,,,,,,,,,,,,,,,,,,,,,,1,1.2042522000265308,167.94043800001964,None,ScrollDown,정답입니다,167.94043800001964,None,167.94043800001964,None,167.94043800001964,None,167.94043800001964,None,169.0381559000234,None,169.0381559000234,169.53964319999795,,,,,,,,,,,,,,,,116,2022-05-05_10h59.35.867,FishGame,2022.1.1,60.10092146615832,
,12,나를 데려가줘,6,Orange,B,0,0,ScrollDown,ScrollUp,Orange.png,1,NonTarget,NonTarget,,,,,0,0,0,0,,,,,,,,,,,,,0,11,11,11,,,,,,,,,,,,,,,,,,,,,,,,,,,,,,,,,,,,,,,,,,,,,,,,,,,,,,,,,,,,,,,,,,,,,,,,,,,,,,,,,1,1.6233403000223916,170.180543399998,None,ScrollDown,정답입니다,170.180543399998,None,170.180543399998,None,170.180543399998,None,170.180543399998,None,171.6883354000165,None,171.6883354000165,172.18992180001806,,,,,,,,,,,,,,,,116,2022-05-05_10h59.35.867,FishGame,2022.1.1,60.10092146615832,
,13,넌 소심해,4,Green,A,3,3.1,ScrollDown,ScrollUp,Green.png,1,Negative,Incongruent,,,,,0,0,0,0,,,,,,,,,,,,,0,12,12,12,,,,,,,,,,,,,,,,,,,,,,,,,,,,,,,,,,,,,,,,,,,,,,,,,,,,,,,,,,,,,,,,,,,,,,,,,,,,,,,,,1,1.3718932999763638,172.81965580000542,None,ScrollDown,정답입니다,172.81965580000542,None,172.81965580000542,None,172.81965580000542,None,172.81965580000542,None,174.08792250000988,None,174.08792250000988,174.590285400016,,,,,,,,,,,,,,,,116,2022-05-05_10h59.35.867,FishGame,2022.1.1,60.10092146615832,
,14,넌 합리적이야,2,Green,A,5.583333333333333,4.733333333333333,ScrollDown,ScrollUp,Green.png,1,Positive,Congruent,,,,,0,0,0,0,,,,,,,,,,,,,0,13,13,13,,,,,,,,,,,,,,,,,,,,,,,,,,,,,,,,,,,,,,,,,,,,,,,,,,,,,,,,,,,,,,,,,,,,,,,,,,,,,,,,,1,1.2197288000024855,175.2236963000032,None,ScrollDown,정답입니다,175.2236963000032,None,175.2236963000032,None,175.2236963000032,None,175.2236963000032,None,176.33804880001117,None,176.33804880001117,176.84003050002502,,,,,,,,,,,,,,,,116,2022-05-05_10h59.35.867,FishGame,2022.1.1,60.10092146615832,
,15,넌 무자비해,5,Orange,B,2.333333333333333,2.1,ScrollUp,ScrollDown,Orange.png,1,Negative,Congruent,,,,,0,0,0,0,,,,,,,,,,,,,0,14,14,14,,,,,,,,,,,,,,,,,,,,,,,,,,,,,,,,,,,,,,,,,,,,,,,,,,,,,,,,,,,,,,,,,,,,,,,,,,,,,,,,,2,1.3431826000160072,177.48037800000748,None,ScrollUp,정답입니다,177.48037800000748,None,177.48037800000748,None,177.48037800000748,None,177.48037800000748,None,178.70685500002583,None,178.70685500002583,179.20669300001464,,,,,,,,,,,,,,,,116,2022-05-05_10h59.35.867,FishGame,2022.1.1,60.10092146615832,
,16,나를 보내줘,6,Green,A,0,0,ScrollUp,ScrollDown,Green.png,1,NonTarget,NonTarget,,,,,0,0,0,0,,,,,,,,,,,,,0,15,15,15,,,,,,,,,,,,,,,,,,,,,,,,,,,,,,,,,,,,,,,,,,,,,,,,,,,,,,,,,,,,,,,,,,,,,,,,,,,,,,,,,2,1.5836830000043847,179.83786260001943,None,ScrollUp,정답입니다,179.83786260001943,None,179.83786260001943,None,179.83786260001943,None,179.83786260001943,None,181.31104710002546,None,181.31104710002546,181.82380670000566,,,,,,,,,,,,,,,,116,2022-05-05_10h59.35.867,FishGame,2022.1.1,60.10092146615832,
,17,넌 현실적이야,3,Orange,B,4.608695652173913,4.766666666666667,ScrollUp,ScrollDown,Orange.png,1,Neutral,Neutral,,,,,0,0,0,0,,,,,,,,,,,,,0,16,16,16,,,,,,,,,,,,,,,,,,,,,,,,,,,,,,,,,,,,,,,,,,,,,,,,,,,,,,,,,,,,,,,,,,,,,,,,,,,,,,,,,2,1.5121612999937497,182.46286670002155,None,ScrollUp,정답입니다,182.46286670002155,None,182.46286670002155,None,182.46286670002155,None,182.46286670002155,None,183.8568454000051,None,183.8568454000051,184.3568030000024,,,,,,,,,,,,,,,,116,2022-05-05_10h59.35.867,FishGame,2022.1.1,60.10092146615832,
,18,넌 의리있어,1,Orange,B,5.833333333333334,5.633333333333334,ScrollUp,ScrollDown,Orange.png,1,Positive,Incongruent,,,,,0,0,0,0,,,,,,,,,,,,,0,17,17,17,,,,,,,,,,,,,,,,,,,,,,,,,,,,,,,,,,,,,,,,,,,,,,,,,,,,,,,,,,,,,,,,,,,,,,,,,,,,,,,,,2,1.144468099984806,184.9976416999998,None,ScrollUp,정답입니다,184.9976416999998,None,184.9976416999998,None,184.9976416999998,None,184.9976416999998,None,186.0244794000173,None,186.0244794000173,186.52375880000181,,,,,,,,,,,,,,,,116,2022-05-05_10h59.35.867,FishGame,2022.1.1,60.10092146615832,
,19,넌 신경과민이야,5,Green,A,2.541666666666667,2.166666666666667,ScrollDown,ScrollUp,Green.png,1,Negative,Incongruent,,,,,0,0,0,0,,,,,,,,,,,,,0,18,18,18,,,,,,,,,,,,,,,,,,,,,,,,,,,,,,,,,,,,,,,,,,,,,,,,,,,,,,,,,,,,,,,,,,,,,,,,,,,,,,,,,1,1.5802077999978792,187.16728429999785,None,ScrollDown,정답입니다,187.16728429999785,None,187.16728429999785,None,187.16728429999785,None,187.16728429999785,None,188.62694360001478,None,188.62694360001478,189.14064300002065,,,,,,,,,,,,,,,,116,2022-05-05_10h59.35.867,FishGame,2022.1.1,60.10092146615832,
,20,넌 편안해,1,Green,A,5.916666666666666,5.866666666666666,ScrollDown,ScrollUp,Green.png,1,Positive,Congruent,,,,,0,0,0,0,,,,,,,,,,,,,0,19,19,19,,,,,,,,,,,,,,,,,,,,,,,,,,,,,,,,,,,,,,,,,,,,,,,,,,,,,,,,,,,,,,,,,,,,,,,,,,,,,,,,,1,1.418899500014959,189.77538410000852,None,ScrollDown,정답입니다,189.77538410000852,None,189.77538410000852,None,189.77538410000852,None,189.77538410000852,None,191.07867980000447,None,191.07867980000447,191.59069070001715,,,,,,,,,,,,,,,,116,2022-05-05_10h59.35.867,FishGame,2022.1.1,60.10092146615832,
,21,넌 품위있어,2,Orange,B,5.291666666666666,4.466666666666667,ScrollUp,ScrollDown,Orange.png,1,Positive,Incongruent,,,,,0,0,0,0,,,,,,,,,,,,,0,20,20,20,,,,,,,,,,,,,,,,,,,,,,,,,,,,,,,,,,,,,,,,,,,,,,,,,,,,,,,,,,,,,,,,,,,,,,,,,,,,,,,,,2,1.257652300002519,192.22534710000036,None,ScrollUp,정답입니다,192.22534710000036,None,192.22534710000036,None,192.22534710000036,None,192.22534710000036,None,193.3718640000152,None,193.3718640000152,193.87392470001942,,,,,,,,,,,,,,,,116,2022-05-05_10h59.35.867,FishGame,2022.1.1,60.10092146615832,
,22,넌 빈틈없어,3,Green,A,4.833333333333333,3.966666666666667,ScrollDown,ScrollUp,Green.png,1,Neutral,Neutral,,,,,0,0,0,0,,,,,,,,,,,,,0,21,21,21,,,,,,,,,,,,,,,,,,,,,,,,,,,,,,,,,,,,,,,,,,,,,,,,,,,,,,,,,,,,,,,,,,,,,,,,,,,,,,,,,1,1.3929220999998506,194.5084492000169,None,ScrollDown,정답입니다,194.5084492000169,None,194.5084492000169,None,194.5084492000169,None,194.5084492000169,None,195.79017490000115,None,195.79017490000115,196.290702600003,,,,,,,,,,,,,,,,116,2022-05-05_10h59.35.867,FishGame,2022.1.1,60.10092146615832,
,23,넌 상상력없어,4,Orange,B,2.833333333333333,3.133333333333333,ScrollUp,ScrollDown,Orange.png,1,Negative,Congruent,,,,,0,0,0,0,,,,,,,,,,,,,0,22,22,22,,,,,,,,,,,,,,,,,,,,,,,,,,,,,,,,,,,,,,,,,,,,,,,,,,,,,,,,,,,,,,,,,,,,,,,,,,,,,,,,,2,1.833232200006023,196.9293271000206,None,ScrollUp,정답입니다,196.9293271000206,None,196.9293271000206,None,196.9293271000206,None,196.9293271000206,None,198.64509700000053,None,198.64509700000053,199.15704240000923,,,,,,,,,,,,,,,,116,2022-05-05_10h59.35.867,FishGame,2022.1.1,60.10092146615832,
,24,넌 지혜로워,2,Orange,B,6.333333333333334,4.633333333333334,ScrollUp,ScrollDown,Orange.png,1,Positive,Incongruent,,,,,0,0,0,0,,,,,,,,,,,,,0,23,23,23,,,,,,,,,,,,,,,,,,,,,,,,,,,,,,,,,,,,,,,,,,,,,,,,,,,,,,,,,,,,,,,,,,,,,,,,,,,,,,,,,2,1.0330677999882028,199.79810410001664,None,ScrollUp,정답입니다,199.79810410001664,None,199.79810410001664,None,199.79810410001664,None,199.79810410001664,None,200.71165400001337,None,200.71165400001337,201.22426960000303,,,,,,,,,,,,,,,,116,2022-05-05_10h59.35.867,FishGame,2022.1.1,60.10092146615832,
,25,넌 시끄러워,4,Green,A,2.833333333333333,3.033333333333333,ScrollDown,ScrollUp,Green.png,1,Negative,Incongruent,,,,,0,0,0,0,,,,,,,,,,,,,0,24,24,24,,,,,,,,,,,,,,,,,,,,,,,,,,,,,,,,,,,,,,,,,,,,,,,,,,,,,,,,,,,,,,,,,,,,,,,,,,,,,,,,,1,1.0286056000040844,201.86420780001208,None,ScrollDown,정답입니다,201.86420780001208,None,201.86420780001208,None,201.86420780001208,None,201.86420780001208,None,202.77358490001643,None,202.77358490001643,203.27425149999908,,,,,,,,,,,,,,,,116,2022-05-05_10h59.35.867,FishGame,2022.1.1,60.10092146615832,
,26,넌 만사태평이야,3,Orange,B,4,4.333333333333333,ScrollUp,ScrollDown,Orange.png,1,Neutral,Neutral,,,,,0,0,0,0,,,,,,,,,,,,,0,25,25,25,,,,,,,,,,,,,,,,,,,,,,,,,,,,,,,,,,,,,,,,,,,,,,,,,,,,,,,,,,,,,,,,,,,,,,,,,,,,,,,,,2,0.9368712999857962,203.91538320001564,None,ScrollUp,정답입니다,203.91538320001564,None,203.91538320001564,None,203.91538320001564,None,203.91538320001564,None,204.73887510001077,None,204.73887510001077,205.24037650000537,,,,,,,,,,,,,,,,116,2022-05-05_10h59.35.867,FishGame,2022.1.1,60.10092146615832,
,27,넌 붙임성있어,1,Green,A,5.708333333333333,5.633333333333334,ScrollDown,ScrollUp,Green.png,1,Positive,Congruent,,,,,0,0,0,0,,,,,,,,,,,,,0,26,26,26,,,,,,,,,,,,,,,,,,,,,,,,,,,,,,,,,,,,,,,,,,,,,,,,,,,,,,,,,,,,,,,,,,,,,,,,,,,,,,,,,1,1.1854126999969594,205.87852990001556,None,ScrollDown,정답입니다,205.87852990001556,None,205.87852990001556,None,205.87852990001556,None,205.87852990001556,None,206.9453160999983,None,206.9453160999983,207.45713049999904,,,,,,,,,,,,,,,,116,2022-05-05_10h59.35.867,FishGame,2022.1.1,60.10092146615832,
,28,넌 영리해,2,Green,A,6,4.033333333333333,ScrollDown,ScrollUp,Green.png,1,Positive,Congruent,,,,,0,0,0,0,,,,,,,,,,,,,0,27,27,27,,,,,,,,,,,,,,,,,,,,,,,,,,,,,,,,,,,,,,,,,,,,,,,,,,,,,,,,,,,,,,,,,,,,,,,,,,,,,,,,,1,1.035887800011551,208.0855577000184,None,ScrollDown,정답입니다,208.0855577000184,None,208.0855577000184,None,208.0855577000184,None,208.0855577000184,None,209.02188220000244,None,209.02188220000244,209.52409990000888,,,,,,,,,,,,,,,,116,2022-05-05_10h59.35.867,FishGame,2022.1.1,60.10092146615832,
,29,넌 열심이야,1,Orange,B,6.041666666666667,5.833333333333333,ScrollUp,ScrollDown,Orange.png,1,Positive,Incongruent,,,,,0,0,0,0,,,,,,,,,,,,,0,28,28,28,,,,,,,,,,,,,,,,,,,,,,,,,,,,,,,,,,,,,,,,,,,,,,,,,,,,,,,,,,,,,,,,,,,,,,,,,,,,,,,,,2,1.2510951999865938,210.16150380001636,None,ScrollUp,정답입니다,210.16150380001636,None,210.16150380001636,None,210.16150380001636,None,210.16150380001636,None,211.29554560000543,None,211.29554560000543,211.80802570001106,,,,,,,,,,,,,,,,116,2022-05-05_10h59.35.867,FishGame,2022.1.1,60.10092146615832,
,30,넌 인기없어,4,Orange,B,3,3.3,ScrollUp,ScrollDown,Orange.png,1,Negative,Congruent,,,,,0,0,0,0,,,,,,,,,,,,,0,29,29,29,,,,,,,,,,,,,,,,,,,,,,,,,,,,,,,,,,,,,,,,,,,,,,,,,,,,,,,,,,,,,,,,,,,,,,,,,,,,,,,,,2,1.228100300009828,212.4420544000168,None,ScrollUp,정답입니다,212.4420544000168,None,212.4420544000168,None,212.4420544000168,None,212.4420544000168,None,213.55746920002275,None,213.55746920002275,214.0572708999971,,,,,,,,,,,,,,,,116,2022-05-05_10h59.35.867,FishGame,2022.1.1,60.10092146615832,
,31,넌 익살스러워,3,Green,A,4.708333333333334,4.833333333333333,ScrollDown,ScrollUp,Green.png,1,Neutral,Neutral,,,,,0,0,0,0,,,,,,,,,,,,,0,30,30,30,,,,,,,,,,,,,,,,,,,,,,,,,,,,,,,,,,,,,,,,,,,,,,,,,,,,,,,,,,,,,,,,,,,,,,,,,,,,,,,,,1,1.1110272999794688,214.69582130000344,None,ScrollDown,정답입니다,214.69582130000344,None,214.69582130000344,None,214.69582130000344,None,214.69582130000344,None,215.68752840001252,None,215.68752840001252,216.19108170000254,,,,,,,,,,,,,,,,116,2022-05-05_10h59.35.867,FishGame,2022.1.1,60.10092146615832,
,32,넌 이기적이야,5,Orange,B,2.291666666666667,2.333333333333333,ScrollUp,ScrollDown,Orange.png,1,Negative,Congruent,,,,,0,0,0,0,,,,,,,,,,,,,0,31,31,31,,,,,,,,,,,,,,,,,,,,,,,,,,,,,,,,,,,,,,,,,,,,,,,,,,,,,,,,,,,,,,,,,,,,,,,,,,,,,,,,,2,1.457622000016272,216.82357130001765,None,ScrollUp,정답입니다,216.82357130001765,None,216.82357130001765,None,216.82357130001765,None,216.82357130001765,None,218.17227260000072,None,218.17227260000072,218.67436830000952,,,,,,,,,,,,,,,,116,2022-05-05_10h59.35.867,FishGame,2022.1.1,60.10092146615832,
,33,나를 데려가줘,6,Orange,B,0,0,ScrollDown,ScrollUp,Orange.png,1,NonTarget,NonTarget,,,,,0,0,0,0,,,,,,,,,,,,,0,32,32,32,,,,,,,,,,,,,,,,,,,,,,,,,,,,,,,,,,,,,,,,,,,,,,,,,,,,,,,,,,,,,,,,,,,,,,,,,,,,,,,,,1,1.2860067000146955,219.30646590000833,None,ScrollDown,정답입니다,219.30646590000833,None,219.30646590000833,None,219.30646590000833,None,219.30646590000833,None,220.4889317000052,None,220.4889317000052,220.990816000005,,,,,,,,,,,,,,,,116,2022-05-05_10h59.35.867,FishGame,2022.1.1,60.10092146615832,
,34,넌 기회주의자야,5,Green,A,2.875,2.133333333333333,ScrollDown,ScrollUp,Green.png,1,Negative,Incongruent,,,,,0,0,0,0,,,,,,,,,,,,,0,33,33,33,,,,,,,,,,,,,,,,,,,,,,,,,,,,,,,,,,,,,,,,,,,,,,,,,,,,,,,,,,,,,,,,,,,,,,,,,,,,,,,,,1,1.4061673000105657,221.62630470001022,None,ScrollDown,정답입니다,221.62630470001022,None,221.62630470001022,None,221.62630470001022,None,221.62630470001022,None,222.9223058000207,None,222.9223058000207,223.4247311000072,,,,,,,,,,,,,,,,116,2022-05-05_10h59.35.867,FishGame,2022.1.1,60.10092146615832,
,1,넌 미성숙해,4,Green,A,3,3.2,ScrollDown,ScrollUp,Green.png,2,Negative,Incongruent,,,,,0,0,0,0,,,,,,,,,,,,,,,,,0,0,0,0,,,,,,,,,,,,,,,,,,,,,,,,,,,,,,,,,,,,256.52541300002486,258.0258356000122,258.0581765000243,259.0087224000017,259.05873780002,260.00821339999675,260.00821339999675,None,,,,,,,,,,,,,,,,,,,,,,,,,,,,,,,,,,1,1.2959204999788199,261.1542115000193,None,ScrollDown,정답입니다,261.1542115000193,None,261.1542115000193,None,261.1542115000193,None,261.1542115000193,None,262.29701350000687,None,262.29701350000687,262.8083550000156,223.92476980001084,None,223.92476980001084,None,0.24259259,-0.08981481,1,0,0,0.016176270000869408,None,253.92500470002415,None,,,116,2022-05-05_10h59.35.867,FishGame,2022.1.1,60.10092146615832,
,2,넌 반사회적이야,5,Orange,B,2.416666666666667,2.033333333333333,ScrollUp,ScrollDown,Orange.png,2,Negative,Congruent,,,,,0,0,0,0,,,,,,,,,,,,,,,,,0,1,1,1,,,,,,,,,,,,,,,,,,,,,,,,,,,,,,,,,,,,,,,,,,,,,,,,,,,,,,,,,,,,,,,,,,,,,,,,,,,,,2,1.1992437999870162,263.44461100001354,None,ScrollUp,정답입니다,263.44461100001354,None,263.44461100001354,None,263.44461100001354,None,263.44461100001354,None,264.5302210000227,None,264.5302210000227,265.04160700002103,,,,,,,,,,,,,,,,116,2022-05-05_10h59.35.867,FishGame,2022.1.1,60.10092146615832,
,3,넌 유능해,2,Green,A,6.208333333333333,4.433333333333334,ScrollDown,ScrollUp,Green.png,2,Positive,Congruent,,,,,0,0,0,0,,,,,,,,,,,,,,,,,0,2,2,2,,,,,,,,,,,,,,,,,,,,,,,,,,,,,,,,,,,,,,,,,,,,,,,,,,,,,,,,,,,,,,,,,,,,,,,,,,,,,1,1.0020094999927096,265.6770369000151,None,ScrollDown,정답입니다,265.6770369000151,None,265.6770369000151,None,265.6770369000151,None,265.6770369000151,None,266.5632068999985,None,266.5632068999985,267.075899700023,,,,,,,,,,,,,,,,116,2022-05-05_10h59.35.867,FishGame,2022.1.1,60.10092146615832,
,4,넌 능숙해,2,Orange,B,5.666666666666667,4.733333333333333,ScrollUp,ScrollDown,Orange.png,2,Positive,Incongruent,,,,,0,0,0,0,,,,,,,,,,,,,,,,,0,3,3,3,,,,,,,,,,,,,,,,,,,,,,,,,,,,,,,,,,,,,,,,,,,,,,,,,,,,,,,,,,,,,,,,,,,,,,,,,,,,,2,0.840875199995935,267.70660289999796,None,ScrollUp,정답입니다,267.70660289999796,None,267.70660289999796,None,267.70660289999796,None,267.70660289999796,None,268.4401713999978,None,268.4401713999978,268.9421079000167,,,,,,,,,,,,,,,,116,2022-05-05_10h59.35.867,FishGame,2022.1.1,60.10092146615832,
,5,넌 진부해,4,Orange,B,2.458333333333333,3.166666666666667,ScrollUp,ScrollDown,Orange.png,2,Negative,Congruent,,,,,0,0,0,0,,,,,,,,,,,,,,,,,0,4,4,4,,,,,,,,,,,,,,,,,,,,,,,,,,,,,,,,,,,,,,,,,,,,,,,,,,,,,,,,,,,,,,,,,,,,,,,,,,,,,2,1.2501636000233702,269.58165050001116,None,ScrollUp,정답입니다,269.58165050001116,None,269.58165050001116,None,269.58165050001116,None,269.58165050001116,None,270.7135062000016,None,270.7135062000016,271.22544619999826,,,,,,,,,,,,,,,,116,2022-05-05_10h59.35.867,FishGame,2022.1.1,60.10092146615832,
,6,나를 보내줘,6,Green,A,0,0,ScrollUp,ScrollDown,Green.png,2,NonTarget,NonTarget,,,,,0,0,0,0,,,,,,,,,,,,,,,,,0,5,5,5,,,,,,,,,,,,,,,,,,,,,,,,,,,,,,,,,,,,,,,,,,,,,,,,,,,,,,,,,,,,,,,,,,,,,,,,,,,,,2,1.1050467000168283,271.85404330000165,None,ScrollUp,정답입니다,271.85404330000165,None,271.85404330000165,None,271.85404330000165,None,271.85404330000165,None,272.85680290000164,None,272.85680290000164,273.35872680001194,,,,,,,,,,,,,,,,116,2022-05-05_10h59.35.867,FishGame,2022.1.1,60.10092146615832,
,7,넌 엄격해,3,Green,A,4.166666666666666,4.1,ScrollDown,ScrollUp,Green.png,2,Neutral,Neutral,,,,,0,0,0,0,,,,,,,,,,,,,,,,,0,6,6,6,,,,,,,,,,,,,,,,,,,,,,,,,,,,,,,,,,,,,,,,,,,,,,,,,,,,,,,,,,,,,,,,,,,,,,,,,,,,,1,1.0219671000086237,274.00116290000733,None,ScrollDown,정답입니다,274.00116290000733,None,274.00116290000733,None,274.00116290000733,None,274.00116290000733,None,274.9086456000223,None,274.9086456000223,275.4088417000021,,,,,,,,,,,,,,,,116,2022-05-05_10h59.35.867,FishGame,2022.1.1,60.10092146615832,
,8,나를 보내줘,6,Green,A,0,0,ScrollUp,ScrollDown,Green.png,2,NonTarget,NonTarget,,,,,0,0,0,0,,,,,,,,,,,,,,,,,0,7,7,7,,,,,,,,,,,,,,,,,,,,,,,,,,,,,,,,,,,,,,,,,,,,,,,,,,,,,,,,,,,,,,,,,,,,,,,,,,,,,2,1.2615947000158485,276.0381992000039,None,ScrollUp,정답입니다,276.0381992000039,None,276.0381992000039,None,276.0381992000039,None,276.0381992000039,None,277.1918741000118,None,277.1918741000118,277.6917755000177,,,,,,,,,,,,,,,,116,2022-05-05_10h59.35.867,FishGame,2022.1.1,60.10092146615832,
,9,넌 대담해,3,Orange,B,4.875,4.866666666666666,ScrollUp,ScrollDown,Orange.png,2,Neutral,Neutral,,,,,0,0,0,0,,,,,,,,,,,,,,,,,0,8,8,8,,,,,,,,,,,,,,,,,,,,,,,,,,,,,,,,,,,,,,,,,,,,,,,,,,,,,,,,,,,,,,,,,,,,,,,,,,,,,2,2.1101796999864746,278.34582100002444,None,ScrollUp,정답입니다,278.34582100002444,None,278.34582100002444,None,278.34582100002444,None,278.34582100002444,None,280.3257406000048,None,280.3257406000048,280.8255691000086,,,,,,,,,,,,,,,,116,2022-05-05_10h59.35.867,FishGame,2022.1.1,60.10092146615832,
,10,넌 꾸준해,1,Green,A,5.916666666666668,5.8,ScrollDown,ScrollUp,Green.png,2,Positive,Congruent,,,,,0,0,0,0,,,,,,,,,,,,,,,,,0,9,9,9,,,,,,,,,,,,,,,,,,,,,,,,,,,,,,,,,,,,,,,,,,,,,,,,,,,,,,,,,,,,,,,,,,,,,,,,,,,,,1,1.1613191000069492,281.46093300002394,None,ScrollDown,정답입니다,281.46093300002394,None,281.46093300002394,None,281.46093300002394,None,281.46093300002394,None,282.5089240000234,None,282.5089240000234,283.00888690000284,,,,,,,,,,,,,,,,116,2022-05-05_10h59.35.867,FishGame,2022.1.1,60.10092146615832,
,11,나를 데려가줘,6,Orange,B,0,0,ScrollDown,ScrollUp,Orange.png,2,NonTarget,NonTarget,,,,,0,0,0,0,,,,,,,,,,,,,,,,,0,10,10,10,,,,,,,,,,,,,,,,,,,,,,,,,,,,,,,,,,,,,,,,,,,,,,,,,,,,,,,,,,,,,,,,,,,,,,,,,,,,,1,1.4461612000013702,283.64167120002094,None,ScrollDown,정답입니다,283.64167120002094,None,283.64167120002094,None,283.64167120002094,None,283.64167120002094,None,284.9756052000157,None,284.9756052000157,285.47567000001436,,,,,,,,,,,,,,,,116,2022-05-05_10h59.35.867,FishGame,2022.1.1,60.10092146615832,
,12,넌 독선적이야,5,Green,A,2.458333333333333,1.933333333333333,ScrollDown,ScrollUp,Green.png,2,Negative,Incongruent,,,,,0,0,0,0,,,,,,,,,,,,,,,,,0,11,11,11,,,,,,,,,,,,,,,,,,,,,,,,,,,,,,,,,,,,,,,,,,,,,,,,,,,,,,,,,,,,,,,,,,,,,,,,,,,,,1,1.3015969000116456,286.11287000001175,None,ScrollDown,정답입니다,286.11287000001175,None,286.11287000001175,None,286.11287000001175,None,286.11287000001175,None,287.2971779000072,None,287.2971779000072,287.8091859999986,,,,,,,,,,,,,,,,116,2022-05-05_10h59.35.867,FishGame,2022.1.1,60.10092146615832,
,13,나를 보내줘,6,Green,A,0,0,ScrollUp,ScrollDown,Green.png,2,NonTarget,NonTarget,,,,,0,0,0,0,,,,,,,,,,,,,,,,,0,12,12,12,,,,,,,,,,,,,,,,,,,,,,,,,,,,,,,,,,,,,,,,,,,,,,,,,,,,,,,,,,,,,,,,,,,,,,,,,,,,,2,1.2493757999909576,288.4377510000195,None,ScrollUp,정답입니다,288.4377510000195,None,288.4377510000195,None,288.4377510000195,None,288.4377510000195,None,289.5797615000047,None,289.5797615000047,290.0924546000024,,,,,,,,,,,,,,,,116,2022-05-05_10h59.35.867,FishGame,2022.1.1,60.10092146615832,
,14,넌 책임감있어,1,Orange,B,6.347826086956522,6,ScrollUp,ScrollDown,Orange.png,2,Positive,Incongruent,,,,,0,0,0,0,,,,,,,,,,,,,,,,,0,13,13,13,,,,,,,,,,,,,,,,,,,,,,,,,,,,,,,,,,,,,,,,,,,,,,,,,,,,,,,,,,,,,,,,,,,,,,,,,,,,,2,1.1714596999809146,290.7322182000207,None,ScrollUp,정답입니다,290.7322182000207,None,290.7322182000207,None,290.7322182000207,None,290.7322182000207,None,291.7904016000102,None,291.7904016000102,292.29298980001477,,,,,,,,,,,,,,,,116,2022-05-05_10h59.35.867,FishGame,2022.1.1,60.10092146615832,
,15,넌 문학적이야,3,Green,A,4.708333333333334,4.333333333333333,ScrollDown,ScrollUp,Green.png,2,Neutral,Neutral,,,,,0,0,0,0,,,,,,,,,,,,,,,,,0,14,14,14,,,,,,,,,,,,,,,,,,,,,,,,,,,,,,,,,,,,,,,,,,,,,,,,,,,,,,,,,,,,,,,,,,,,,,,,,,,,,1,1.2054369000252336,292.92694800000754,None,ScrollDown,정답입니다,292.92694800000754,None,292.92694800000754,None,292.92694800000754,None,292.92694800000754,None,294.023983400024,None,294.023983400024,294.5261583000247,,,,,,,,,,,,,,,,116,2022-05-05_10h59.35.867,FishGame,2022.1.1,60.10092146615832,
,16,넌 재미있어,1,Orange,B,5.875,5.7,ScrollUp,ScrollDown,Orange.png,2,Positive,Incongruent,,,,,0,0,0,0,,,,,,,,,,,,,,,,,0,15,15,15,,,,,,,,,,,,,,,,,,,,,,,,,,,,,,,,,,,,,,,,,,,,,,,,,,,,,,,,,,,,,,,,,,,,,,,,,,,,,2,1.1413458000170067,295.1617205000075,None,ScrollUp,정답입니다,295.1617205000075,None,295.1617205000075,None,295.1617205000075,None,295.1617205000075,None,296.19316180000897,None,296.19316180000897,296.6927720000094,,,,,,,,,,,,,,,,116,2022-05-05_10h59.35.867,FishGame,2022.1.1,60.10092146615832,
,17,나를 데려가줘,6,Orange,B,0,0,ScrollDown,ScrollUp,Orange.png,2,NonTarget,NonTarget,,,,,0,0,0,0,,,,,,,,,,,,,,,,,0,16,16,16,,,,,,,,,,,,,,,,,,,,,,,,,,,,,,,,,,,,,,,,,,,,,,,,,,,,,,,,,,,,,,,,,,,,,,,,,,,,,1,2.081164900009753,297.32837560001644,None,ScrollDown,정답입니다,297.32837560001644,None,297.32837560001644,None,297.32837560001644,None,297.32837560001644,None,299.29543200001353,None,299.29543200001353,299.8091656000179,,,,,,,,,,,,,,,,116,2022-05-05_10h59.35.867,FishGame,2022.1.1,60.10092146615832,
,18,넌 협력적이야,1,Green,A,5.625,5.633333333333334,ScrollDown,ScrollUp,Green.png,2,Positive,Congruent,,,,,0,0,0,0,,,,,,,,,,,,,,,,,0,17,17,17,,,,,,,,,,,,,,,,,,,,,,,,,,,,,,,,,,,,,,,,,,,,,,,,,,,,,,,,,,,,,,,,,,,,,,,,,,,,,1,1.119530699972529,300.4442926000047,None,ScrollDown,정답입니다,300.4442926000047,None,300.4442926000047,None,300.4442926000047,None,300.4442926000047,None,301.45729660001234,None,301.45729660001234,301.9594803000218,,,,,,,,,,,,,,,,116,2022-05-05_10h59.35.867,FishGame,2022.1.1,60.10092146615832,
,19,넌 평범해,3,Orange,B,4.333333333333332,4.233333333333333,ScrollUp,ScrollDown,Orange.png,2,Neutral,Neutral,,,,,0,0,0,0,,,,,,,,,,,,,,,,,0,18,18,18,,,,,,,,,,,,,,,,,,,,,,,,,,,,,,,,,,,,,,,,,,,,,,,,,,,,,,,,,,,,,,,,,,,,,,,,,,,,,2,1.2714055000105873,302.5986924000026,None,ScrollUp,정답입니다,302.5986924000026,None,302.5986924000026,None,302.5986924000026,None,302.5986924000026,None,303.7577682000119,None,303.7577682000119,304.25939340001787,,,,,,,,,,,,,,,,116,2022-05-05_10h59.35.867,FishGame,2022.1.1,60.10092146615832,
,20,넌 오만해,5,Green,A,2.333333333333333,2,ScrollDown,ScrollUp,Green.png,2,Negative,Incongruent,,,,,0,0,0,0,,,,,,,,,,,,,,,,,0,19,19,19,,,,,,,,,,,,,,,,,,,,,,,,,,,,,,,,,,,,,,,,,,,,,,,,,,,,,,,,,,,,,,,,,,,,,,,,,,,,,1,1.2183598999981768,304.90604680002434,None,ScrollDown,정답입니다,304.90604680002434,None,304.90604680002434,None,304.90604680002434,None,304.90604680002434,None,305.997423599998,None,305.997423599998,306.50947210000595,,,,,,,,,,,,,,,,116,2022-05-05_10h59.35.867,FishGame,2022.1.1,60.10092146615832,
,21,넌 운이없어,4,Orange,B,3,3.466666666666667,ScrollUp,ScrollDown,Orange.png,2,Negative,Congruent,,,,,0,0,0,0,,,,,,,,,,,,,,,,,0,20,20,20,,,,,,,,,,,,,,,,,,,,,,,,,,,,,,,,,,,,,,,,,,,,,,,,,,,,,,,,,,,,,,,,,,,,,,,,,,,,,2,1.444000399991637,307.147927300015,None,ScrollUp,정답입니다,307.147927300015,None,307.147927300015,None,307.147927300015,None,307.147927300015,None,308.4760267000238,None,308.4760267000238,308.97622680000495,,,,,,,,,,,,,,,,116,2022-05-05_10h59.35.867,FishGame,2022.1.1,60.10092146615832,
,22,넌 창조적이야,2,Orange,B,6.125,4.633333333333334,ScrollUp,ScrollDown,Orange.png,2,Positive,Incongruent,,,,,0,0,0,0,,,,,,,,,,,,,,,,,0,21,21,21,,,,,,,,,,,,,,,,,,,,,,,,,,,,,,,,,,,,,,,,,,,,,,,,,,,,,,,,,,,,,,,,,,,,,,,,,,,,,2,1.2498450000130106,309.61777730000904,None,ScrollUp,정답입니다,309.61777730000904,None,309.61777730000904,None,309.61777730000904,None,309.61777730000904,None,310.74748250000994,None,310.74748250000994,311.259467099997,,,,,,,,,,,,,,,,116,2022-05-05_10h59.35.867,FishGame,2022.1.1,60.10092146615832,
,23,나를 보내줘,6,Green,A,0,0,ScrollUp,ScrollDown,Green.png,2,NonTarget,NonTarget,,,,,0,0,0,0,,,,,,,,,,,,,,,,,0,22,22,22,,,,,,,,,,,,,,,,,,,,,,,,,,,,,,,,,,,,,,,,,,,,,,,,,,,,,,,,,,,,,,,,,,,,,,,,,,,,,2,1.2985112000023946,311.8861542000086,None,ScrollUp,정답입니다,311.8861542000086,None,311.8861542000086,None,311.8861542000086,None,311.8861542000086,None,313.0804083000112,None,313.0804083000112,313.5933112000057,,,,,,,,,,,,,,,,116,2022-05-05_10h59.35.867,FishGame,2022.1.1,60.10092146615832,
,24,넌 통찰력있어,2,Green,A,6.5,4.8,ScrollDown,ScrollUp,Green.png,2,Positive,Congruent,,,,,0,0,0,0,,,,,,,,,,,,,,,,,0,23,23,23,,,,,,,,,,,,,,,,,,,,,,,,,,,,,,,,,,,,,,,,,,,,,,,,,,,,,,,,,,,,,,,,,,,,,,,,,,,,,1,1.236276400013594,314.22837730002357,None,ScrollDown,정답입니다,314.22837730002357,None,314.22837730002357,None,314.22837730002357,None,314.22837730002357,None,315.35786180000287,None,315.35786180000287,315.8596588000073,,,,,,,,,,,,,,,,116,2022-05-05_10h59.35.867,FishGame,2022.1.1,60.10092146615832,
,25,넌 경솔해,5,Orange,B,2.458333333333333,2.266666666666667,ScrollUp,ScrollDown,Orange.png,2,Negative,Congruent,,,,,0,0,0,0,,,,,,,,,,,,,,,,,0,24,24,24,,,,,,,,,,,,,,,,,,,,,,,,,,,,,,,,,,,,,,,,,,,,,,,,,,,,,,,,,,,,,,,,,,,,,,,,,,,,,2,1.497240700002294,316.4960855000245,None,ScrollUp,정답입니다,316.4960855000245,None,316.4960855000245,None,316.4960855000245,None,316.4960855000245,None,317.87623630001326,None,317.87623630001326,318.3763293000229,,,,,,,,,,,,,,,,116,2022-05-05_10h59.35.867,FishGame,2022.1.1,60.10092146615832,
,26,넌 초조해,4,Green,A,2.916666666666667,3.133333333333333,ScrollDown,ScrollUp,Green.png,2,Negative,Incongruent,,,,,0,0,0,0,,,,,,,,,,,,,,,,,0,25,25,25,,,,,,,,,,,,,,,,,,,,,,,,,,,,,,,,,,,,,,,,,,,,,,,,,,,,,,,,,,,,,,,,,,,,,,,,,,,,,1,1.0292666000023019,319.00700070001767,None,ScrollDown,정답입니다,319.00700070001767,None,319.00700070001767,None,319.00700070001767,None,319.00700070001767,None,319.92874230002053,None,319.92874230002053,320.4429834000184,,,,,,,,,,,,,,,,116,2022-05-05_10h59.35.867,FishGame,2022.1.1,60.10092146615832,
,27,넌 무관심해,4,Orange,B,2.833333333333333,2.9,ScrollUp,ScrollDown,Orange.png,2,Negative,Congruent,,,,,0,0,0,0,,,,,,,,,,,,,,,,,0,26,26,26,,,,,,,,,,,,,,,,,,,,,,,,,,,,,,,,,,,,,,,,,,,,,,,,,,,,,,,,,,,,,,,,,,,,,,,,,,,,,2,1.2046543000033125,321.08471460000146,None,ScrollUp,정답입니다,321.08471460000146,None,321.08471460000146,None,321.08471460000146,None,321.08471460000146,None,322.17453590000514,None,322.17453590000514,322.6769975000061,,,,,,,,,,,,,,,,116,2022-05-05_10h59.35.867,FishGame,2022.1.1,60.10092146615832,
,28,넌 감성적이야,3,Orange,B,4.125,4.166666666666667,ScrollUp,ScrollDown,Orange.png,2,Neutral,Neutral,,,,,0,0,0,0,,,,,,,,,,,,,,,,,0,27,27,27,,,,,,,,,,,,,,,,,,,,,,,,,,,,,,,,,,,,,,,,,,,,,,,,,,,,,,,,,,,,,,,,,,,,,,,,,,,,,2,1.333840000006603,323.3098202999972,None,ScrollUp,정답입니다,323.3098202999972,None,323.3098202999972,None,323.3098202999972,None,323.3098202999972,None,324.53137979999883,None,324.53137979999883,325.0431102000002,,,,,,,,,,,,,,,,116,2022-05-05_10h59.35.867,FishGame,2022.1.1,60.10092146615832,
,29,넌 배려심있어,1,Green,A,6.083333333333333,5.5,ScrollDown,ScrollUp,Green.png,2,Positive,Congruent,,,,,0,0,0,0,,,,,,,,,,,,,,,,,0,28,28,28,,,,,,,,,,,,,,,,,,,,,,,,,,,,,,,,,,,,,,,,,,,,,,,,,,,,,,,,,,,,,,,,,,,,,,,,,,,,,1,1.3407467000070028,325.68356410000706,None,ScrollDown,정답입니다,325.68356410000706,None,325.68356410000706,None,325.68356410000706,None,325.68356410000706,None,326.9084968000243,None,326.9084968000243,327.4101011000166,,,,,,,,,,,,,,,,116,2022-05-05_10h59.35.867,FishGame,2022.1.1,60.10092146615832,
,30,넌 숨김없어,3,Green,A,4.5,4.933333333333334,ScrollDown,ScrollUp,Green.png,2,Neutral,Neutral,,,,,0,0,0,0,,,,,,,,,,,,,,,,,0,29,29,29,,,,,,,,,,,,,,,,,,,,,,,,,,,,,,,,,,,,,,,,,,,,,,,,,,,,,,,,,,,,,,,,,,,,,,,,,,,,,1,1.1463288000086322,328.0446603000164,None,ScrollDown,정답입니다,328.0446603000164,None,328.0446603000164,None,328.0446603000164,None,328.0446603000164,None,329.0785899000184,None,329.0785899000184,329.59329610000714,,,,,,,,,,,,,,,,116,2022-05-05_10h59.35.867,FishGame,2022.1.1,60.10092146615832,
,31,넌 훌륭해,2,Orange,B,5.916666666666667,4.033333333333333,ScrollUp,ScrollDown,Orange.png,2,Positive,Incongruent,,,,,0,0,0,0,,,,,,,,,,,,,,,,,0,30,30,30,,,,,,,,,,,,,,,,,,,,,,,,,,,,,,,,,,,,,,,,,,,,,,,,,,,,,,,,,,,,,,,,,,,,,,,,,,,,,2,1.461708799994085,330.2361423000111,None,ScrollUp,정답입니다,330.2361423000111,None,330.2361423000111,None,330.2361423000111,None,330.2361423000111,None,331.5767693000089,None,331.5767693000089,332.07693270000163,,,,,,,,,,,,,,,,116,2022-05-05_10h59.35.867,FishGame,2022.1.1,60.10092146615832,
,32,넌 슬기로워,2,Green,A,6.166666666666667,4.1,ScrollDown,ScrollUp,Green.png,2,Positive,Congruent,,,,,0,0,0,0,,,,,,,,,,,,,,,,,0,31,31,31,,,,,,,,,,,,,,,,,,,,,,,,,,,,,,,,,,,,,,,,,,,,,,,,,,,,,,,,,,,,,,,,,,,,,,,,,,,,,1,1.0263618999742903,332.71049600001425,None,ScrollDown,정답입니다,332.71049600001425,None,332.71049600001425,None,332.71049600001425,None,332.71049600001425,None,333.6268603000208,None,333.6268603000208,334.12690150001436,,,,,,,,,,,,,,,,116,2022-05-05_10h59.35.867,FishGame,2022.1.1,60.10092146615832,
,33,넌 냉혹해,5,Green,A,2.583333333333333,2.1,ScrollDown,ScrollUp,Green.png,2,Negative,Incongruent,,,,,0,0,0,0,,,,,,,,,,,,,,,,,0,32,32,32,,,,,,,,,,,,,,,,,,,,,,,,,,,,,,,,,,,,,,,,,,,,,,,,,,,,,,,,,,,,,,,,,,,,,,,,,,,,,1,1.2428719999734312,334.76586060001864,None,ScrollDown,정답입니다,334.76586060001864,None,334.76586060001864,None,334.76586060001864,None,334.76586060001864,None,335.89344580000034,None,335.89344580000034,336.3936218000017,,,,,,,,,,,,,,,,116,2022-05-05_10h59.35.867,FishGame,2022.1.1,60.10092146615832,
,34,나를 데려가줘,6,Orange,B,0,0,ScrollDown,ScrollUp,Orange.png,2,NonTarget,NonTarget,,,,,0,0,0,0,,,,,,,,,,,,,,,,,0,33,33,33,,,,,,,,,,,,,,,,,,,,,,,,,,,,,,,,,,,,,,,,,,,,,,,,,,,,,,,,,,,,,,,,,,,,,,,,,,,,,1,1.2355510999914259,337.0274882000231,None,ScrollDown,정답입니다,337.0274882000231,None,337.0274882000231,None,337.0274882000231,None,337.0274882000231,None,338.158210100024,None,338.158210100024,338.6601762000064,,,,,,,,,,,,,,,,116,2022-05-05_10h59.35.867,FishGame,2022.1.1,60.10092146615832,
,35,넌 편파적이야,5,Orange,B,2.125,2,ScrollUp,ScrollDown,Orange.png,2,Negative,Congruent,,,,,0,0,0,0,,,,,,,,,,,,,,,,,0,34,34,34,,,,,,,,,,,,,,,,,,,,,,,,,,,,,,,,,,,,,,,,,,,,,,,,,,,,,,,,,,,,,,,,,,,,,,,,,,,,,2,1.411642400023993,339.30403200001456,None,ScrollUp,정답입니다,339.30403200001456,None,339.30403200001456,None,339.30403200001456,None,339.30403200001456,None,340.59347230001003,None,340.59347230001003,341.09350410001935,,,,,,,,,,,,,,,,116,2022-05-05_10h59.35.867,FishGame,2022.1.1,60.10092146615832,
,36,넌 슬퍼,4,Green,A,2.583333333333333,3.066666666666667,ScrollDown,ScrollUp,Green.png,2,Negative,Incongruent,,,,,0,0,0,0,,,,,,,,,,,,,,,,,0,35,35,35,,,,,,,,,,,,,,,,,,,,,,,,,,,,,,,,,,,,,,,,,,,,,,,,,,,,,,,,,,,,,,,,,,,,,,,,,,,,,1,1.213962799985893,341.7225264000008,None,ScrollDown,정답입니다,341.7225264000008,None,341.7225264000008,None,341.7225264000008,None,341.7225264000008,None,342.83040190002066,None,342.83040190002066,343.34368240000913,,,,,,,,,,,,,,,,116,2022-05-05_10h59.35.867,FishGame,2022.1.1,60.10092146615832,
,37,나를 데려가줘,6,Orange,B,0,0,ScrollDown,ScrollUp,Orange.png,2,NonTarget,NonTarget,,,,,0,0,0,0,,,,,,,,,,,,,,,,,0,36,36,36,,,,,,,,,,,,,,,,,,,,,,,,,,,,,,,,,,,,,,,,,,,,,,,,,,,,,,,,,,,,,,,,,,,,,,,,,,,,,1,1.386659400013741,343.98013430001447,None,ScrollDown,정답입니다,343.98013430001447,None,343.98013430001447,None,343.98013430001447,None,343.98013430001447,None,345.2584094000049,None,345.2584094000049,345.76012869999977,,,,,,,,,,,,,,,,116,2022-05-05_10h59.35.867,FishGame,2022.1.1,60.10092146615832,
,38,넌 친절해,1,Orange,B,6.041666666666667,5.533333333333333,ScrollUp,ScrollDown,Orange.png,2,Positive,Incongruent,,,,,0,0,0,0,,,,,,,,,,,,,,,,,0,37,37,37,,,,,,,,,,,,,,,,,,,,,,,,,,,,,,,,,,,,,,,,,,,,,,,,,,,,,,,,,,,,,,,,,,,,,,,,,,,,,2,1.45572720002383,346.39913050000905,None,ScrollUp,정답입니다,346.39913050000905,None,346.39913050000905,None,346.39913050000905,None,346.39913050000905,None,347.74230460001854,None,347.74230460001854,348.24368179999874,,,,,,,,,,,,,,,,116,2022-05-05_10h59.35.867,FishGame,2022.1.1,60.10092146615832,
,1,넌 엉성해,4,Green,A,3,3.3,ScrollDown,ScrollUp,Green.png,3,Negative,Incongruent,,,,,0,0,0,0,,,,,,,,,,,,,,,,,,,,,0,0,0,0,,,,,,,,,,,,,,,,,,,,,,,,,,,,,,,,380.34491860002163,381.8449965000036,381.87816230001044,382.827752400015,382.87765490001766,383.8278588000103,383.8278588000103,None,,,,,,,,,,,,,,,,,,,,,,,,,,,,,,,,,,1,1.4379026999813505,384.98390890000155,None,ScrollDown,정답입니다,384.98390890000155,None,384.98390890000155,None,384.98390890000155,None,384.98390890000155,None,386.261531199998,None,386.261531199998,386.761086500017,348.7439650000015,None,348.7439650000015,None,0.22962964,-0.12037037,1,0,0,0.01636707002762705,None,378.7447375000047,None,,,116,2022-05-05_10h59.35.867,FishGame,2022.1.1,60.10092146615832,
,2,나를 보내줘,6,Green,A,0,0,ScrollUp,ScrollDown,Green.png,3,NonTarget,NonTarget,,,,,0,0,0,0,,,,,,,,,,,,,,,,,,,,,0,1,1,1,,,,,,,,,,,,,,,,,,,,,,,,,,,,,,,,,,,,,,,,,,,,,,,,,,,,,,,,,,,,,,,,,,,,,,,,,2,1.3328818999871146,387.3947909999988,None,ScrollUp,정답입니다,387.3947909999988,None,387.3947909999988,None,387.3947909999988,None,387.3947909999988,None,388.6163878000225,None,388.6163878000225,389.1281069999968,,,,,,,,,,,,,,,,116,2022-05-05_10h59.35.867,FishGame,2022.1.1,60.10092146615832,
,3,넌 활발해,1,Orange,B,5.666666666666667,5.6,ScrollUp,ScrollDown,Orange.png,3,Positive,Incongruent,,,,,0,0,0,0,,,,,,,,,,,,,,,,,,,,,0,2,2,2,,,,,,,,,,,,,,,,,,,,,,,,,,,,,,,,,,,,,,,,,,,,,,,,,,,,,,,,,,,,,,,,,,,,,,,,,2,1.4536972999922,389.7725024000101,None,ScrollUp,정답입니다,389.7725024000101,None,389.7725024000101,None,389.7725024000101,None,389.7725024000101,None,391.10977150002145,None,391.10977150002145,391.6119280999992,,,,,,,,,,,,,,,,116,2022-05-05_10h59.35.867,FishGame,2022.1.1,60.10092146615832,
,4,넌 논리적이야,2,Green,A,5.666666666666666,4.633333333333334,ScrollDown,ScrollUp,Green.png,3,Positive,Congruent,,,,,0,0,0,0,,,,,,,,,,,,,,,,,,,,,0,3,3,3,,,,,,,,,,,,,,,,,,,,,,,,,,,,,,,,,,,,,,,,,,,,,,,,,,,,,,,,,,,,,,,,,,,,,,,,,1,1.1761975999979768,392.2449999000237,None,ScrollDown,정답입니다,392.2449999000237,None,392.2449999000237,None,392.2449999000237,None,392.2449999000237,None,393.3111531000177,None,393.3111531000177,393.81121250000433,,,,,,,,,,,,,,,,116,2022-05-05_10h59.35.867,FishGame,2022.1.1,60.10092146615832,
,5,넌 과묵해,3,Green,A,3.875,4.4,ScrollDown,ScrollUp,Green.png,3,Neutral,Neutral,,,,,0,0,0,0,,,,,,,,,,,,,,,,,,,,,0,4,4,4,,,,,,,,,,,,,,,,,,,,,,,,,,,,,,,,,,,,,,,,,,,,,,,,,,,,,,,,,,,,,,,,,,,,,,,,,1,1.1258649999799673,394.44452690001344,None,ScrollDown,정답입니다,394.44452690001344,None,394.44452690001344,None,394.44452690001344,None,394.44452690001344,None,395.4616037000087,None,395.4616037000087,395.9617605000094,,,,,,,,,,,,,,,,116,2022-05-05_10h59.35.867,FishGame,2022.1.1,60.10092146615832,
,6,나를 데려가줘,6,Orange,B,0,0,ScrollDown,ScrollUp,Orange.png,3,NonTarget,NonTarget,,,,,0,0,0,0,,,,,,,,,,,,,,,,,,,,,0,5,5,5,,,,,,,,,,,,,,,,,,,,,,,,,,,,,,,,,,,,,,,,,,,,,,,,,,,,,,,,,,,,,,,,,,,,,,,,,1,1.42447979998542,396.59287250001216,None,ScrollDown,정답입니다,396.59287250001216,None,396.59287250001216,None,396.59287250001216,None,396.59287250001216,None,397.90680540000903,None,397.90680540000903,398.41192060001777,,,,,,,,,,,,,,,,116,2022-05-05_10h59.35.867,FishGame,2022.1.1,60.10092146615832,
,7,넌 미숙해,4,Orange,B,3,3,ScrollUp,ScrollDown,Orange.png,3,Negative,Congruent,,,,,0,0,0,0,,,,,,,,,,,,,,,,,,,,,0,6,6,6,,,,,,,,,,,,,,,,,,,,,,,,,,,,,,,,,,,,,,,,,,,,,,,,,,,,,,,,,,,,,,,,,,,,,,,,,2,1.4440712000068743,399.04375720000826,None,ScrollUp,정답입니다,399.04375720000826,None,399.04375720000826,None,399.04375720000826,None,399.04375720000826,None,400.378455500002,None,400.378455500002,400.878543800005,,,,,,,,,,,,,,,,116,2022-05-05_10h59.35.867,FishGame,2022.1.1,60.10092146615832,
,8,나를 보내줘,6,Green,A,0,0,ScrollUp,ScrollDown,Green.png,3,NonTarget,NonTarget,,,,,0,0,0,0,,,,,,,,,,,,,,,,,,,,,0,7,7,7,,,,,,,,,,,,,,,,,,,,,,,,,,,,,,,,,,,,,,,,,,,,,,,,,,,,,,,,,,,,,,,,,,,,,,,,,2,1.3951834000181407,401.50434420001693,None,ScrollUp,정답입니다,401.50434420001693,None,401.50434420001693,None,401.50434420001693,None,401.50434420001693,None,402.79483430000255,None,402.79483430000255,403.29553570001735,,,,,,,,,,,,,,,,116,2022-05-05_10h59.35.867,FishGame,2022.1.1,60.10092146615832,
,9,넌 자신만만해,3,Orange,B,4.833333333333334,4.333333333333333,ScrollUp,ScrollDown,Orange.png,3,Neutral,Neutral,,,,,0,0,0,0,,,,,,,,,,,,,,,,,,,,,0,8,8,8,,,,,,,,,,,,,,,,,,,,,,,,,,,,,,,,,,,,,,,,,,,,,,,,,,,,,,,,,,,,,,,,,,,,,,,,,2,1.473524400003953,403.92983510001795,None,ScrollUp,정답입니다,403.92983510001795,None,403.92983510001795,None,403.92983510001795,None,403.92983510001795,None,405.29346610000357,None,405.29346610000357,405.7947855000093,,,,,,,,,,,,,,,,116,2022-05-05_10h59.35.867,FishGame,2022.1.1,60.10092146615832,
,10,넌 탐욕스러워,5,Green,A,2.25,2.1,ScrollDown,ScrollUp,Green.png,3,Negative,Incongruent,,,,,0,0,0,0,,,,,,,,,,,,,,,,,,,,,0,9,9,9,,,,,,,,,,,,,,,,,,,,,,,,,,,,,,,,,,,,,,,,,,,,,,,,,,,,,,,,,,,,,,,,,,,,,,,,,1,1.351969499984989,406.43443449999904,None,ScrollDown,정답입니다,406.43443449999904,None,406.43443449999904,None,406.43443449999904,None,406.43443449999904,None,407.6671181000129,None,407.6671181000129,408.1785072000057,,,,,,,,,,,,,,,,116,2022-05-05_10h59.35.867,FishGame,2022.1.1,60.10092146615832,
,11,넌 인기있어,2,Green,A,5.458333333333333,4.5,ScrollDown,ScrollUp,Green.png,3,Positive,Congruent,,,,,0,0,0,0,,,,,,,,,,,,,,,,,,,,,0,10,10,10,,,,,,,,,,,,,,,,,,,,,,,,,,,,,,,,,,,,,,,,,,,,,,,,,,,,,,,,,,,,,,,,,,,,,,,,,1,1.1397538000019267,408.8044138000114,None,ScrollDown,정답입니다,408.8044138000114,None,408.8044138000114,None,408.8044138000114,None,408.8044138000114,None,409.8435963000229,None,409.8435963000229,410.3450742000132,,,,,,,,,,,,,,,,116,2022-05-05_10h59.35.867,FishGame,2022.1.1,60.10092146615832,
,12,나를 데려가줘,6,Orange,B,0,0,ScrollDown,ScrollUp,Orange.png,3,NonTarget,NonTarget,,,,,0,0,0,0,,,,,,,,,,,,,,,,,,,,,0,11,11,11,,,,,,,,,,,,,,,,,,,,,,,,,,,,,,,,,,,,,,,,,,,,,,,,,,,,,,,,,,,,,,,,,,,,,,,,,1,1.268224300001748,410.9806889000174,None,ScrollDown,정답입니다,410.9806889000174,None,410.9806889000174,None,410.9806889000174,None,410.9806889000174,None,412.1331369000254,None,412.1331369000254,412.64551200001733,,,,,,,,,,,,,,,,116,2022-05-05_10h59.35.867,FishGame,2022.1.1,60.10092146615832,
,13,넌 뛰어나,2,Orange,B,6.166666666666667,4,ScrollUp,ScrollDown,Orange.png,3,Positive,Incongruent,,,,,0,0,0,0,,,,,,,,,,,,,,,,,,,,,0,12,12,12,,,,,,,,,,,,,,,,,,,,,,,,,,,,,,,,,,,,,,,,,,,,,,,,,,,,,,,,,,,,,,,,,,,,,,,,,1.919753094514211,1.2739044000045396,413.2842412000173,None,ScrollUp,정답입니다,413.2842412000173,None,413.2842412000173,None,413.2842412000173,None,413.2842412000173,None,414.443282799999,None,414.443282799999,414.94557710000663,,,,,,,,,,,,,,,,116,2022-05-05_10h59.35.867,FishGame,2022.1.1,60.10092146615832,
,14,넌 낙관적이야,1,Green,A,5.75,5.8,ScrollDown,ScrollUp,Green.png,3,Positive,Congruent,,,,,0,0,0,0,,,,,,,,,,,,,,,,,,,,,0,13,13,13,,,,,,,,,,,,,,,,,,,,,,,,,,,,,,,,,,,,,,,,,,,,,,,,,,,,,,,,,,,,,,,,,,,,,,,,,1.0339506367842357,1.0236651999875903,415.5763279000239,None,ScrollDown,정답입니다,415.5763279000239,None,415.5763279000239,None,415.5763279000239,None,415.5763279000239,None,416.49364060000516,None,416.49364060000516,416.9955629000033,,,,,,,,,,,,,,,,116,2022-05-05_10h59.35.867,FishGame,2022.1.1,60.10092146615832,
,15,넌 산만해,4,Orange,B,2.695652173913043,3.033333333333333,ScrollUp,ScrollDown,Orange.png,3,Negative,Congruent,,,,,0,0,0,0,,,,,,,,,,,,,,,,,,,,,0,14,14,14,,,,,,,,,,,,,,,,,,,,,,,,,,,,,,,,,,,,,,,,,,,,,,,,,,,,,,,,,,,,,,,,,,,,,,,,,2,1.1967841000005137,417.6323703000089,None,ScrollUp,정답입니다,417.6323703000089,None,417.6323703000089,None,417.6323703000089,None,417.6323703000089,None,418.7135053000238,None,418.7135053000238,419.21232160000363,,,,,,,,,,,,,,,,116,2022-05-05_10h59.35.867,FishGame,2022.1.1,60.10092146615832,
,16,나를 보내줘,6,Green,A,0,0,ScrollUp,ScrollDown,Green.png,3,NonTarget,NonTarget,,,,,0,0,0,0,,,,,,,,,,,,,,,,,,,,,0,15,15,15,,,,,,,,,,,,,,,,,,,,,,,,,,,,,,,,,,,,,,,,,,,,,,,,,,,,,,,,,,,,,,,,,,,,,,,,,1.9938271641731262,1.1232052000123076,419.8464007000148,None,ScrollUp,정답입니다,419.8464007000148,None,419.8464007000148,None,419.8464007000148,None,419.8464007000148,None,420.8600528000097,None,420.8600528000097,421.36224850002327,,,,,,,,,,,,,,,,116,2022-05-05_10h59.35.867,FishGame,2022.1.1,60.10092146615832,
,17,넌 교활해,5,Orange,B,2.333333333333333,2.133333333333333,ScrollUp,ScrollDown,Orange.png,3,Negative,Congruent,,,,,0,0,0,0,,,,,,,,,,,,,,,,,,,,,0,16,16,16,,,,,,,,,,,,,,,,,,,,,,,,,,,,,,,,,,,,,,,,,,,,,,,,,,,,,,,,,,,,,,,,,,,,,,,,,2,2.1994711000006646,422.001622700016,None,ScrollUp,정답입니다,422.001622700016,None,422.001622700016,None,422.001622700016,None,422.001622700016,None,424.0830108000082,None,424.0830108000082,424.5955001000257,,,,,,,,,,,,,,,,116,2022-05-05_10h59.35.867,FishGame,2022.1.1,60.10092146615832,
,18,나를 보내줘,6,Green,A,0,0,ScrollUp,ScrollDown,Green.png,3,NonTarget,NonTarget,,,,,0,0,0,0,,,,,,,,,,,,,,,,,,,,,0,17,17,17,,,,,,,,,,,,,,,,,,,,,,,,,,,,,,,,,,,,,,,,,,,,,,,,,,,,,,,,,,,,,,,,,,,,,,,,,2,1.0610195999906864,425.22348850002163,None,ScrollUp,정답입니다,425.22348850002163,None,425.22348850002163,None,425.22348850002163,None,425.22348850002163,None,426.1784264000016,None,426.1784264000016,426.6790417000011,,,,,,,,,,,,,,,,116,2022-05-05_10h59.35.867,FishGame,2022.1.1,60.10092146615832,
,19,넌 불친절해,5,Orange,B,2.208333333333333,2.033333333333333,ScrollUp,ScrollDown,Orange.png,3,Negative,Congruent,,,,,0,0,0,0,,,,,,,,,,,,,,,,,,,,,0,18,18,18,,,,,,,,,,,,,,,,,,,,,,,,,,,,,,,,,,,,,,,,,,,,,,,,,,,,,,,,,,,,,,,,,,,,,,,,,2,1.0604498000175226,427.31722630001605,None,ScrollUp,정답입니다,427.31722630001605,None,427.31722630001605,None,427.31722630001605,None,427.31722630001605,None,428.26203660000465,None,428.26203660000465,428.76220990001457,,,,,,,,,,,,,,,,116,2022-05-05_10h59.35.867,FishGame,2022.1.1,60.10092146615832,
,20,넌 지적이야,2,Orange,B,5.75,4.366666666666666,ScrollUp,ScrollDown,Orange.png,3,Positive,Incongruent,,,,,0,0,0,0,,,,,,,,,,,,,,,,,,,,,0,19,19,19,,,,,,,,,,,,,,,,,,,,,,,,,,,,,,,,,,,,,,,,,,,,,,,,,,,,,,,,,,,,,,,,,,,,,,,,,1.9660493632157643,0.900644800014561,429.3947396000149,None,ScrollUp,정답입니다,429.3947396000149,None,429.3947396000149,None,429.3947396000149,None,429.3947396000149,None,430.1842411000107,None,430.1842411000107,430.6957133000251,,,,,,,,,,,,,,,,116,2022-05-05_10h59.35.867,FishGame,2022.1.1,60.10092146615832,
,21,넌 우유부단해,4,Green,A,2.666666666666667,3.166666666666667,ScrollDown,ScrollUp,Green.png,3,Negative,Incongruent,,,,,0,0,0,0,,,,,,,,,,,,,,,,,,,,,0,20,20,20,,,,,,,,,,,,,,,,,,,,,,,,,,,,,,,,,,,,,,,,,,,,,,,,,,,,,,,,,,,,,,,,,,,,,,,,,1,1.161366000014823,431.33034350001253,None,ScrollDown,정답입니다,431.33034350001253,None,431.33034350001253,None,431.33034350001253,None,431.33034350001253,None,432.378930100007,None,432.378930100007,432.87940260002506,,,,,,,,,,,,,,,,116,2022-05-05_10h59.35.867,FishGame,2022.1.1,60.10092146615832,
,22,나를 데려가줘,6,Orange,B,0,0,ScrollDown,ScrollUp,Orange.png,3,NonTarget,NonTarget,,,,,0,0,0,0,,,,,,,,,,,,,,,,,,,,,0,21,21,21,,,,,,,,,,,,,,,,,,,,,,,,,,,,,,,,,,,,,,,,,,,,,,,,,,,,,,,,,,,,,,,,,,,,,,,,,1,1.7225948999985121,433.51183810000657,None,ScrollDown,정답입니다,433.51183810000657,None,433.51183810000657,None,433.51183810000657,None,433.51183810000657,None,435.1275322000147,None,435.1275322000147,435.62880210002186,,,,,,,,,,,,,,,,116,2022-05-05_10h59.35.867,FishGame,2022.1.1,60.10092146615832,
,23,넌 성실해,1,Orange,B,6.041666666666666,5.7,ScrollUp,ScrollDown,Orange.png,3,Positive,Incongruent,,,,,0,0,0,0,,,,,,,,,,,,,,,,,,,,,0,22,22,22,,,,,,,,,,,,,,,,,,,,,,,,,,,,,,,,,,,,,,,,,,,,,,,,,,,,,,,,,,,,,,,,,,,,,,,,,2,1.1342461000022013,436.26211080001667,None,ScrollUp,정답입니다,436.26211080001667,None,436.26211080001667,None,436.26211080001667,None,436.26211080001667,None,437.28400450001936,None,437.28400450001936,437.79585710001993,,,,,,,,,,,,,,,,116,2022-05-05_10h59.35.867,FishGame,2022.1.1,60.10092146615832,
,24,넌 현실주의적이야,3,Green,A,4.625,4.4,ScrollDown,ScrollUp,Green.png,3,Neutral,Neutral,,,,,0,0,0,0,,,,,,,,,,,,,,,,,,,,,0,23,23,23,,,,,,,,,,,,,,,,,,,,,,,,,,,,,,,,,,,,,,,,,,,,,,,,,,,,,,,,,,,,,,,,,,,,,,,,,1,0.9581258999824058,438.4261849000177,None,ScrollDown,정답입니다,438.4261849000177,None,438.4261849000177,None,438.4261849000177,None,438.4261849000177,None,439.2793232999975,None,439.2793232999975,439.77894180000294,,,,,,,,,,,,,,,,116,2022-05-05_10h59.35.867,FishGame,2022.1.1,60.10092146615832,
,25,넌 진실돼,1,Green,A,6.625,5.566666666666666,ScrollDown,ScrollUp,Green.png,3,Positive,Congruent,,,,,0,0,0,0,,,,,,,,,,,,,,,,,,,,,0,24,24,24,,,,,,,,,,,,,,,,,,,,,,,,,,,,,,,,,,,,,,,,,,,,,,,,,,,,,,,,,,,,,,,,,,,,,,,,,1,1.0215015999856405,440.41689900000347,None,ScrollDown,정답입니다,440.41689900000347,None,440.41689900000347,None,440.41689900000347,None,440.41689900000347,None,441.32739370001946,None,441.32739370001946,441.8296980000159,,,,,,,,,,,,,,,,116,2022-05-05_10h59.35.867,FishGame,2022.1.1,60.10092146615832,
,26,넌 천진난만해,3,Orange,B,4.958333333333334,4.833333333333333,ScrollUp,ScrollDown,Orange.png,3,Neutral,Neutral,,,,,0,0,0,0,,,,,,,,,,,,,,,,,,,,,0,25,25,25,,,,,,,,,,,,,,,,,,,,,,,,,,,,,,,,,,,,,,,,,,,,,,,,,,,,,,,,,,,,,,,,,,,,,,,,,2,0.9967861000041012,442.47087690001354,None,ScrollUp,정답입니다,442.47087690001354,None,442.47087690001354,None,442.47087690001354,None,442.47087690001354,None,443.34698339999886,None,443.34698339999886,443.8459703999979,,,,,,,,,,,,,,,,116,2022-05-05_10h59.35.867,FishGame,2022.1.1,60.10092146615832,
,27,넌 교양없어,5,Green,A,2.416666666666667,2.2,ScrollDown,ScrollUp,Green.png,3,Negative,Incongruent,,,,,0,0,0,0,,,,,,,,,,,,,,,,,,,,,0,26,26,26,,,,,,,,,,,,,,,,,,,,,,,,,,,,,,,,,,,,,,,,,,,,,,,,,,,,,,,,,,,,,,,,,,,,,,,,,1.0632716019948323,1.0427713000099175,444.47808580001583,None,ScrollDown,정답입니다,444.47808580001583,None,444.47808580001583,None,444.47808580001583,None,444.47808580001583,None,445.41225390002364,None,445.41225390002364,445.912467200018,,,,,,,,,,,,,,,,116,2022-05-05_10h59.35.867,FishGame,2022.1.1,60.10092146615832,
,28,나를 보내줘,6,Green,A,0,0,ScrollUp,ScrollDown,Green.png,3,NonTarget,NonTarget,,,,,0,0,0,0,,,,,,,,,,,,,,,,,,,,,0,27,27,27,,,,,,,,,,,,,,,,,,,,,,,,,,,,,,,,,,,,,,,,,,,,,,,,,,,,,,,,,,,,,,,,,,,,,,,,,2,1.1314147000084631,446.54044780001277,None,ScrollUp,정답입니다,446.54044780001277,None,446.54044780001277,None,446.54044780001277,None,446.54044780001277,None,447.56624620000366,None,447.56624620000366,448.07921070000157,,,,,,,,,,,,,,,,116,2022-05-05_10h59.35.867,FishGame,2022.1.1,60.10092146615832,
,29,넌 엉뚱스러워,3,Green,A,4.166666666666667,4.133333333333334,ScrollDown,ScrollUp,Green.png,3,Neutral,Neutral,,,,,0,0,0,0,,,,,,,,,,,,,,,,,,,,,0,28,28,28,,,,,,,,,,,,,,,,,,,,,,,,,,,,,,,,,,,,,,,,,,,,,,,,,,,,,,,,,,,,,,,,,,,,,,,,,1,1.9369935999857262,448.71487730002264,None,ScrollDown,정답입니다,448.71487730002264,None,448.71487730002264,None,448.71487730002264,None,448.71487730002264,None,450.5440556000103,None,450.5440556000103,451.0457716000092,,,,,,,,,,,,,,,,116,2022-05-05_10h59.35.867,FishGame,2022.1.1,60.10092146615832,
,30,넌 무지해,4,Orange,B,2.541666666666667,3.066666666666667,ScrollUp,ScrollDown,Orange.png,3,Negative,Congruent,,,,,0,0,0,0,,,,,,,,,,,,,,,,,,,,,0,29,29,29,,,,,,,,,,,,,,,,,,,,,,,,,,,,,,,,,,,,,,,,,,,,,,,,,,,,,,,,,,,,,,,,,,,,,,,,,2,1.2574111000285484,451.6790808000078,None,ScrollUp,정답입니다,451.6790808000078,None,451.6790808000078,None,451.6790808000078,None,451.6790808000078,None,452.827351200016,None,452.827351200016,453.32919210000546,,,,,,,,,,,,,,,,116,2022-05-05_10h59.35.867,FishGame,2022.1.1,60.10092146615832,
,31,넌 음울해,5,Orange,B,2.25,2.233333333333333,ScrollUp,ScrollDown,Orange.png,3,Negative,Congruent,,,,,0,0,0,0,,,,,,,,,,,,,,,,,,,,,0,30,30,30,,,,,,,,,,,,,,,,,,,,,,,,,,,,,,,,,,,,,,,,,,,,,,,,,,,,,,,,,,,,,,,,,,,,,,,,,2,1.3248124999809079,453.9900874000159,None,ScrollUp,정답입니다,453.9900874000159,None,453.9900874000159,None,453.9900874000159,None,453.9900874000159,None,455.1791546000168,None,455.1791546000168,455.67928690000554,,,,,,,,,,,,,,,,116,2022-05-05_10h59.35.867,FishGame,2022.1.1,60.10092146615832,
,32,넌 냉소적이야,5,Green,A,2.916666666666667,2.4,ScrollDown,ScrollUp,Green.png,3,Negative,Incongruent,,,,,0,0,0,0,,,,,,,,,,,,,,,,,,,,,0,31,31,31,,,,,,,,,,,,,,,,,,,,,,,,,,,,,,,,,,,,,,,,,,,,,,,,,,,,,,,,,,,,,,,,,,,,,,,,,1,1.9314930000109598,456.30813310001395,None,ScrollDown,정답입니다,456.30813310001395,None,456.30813310001395,None,456.30813310001395,None,456.30813310001395,None,458.13443350000307,None,458.13443350000307,458.6463499000238,,,,,,,,,,,,,,,,116,2022-05-05_10h59.35.867,FishGame,2022.1.1,60.10092146615832,
,33,나를 데려가줘,6,Orange,B,0,0,ScrollDown,ScrollUp,Orange.png,3,NonTarget,NonTarget,,,,,0,0,0,0,,,,,,,,,,,,,,,,,,,,,0,32,32,32,,,,,,,,,,,,,,,,,,,,,,,,,,,,,,,,,,,,,,,,,,,,,,,,,,,,,,,,,,,,,,,,,,,,,,,,,1,1.2912764999782667,459.27869940001983,None,ScrollDown,정답입니다,459.27869940001983,None,459.27869940001983,None,459.27869940001983,None,459.27869940001983,None,460.4629561000038,None,460.4629561000038,460.9631144000159,,,,,,,,,,,,,,,,116,2022-05-05_10h59.35.867,FishGame,2022.1.1,60.10092146615832,
,34,넌 쾌활해,1,Green,A,5.541666666666666,5.733333333333333,ScrollDown,ScrollUp,Green.png,3,Positive,Congruent,,,,,0,0,0,0,,,,,,,,,,,,,,,,,,,,,0,33,33,33,,,,,,,,,,,,,,,,,,,,,,,,,,,,,,,,,,,,,,,,,,,,,,,,,,,,,,,,,,,,,,,,,,,,,,,,,1,1.1395760999876074,461.5963727000053,None,ScrollDown,정답입니다,461.5963727000053,None,461.5963727000053,None,461.5963727000053,None,461.5963727000053,None,462.62764790002257,None,462.62764790002257,463.129545600008,,,,,,,,,,,,,,,,116,2022-05-05_10h59.35.867,FishGame,2022.1.1,60.10092146615832,
,35,나를 보내줘,6,Green,A,0,0,ScrollUp,ScrollDown,Green.png,3,NonTarget,NonTarget,,,,,0,0,0,0,,,,,,,,,,,,,,,,,,,,,0,34,34,34,,,,,,,,,,,,,,,,,,,,,,,,,,,,,,,,,,,,,,,,,,,,,,,,,,,,,,,,,,,,,,,,,,,,,,,,,2,1.075210800016066,463.75708410001243,None,ScrollUp,정답입니다,463.75708410001243,None,463.75708410001243,None,463.75708410001243,None,463.75708410001243,None,464.7278895000054,None,464.7278895000054,465.2295671000029,,,,,,,,,,,,,,,,116,2022-05-05_10h59.35.867,FishGame,2022.1.1,60.10092146615832,
,36,넌 명랑해,1,Orange,B,5.739130434782609,5.666666666666667,ScrollUp,ScrollDown,Orange.png,3,Positive,Incongruent,,,,,0,0,0,0,,,,,,,,,,,,,,,,,,,,,0,35,35,35,,,,,,,,,,,,,,,,,,,,,,,,,,,,,,,,,,,,,,,,,,,,,,,,,,,,,,,,,,,,,,,,,,,,,,,,,1.9212963084379833,1.2359347000019625,465.86673900001915,None,ScrollUp,정답입니다,465.86673900001915,None,465.86673900001915,None,465.86673900001915,None,465.86673900001915,None,466.9853059000161,None,466.9853059000161,467.4963615000015,,,,,,,,,,,,,,,,116,2022-05-05_10h59.35.867,FishGame,2022.1.1,60.10092146615832,
,37,넌 멍해,4,Green,A,2.833333333333333,3.4,ScrollDown,ScrollUp,Green.png,3,Negative,Incongruent,,,,,0,0,0,0,,,,,,,,,,,,,,,,,,,,,0,36,36,36,,,,,,,,,,,,,,,,,,,,,,,,,,,,,,,,,,,,,,,,,,,,,,,,,,,,,,,,,,,,,,,,,,,,,,,,,1,1.1028186000185087,468.13088229999994,None,ScrollDown,정답입니다,468.13088229999994,None,468.13088229999994,None,468.13088229999994,None,468.13088229999994,None,469.12831700002425,None,469.12831700002425,469.6300627000164,,,,,,,,,,,,,,,,116,2022-05-05_10h59.35.867,FishGame,2022.1.1,60.10092146615832,
,38,나를 데려가줘,6,Orange,B,0,0,ScrollDown,ScrollUp,Orange.png,3,NonTarget,NonTarget,,,,,0,0,0,0,,,,,,,,,,,,,,,,,,,,,0,37,37,37,,,,,,,,,,,,,,,,,,,,,,,,,,,,,,,,,,,,,,,,,,,,,,,,,,,,,,,,,,,,,,,,,,,,,,,,,1,1.4119716999994125,470.2610373000207,None,ScrollDown,정답입니다,470.2610373000207,None,470.2610373000207,None,470.2610373000207,None,470.2610373000207,None,471.563444600004,None,471.563444600004,472.06328430000576,,,,,,,,,,,,,,,,116,2022-05-05_10h59.35.867,FishGame,2022.1.1,60.10092146615832,
,39,넌 현명해,2,Green,A,6.541666666666666,4.533333333333333,ScrollDown,ScrollUp,Green.png,3,Positive,Congruent,,,,,0,0,0,0,,,,,,,,,,,,,,,,,,,,,0,38,38,38,,,,,,,,,,,,,,,,,,,,,,,,,,,,,,,,,,,,,,,,,,,,,,,,,,,,,,,,,,,,,,,,,,,,,,,,,1,1.3612420000135899,472.691638600023,None,ScrollDown,정답입니다,472.691638600023,None,472.691638600023,None,472.691638600023,None,472.691638600023,None,473.9426856000209,None,473.9426856000209,474.44699490000494,,,,,,,,,,,,,,,,116,2022-05-05_10h59.35.867,FishGame,2022.1.1,60.10092146615832,
,40,넌 수줍어,3,Orange,B,3.541666666666666,4.366666666666666,ScrollUp,ScrollDown,Orange.png,3,Neutral,Neutral,,,,,0,0,0,0,,,,,,,,,,,,,,,,,,,,,0,39,39,39,,,,,,,,,,,,,,,,,,,,,,,,,,,,,,,,,,,,,,,,,,,,,,,,,,,,,,,,,,,,,,,,,,,,,,,,,2,1.2069797999865841,475.08617380002397,None,ScrollUp,정답입니다,475.08617380002397,None,475.08617380002397,None,475.08617380002397,None,475.08617380002397,None,476.1779607000062,None,476.1779607000062,476.67971320002107,,,,,,,,,,,,,,,,116,2022-05-05_10h59.35.867,FishGame,2022.1.1,60.10092146615832,
,41,나를 데려가줘,6,Orange,B,0,0,ScrollDown,ScrollUp,Orange.png,3,NonTarget,NonTarget,,,,,0,0,0,0,,,,,,,,,,,,,,,,,,,,,0,40,40,40,,,,,,,,,,,,,,,,,,,,,,,,,,,,,,,,,,,,,,,,,,,,,,,,,,,,,,,,,,,,,,,,,,,,,,,,,1,1.268198100005975,477.3146472000226,None,ScrollDown,정답입니다,477.3146472000226,None,477.3146472000226,None,477.3146472000226,None,477.3146472000226,None,478.46847100000014,None,478.46847100000014,478.97988130000886,,,,,,,,,,,,,,,,116,2022-05-05_10h59.35.867,FishGame,2022.1.1,60.10092146615832,
,42,넌 성숙해,2,Orange,B,5.833333333333333,4.533333333333333,ScrollUp,ScrollDown,Orange.png,3,Positive,Incongruent,,,,,0,0,0,0,,,,,,,,,,,,,,,,,,,,,0,41,41,41,,,,,,,,,,,,,,,,,,,,,,,,,,,,,,,,,,,,,,,,,,,,,,,,,,,,,,,,,,,,,,,,,,,,,,,,,2,1.5119224000081886,479.6138620999991,None,ScrollUp,정답입니다,479.6138620999991,None,479.6138620999991,None,479.6138620999991,None,479.6138620999991,None,481.01288370002294,None,481.01288370002294,481.5137407000002,,,,,,,,,,,,,,,,116,2022-05-05_10h59.35.867,FishGame,2022.1.1,60.10092146615832,
,1,넌 매력적이야,2,Orange,B,6.125,4.666666666666667,ScrollUp,ScrollDown,Orange.png,4,Positive,Incongruent,,,,,0,0,0,0,,,,,,,,,,,,,,,,,,,,,,,,,0,0,0,0,,,,,,,,,,,,,,,,,,,,,,,,,,,,514.1811500000185,515.6806755000143,515.7145823000174,516.6649697000103,516.7146489000006,517.6644753,517.6644753,None,,,,,,,,,,,,,,,,,,,,,,,,,,,,,,,,,,2,1.6365077999944333,518.8221207000024,None,ScrollUp,정답입니다,518.8221207000024,None,518.8221207000024,None,518.8221207000024,None,518.8221207000024,None,520.2958000000217,None,520.2958000000217,520.7978856000118,482.01362959999824,None,482.01362959999824,None,0.22962964,-0.10277778,1,0,0,0.016001869982574135,None,512.014687900024,None,,,116,2022-05-05_10h59.35.867,FishGame,2022.1.1,60.10092146615832,
,2,나를 보내줘,6,Green,A,0,0,ScrollUp,ScrollDown,Green.png,4,NonTarget,NonTarget,,,,,0,0,0,0,,,,,,,,,,,,,,,,,,,,,,,,,0,1,1,1,,,,,,,,,,,,,,,,,,,,,,,,,,,,,,,,,,,,,,,,,,,,,,,,,,,,,,,,,,,,,,,,,,,,,2,1.1135107000009157,521.4249707999988,None,ScrollUp,정답입니다,521.4249707999988,None,521.4249707999988,None,521.4249707999988,None,521.4249707999988,None,522.4316328999994,None,522.4316328999994,522.9307549000077,,,,,,,,,,,,,,,,116,2022-05-05_10h59.35.867,FishGame,2022.1.1,60.10092146615832,
,3,넌 조심스러워,3,Green,A,4.791666666666666,4.666666666666667,ScrollDown,ScrollUp,Green.png,4,Neutral,Neutral,,,,,0,0,0,0,,,,,,,,,,,,,,,,,,,,,,,,,0,2,2,2,,,,,,,,,,,,,,,,,,,,,,,,,,,,,,,,,,,,,,,,,,,,,,,,,,,,,,,,,,,,,,,,,,,,,1,1.0691558999824338,523.56192930002,None,ScrollDown,정답입니다,523.56192930002,None,523.56192930002,None,523.56192930002,None,523.56192930002,None,524.5292783000041,None,524.5292783000041,525.031418700004,,,,,,,,,,,,,,,,116,2022-05-05_10h59.35.867,FishGame,2022.1.1,60.10092146615832,
,4,넌 철학적이야,3,Orange,B,4.5,4.266666666666667,ScrollUp,ScrollDown,Orange.png,4,Neutral,Neutral,,,,,0,0,0,0,,,,,,,,,,,,,,,,,,,,,,,,,0,3,3,3,,,,,,,,,,,,,,,,,,,,,,,,,,,,,,,,,,,,,,,,,,,,,,,,,,,,,,,,,,,,,,,,,,,,,2,0.9948448000068311,525.676589300012,None,ScrollUp,정답입니다,525.676589300012,None,525.676589300012,None,525.676589300012,None,525.676589300012,None,526.5465939000132,None,526.5465939000132,527.0480273000139,,,,,,,,,,,,,,,,116,2022-05-05_10h59.35.867,FishGame,2022.1.1,60.10092146615832,
,5,넌 쩨쩨해,5,Green,A,2.375,2.133333333333333,ScrollDown,ScrollUp,Green.png,4,Negative,Incongruent,,,,,0,0,0,0,,,,,,,,,,,,,,,,,,,,,,,,,0,4,4,4,,,,,,,,,,,,,,,,,,,,,,,,,,,,,,,,,,,,,,,,,,,,,,,,,,,,,,,,,,,,,,,,,,,,,1,0.977478799992241,527.6804619000177,None,ScrollDown,정답입니다,527.6804619000177,None,527.6804619000177,None,527.6804619000177,None,527.6804619000177,None,528.5437516000238,None,528.5437516000238,529.0482067000121,,,,,,,,,,,,,,,,116,2022-05-05_10h59.35.867,FishGame,2022.1.1,60.10092146615832,
,6,나를 데려가줘,6,Orange,B,0,0,ScrollDown,ScrollUp,Orange.png,4,NonTarget,NonTarget,,,,,0,0,0,0,,,,,,,,,,,,,,,,,,,,,,,,,0,5,5,5,,,,,,,,,,,,,,,,,,,,,,,,,,,,,,,,,,,,,,,,,,,,,,,,,,,,,,,,,,,,,,,,,,,,,1,1.2720319999789353,529.681917400012,None,ScrollDown,정답입니다,529.681917400012,None,529.681917400012,None,529.681917400012,None,529.681917400012,None,530.8458333000017,None,530.8458333000017,531.3481258000247,,,,,,,,,,,,,,,,116,2022-05-05_10h59.35.867,FishGame,2022.1.1,60.10092146615832,
,7,넌 고집불통이야,5,Orange,B,2.875,2,ScrollUp,ScrollDown,Orange.png,4,Negative,Congruent,,,,,0,0,0,0,,,,,,,,,,,,,,,,,,,,,,,,,0,6,6,6,,,,,,,,,,,,,,,,,,,,,,,,,,,,,,,,,,,,,,,,,,,,,,,,,,,,,,,,,,,,,,,,,,,,,2,1.4359725000103936,531.9874412000063,None,ScrollUp,정답입니다,531.9874412000063,None,531.9874412000063,None,531.9874412000063,None,531.9874412000063,None,533.3024975000008,None,533.3024975000008,533.8149498999992,,,,,,,,,,,,,,,,116,2022-05-05_10h59.35.867,FishGame,2022.1.1,60.10092146615832,
,8,넌 무심해,4,Green,A,2.875,3.2,ScrollDown,ScrollUp,Green.png,4,Negative,Incongruent,,,,,0,0,0,0,,,,,,,,,,,,,,,,,,,,,,,,,0,7,7,7,,,,,,,,,,,,,,,,,,,,,,,,,,,,,,,,,,,,,,,,,,,,,,,,,,,,,,,,,,,,,,,,,,,,,1,0.975161999987904,534.4433141000045,None,ScrollDown,정답입니다,534.4433141000045,None,534.4433141000045,None,534.4433141000045,None,534.4433141000045,None,535.3147669000027,None,535.3147669000027,535.8144719999982,,,,,,,,,,,,,,,,116,2022-05-05_10h59.35.867,FishGame,2022.1.1,60.10092146615832,
,9,넌 정겨워,1,Green,A,5.791666666666667,5.666666666666667,ScrollDown,ScrollUp,Green.png,4,Positive,Congruent,,,,,0,0,0,0,,,,,,,,,,,,,,,,,,,,,,,,,0,8,8,8,,,,,,,,,,,,,,,,,,,,,,,,,,,,,,,,,,,,,,,,,,,,,,,,,,,,,,,,,,,,,,,,,,,,,1.0586419602235158,0.9315637999970932,536.4545397000038,None,ScrollDown,정답입니다,536.4545397000038,None,536.4545397000038,None,536.4545397000038,None,536.4545397000038,None,537.2703963000095,None,537.2703963000095,537.7814286000212,,,,,,,,,,,,,,,,116,2022-05-05_10h59.35.867,FishGame,2022.1.1,60.10092146615832,
,10,나를 데려가줘,6,Orange,B,0,0,ScrollDown,ScrollUp,Orange.png,4,NonTarget,NonTarget,,,,,0,0,0,0,,,,,,,,,,,,,,,,,,,,,,,,,0,9,9,9,,,,,,,,,,,,,,,,,,,,,,,,,,,,,,,,,,,,,,,,,,,,,,,,,,,,,,,,,,,,,,,,,,,,,1,2.6083837999904063,538.4188927000214,None,ScrollDown,정답입니다,538.4188927000214,None,538.4188927000214,None,538.4188927000214,None,538.4188927000214,None,540.9149396000139,None,540.9149396000139,541.415221800009,,,,,,,,,,,,,,,,116,2022-05-05_10h59.35.867,FishGame,2022.1.1,60.10092146615832,
,11,넌 체제순응적이야,4,Orange,B,3,3.6,ScrollUp,ScrollDown,Orange.png,4,Negative,Congruent,,,,,0,0,0,0,,,,,,,,,,,,,,,,,,,,,,,,,0,10,10,10,,,,,,,,,,,,,,,,,,,,,,,,,,,,,,,,,,,,,,,,,,,,,,,,,,,,,,,,,,,,,,,,,,,,,2,1.3270568000152707,542.0662349000049,None,ScrollUp,정답입니다,542.0662349000049,None,542.0662349000049,None,542.0662349000049,None,542.0662349000049,None,543.2648166000145,None,543.2648166000145,543.7650565000076,,,,,,,,,,,,,,,,116,2022-05-05_10h59.35.867,FishGame,2022.1.1,60.10092146615832,
,12,나를 보내줘,6,Green,A,0,0,ScrollUp,ScrollDown,Green.png,4,NonTarget,NonTarget,,,,,0,0,0,0,,,,,,,,,,,,,,,,,,,,,,,,,0,11,11,11,,,,,,,,,,,,,,,,,,,,,,,,,,,,,,,,,,,,,,,,,,,,,,,,,,,,,,,,,,,,,,,,,,,,,2,1.3580921000102535,544.3948890000174,None,ScrollUp,정답입니다,544.3948890000174,None,544.3948890000174,None,544.3948890000174,None,544.3948890000174,None,545.6478939000226,None,545.6478939000226,546.1484734000114,,,,,,,,,,,,,,,,116,2022-05-05_10h59.35.867,FishGame,2022.1.1,60.10092146615832,
,13,넌 박식해,2,Green,A,5.625,3.933333333333333,ScrollDown,ScrollUp,Green.png,4,Positive,Congruent,,,,,0,0,0,0,,,,,,,,,,,,,,,,,,,,,,,,,0,12,12,12,,,,,,,,,,,,,,,,,,,,,,,,,,,,,,,,,,,,,,,,,,,,,,,,,,,,,,,,,,,,,,,,,,,,,1,1.1953486000129487,546.7889907000063,None,ScrollDown,정답입니다,546.7889907000063,None,546.7889907000063,None,546.7889907000063,None,546.7889907000063,None,547.8647087000136,None,547.8647087000136,548.3648055000231,,,,,,,,,,,,,,,,116,2022-05-05_10h59.35.867,FishGame,2022.1.1,60.10092146615832,
,14,나를 보내줘,6,Green,A,0,0,ScrollUp,ScrollDown,Green.png,4,NonTarget,NonTarget,,,,,0,0,0,0,,,,,,,,,,,,,,,,,,,,,,,,,0,13,13,13,,,,,,,,,,,,,,,,,,,,,,,,,,,,,,,,,,,,,,,,,,,,,,,,,,,,,,,,,,,,,,,,,,,,,2,1.140832600009162,548.992190000019,None,ScrollUp,정답입니다,548.992190000019,None,548.992190000019,None,548.992190000019,None,548.992190000019,None,550.029996199999,None,550.029996199999,550.5316015999997,,,,,,,,,,,,,,,,116,2022-05-05_10h59.35.867,FishGame,2022.1.1,60.10092146615832,
,15,넌 침착해,1,Orange,B,5.458333333333333,5.566666666666666,ScrollUp,ScrollDown,Orange.png,4,Positive,Incongruent,,,,,0,0,0,0,,,,,,,,,,,,,,,,,,,,,,,,,0,14,14,14,,,,,,,,,,,,,,,,,,,,,,,,,,,,,,,,,,,,,,,,,,,,,,,,,,,,,,,,,,,,,,,,,,,,,2,1.3988536999968346,551.1747264000005,None,ScrollUp,정답입니다,551.1747264000005,None,551.1747264000005,None,551.1747264000005,None,551.1747264000005,None,552.4528706000128,None,552.4528706000128,552.9651873999974,,,,,,,,,,,,,,,,116,2022-05-05_10h59.35.867,FishGame,2022.1.1,60.10092146615832,
,16,나를 데려가줘,6,Orange,B,0,0,ScrollDown,ScrollUp,Orange.png,4,NonTarget,NonTarget,,,,,0,0,0,0,,,,,,,,,,,,,,,,,,,,,,,,,0,15,15,15,,,,,,,,,,,,,,,,,,,,,,,,,,,,,,,,,,,,,,,,,,,,,,,,,,,,,,,,,,,,,,,,,,,,,1,1.2978779000113718,553.6002649000147,None,ScrollDown,정답입니다,553.6002649000147,None,553.6002649000147,None,553.6002649000147,None,553.6002649000147,None,554.7857621000148,None,554.7857621000148,555.2987338000094,,,,,,,,,,,,,,,,116,2022-05-05_10h59.35.867,FishGame,2022.1.1,60.10092146615832,
,17,넌 행복해,1,Green,A,6.416666666666666,6.166666666666667,ScrollDown,ScrollUp,Green.png,4,Positive,Congruent,,,,,0,0,0,0,,,,,,,,,,,,,,,,,,,,,,,,,0,16,16,16,,,,,,,,,,,,,,,,,,,,,,,,,,,,,,,,,,,,,,,,,,,,,,,,,,,,,,,,,,,,,,,,,,,,,1,1.0655358000076376,555.9376349000086,None,ScrollDown,정답입니다,555.9376349000086,None,555.9376349000086,None,555.9376349000086,None,555.9376349000086,None,556.8863286999986,None,556.8863286999986,557.3987890999997,,,,,,,,,,,,,,,,116,2022-05-05_10h59.35.867,FishGame,2022.1.1,60.10092146615832,
,18,넌 겸손해,2,Orange,B,5.791666666666667,4.766666666666667,ScrollUp,ScrollDown,Orange.png,4,Positive,Incongruent,,,,,0,0,0,0,,,,,,,,,,,,,,,,,,,,,,,,,0,17,17,17,,,,,,,,,,,,,,,,,,,,,,,,,,,,,,,,,,,,,,,,,,,,,,,,,,,,,,,,,,,,,,,,,,,,,2,1.3453846999909729,558.0393603999983,None,ScrollUp,정답입니다,558.0393603999983,None,558.0393603999983,None,558.0393603999983,None,558.0393603999983,None,559.2653680000221,None,559.2653680000221,559.7658181000152,,,,,,,,,,,,,,,,116,2022-05-05_10h59.35.867,FishGame,2022.1.1,60.10092146615832,
,19,나를 보내줘,6,Green,A,0,0,ScrollUp,ScrollDown,Green.png,4,NonTarget,NonTarget,,,,,0,0,0,0,,,,,,,,,,,,,,,,,,,,,,,,,0,18,18,18,,,,,,,,,,,,,,,,,,,,,,,,,,,,,,,,,,,,,,,,,,,,,,,,,,,,,,,,,,,,,,,,,,,,,2,1.1377456999907736,560.3950502000225,None,ScrollUp,정답입니다,560.3950502000225,None,560.3950502000225,None,560.3950502000225,None,560.3950502000225,None,561.4299584999972,None,561.4299584999972,561.9321223000006,,,,,,,,,,,,,,,,116,2022-05-05_10h59.35.867,FishGame,2022.1.1,60.10092146615832,
,20,넌 의심없어,3,Green,A,4.166666666666667,4.6,ScrollDown,ScrollUp,Green.png,4,Neutral,Neutral,,,,,0,0,0,0,,,,,,,,,,,,,,,,,,,,,,,,,0,19,19,19,,,,,,,,,,,,,,,,,,,,,,,,,,,,,,,,,,,,,,,,,,,,,,,,,,,,,,,,,,,,,,,,,,,,,1,1.0942819999763742,562.5618361000088,None,ScrollDown,정답입니다,562.5618361000088,None,562.5618361000088,None,562.5618361000088,None,562.5618361000088,None,563.5486927000165,None,563.5486927000165,564.0487969000242,,,,,,,,,,,,,,,,116,2022-05-05_10h59.35.867,FishGame,2022.1.1,60.10092146615832,
,21,넌 시시해,4,Green,A,2.666666666666667,2.966666666666667,ScrollDown,ScrollUp,Green.png,4,Negative,Incongruent,,,,,0,0,0,0,,,,,,,,,,,,,,,,,,,,,,,,,0,20,20,20,,,,,,,,,,,,,,,,,,,,,,,,,,,,,,,,,,,,,,,,,,,,,,,,,,,,,,,,,,,,,,,,,,,,,1,1.133999700017739,564.6784069999994,None,ScrollDown,정답입니다,564.6784069999994,None,564.6784069999994,None,564.6784069999994,None,564.6784069999994,None,565.703132100025,None,565.703132100025,566.2159337000048,,,,,,,,,,,,,,,,116,2022-05-05_10h59.35.867,FishGame,2022.1.1,60.10092146615832,
,22,나를 데려가줘,6,Orange,B,0,0,ScrollDown,ScrollUp,Orange.png,4,NonTarget,NonTarget,,,,,0,0,0,0,,,,,,,,,,,,,,,,,,,,,,,,,0,21,21,21,,,,,,,,,,,,,,,,,,,,,,,,,,,,,,,,,,,,,,,,,,,,,,,,,,,,,,,,,,,,,,,,,,,,,1,1.2989372000156436,566.8484965000243,None,ScrollDown,정답입니다,566.8484965000243,None,566.8484965000243,None,566.8484965000243,None,566.8484965000243,None,568.0368272000051,None,568.0368272000051,568.5486261000042,,,,,,,,,,,,,,,,116,2022-05-05_10h59.35.867,FishGame,2022.1.1,60.10092146615832,
,23,넌 무정해,5,Green,A,2.5,2.2,ScrollDown,ScrollUp,Green.png,4,Negative,Incongruent,,,,,0,0,0,0,,,,,,,,,,,,,,,,,,,,,,,,,0,22,22,22,,,,,,,,,,,,,,,,,,,,,,,,,,,,,,,,,,,,,,,,,,,,,,,,,,,,,,,,,,,,,,,,,,,,,1,1.2187773000041489,569.174937600008,None,ScrollDown,정답입니다,569.174937600008,None,569.174937600008,None,569.174937600008,None,569.174937600008,None,570.2870757000055,None,570.2870757000055,570.7984429000062,,,,,,,,,,,,,,,,116,2022-05-05_10h59.35.867,FishGame,2022.1.1,60.10092146615832,
,24,넌 긍정적이야,1,Orange,B,6.041666666666667,6.066666666666666,ScrollUp,ScrollDown,Orange.png,4,Positive,Incongruent,,,,,0,0,0,0,,,,,,,,,,,,,,,,,,,,,,,,,0,23,23,23,,,,,,,,,,,,,,,,,,,,,,,,,,,,,,,,,,,,,,,,,,,,,,,,,,,,,,,,,,,,,,,,,,,,,2,1.894771800027229,571.4379508999991,None,ScrollUp,정답입니다,571.4379508999991,None,571.4379508999991,None,571.4379508999991,None,571.4379508999991,None,573.2117020000005,None,573.2117020000005,573.715234400006,,,,,,,,,,,,,,,,116,2022-05-05_10h59.35.867,FishGame,2022.1.1,60.10092146615832,
,25,나를 보내줘,6,Green,A,0,0,ScrollUp,ScrollDown,Green.png,4,NonTarget,NonTarget,,,,,0,0,0,0,,,,,,,,,,,,,,,,,,,,,,,,,0,24,24,24,,,,,,,,,,,,,,,,,,,,,,,,,,,,,,,,,,,,,,,,,,,,,,,,,,,,,,,,,,,,,,,,,,,,,2,1.093836599990027,574.3438485000224,None,ScrollUp,정답입니다,574.3438485000224,None,574.3438485000224,None,574.3438485000224,None,574.3438485000224,None,575.3320957000251,None,575.3320957000251,575.8324080000166,,,,,,,,,,,,,,,,116,2022-05-05_10h59.35.867,FishGame,2022.1.1,60.10092146615832,
,26,넌 시기심이 많아,5,Orange,B,2.458333333333333,2.233333333333333,ScrollUp,ScrollDown,Orange.png,4,Negative,Congruent,,,,,0,0,0,0,,,,,,,,,,,,,,,,,,,,,,,,,0,25,25,25,,,,,,,,,,,,,,,,,,,,,,,,,,,,,,,,,,,,,,,,,,,,,,,,,,,,,,,,,,,,,,,,,,,,,2,1.1720327000075486,576.4763324000232,None,ScrollUp,정답입니다,576.4763324000232,None,576.4763324000232,None,576.4763324000232,None,576.4763324000232,None,577.5306067000201,None,577.5306067000201,578.0320379000041,,,,,,,,,,,,,,,,116,2022-05-05_10h59.35.867,FishGame,2022.1.1,60.10092146615832,
,27,넌 탁월해,2,Green,A,5.708333333333334,4.5,ScrollDown,ScrollUp,Green.png,4,Positive,Congruent,,,,,0,0,0,0,,,,,,,,,,,,,,,,,,,,,,,,,0,26,26,26,,,,,,,,,,,,,,,,,,,,,,,,,,,,,,,,,,,,,,,,,,,,,,,,,,,,,,,,,,,,,,,,,,,,,1,1.1207388000038918,578.6697312000033,None,ScrollDown,정답입니다,578.6697312000033,None,578.6697312000033,None,578.6697312000033,None,578.6697312000033,None,579.6803924000124,None,579.6803924000124,580.1826529000246,,,,,,,,,,,,,,,,116,2022-05-05_10h59.35.867,FishGame,2022.1.1,60.10092146615832,
,28,나를 데려가줘,6,Orange,B,0,0,ScrollDown,ScrollUp,Orange.png,4,NonTarget,NonTarget,,,,,0,0,0,0,,,,,,,,,,,,,,,,,,,,,,,,,0,27,27,27,,,,,,,,,,,,,,,,,,,,,,,,,,,,,,,,,,,,,,,,,,,,,,,,,,,,,,,,,,,,,,,,,,,,,1,1.3940432000090368,580.8138443000207,None,ScrollDown,정답입니다,580.8138443000207,None,580.8138443000207,None,580.8138443000207,None,580.8138443000207,None,582.0992204000067,None,582.0992204000067,582.5990470999968,,,,,,,,,,,,,,,,116,2022-05-05_10h59.35.867,FishGame,2022.1.1,60.10092146615832,
,29,넌 조용해,3,Orange,B,4.333333333333333,4.166666666666667,ScrollUp,ScrollDown,Orange.png,4,Neutral,Neutral,,,,,0,0,0,0,,,,,,,,,,,,,,,,,,,,,,,,,0,28,28,28,,,,,,,,,,,,,,,,,,,,,,,,,,,,,,,,,,,,,,,,,,,,,,,,,,,,,,,,,,,,,,,,,,,,,2,1.1309084999957122,583.2365980000177,None,ScrollUp,정답입니다,583.2365980000177,None,583.2365980000177,None,583.2365980000177,None,583.2365980000177,None,584.251442400011,None,584.251442400011,584.7658056000073,,,,,,,,,,,,,,,,116,2022-05-05_10h59.35.867,FishGame,2022.1.1,60.10092146615832,
,30,넌 다정해,1,Green,A,5.833333333333334,5.7,ScrollDown,ScrollUp,Green.png,4,Positive,Congruent,,,,,0,0,0,0,,,,,,,,,,,,,,,,,,,,,,,,,0,29,29,29,,,,,,,,,,,,,,,,,,,,,,,,,,,,,,,,,,,,,,,,,,,,,,,,,,,,,,,,,,,,,,,,,,,,,1,1.2583957000169903,585.3978882000083,None,ScrollDown,정답입니다,585.3978882000083,None,585.3978882000083,None,585.3978882000083,None,585.3978882000083,None,586.5489833000174,None,586.5489833000174,587.0488021000056,,,,,,,,,,,,,,,,116,2022-05-05_10h59.35.867,FishGame,2022.1.1,60.10092146615832,
,31,넌 능력있어,2,Orange,B,6.166666666666666,4.6,ScrollUp,ScrollDown,Orange.png,4,Positive,Incongruent,,,,,0,0,0,0,,,,,,,,,,,,,,,,,,,,,,,,,0,30,30,30,,,,,,,,,,,,,,,,,,,,,,,,,,,,,,,,,,,,,,,,,,,,,,,,,,,,,,,,,,,,,,,,,,,,,2,1.4024652000225615,587.6862547000055,None,ScrollUp,정답입니다,587.6862547000055,None,587.6862547000055,None,587.6862547000055,None,587.6862547000055,None,588.9712187999976,None,588.9712187999976,589.4830083000124,,,,,,,,,,,,,,,,116,2022-05-05_10h59.35.867,FishGame,2022.1.1,60.10092146615832,
,32,넌 불쾌해,5,Green,A,2.125,1.933333333333333,ScrollDown,ScrollUp,Green.png,4,Negative,Incongruent,,,,,0,0,0,0,,,,,,,,,,,,,,,,,,,,,,,,,0,31,31,31,,,,,,,,,,,,,,,,,,,,,,,,,,,,,,,,,,,,,,,,,,,,,,,,,,,,,,,,,,,,,,,,,,,,,1.0972222338120143,1.2145717000239529,590.1658788000059,None,ScrollDown,정답입니다,590.1658788000059,None,590.1658788000059,None,590.1658788000059,None,590.1658788000059,None,591.2198242000013,None,591.2198242000013,591.7330482000252,,,,,,,,,,,,,,,,116,2022-05-05_10h59.35.867,FishGame,2022.1.1,60.10092146615832,
,33,나를 데려가줘,6,Orange,B,0,0,ScrollDown,ScrollUp,Orange.png,4,NonTarget,NonTarget,,,,,0,0,0,0,,,,,,,,,,,,,,,,,,,,,,,,,0,32,32,32,,,,,,,,,,,,,,,,,,,,,,,,,,,,,,,,,,,,,,,,,,,,,,,,,,,,,,,,,,,,,,,,,,,,,1.0540123681227367,1.1192908000084572,592.367745800002,None,ScrollDown,정답입니다,592.367745800002,None,592.367745800002,None,592.367745800002,None,592.367745800002,None,593.3809116000193,None,593.3809116000193,593.8830076000013,,,,,,,,,,,,,,,,116,2022-05-05_10h59.35.867,FishGame,2022.1.1,60.10092146615832,
,34,넌 유순해,3,Green,A,4.458333333333333,5,ScrollDown,ScrollUp,Green.png,4,Neutral,Neutral,,,,,0,0,0,0,,,,,,,,,,,,,,,,,,,,,,,,,0,33,33,33,,,,,,,,,,,,,,,,,,,,,,,,,,,,,,,,,,,,,,,,,,,,,,,,,,,,,,,,,,,,,,,,,,,,,1.095679019888242,1.2914632000029087,594.5098949000239,None,ScrollDown,정답입니다,594.5098949000239,None,594.5098949000239,None,594.5098949000239,None,594.5098949000239,None,595.6989254000073,None,595.6989254000073,596.1986827000219,,,,,,,,,,,,,,,,116,2022-05-05_10h59.35.867,FishGame,2022.1.1,60.10092146615832,
,35,넌 근심스러워,4,Orange,B,2.708333333333333,3.133333333333333,ScrollUp,ScrollDown,Orange.png,4,Negative,Congruent,,,,,0,0,0,0,,,,,,,,,,,,,,,,,,,,,,,,,0,34,34,34,,,,,,,,,,,,,,,,,,,,,,,,,,,,,,,,,,,,,,,,,,,,,,,,,,,,,,,,,,,,,,,,,,,,,2,1.4567596999986563,596.844526300003,None,ScrollUp,정답입니다,596.844526300003,None,596.844526300003,None,596.844526300003,None,596.844526300003,None,598.1826112999988,None,598.1826112999988,598.6826102000196,,,,,,,,,,,,,,,,116,2022-05-05_10h59.35.867,FishGame,2022.1.1,60.10092146615832,
,36,넌 세련되었어,2,Green,A,5.5,4.6,ScrollDown,ScrollUp,Green.png,4,Positive,Congruent,,,,,0,0,0,0,,,,,,,,,,,,,,,,,,,,,,,,,0,35,35,35,,,,,,,,,,,,,,,,,,,,,,,,,,,,,,,,,,,,,,,,,,,,,,,,,,,,,,,,,,,,,,,,,,,,,1.0910493781169255,1.033544100006111,599.319830100023,None,ScrollDown,정답입니다,599.319830100023,None,599.319830100023,None,599.319830100023,None,599.319830100023,None,600.2372553000168,None,600.2372553000168,600.7494119000039,,,,,,,,,,,,,,,,116,2022-05-05_10h59.35.867,FishGame,2022.1.1,60.10092146615832,
,37,나를 보내줘,6,Green,A,0,0,ScrollUp,ScrollDown,Green.png,4,NonTarget,NonTarget,,,,,0,0,0,0,,,,,,,,,,,,,,,,,,,,,,,,,0,36,36,36,,,,,,,,,,,,,,,,,,,,,,,,,,,,,,,,,,,,,,,,,,,,,,,,,,,,,,,,,,,,,,,,,,,,,2,1.1491144000028726,601.383493900008,None,ScrollUp,정답입니다,601.383493900008,None,601.383493900008,None,601.383493900008,None,601.383493900008,None,602.4206140000024,None,602.4206140000024,602.933297200012,,,,,,,,,,,,,,,,116,2022-05-05_10h59.35.867,FishGame,2022.1.1,60.10092146615832,
,38,넌 확고해,3,Orange,B,4.708333333333334,4.566666666666666,ScrollUp,ScrollDown,Orange.png,4,Neutral,Neutral,,,,,0,0,0,0,,,,,,,,,,,,,,,,,,,,,,,,,0,37,37,37,,,,,,,,,,,,,,,,,,,,,,,,,,,,,,,,,,,,,,,,,,,,,,,,,,,,,,,,,,,,,,,,,,,,,1.9675925771395366,1.023654799995711,603.5765920999984,None,ScrollUp,정답입니다,603.5765920999984,None,603.5765920999984,None,603.5765920999984,None,603.5765920999984,None,604.4807468000217,None,604.4807468000217,604.9833266000205,,,,,,,,,,,,,,,,116,2022-05-05_10h59.35.867,FishGame,2022.1.1,60.10092146615832,
,39,넌 이해심이 많아,1,Orange,B,6.041666666666668,5.533333333333333,ScrollUp,ScrollDown,Orange.png,4,Positive,Incongruent,,,,,0,0,0,0,,,,,,,,,,,,,,,,,,,,,,,,,0,38,38,38,,,,,,,,,,,,,,,,,,,,,,,,,,,,,,,,,,,,,,,,,,,,,,,,,,,,,,,,,,,,,,,,,,,,,2,0.8607661999994889,605.6139495000243,None,ScrollUp,정답입니다,605.6139495000243,None,605.6139495000243,None,605.6139495000243,None,605.6139495000243,None,606.3659709000203,None,606.3659709000203,606.866731200018,,,,,,,,,,,,,,,,116,2022-05-05_10h59.35.867,FishGame,2022.1.1,60.10092146615832,
,40,나를 보내줘,6,Green,A,0,0,ScrollUp,ScrollDown,Green.png,4,NonTarget,NonTarget,,,,,0,0,0,0,,,,,,,,,,,,,,,,,,,,,,,,,0,39,39,39,,,,,,,,,,,,,,,,,,,,,,,,,,,,,,,,,,,,,,,,,,,,,,,,,,,,,,,,,,,,,,,,,,,,,2,1.2842579999996815,607.4913920000254,None,ScrollUp,정답입니다,607.4913920000254,None,607.4913920000254,None,607.4913920000254,None,607.4913920000254,None,608.6709228999971,None,608.6709228999971,609.1827774000121,,,,,,,,,,,,,,,,116,2022-05-05_10h59.35.867,FishGame,2022.1.1,60.10092146615832,
,41,넌 거칠어,4,Green,A,2.625,3.033333333333333,ScrollDown,ScrollUp,Green.png,4,Negative,Incongruent,,,,,0,0,0,0,,,,,,,,,,,,,,,,,,,,,,,,,0,40,40,40,,,,,,,,,,,,,,,,,,,,,,,,,,,,,,,,,,,,,,,,,,,,,,,,,,,,,,,,,,,,,,,,,,,,,1,1.0627988000051118,609.8207677000028,None,ScrollDown,정답입니다,609.8207677000028,None,609.8207677000028,None,609.8207677000028,None,609.8207677000028,None,610.7660370000231,None,610.7660370000231,611.2661245000199,,,,,,,,,,,,,,,,116,2022-05-05_10h59.35.867,FishGame,2022.1.1,60.10092146615832,
,42,넌 변덕맞아,5,Orange,B,2.75,2.166666666666667,ScrollUp,ScrollDown,Orange.png,4,Negative,Congruent,,,,,0,0,0,0,,,,,,,,,,,,,,,,,,,,,,,,,0,41,41,41,,,,,,,,,,,,,,,,,,,,,,,,,,,,,,,,,,,,,,,,,,,,,,,,,,,,,,,,,,,,,,,,,,,,,1.879629631837209,0.9742494999954943,611.9145893000241,None,ScrollUp,정답입니다,611.9145893000241,None,611.9145893000241,None,611.9145893000241,None,611.9145893000241,None,612.7639267000195,None,612.7639267000195,613.2661039000086,,,,,,,,,,,,,,,,116,2022-05-05_10h59.35.867,FishGame,2022.1.1,60.10092146615832,
,43,나를 데려가줘,6,Orange,B,0,0,ScrollDown,ScrollUp,Orange.png,4,NonTarget,NonTarget,,,,,0,0,0,0,,,,,,,,,,,,,,,,,,,,,,,,,0,42,42,42,,,,,,,,,,,,,,,,,,,,,,,,,,,,,,,,,,,,,,,,,,,,,,,,,,,,,,,,,,,,,,,,,,,,,1.0679012437661488,1.1298480000114068,613.9035898000002,None,ScrollDown,정답입니다,613.9035898000002,None,613.9035898000002,None,613.9035898000002,None,613.9035898000002,None,614.9183369000093,None,614.9183369000093,615.4334500000114,,,,,,,,,,,,,,,,116,2022-05-05_10h59.35.867,FishGame,2022.1.1,60.10092146615832,
,44,넌 외로워,4,Orange,B,2.833333333333333,3.3,ScrollUp,ScrollDown,Orange.png,4,Negative,Congruent,,,,,0,0,0,0,,,,,,,,,,,,,,,,,,,,,,,,,0,43,43,43,,,,,,,,,,,,,,,,,,,,,,,,,,,,,,,,,,,,,,,,,,,,,,,,,,,,,,,,,,,,,,,,,,,,,1.9274691144625347,1.253296999988379,616.0666377000161,None,ScrollUp,정답입니다,616.0666377000161,None,616.0666377000161,None,616.0666377000161,None,616.0666377000161,None,617.2148576000181,None,617.2148576000181,617.7164818000165,,,,,,,,,,,,,,,,116,2022-05-05_10h59.35.867,FishGame,2022.1.1,60.10092146615832,
,1,넌 불평스러워,5,Green,A,2.25,2.066666666666667,ScrollDown,ScrollUp,Green.png,5,Negative,Incongruent,,,,,0,0,0,0,,,,,,,,,,,,,,,,,,,,,,,,,,,,,0,0,0,0,,,,,,,,,,,,,,,,,,,,,,,,650.3008473000082,651.8000577000203,651.8336684000096,652.7839502000134,652.8337836000137,653.7840942000039,653.7840942000039,None,,,,,,,,,,,,,,,,,,,,,,,,,,,,,,,,,,1.2515432039896646,1.549219600012293,654.9320851000084,None,ScrollDown,정답입니다,654.9320851000084,None,654.9320851000084,None,654.9320851000084,None,654.9320851000084,None,656.3318737000227,None,656.3318737000227,656.8335989000043,618.2166028000065,None,618.2166028000065,None,0.2712963,-0.11111111,1,0,0,0.016379970009438694,None,648.2175302000251,None,,,116,2022-05-05_10h59.35.867,FishGame,2022.1.1,60.10092146615832,
,2,나를 보내줘,6,Green,A,0,0,ScrollUp,ScrollDown,Green.png,5,NonTarget,NonTarget,,,,,0,0,0,0,,,,,,,,,,,,,,,,,,,,,,,,,,,,,0,1,1,1,,,,,,,,,,,,,,,,,,,,,,,,,,,,,,,,,,,,,,,,,,,,,,,,,,,,,,,,,,,,,,,,,2,1.0688350000127684,657.4599325000017,None,ScrollUp,정답입니다,657.4599325000017,None,657.4599325000017,None,657.4599325000017,None,657.4599325000017,None,658.4215354000044,None,658.4215354000044,658.9344784000132,,,,,,,,,,,,,,,,116,2022-05-05_10h59.35.867,FishGame,2022.1.1,60.10092146615832,
,3,넌 다재다능해,2,Orange,B,6.208333333333333,4.5,ScrollUp,ScrollDown,Orange.png,5,Positive,Incongruent,,,,,0,0,0,0,,,,,,,,,,,,,,,,,,,,,,,,,,,,,0,2,2,2,,,,,,,,,,,,,,,,,,,,,,,,,,,,,,,,,,,,,,,,,,,,,,,,,,,,,,,,,,,,,,,,,2,1.0588045000040438,659.5680525000207,None,ScrollUp,정답입니다,659.5680525000207,None,659.5680525000207,None,659.5680525000207,None,659.5680525000207,None,660.5171447000175,None,660.5171447000175,661.0178270000033,,,,,,,,,,,,,,,,116,2022-05-05_10h59.35.867,FishGame,2022.1.1,60.10092146615832,
,4,넌 과감해,3,Green,A,4.833333333333334,4.6,ScrollDown,ScrollUp,Green.png,5,Neutral,Neutral,,,,,0,0,0,0,,,,,,,,,,,,,,,,,,,,,,,,,,,,,0,3,3,3,,,,,,,,,,,,,,,,,,,,,,,,,,,,,,,,,,,,,,,,,,,,,,,,,,,,,,,,,,,,,,,,,1,1.0073098999855574,661.646570700017,None,ScrollDown,정답입니다,661.646570700017,None,661.646570700017,None,661.646570700017,None,661.646570700017,None,662.5503896000155,None,662.5503896000155,663.0505114000116,,,,,,,,,,,,,,,,116,2022-05-05_10h59.35.867,FishGame,2022.1.1,60.10092146615832,
,5,넌 고분고분해,3,Orange,B,3.75,4.033333333333333,ScrollUp,ScrollDown,Orange.png,5,Neutral,Neutral,,,,,0,0,0,0,,,,,,,,,,,,,,,,,,,,,,,,,,,,,0,4,4,4,,,,,,,,,,,,,,,,,,,,,,,,,,,,,,,,,,,,,,,,,,,,,,,,,,,,,,,,,,,,,,,,,2,1.0281318000052124,663.6952332000074,None,ScrollUp,정답입니다,663.6952332000074,None,663.6952332000074,None,663.6952332000074,None,663.6952332000074,None,664.6008076000144,None,664.6008076000144,665.1007712999999,,,,,,,,,,,,,,,,116,2022-05-05_10h59.35.867,FishGame,2022.1.1,60.10092146615832,
,6,나를 보내줘,6,Green,A,0,0,ScrollUp,ScrollDown,Green.png,5,NonTarget,NonTarget,,,,,0,0,0,0,,,,,,,,,,,,,,,,,,,,,,,,,,,,,0,5,5,5,,,,,,,,,,,,,,,,,,,,,,,,,,,,,,,,,,,,,,,,,,,,,,,,,,,,,,,,,,,,,,,,,2,1.4086832999892067,665.7239424000145,None,ScrollUp,정답입니다,665.7239424000145,None,665.7239424000145,None,665.7239424000145,None,665.7239424000145,None,667.0337906000204,None,667.0337906000204,667.5347143000108,,,,,,,,,,,,,,,,116,2022-05-05_10h59.35.867,FishGame,2022.1.1,60.10092146615832,
,7,넌 잘 잊어,4,Green,A,3,3.7,ScrollDown,ScrollUp,Green.png,5,Negative,Incongruent,,,,,0,0,0,0,,,,,,,,,,,,,,,,,,,,,,,,,,,,,0,6,6,6,,,,,,,,,,,,,,,,,,,,,,,,,,,,,,,,,,,,,,,,,,,,,,,,,,,,,,,,,,,,,,,,,1.0771604776382446,1.1517861999745946,668.1748245000199,None,ScrollDown,정답입니다,668.1748245000199,None,668.1748245000199,None,668.1748245000199,None,668.1748245000199,None,669.2055783999967,None,669.2055783999967,669.717848100001,,,,,,,,,,,,,,,,116,2022-05-05_10h59.35.867,FishGame,2022.1.1,60.10092146615832,
,8,넌 탐구심이없어,4,Orange,B,2.833333333333333,3.066666666666667,ScrollUp,ScrollDown,Orange.png,5,Negative,Congruent,,,,,0,0,0,0,,,,,,,,,,,,,,,,,,,,,,,,,,,,,0,7,7,7,,,,,,,,,,,,,,,,,,,,,,,,,,,,,,,,,,,,,,,,,,,,,,,,,,,,,,,,,,,,,,,,,2,1.367487000010442,670.3565127000038,None,ScrollUp,정답입니다,670.3565127000038,None,670.3565127000038,None,670.3565127000038,None,670.3565127000038,None,671.6055485999968,None,671.6055485999968,672.1178912000032,,,,,,,,,,,,,,,,116,2022-05-05_10h59.35.867,FishGame,2022.1.1,60.10092146615832,
,9,나를 데려가줘,6,Orange,B,0,0,ScrollDown,ScrollUp,Orange.png,5,NonTarget,NonTarget,,,,,0,0,0,0,,,,,,,,,,,,,,,,,,,,,,,,,,,,,0,8,8,8,,,,,,,,,,,,,,,,,,,,,,,,,,,,,,,,,,,,,,,,,,,,,,,,,,,,,,,,,,,,,,,,,1,1.2914358999987599,672.7532550000178,None,ScrollDown,정답입니다,672.7532550000178,None,672.7532550000178,None,672.7532550000178,None,672.7532550000178,None,673.9345816000132,None,673.9345816000132,674.4345141000231,,,,,,,,,,,,,,,,116,2022-05-05_10h59.35.867,FishGame,2022.1.1,60.10092146615832,
,10,넌 참되어,2,Green,A,6.041666666666664,4.733333333333333,ScrollDown,ScrollUp,Green.png,5,Positive,Congruent,,,,,0,0,0,0,,,,,,,,,,,,,,,,,,,,,,,,,,,,,0,9,9,9,,,,,,,,,,,,,,,,,,,,,,,,,,,,,,,,,,,,,,,,,,,,,,,,,,,,,,,,,,,,,,,,,1,1.931053599982988,675.063734299998,None,ScrollDown,정답입니다,675.063734299998,None,675.063734299998,None,675.063734299998,None,675.063734299998,None,676.8880338000017,None,676.8880338000017,677.400833200023,,,,,,,,,,,,,,,,116,2022-05-05_10h59.35.867,FishGame,2022.1.1,60.10092146615832,
,11,넌 생기있어,1,Orange,B,5.875,5.633333333333334,ScrollUp,ScrollDown,Orange.png,5,Positive,Incongruent,,,,,0,0,0,0,,,,,,,,,,,,,,,,,,,,,,,,,,,,,0,10,10,10,,,,,,,,,,,,,,,,,,,,,,,,,,,,,,,,,,,,,,,,,,,,,,,,,,,,,,,,,,,,,,,,,2,1.095070699986536,678.0399658000097,None,ScrollUp,정답입니다,678.0399658000097,None,678.0399658000097,None,678.0399658000097,None,678.0399658000097,None,679.017880200001,None,679.017880200001,679.5182377000165,,,,,,,,,,,,,,,,116,2022-05-05_10h59.35.867,FishGame,2022.1.1,60.10092146615832,
,12,넌 비사교적이야,4,Orange,B,2.875,2.9,ScrollUp,ScrollDown,Orange.png,5,Negative,Congruent,,,,,0,0,0,0,,,,,,,,,,,,,,,,,,,,,,,,,,,,,0,11,11,11,,,,,,,,,,,,,,,,,,,,,,,,,,,,,,,,,,,,,,,,,,,,,,,,,,,,,,,,,,,,,,,,,2,1.0612114000250585,680.1501198000042,None,ScrollUp,정답입니다,680.1501198000042,None,680.1501198000042,None,680.1501198000042,None,680.1501198000042,None,681.1009527000133,None,681.1009527000133,681.6011300000246,,,,,,,,,,,,,,,,116,2022-05-05_10h59.35.867,FishGame,2022.1.1,60.10092146615832,
,13,나를 데려가줘,6,Orange,B,0,0,ScrollDown,ScrollUp,Orange.png,5,NonTarget,NonTarget,,,,,0,0,0,0,,,,,,,,,,,,,,,,,,,,,,,,,,,,,0,12,12,12,,,,,,,,,,,,,,,,,,,,,,,,,,,,,,,,,,,,,,,,,,,,,,,,,,,,,,,,,,,,,,,,,1.0324074228604634,1.2899484999943525,682.2372547000123,None,ScrollDown,정답입니다,682.2372547000123,None,682.2372547000123,None,682.2372547000123,None,682.2372547000123,None,683.4181607000064,None,683.4181607000064,683.9181304000085,,,,,,,,,,,,,,,,116,2022-05-05_10h59.35.867,FishGame,2022.1.1,60.10092146615832,
,14,넌 고독해,4,Green,A,2.916666666666667,3.233333333333333,ScrollDown,ScrollUp,Green.png,5,Negative,Incongruent,,,,,0,0,0,0,,,,,,,,,,,,,,,,,,,,,,,,,,,,,0,13,13,13,,,,,,,,,,,,,,,,,,,,,,,,,,,,,,,,,,,,,,,,,,,,,,,,,,,,,,,,,,,,,,,,,1.0586419602235158,1.0235617000143975,684.5452907000144,None,ScrollDown,정답입니다,684.5452907000144,None,684.5452907000144,None,684.5452907000144,None,684.5452907000144,None,685.4660436999984,None,685.4660436999984,685.9679634000058,,,,,,,,,,,,,,,,116,2022-05-05_10h59.35.867,FishGame,2022.1.1,60.10092146615832,
,15,넌 신경질적이야,5,Orange,B,2.375,2.233333333333333,ScrollUp,ScrollDown,Orange.png,5,Negative,Congruent,,,,,0,0,0,0,,,,,,,,,,,,,,,,,,,,,,,,,,,,,0,14,14,14,,,,,,,,,,,,,,,,,,,,,,,,,,,,,,,,,,,,,,,,,,,,,,,,,,,,,,,,,,,,,,,,,2,1.135171599977184,686.6105033000058,None,ScrollUp,정답입니다,686.6105033000058,None,686.6105033000058,None,686.6105033000058,None,686.6105033000058,None,687.623103400023,None,687.623103400023,688.1349633000209,,,,,,,,,,,,,,,,116,2022-05-05_10h59.35.867,FishGame,2022.1.1,60.10092146615832,
,16,넌 똑똑해,2,Orange,B,5.666666666666667,3.966666666666667,ScrollUp,ScrollDown,Orange.png,5,Positive,Incongruent,,,,,0,0,0,0,,,,,,,,,,,,,,,,,,,,,,,,,,,,,0,15,15,15,,,,,,,,,,,,,,,,,,,,,,,,,,,,,,,,,,,,,,,,,,,,,,,,,,,,,,,,,,,,,,,,,2,1.1383188999898266,688.7766479999991,None,ScrollUp,정답입니다,688.7766479999991,None,688.7766479999991,None,688.7766479999991,None,688.7766479999991,None,689.7993380000116,None,689.7993380000116,690.3013711000094,,,,,,,,,,,,,,,,116,2022-05-05_10h59.35.867,FishGame,2022.1.1,60.10092146615832,
,17,나를 보내줘,6,Green,A,0,0,ScrollUp,ScrollDown,Green.png,5,NonTarget,NonTarget,,,,,0,0,0,0,,,,,,,,,,,,,,,,,,,,,,,,,,,,,0,16,16,16,,,,,,,,,,,,,,,,,,,,,,,,,,,,,,,,,,,,,,,,,,,,,,,,,,,,,,,,,,,,,,,,,2,1.6410888000100385,690.9288858000073,None,ScrollUp,정답입니다,690.9288858000073,None,690.9288858000073,None,690.9288858000073,None,690.9288858000073,None,692.4661907000118,None,692.4661907000118,692.9684699000209,,,,,,,,,,,,,,,,116,2022-05-05_10h59.35.867,FishGame,2022.1.1,60.10092146615832,
,18,넌 협조적이야,1,Green,A,5.625,5.666666666666667,ScrollDown,ScrollUp,Green.png,5,Positive,Congruent,,,,,0,0,0,0,,,,,,,,,,,,,,,,,,,,,,,,,,,,,0,17,17,17,,,,,,,,,,,,,,,,,,,,,,,,,,,,,,,,,,,,,,,,,,,,,,,,,,,,,,,,,,,,,,,,,1,1.4064701000170317,693.6176800000248,None,ScrollDown,정답입니다,693.6176800000248,None,693.6176800000248,None,693.6176800000248,None,693.6176800000248,None,694.8994857000071,None,694.8994857000071,695.4017761000141,,,,,,,,,,,,,,,,116,2022-05-05_10h59.35.867,FishGame,2022.1.1,60.10092146615832,
,19,나를 데려가줘,6,Orange,B,0,0,ScrollDown,ScrollUp,Orange.png,5,NonTarget,NonTarget,,,,,0,0,0,0,,,,,,,,,,,,,,,,,,,,,,,,,,,,,0,18,18,18,,,,,,,,,,,,,,,,,,,,,,,,,,,,,,,,,,,,,,,,,,,,,,,,,,,,,,,,,,,,,,,,,1,1.4463689999829512,696.0378886000253,None,ScrollDown,정답입니다,696.0378886000253,None,696.0378886000253,None,696.0378886000253,None,696.0378886000253,None,697.3700956000248,None,697.3700956000248,697.8853436000063,,,,,,,,,,,,,,,,116,2022-05-05_10h59.35.867,FishGame,2022.1.1,60.10092146615832,
,20,넌 몰인정해,5,Orange,B,2.541666666666667,2.066666666666667,ScrollUp,ScrollDown,Orange.png,5,Negative,Congruent,,,,,0,0,0,0,,,,,,,,,,,,,,,,,,,,,,,,,,,,,0,19,19,19,,,,,,,,,,,,,,,,,,,,,,,,,,,,,,,,,,,,,,,,,,,,,,,,,,,,,,,,,,,,,,,,,1.9675925771395366,1.4486337999987882,698.5252733000088,None,ScrollUp,정답입니다,698.5252733000088,None,698.5252733000088,None,698.5252733000088,None,698.5252733000088,None,699.8553827000142,None,699.8553827000142,700.3682610999967,,,,,,,,,,,,,,,,116,2022-05-05_10h59.35.867,FishGame,2022.1.1,60.10092146615832,
,21,나를 데려가줘,6,Orange,B,0,0,ScrollDown,ScrollUp,Orange.png,5,NonTarget,NonTarget,,,,,0,0,0,0,,,,,,,,,,,,,,,,,,,,,,,,,,,,,0,20,20,20,,,,,,,,,,,,,,,,,,,,,,,,,,,,,,,,,,,,,,,,,,,,,,,,,,,,,,,,,,,,,,,,,1.0216049253940582,1.602801000000909,700.9987713000155,None,ScrollDown,정답입니다,700.9987713000155,None,700.9987713000155,None,700.9987713000155,None,700.9987713000155,None,702.4995386000082,None,702.4995386000082,703.0019144999969,,,,,,,,,,,,,,,,116,2022-05-05_10h59.35.867,FishGame,2022.1.1,60.10092146615832,
,22,넌 순진해,3,Orange,B,4.125,4.166666666666667,ScrollUp,ScrollDown,Orange.png,5,Neutral,Neutral,,,,,0,0,0,0,,,,,,,,,,,,,,,,,,,,,,,,,,,,,0,21,21,21,,,,,,,,,,,,,,,,,,,,,,,,,,,,,,,,,,,,,,,,,,,,,,,,,,,,,,,,,,,,,,,,,1.7901234477758408,1.1052782000042498,703.6345734000206,None,ScrollUp,정답입니다,703.6345734000206,None,703.6345734000206,None,703.6345734000206,None,703.6345734000206,None,704.6333089000254,None,704.6333089000254,705.1345192000153,,,,,,,,,,,,,,,,116,2022-05-05_10h59.35.867,FishGame,2022.1.1,60.10092146615832,
,23,넌 신뢰할만해,1,Green,A,6.625,5.533333333333333,ScrollDown,ScrollUp,Green.png,5,Positive,Congruent,,,,,0,0,0,0,,,,,,,,,,,,,,,,,,,,,,,,,,,,,0,22,22,22,,,,,,,,,,,,,,,,,,,,,,,,,,,,,,,,,,,,,,,,,,,,,,,,,,,,,,,,,,,,,,,,,1,1.0542241999937687,705.8056476000056,None,ScrollDown,정답입니다,705.8056476000056,None,705.8056476000056,None,705.8056476000056,None,705.8056476000056,None,706.716207200021,None,706.716207200021,707.2188210000168,,,,,,,,,,,,,,,,116,2022-05-05_10h59.35.867,FishGame,2022.1.1,60.10092146615832,
,24,나를 보내줘,6,Green,A,0,0,ScrollUp,ScrollDown,Green.png,5,NonTarget,NonTarget,,,,,0,0,0,0,,,,,,,,,,,,,,,,,,,,,,,,,,,,,0,23,23,23,,,,,,,,,,,,,,,,,,,,,,,,,,,,,,,,,,,,,,,,,,,,,,,,,,,,,,,,,,,,,,,,,2,1.179154200013727,707.849363300018,None,ScrollUp,정답입니다,707.849363300018,None,707.849363300018,None,707.849363300018,None,707.849363300018,None,708.9186896000174,None,708.9186896000174,709.4191402000142,,,,,,,,,,,,,,,,116,2022-05-05_10h59.35.867,FishGame,2022.1.1,60.10092146615832,
,25,넌 인색해,5,Green,A,2.625,2.233333333333333,ScrollDown,ScrollUp,Green.png,5,Negative,Incongruent,,,,,0,0,0,0,,,,,,,,,,,,,,,,,,,,,,,,,,,,,0,24,24,24,,,,,,,,,,,,,,,,,,,,,,,,,,,,,,,,,,,,,,,,,,,,,,,,,,,,,,,,,,,,,,,,,1.2716049353281655,0.9526362000033259,710.0535053000203,None,ScrollDown,정답입니다,710.0535053000203,None,710.0535053000203,None,710.0535053000203,None,710.0535053000203,None,710.8999453000142,None,710.8999453000142,711.4018090000027,,,,,,,,,,,,,,,,116,2022-05-05_10h59.35.867,FishGame,2022.1.1,60.10092146615832,
,26,넌 유쾌해,1,Orange,B,5.833333333333333,5.766666666666667,ScrollUp,ScrollDown,Orange.png,5,Positive,Incongruent,,,,,0,0,0,0,,,,,,,,,,,,,,,,,,,,,,,,,,,,,0,25,25,25,,,,,,,,,,,,,,,,,,,,,,,,,,,,,,,,,,,,,,,,,,,,,,,,,,,,,,,,,,,,,,,,,1.8456790000200272,0.9917879999848083,712.0355398000102,None,ScrollUp,정답입니다,712.0355398000102,None,712.0355398000102,None,712.0355398000102,None,712.0355398000102,None,712.9185115,None,712.9185115,713.4184537999972,,,,,,,,,,,,,,,,116,2022-05-05_10h59.35.867,FishGame,2022.1.1,60.10092146615832,
