name,TrialNum,Word,WordCategory,FishType,WordList,WordValence,WordReputation,CorrectResp,IncorrectResp,FishTypeFile,Round,WordType,Condition,LoopforOrange.thisRepN,LoopforOrange.thisTrialN,LoopforOrange.thisN,LoopforOrange.thisIndex,OrangeInstLoop.thisRepN,OrangeInstLoop.thisTrialN,OrangeInstLoop.thisN,OrangeInstLoop.thisIndex,OrangePrac.thisRepN,OrangePrac.thisTrialN,OrangePrac.thisN,OrangePrac.thisIndex,temp1.thisRepN,temp1.thisTrialN,temp1.thisN,temp1.thisIndex,OrangeRound1.thisRepN,OrangeRound1.thisTrialN,OrangeRound1.thisN,OrangeRound1.thisIndex,OrangeRound2.thisRepN,OrangeRound2.thisTrialN,OrangeRound2.thisN,OrangeRound2.thisIndex,OrangeRound3.thisRepN,OrangeRound3.thisTrialN,OrangeRound3.thisN,OrangeRound3.thisIndex,OrangeRound4.thisRepN,OrangeRound4.thisTrialN,OrangeRound4.thisN,OrangeRound4.thisIndex,OrangeRound5.thisRepN,OrangeRound5.thisTrialN,OrangeRound5.thisN,OrangeRound5.thisIndex,LoopForGreen.thisRepN,LoopForGreen.thisTrialN,LoopForGreen.thisN,LoopForGreen.thisIndex,text_2.started,text_2.stopped,text_3.started,text_3.stopped,key_resp.keys,key_resp.rt,key_resp.started,key_resp.stopped,PassI_2.started,PassI_2.stopped,PassInst_2.keys,PassInst_2.rt,PassInst_2.started,PassInst_2.stopped,mouse_2.x,mouse_2.y,mouse_2.leftButton,mouse_2.midButton,mouse_2.rightButton,mouse_2.started,mouse_2.stopped,image.started,image.stopped,text_5.started,text_5.stopped,text_6.started,text_6.stopped,text_7.started,text_7.stopped,text_8.started,text_8.stopped,slider_2.response,slider_2.rt,slider_2.started,slider_2.stopped,Response_2,Feedback_2,BackGround_2.started,BackGround_2.stopped,Fish_2.started,Fish_2.stopped,WordBox_2.started,WordBox_2.stopped,Words_2.started,Words_2.stopped,BackGround_Feedback_2.started,BackGround_Feedback_2.stopped,Feedbacks_2.started,Feedbacks_2.stopped,Continue_or_not.keys,Continue_or_not.rt,Continue_or_not.started,Continue_or_not.stopped,image_3.started,image_3.stopped,mouse_3.x,mouse_3.y,mouse_3.leftButton,mouse_3.midButton,mouse_3.rightButton,mouse_3.started,mouse_3.stopped,startmain.started,startmain.stopped,slider.response,slider.rt,slider.started,slider.stopped,Response,Feedback,BackGround.started,BackGround.stopped,Fish.started,Fish.stopped,WordBox.started,WordBox.stopped,Words.started,Words.stopped,BackGround_Feedback.started,BackGround_Feedback.stopped,Feedbacks.started,Feedbacks.stopped,text.started,text.stopped,break_interval.started,break_interval.stopped,mouse.x,mouse.y,mouse.leftButton,mouse.midButton,mouse.rightButton,mouse.started,mouse.stopped,stratnextround.started,stratnextround.stopped,endgame.started,endgame.stopped,participant,date,expName,psychopyVersion,frameRate,
,,,,,,,,,,,,,,,,,,,,,,,,,,,,,,,,,,,,,,,,,,,,,,,,,,,,,,22.796197099989513,None,22.796197099989513,None,space,1.1139145999914035,23.25426570000127,None,,,,,,,,,,,,,,,,,,,,,,,,,,,,,,,,,,,,,,,,,,,,,,,,,,,,,,,,,,,,,,,,,,,,,,,,,,,,,,,,,,,,,,,,,,117,2022-05-05_13h55.18.531,FishGame,2022.1.1,59.68702511529037,
물고기과제_instruction(참가자용)OrangeVersion.mp4,,,,,,,,,,,,,,0,0,0,0,0,0,0,0,,,,,,,,,,,,,,,,,,,,,,,,,,,,,,,,,,,,,,,,,90.6362884999835,None,n,8.338301999989199,90.6362884999835,None,,,,,,,,,,,,,,,,,,,,,,,,,,,,,,,,,,,,,,,,,,,,,,,,,,,,,,,,,,,,,,,,,,,,,,,,,,,,,,,,,,,,117,2022-05-05_13h55.18.531,FishGame,2022.1.1,59.68702511529037,
,1,넌 교활해,5,Green,B,2.333333333333333,2.133333333333333,ScrollUp,ScrollDown,Green.png,practice,,,0,0,0,0,,,,,0,0,0,0,0,0,0,0,,,,,,,,,,,,,,,,,,,,,,,,,,,,,,,,,,,,,,,0.043518517,-0.21944444,1,0,0,0.5136660299904179,None,99.00583360000746,None,108.98975449998397,110.48977709998144,110.52309349999996,111.47243439999875,111.52244289999362,112.47258080000756,112.47258080000756,None,1.746913582086563,1.6363140000030398,113.60131649998948,None,ScrollUp,정답입니다,113.60131649998948,None,113.60131649998948,None,113.60131649998948,None,113.60131649998948,None,115.10659069998655,None,115.10659069998655,115.60590100000263,,,,,,,,,,,,,,,,,,,,,,,,,,,,,,,,,,,,,,,,,,,,,,,,,117,2022-05-05_13h55.18.531,FishGame,2022.1.1,59.68702511529037,
,2,넌 슬기로워,2,Orange,A,6.166666666666667,4.1,ScrollDown,ScrollUp,Orange.png,practice,,,0,0,0,0,,,,,0,0,0,0,0,1,1,1,,,,,,,,,,,,,,,,,,,,,,,,,,,,,,,,,,,,,,,,,,,,,,,,,,,,,,,,1,1.1579404999793041,116.2519445999933,None,ScrollDown,정답입니다,116.2519445999933,None,116.2519445999933,None,116.2519445999933,None,116.2519445999933,None,117.28935939999064,None,117.28935939999064,117.7897951999912,,,,,,,,,,,,,,,,,,,,,,,,,,,,,,,,,,,,,,,,,,,,,,,,,117,2022-05-05_13h55.18.531,FishGame,2022.1.1,59.68702511529037,
,3,나를 보내줘,6,Orange,A,0,0,ScrollUp,ScrollDown,Orange.png,practice,,,0,0,0,0,,,,,0,0,0,0,0,2,2,2,,,,,,,,,,,,,,,,,,,,,,,,,,,,,,,,,,,,,,,,,,,,,,,,,,,,,,,,2,1.5451532999868505,118.4253320999851,None,ScrollUp,정답입니다,118.4253320999851,None,118.4253320999851,None,118.4253320999851,None,118.4253320999851,None,119.85651230000076,None,119.85651230000076,120.35605800000485,,,,,,,,,,,,,,,,,,,,,,,,,,,,,,,,,,,,,,,,,,,,,,,,,117,2022-05-05_13h55.18.531,FishGame,2022.1.1,59.68702511529037,
,4,나를 데려가줘,6,Green,B,0,0,ScrollDown,ScrollUp,Green.png,practice,,,0,0,0,0,,,,,0,0,0,0,0,3,3,3,,,,,,,,,,,,,,,,,,,,,,,,,,,,,,,,,,,,,,,,,,,,,,,,,,,,,,,,1,1.2721680999966338,120.98909139999887,None,ScrollDown,정답입니다,120.98909139999887,None,120.98909139999887,None,120.98909139999887,None,120.98909139999887,None,122.15404639998451,None,122.15404639998451,122.65621980000287,,,,,,,,,,,,,,,,,,,,,,,,,,,,,,,,,,,,,,,,,,,,,,,,,117,2022-05-05_13h55.18.531,FishGame,2022.1.1,59.68702511529037,
,1,넌 교활해,5,Green,B,2.333333333333333,2.133333333333333,ScrollUp,ScrollDown,Green.png,practice,,,0,0,0,0,,,,,0,0,0,0,,,,,,,,,,,,,,,,,,,,,,,,,,,,,,,,,,,,,,,,,,,,,,,,,,,,,,,,,,,,,,,,,,,,,,,,,,,,,,n,19.82539220000035,123.15582250000443,None,123.15582250000443,None,,,,,,,,,,,,,,,,,,,,,,,,,,,,,,,,,,,,,,,,,,,117,2022-05-05_13h55.18.531,FishGame,2022.1.1,59.68702511529037,
,1,넌 따뜻해,1,Green,B,6.083333333333333,5.6,ScrollUp,ScrollDown,Green.png,1,Positive,Incongruent,0,0,0,0,,,,,,,,,,,,,0,0,0,0,,,,,,,,,,,,,,,,,,,,,,,,,,,,,,,,,,,,,,,,,,,,147.59031269999105,149.0906157999998,149.12413730000844,150.07358140000724,150.12355920000118,151.0737453000038,151.0737453000038,None,,,,,,,,,,,,,,,,,,,,,,,,,-0.0046296297,-0.11851852,1,0,0,0.3137912299716845,None,143.0069411000004,None,2,1.7508376000041608,152.25052889998187,None,ScrollUp,정답입니다,152.25052889998187,None,152.25052889998187,None,152.25052889998187,None,152.25052889998187,None,153.82016699999804,None,153.82016699999804,154.3234470000025,,,,,,,,,,,,,,,,117,2022-05-05_13h55.18.531,FishGame,2022.1.1,59.68702511529037,
,2,넌 기품있어,2,Green,B,5.791666666666668,4.5,ScrollUp,ScrollDown,Green.png,1,Positive,Incongruent,0,0,0,0,,,,,,,,,,,,,0,1,1,1,,,,,,,,,,,,,,,,,,,,,,,,,,,,,,,,,,,,,,,,,,,,,,,,,,,,,,,,,,,,,,,,,,,,,,,,,,,,,,,,,,,,,2,1.0354581999999937,154.96450289999484,None,ScrollUp,정답입니다,154.96450289999484,None,154.96450289999484,None,154.96450289999484,None,154.96450289999484,None,155.87843049998628,None,155.87843049998628,156.3905489000026,,,,,,,,,,,,,,,,117,2022-05-05_13h55.18.531,FishGame,2022.1.1,59.68702511529037,
,3,나를 보내줘,6,Orange,A,0,0,ScrollUp,ScrollDown,Orange.png,1,NonTarget,NonTarget,0,0,0,0,,,,,,,,,,,,,0,2,2,2,,,,,,,,,,,,,,,,,,,,,,,,,,,,,,,,,,,,,,,,,,,,,,,,,,,,,,,,,,,,,,,,,,,,,,,,,,,,,,,,,,,,,2,1.1956883000093512,157.0374531999987,None,ScrollUp,정답입니다,157.0374531999987,None,157.0374531999987,None,157.0374531999987,None,157.0374531999987,None,158.10667660000036,None,158.10667660000036,158.6069021000003,,,,,,,,,,,,,,,,117,2022-05-05_13h55.18.531,FishGame,2022.1.1,59.68702511529037,
,4,넌 수동적이야,4,Orange,A,2.833333333333333,2.933333333333333,ScrollDown,ScrollUp,Orange.png,1,Negative,Incongruent,0,0,0,0,,,,,,,,,,,,,0,3,3,3,,,,,,,,,,,,,,,,,,,,,,,,,,,,,,,,,,,,,,,,,,,,,,,,,,,,,,,,,,,,,,,,,,,,,,,,,,,,,,,,,,,,,1,1.1951668999972753,159.2541610999906,None,ScrollDown,정답입니다,159.2541610999906,None,159.2541610999906,None,159.2541610999906,None,159.2541610999906,None,160.32373499998357,None,160.32373499998357,160.8235369999893,,,,,,,,,,,,,,,,117,2022-05-05_13h55.18.531,FishGame,2022.1.1,59.68702511529037,
,5,넌 사심이 없어,3,Green,B,4.916666666666666,4.333333333333333,ScrollUp,ScrollDown,Green.png,1,Neutral,Neutral,0,0,0,0,,,,,,,,,,,,,0,4,4,4,,,,,,,,,,,,,,,,,,,,,,,,,,,,,,,,,,,,,,,,,,,,,,,,,,,,,,,,,,,,,,,,,,,,,,,,,,,,,,,,,,,,,2,1.0879985999781638,161.4675101999892,None,ScrollUp,정답입니다,161.4675101999892,None,161.4675101999892,None,161.4675101999892,None,161.4675101999892,None,162.4390207999968,None,162.4390207999968,162.94053629998234,,,,,,,,,,,,,,,,117,2022-05-05_13h55.18.531,FishGame,2022.1.1,59.68702511529037,
,6,넌 헤퍼,5,Orange,A,2.458333333333334,2.233333333333333,ScrollDown,ScrollUp,Orange.png,1,Negative,Incongruent,0,0,0,0,,,,,,,,,,,,,0,5,5,5,,,,,,,,,,,,,,,,,,,,,,,,,,,,,,,,,,,,,,,,,,,,,,,,,,,,,,,,,,,,,,,,,,,,,,,,,,,,,,,,,,,,,1,1.2870820999960415,163.58380709998892,None,ScrollDown,정답입니다,163.58380709998892,None,163.58380709998892,None,163.58380709998892,None,163.58380709998892,None,164.75562979999813,None,164.75562979999813,165.25692650000565,,,,,,,,,,,,,,,,117,2022-05-05_13h55.18.531,FishGame,2022.1.1,59.68702511529037,
,7,넌 말쑥해,3,Orange,A,4.833333333333334,4.333333333333333,ScrollDown,ScrollUp,Orange.png,1,Neutral,Neutral,0,0,0,0,,,,,,,,,,,,,0,6,6,6,,,,,,,,,,,,,,,,,,,,,,,,,,,,,,,,,,,,,,,,,,,,,,,,,,,,,,,,,,,,,,,,,,,,,,,,,,,,,,,,,,,,,1,1.018146299989894,165.90210069998284,None,ScrollDown,정답입니다,165.90210069998284,None,165.90210069998284,None,165.90210069998284,None,165.90210069998284,None,166.80546919998596,None,166.80546919998596,167.30746539999382,,,,,,,,,,,,,,,,117,2022-05-05_13h55.18.531,FishGame,2022.1.1,59.68702511529037,
,8,넌 투덜거려,5,Green,B,2.541666666666667,2.266666666666667,ScrollUp,ScrollDown,Green.png,1,Negative,Congruent,0,0,0,0,,,,,,,,,,,,,0,7,7,7,,,,,,,,,,,,,,,,,,,,,,,,,,,,,,,,,,,,,,,,,,,,,,,,,,,,,,,,,,,,,,,,,,,,,,,,,,,,,,,,,,,,,2,1.0448117000050843,167.94885749998502,None,ScrollUp,정답입니다,167.94885749998502,None,167.94885749998502,None,167.94885749998502,None,167.94885749998502,None,168.8736222999869,None,168.8736222999869,169.374020999996,,,,,,,,,,,,,,,,117,2022-05-05_13h55.18.531,FishGame,2022.1.1,59.68702511529037,
,9,넌 적극적이야,1,Orange,A,5.708333333333333,5.533333333333333,ScrollDown,ScrollUp,Orange.png,1,Positive,Congruent,0,0,0,0,,,,,,,,,,,,,0,8,8,8,,,,,,,,,,,,,,,,,,,,,,,,,,,,,,,,,,,,,,,,,,,,,,,,,,,,,,,,,,,,,,,,,,,,,,,,,,,,,,,,,,,,,1,1.0196421000000555,170.00995639999746,None,ScrollDown,정답입니다,170.00995639999746,None,170.00995639999746,None,170.00995639999746,None,170.00995639999746,None,170.9223551999894,None,170.9223551999894,171.4237329000025,,,,,,,,,,,,,,,,117,2022-05-05_13h55.18.531,FishGame,2022.1.1,59.68702511529037,
,10,넌 재미없어,4,Green,B,2.625,2.966666666666667,ScrollUp,ScrollDown,Green.png,1,Negative,Congruent,0,0,0,0,,,,,,,,,,,,,0,9,9,9,,,,,,,,,,,,,,,,,,,,,,,,,,,,,,,,,,,,,,,,,,,,,,,,,,,,,,,,,,,,,,,,,,,,,,,,,,,,,,,,,,,,,2,1.0429045999771915,172.07197679998353,None,ScrollUp,정답입니다,172.07197679998353,None,172.07197679998353,None,172.07197679998353,None,172.07197679998353,None,172.9905088999949,None,172.9905088999949,173.4908632999868,,,,,,,,,,,,,,,,117,2022-05-05_13h55.18.531,FishGame,2022.1.1,59.68702511529037,
,11,넌 명석해,2,Orange,A,5.875,4.033333333333333,ScrollDown,ScrollUp,Orange.png,1,Positive,Congruent,0,0,0,0,,,,,,,,,,,,,0,10,10,10,,,,,,,,,,,,,,,,,,,,,,,,,,,,,,,,,,,,,,,,,,,,,,,,,,,,,,,,,,,,,,,,,,,,,,,,,,,,,,,,,,,,,1,0.8923233000095934,174.13591650000308,None,ScrollDown,정답입니다,174.13591650000308,None,174.13591650000308,None,174.13591650000308,None,174.13591650000308,None,174.90748609998263,None,174.90748609998263,175.40728059998946,,,,,,,,,,,,,,,,117,2022-05-05_13h55.18.531,FishGame,2022.1.1,59.68702511529037,
,12,나를 데려가줘,6,Green,B,0,0,ScrollDown,ScrollUp,Green.png,1,NonTarget,NonTarget,0,0,0,0,,,,,,,,,,,,,0,11,11,11,,,,,,,,,,,,,,,,,,,,,,,,,,,,,,,,,,,,,,,,,,,,,,,,,,,,,,,,,,,,,,,,,,,,,,,,,,,,,,,,,,,,,1,0.9899254000047222,176.0424023999949,None,ScrollDown,정답입니다,176.0424023999949,None,176.0424023999949,None,176.0424023999949,None,176.0424023999949,None,176.92255399998976,None,176.92255399998976,177.42386039998382,,,,,,,,,,,,,,,,117,2022-05-05_13h55.18.531,FishGame,2022.1.1,59.68702511529037,
,13,넌 소심해,4,Orange,A,3,3.1,ScrollDown,ScrollUp,Orange.png,1,Negative,Incongruent,0,0,0,0,,,,,,,,,,,,,0,12,12,12,,,,,,,,,,,,,,,,,,,,,,,,,,,,,,,,,,,,,,,,,,,,,,,,,,,,,,,,,,,,,,,,,,,,,,,,,,,,,,,,,,,,,1,1.2998632000235375,178.05802940001013,None,ScrollDown,정답입니다,178.05802940001013,None,178.05802940001013,None,178.05802940001013,None,178.05802940001013,None,179.24534120000317,None,179.24534120000317,179.75770079999347,,,,,,,,,,,,,,,,117,2022-05-05_13h55.18.531,FishGame,2022.1.1,59.68702511529037,
,14,넌 합리적이야,2,Orange,A,5.583333333333333,4.733333333333333,ScrollDown,ScrollUp,Orange.png,1,Positive,Congruent,0,0,0,0,,,,,,,,,,,,,0,13,13,13,,,,,,,,,,,,,,,,,,,,,,,,,,,,,,,,,,,,,,,,,,,,,,,,,,,,,,,,,,,,,,,,,,,,,,,,,,,,,,,,,,,,,1,0.9306600999843795,180.39298139998573,None,ScrollDown,정답입니다,180.39298139998573,None,180.39298139998573,None,180.39298139998573,None,180.39298139998573,None,181.20992779999506,None,181.20992779999506,181.72402860000147,,,,,,,,,,,,,,,,117,2022-05-05_13h55.18.531,FishGame,2022.1.1,59.68702511529037,
,15,넌 무자비해,5,Green,B,2.333333333333333,2.1,ScrollUp,ScrollDown,Green.png,1,Negative,Congruent,0,0,0,0,,,,,,,,,,,,,0,14,14,14,,,,,,,,,,,,,,,,,,,,,,,,,,,,,,,,,,,,,,,,,,,,,,,,,,,,,,,,,,,,,,,,,,,,,,,,,,,,,,,,,,,,,2,0.9840595000132453,182.36088100000052,None,ScrollUp,정답입니다,182.36088100000052,None,182.36088100000052,None,182.36088100000052,None,182.36088100000052,None,183.22887560000527,None,183.22887560000527,183.74089809998986,,,,,,,,,,,,,,,,117,2022-05-05_13h55.18.531,FishGame,2022.1.1,59.68702511529037,
,16,나를 보내줘,6,Orange,A,0,0,ScrollUp,ScrollDown,Orange.png,1,NonTarget,NonTarget,0,0,0,0,,,,,,,,,,,,,0,15,15,15,,,,,,,,,,,,,,,,,,,,,,,,,,,,,,,,,,,,,,,,,,,,,,,,,,,,,,,,,,,,,,,,,,,,,,,,,,,,,,,,,,,,,2,1.1407514000020456,184.37539279999328,None,ScrollUp,정답입니다,184.37539279999328,None,184.37539279999328,None,184.37539279999328,None,184.37539279999328,None,185.406066800002,None,185.406066800002,185.9081624999817,,,,,,,,,,,,,,,,117,2022-05-05_13h55.18.531,FishGame,2022.1.1,59.68702511529037,
,17,넌 현실적이야,3,Green,B,4.608695652173913,4.766666666666667,ScrollUp,ScrollDown,Green.png,1,Neutral,Neutral,0,0,0,0,,,,,,,,,,,,,0,16,16,16,,,,,,,,,,,,,,,,,,,,,,,,,,,,,,,,,,,,,,,,,,,,,,,,,,,,,,,,,,,,,,,,,,,,,,,,,,,,,,,,,,,,,2,1.0693178999936208,186.54561219998868,None,ScrollUp,정답입니다,186.54561219998868,None,186.54561219998868,None,186.54561219998868,None,186.54561219998868,None,187.49627740000142,None,187.49627740000142,188.00817559999996,,,,,,,,,,,,,,,,117,2022-05-05_13h55.18.531,FishGame,2022.1.1,59.68702511529037,
,18,넌 의리있어,1,Green,B,5.833333333333334,5.633333333333334,ScrollUp,ScrollDown,Green.png,1,Positive,Incongruent,0,0,0,0,,,,,,,,,,,,,0,17,17,17,,,,,,,,,,,,,,,,,,,,,,,,,,,,,,,,,,,,,,,,,,,,,,,,,,,,,,,,,,,,,,,,,,,,,,,,,,,,,,,,,,,,,2,0.9933978999906685,188.63843679998536,None,ScrollUp,정답입니다,188.63843679998536,None,188.63843679998536,None,188.63843679998536,None,188.63843679998536,None,189.52450559998397,None,189.52450559998397,190.02472059999127,,,,,,,,,,,,,,,,117,2022-05-05_13h55.18.531,FishGame,2022.1.1,59.68702511529037,
,19,넌 신경과민이야,5,Orange,A,2.541666666666667,2.166666666666667,ScrollDown,ScrollUp,Orange.png,1,Negative,Incongruent,0,0,0,0,,,,,,,,,,,,,0,18,18,18,,,,,,,,,,,,,,,,,,,,,,,,,,,,,,,,,,,,,,,,,,,,,,,,,,,,,,,,,,,,,,,,,,,,,,,,,,,,,,,,,,,,,1,0.9297709999955259,190.6773256000015,None,ScrollDown,정답입니다,190.6773256000015,None,190.6773256000015,None,190.6773256000015,None,190.6773256000015,None,191.47788759999094,None,191.47788759999094,191.99102210000274,,,,,,,,,,,,,,,,117,2022-05-05_13h55.18.531,FishGame,2022.1.1,59.68702511529037,
,20,넌 편안해,1,Orange,A,5.916666666666666,5.866666666666666,ScrollDown,ScrollUp,Orange.png,1,Positive,Congruent,0,0,0,0,,,,,,,,,,,,,0,19,19,19,,,,,,,,,,,,,,,,,,,,,,,,,,,,,,,,,,,,,,,,,,,,,,,,,,,,,,,,,,,,,,,,,,,,,,,,,,,,,,,,,,,,,1,0.9225977000023704,192.63264209998306,None,ScrollDown,정답입니다,192.63264209998306,None,192.63264209998306,None,192.63264209998306,None,192.63264209998306,None,193.4389133999939,None,193.4389133999939,193.94095389998984,,,,,,,,,,,,,,,,117,2022-05-05_13h55.18.531,FishGame,2022.1.1,59.68702511529037,
,21,넌 품위있어,2,Green,B,5.291666666666666,4.466666666666667,ScrollUp,ScrollDown,Green.png,1,Positive,Incongruent,0,0,0,0,,,,,,,,,,,,,0,20,20,20,,,,,,,,,,,,,,,,,,,,,,,,,,,,,,,,,,,,,,,,,,,,,,,,,,,,,,,,,,,,,,,,,,,,,,,,,,,,,,,,,,,,,2,0.99123809998855,194.5756975999975,None,ScrollUp,정답입니다,194.5756975999975,None,194.5756975999975,None,194.5756975999975,None,194.5756975999975,None,195.45796659999178,None,195.45796659999178,195.95817130000796,,,,,,,,,,,,,,,,117,2022-05-05_13h55.18.531,FishGame,2022.1.1,59.68702511529037,
,22,넌 빈틈없어,3,Orange,A,4.833333333333333,3.966666666666667,ScrollDown,ScrollUp,Orange.png,1,Neutral,Neutral,0,0,0,0,,,,,,,,,,,,,0,21,21,21,,,,,,,,,,,,,,,,,,,,,,,,,,,,,,,,,,,,,,,,,,,,,,,,,,,,,,,,,,,,,,,,,,,,,,,,,,,,,,,,,,,,,1,0.9301108000217937,196.6009095000045,None,ScrollDown,정답입니다,196.6009095000045,None,196.6009095000045,None,196.6009095000045,None,196.6009095000045,None,197.410968399985,None,197.410968399985,197.92439379999996,,,,,,,,,,,,,,,,117,2022-05-05_13h55.18.531,FishGame,2022.1.1,59.68702511529037,
,23,넌 상상력없어,4,Green,B,2.833333333333333,3.133333333333333,ScrollUp,ScrollDown,Green.png,1,Negative,Congruent,0,0,0,0,,,,,,,,,,,,,0,22,22,22,,,,,,,,,,,,,,,,,,,,,,,,,,,,,,,,,,,,,,,,,,,,,,,,,,,,,,,,,,,,,,,,,,,,,,,,,,,,,,,,,,,,,2,0.9170638999785297,198.56134109999402,None,ScrollUp,정답입니다,198.56134109999402,None,198.56134109999402,None,198.56134109999402,None,198.56134109999402,None,199.36314159998437,None,199.36314159998437,199.87483280000743,,,,,,,,,,,,,,,,117,2022-05-05_13h55.18.531,FishGame,2022.1.1,59.68702511529037,
,24,넌 지혜로워,2,Green,B,6.333333333333334,4.633333333333334,ScrollUp,ScrollDown,Green.png,1,Positive,Incongruent,0,0,0,0,,,,,,,,,,,,,0,23,23,23,,,,,,,,,,,,,,,,,,,,,,,,,,,,,,,,,,,,,,,,,,,,,,,,,,,,,,,,,,,,,,,,,,,,,,,,,,,,,,,,,,,,,2,1.3550112000084482,200.50968190000276,None,ScrollUp,정답입니다,200.50968190000276,None,200.50968190000276,None,200.50968190000276,None,200.50968190000276,None,201.75653250000323,None,201.75653250000323,202.25803299999097,,,,,,,,,,,,,,,,117,2022-05-05_13h55.18.531,FishGame,2022.1.1,59.68702511529037,
,25,넌 시끄러워,4,Orange,A,2.833333333333333,3.033333333333333,ScrollDown,ScrollUp,Orange.png,1,Negative,Incongruent,0,0,0,0,,,,,,,,,,,,,0,24,24,24,,,,,,,,,,,,,,,,,,,,,,,,,,,,,,,,,,,,,,,,,,,,,,,,,,,,,,,,,,,,,,,,,,,,,,,,,,,,,,,,,,,,,1,0.9536666000203695,202.9040629999945,None,ScrollDown,정답입니다,202.9040629999945,None,202.9040629999945,None,202.9040629999945,None,202.9040629999945,None,203.73999719999847,None,203.73999719999847,204.24151190000703,,,,,,,,,,,,,,,,117,2022-05-05_13h55.18.531,FishGame,2022.1.1,59.68702511529037,
,26,넌 만사태평이야,3,Green,B,4,4.333333333333333,ScrollUp,ScrollDown,Green.png,1,Neutral,Neutral,0,0,0,0,,,,,,,,,,,,,0,25,25,25,,,,,,,,,,,,,,,,,,,,,,,,,,,,,,,,,,,,,,,,,,,,,,,,,,,,,,,,,,,,,,,,,,,,,,,,,,,,,,,,,,,,,2,0.976074999984121,204.87998219998553,None,ScrollUp,정답입니다,204.87998219998553,None,204.87998219998553,None,204.87998219998553,None,204.87998219998553,None,205.74159779999172,None,205.74159779999172,206.2412697999971,,,,,,,,,,,,,,,,117,2022-05-05_13h55.18.531,FishGame,2022.1.1,59.68702511529037,
,27,넌 붙임성있어,1,Orange,A,5.708333333333333,5.633333333333334,ScrollDown,ScrollUp,Orange.png,1,Positive,Congruent,0,0,0,0,,,,,,,,,,,,,0,26,26,26,,,,,,,,,,,,,,,,,,,,,,,,,,,,,,,,,,,,,,,,,,,,,,,,,,,,,,,,,,,,,,,,,,,,,,,,,,,,,,,,,,,,,1,0.8956075000169221,206.88158210000256,None,ScrollDown,정답입니다,206.88158210000256,None,206.88158210000256,None,206.88158210000256,None,206.88158210000256,None,207.65942599999835,None,207.65942599999835,208.15850190000492,,,,,,,,,,,,,,,,117,2022-05-05_13h55.18.531,FishGame,2022.1.1,59.68702511529037,
,28,넌 영리해,2,Orange,A,6,4.033333333333333,ScrollDown,ScrollUp,Orange.png,1,Positive,Congruent,0,0,0,0,,,,,,,,,,,,,0,27,27,27,,,,,,,,,,,,,,,,,,,,,,,,,,,,,,,,,,,,,,,,,,,,,,,,,,,,,,,,,,,,,,,,,,,,,,,,,,,,,,,,,,,,,1,1.0043422000017017,208.81289850000758,None,ScrollDown,정답입니다,208.81289850000758,None,208.81289850000758,None,208.81289850000758,None,208.81289850000758,None,209.70635239998228,None,209.70635239998228,210.20856410000124,,,,,,,,,,,,,,,,117,2022-05-05_13h55.18.531,FishGame,2022.1.1,59.68702511529037,
,29,넌 열심이야,1,Green,B,6.041666666666667,5.833333333333333,ScrollUp,ScrollDown,Green.png,1,Positive,Incongruent,0,0,0,0,,,,,,,,,,,,,0,28,28,28,,,,,,,,,,,,,,,,,,,,,,,,,,,,,,,,,,,,,,,,,,,,,,,,,,,,,,,,,,,,,,,,,,,,,,,,,,,,,,,,,,,,,2,1.6527959000086412,210.8461224999919,None,ScrollUp,정답입니다,210.8461224999919,None,210.8461224999919,None,210.8461224999919,None,210.8461224999919,None,212.37948539998615,None,212.37948539998615,212.89229419999174,,,,,,,,,,,,,,,,117,2022-05-05_13h55.18.531,FishGame,2022.1.1,59.68702511529037,
,30,넌 인기없어,4,Green,B,3,3.3,ScrollUp,ScrollDown,Green.png,1,Negative,Congruent,0,0,0,0,,,,,,,,,,,,,0,29,29,29,,,,,,,,,,,,,,,,,,,,,,,,,,,,,,,,,,,,,,,,,,,,,,,,,,,,,,,,,,,,,,,,,,,,,,,,,,,,,,,,,,,,,2,0.9321157000085805,213.52229219998117,None,ScrollUp,정답입니다,213.52229219998117,None,213.52229219998117,None,213.52229219998117,None,213.52229219998117,None,214.34671749998233,None,214.34671749998233,214.8586080999812,,,,,,,,,,,,,,,,117,2022-05-05_13h55.18.531,FishGame,2022.1.1,59.68702511529037,
,31,넌 익살스러워,3,Orange,A,4.708333333333334,4.833333333333333,ScrollDown,ScrollUp,Orange.png,1,Neutral,Neutral,0,0,0,0,,,,,,,,,,,,,0,30,30,30,,,,,,,,,,,,,,,,,,,,,,,,,,,,,,,,,,,,,,,,,,,,,,,,,,,,,,,,,,,,,,,,,,,,,,,,,,,,,,,,,,,,,1,0.9232560999807902,215.501202799991,None,ScrollDown,정답입니다,215.501202799991,None,215.501202799991,None,215.501202799991,None,215.501202799991,None,216.30645340000046,None,216.30645340000046,216.80817629999365,,,,,,,,,,,,,,,,117,2022-05-05_13h55.18.531,FishGame,2022.1.1,59.68702511529037,
,32,넌 이기적이야,5,Green,B,2.291666666666667,2.333333333333333,ScrollUp,ScrollDown,Green.png,1,Negative,Congruent,0,0,0,0,,,,,,,,,,,,,0,31,31,31,,,,,,,,,,,,,,,,,,,,,,,,,,,,,,,,,,,,,,,,,,,,,,,,,,,,,,,,,,,,,,,,,,,,,,,,,,,,,,,,,,,,,2,0.9605829000065569,217.43880489998264,None,ScrollUp,정답입니다,217.43880489998264,None,217.43880489998264,None,217.43880489998264,None,217.43880489998264,None,218.29131699999562,None,218.29131699999562,218.7916278000048,,,,,,,,,,,,,,,,117,2022-05-05_13h55.18.531,FishGame,2022.1.1,59.68702511529037,
,33,나를 데려가줘,6,Green,B,0,0,ScrollDown,ScrollUp,Green.png,1,NonTarget,NonTarget,0,0,0,0,,,,,,,,,,,,,0,32,32,32,,,,,,,,,,,,,,,,,,,,,,,,,,,,,,,,,,,,,,,,,,,,,,,,,,,,,,,,,,,,,,,,,,,,,,,,,,,,,,,,,,,,,1,0.9073615999950562,219.4222643999965,None,ScrollDown,정답입니다,219.4222643999965,None,219.4222643999965,None,219.4222643999965,None,219.4222643999965,None,220.22493709999253,None,220.22493709999253,220.72449870000128,,,,,,,,,,,,,,,,117,2022-05-05_13h55.18.531,FishGame,2022.1.1,59.68702511529037,
,34,넌 기회주의자야,5,Orange,A,2.875,2.133333333333333,ScrollDown,ScrollUp,Orange.png,1,Negative,Incongruent,0,0,0,0,,,,,,,,,,,,,0,33,33,33,,,,,,,,,,,,,,,,,,,,,,,,,,,,,,,,,,,,,,,,,,,,,,,,,,,,,,,,,,,,,,,,,,,,,,,,,,,,,,,,,,,,,1.0138889054457347,0.862884700007271,221.37435179998283,None,ScrollDown,정답입니다,221.37435179998283,None,221.37435179998283,None,221.37435179998283,None,221.37435179998283,None,222.1110939999926,None,222.1110939999926,222.6255775000027,,,,,,,,,,,,,,,,117,2022-05-05_13h55.18.531,FishGame,2022.1.1,59.68702511529037,
,1,넌 미성숙해,4,Orange,A,3,3.2,ScrollDown,ScrollUp,Orange.png,2,Negative,Incongruent,0,0,0,0,,,,,,,,,,,,,,,,,0,0,0,0,,,,,,,,,,,,,,,,,,,,,,,,,,,,,,,,,,,,,,,,254.77586870000232,256.27583090000553,256.30954260000726,257.25905759999296,257.30944199999794,258.25933599998825,258.25933599998825,None,,,,,,,,,,,,,,,,,,,,,,,,,,,,,,,,,,1,1.1434451999957673,259.41637099999934,None,ScrollDown,정답입니다,259.41637099999934,None,259.41637099999934,None,259.41637099999934,None,259.41637099999934,None,260.3923426999827,None,260.3923426999827,260.89286160000484,223.12503249998554,None,223.12503249998554,None,0.1425926,-0.075925924,1,0,0,0.016144830005941913,None,253.12543709998135,None,,,117,2022-05-05_13h55.18.531,FishGame,2022.1.1,59.68702511529037,
,2,넌 반사회적이야,5,Green,B,2.416666666666667,2.033333333333333,ScrollUp,ScrollDown,Green.png,2,Negative,Congruent,0,0,0,0,,,,,,,,,,,,,,,,,0,1,1,1,,,,,,,,,,,,,,,,,,,,,,,,,,,,,,,,,,,,,,,,,,,,,,,,,,,,,,,,,,,,,,,,,,,,,,,,,,,,,,,,,2,0.9236531000060495,261.52697849998367,None,ScrollUp,정답입니다,261.52697849998367,None,261.52697849998367,None,261.52697849998367,None,261.52697849998367,None,262.34066379998694,None,262.34066379998694,262.8423949999851,,,,,,,,,,,,,,,,117,2022-05-05_13h55.18.531,FishGame,2022.1.1,59.68702511529037,
,3,넌 유능해,2,Orange,A,6.208333333333333,4.433333333333334,ScrollDown,ScrollUp,Orange.png,2,Positive,Congruent,0,0,0,0,,,,,,,,,,,,,,,,,0,2,2,2,,,,,,,,,,,,,,,,,,,,,,,,,,,,,,,,,,,,,,,,,,,,,,,,,,,,,,,,,,,,,,,,,,,,,,,,,,,,,,,,,1,0.827442300011171,263.4913121999998,None,ScrollDown,정답입니다,263.4913121999998,None,263.4913121999998,None,263.4913121999998,None,263.4913121999998,None,264.1926690999826,None,264.1926690999826,264.6931440999906,,,,,,,,,,,,,,,,117,2022-05-05_13h55.18.531,FishGame,2022.1.1,59.68702511529037,
,4,넌 능숙해,2,Green,B,5.666666666666667,4.733333333333333,ScrollUp,ScrollDown,Green.png,2,Positive,Incongruent,0,0,0,0,,,,,,,,,,,,,,,,,0,3,3,3,,,,,,,,,,,,,,,,,,,,,,,,,,,,,,,,,,,,,,,,,,,,,,,,,,,,,,,,,,,,,,,,,,,,,,,,,,,,,,,,,2,0.9786774999811314,265.3220347999886,None,ScrollUp,정답입니다,265.3220347999886,None,265.3220347999886,None,265.3220347999886,None,265.3220347999886,None,266.1927158999897,None,266.1927158999897,266.692665199982,,,,,,,,,,,,,,,,117,2022-05-05_13h55.18.531,FishGame,2022.1.1,59.68702511529037,
,5,넌 진부해,4,Green,B,2.458333333333333,3.166666666666667,ScrollUp,ScrollDown,Green.png,2,Negative,Congruent,0,0,0,0,,,,,,,,,,,,,,,,,0,4,4,4,,,,,,,,,,,,,,,,,,,,,,,,,,,,,,,,,,,,,,,,,,,,,,,,,,,,,,,,,,,,,,,,,,,,,,,,,,,,,,,,,2,0.9710859999759123,267.32837889998336,None,ScrollUp,정답입니다,267.32837889998336,None,267.32837889998336,None,267.32837889998336,None,267.32837889998336,None,268.1907290999952,None,268.1907290999952,268.69295050000073,,,,,,,,,,,,,,,,117,2022-05-05_13h55.18.531,FishGame,2022.1.1,59.68702511529037,
,6,나를 보내줘,6,Orange,A,0,0,ScrollUp,ScrollDown,Orange.png,2,NonTarget,NonTarget,0,0,0,0,,,,,,,,,,,,,,,,,0,5,5,5,,,,,,,,,,,,,,,,,,,,,,,,,,,,,,,,,,,,,,,,,,,,,,,,,,,,,,,,,,,,,,,,,,,,,,,,,,,,,,,,,2,1.206947600003332,269.33069499998237,None,ScrollUp,정답입니다,269.33069499998237,None,269.33069499998237,None,269.33069499998237,None,269.33069499998237,None,270.4259454999992,None,270.4259454999992,270.9259623999824,,,,,,,,,,,,,,,,117,2022-05-05_13h55.18.531,FishGame,2022.1.1,59.68702511529037,
,7,넌 엄격해,3,Orange,A,4.166666666666666,4.1,ScrollDown,ScrollUp,Orange.png,2,Neutral,Neutral,0,0,0,0,,,,,,,,,,,,,,,,,0,6,6,6,,,,,,,,,,,,,,,,,,,,,,,,,,,,,,,,,,,,,,,,,,,,,,,,,,,,,,,,,,,,,,,,,,,,,,,,,,,,,,,,,1,0.9481760000053328,271.56606119999196,None,ScrollDown,정답입니다,271.56606119999196,None,271.56606119999196,None,271.56606119999196,None,271.56606119999196,None,272.39791239998885,None,272.39791239998885,272.90989350000746,,,,,,,,,,,,,,,,117,2022-05-05_13h55.18.531,FishGame,2022.1.1,59.68702511529037,
,8,나를 보내줘,6,Orange,A,0,0,ScrollUp,ScrollDown,Orange.png,2,NonTarget,NonTarget,0,0,0,0,,,,,,,,,,,,,,,,,0,7,7,7,,,,,,,,,,,,,,,,,,,,,,,,,,,,,,,,,,,,,,,,,,,,,,,,,,,,,,,,,,,,,,,,,,,,,,,,,,,,,,,,,2,1.0241877999796998,273.5421861000068,None,ScrollUp,정답입니다,273.5421861000068,None,273.5421861000068,None,273.5421861000068,None,273.5421861000068,None,274.45774799998617,None,274.45774799998617,274.95997910000733,,,,,,,,,,,,,,,,117,2022-05-05_13h55.18.531,FishGame,2022.1.1,59.68702511529037,
,9,넌 대담해,3,Green,B,4.875,4.866666666666666,ScrollUp,ScrollDown,Green.png,2,Neutral,Neutral,0,0,0,0,,,,,,,,,,,,,,,,,0,8,8,8,,,,,,,,,,,,,,,,,,,,,,,,,,,,,,,,,,,,,,,,,,,,,,,,,,,,,,,,,,,,,,,,,,,,,,,,,,,,,,,,,2,0.9274313999922015,275.5943350000016,None,ScrollUp,정답입니다,275.5943350000016,None,275.5943350000016,None,275.5943350000016,None,275.5943350000016,None,276.4093984999927,None,276.4093984999927,276.91011450000224,,,,,,,,,,,,,,,,117,2022-05-05_13h55.18.531,FishGame,2022.1.1,59.68702511529037,
,10,넌 꾸준해,1,Orange,A,5.916666666666668,5.8,ScrollDown,ScrollUp,Orange.png,2,Positive,Congruent,0,0,0,0,,,,,,,,,,,,,,,,,0,9,9,9,,,,,,,,,,,,,,,,,,,,,,,,,,,,,,,,,,,,,,,,,,,,,,,,,,,,,,,,,,,,,,,,,,,,,,,,,,,,,,,,,1.1141975373029709,0.873696700000437,277.54952549998416,None,ScrollDown,정답입니다,277.54952549998416,None,277.54952549998416,None,277.54952549998416,None,277.54952549998416,None,278.30934010000783,None,278.30934010000783,278.81000649998896,,,,,,,,,,,,,,,,117,2022-05-05_13h55.18.531,FishGame,2022.1.1,59.68702511529037,
,11,나를 데려가줘,6,Green,B,0,0,ScrollDown,ScrollUp,Green.png,2,NonTarget,NonTarget,0,0,0,0,,,,,,,,,,,,,,,,,0,10,10,10,,,,,,,,,,,,,,,,,,,,,,,,,,,,,,,,,,,,,,,,,,,,,,,,,,,,,,,,,,,,,,,,,,,,,,,,,,,,,,,,,1,0.9616247999947518,279.44170239998493,None,ScrollDown,정답입니다,279.44170239998493,None,279.44170239998493,None,279.44170239998493,None,279.44170239998493,None,280.2933481000073,None,280.2933481000073,280.7935265999986,,,,,,,,,,,,,,,,117,2022-05-05_13h55.18.531,FishGame,2022.1.1,59.68702511529037,
,12,넌 독선적이야,5,Orange,A,2.458333333333333,1.933333333333333,ScrollDown,ScrollUp,Orange.png,2,Negative,Incongruent,0,0,0,0,,,,,,,,,,,,,,,,,0,11,11,11,,,,,,,,,,,,,,,,,,,,,,,,,,,,,,,,,,,,,,,,,,,,,,,,,,,,,,,,,,,,,,,,,,,,,,,,,,,,,,,,,1,1.0164716999861412,281.44024060000083,None,ScrollDown,정답입니다,281.44024060000083,None,281.44024060000083,None,281.44024060000083,None,281.44024060000083,None,282.33094290000736,None,282.33094290000736,282.84330740000587,,,,,,,,,,,,,,,,117,2022-05-05_13h55.18.531,FishGame,2022.1.1,59.68702511529037,
,13,나를 보내줘,6,Orange,A,0,0,ScrollUp,ScrollDown,Orange.png,2,NonTarget,NonTarget,0,0,0,0,,,,,,,,,,,,,,,,,0,12,12,12,,,,,,,,,,,,,,,,,,,,,,,,,,,,,,,,,,,,,,,,,,,,,,,,,,,,,,,,,,,,,,,,,,,,,,,,,,,,,,,,,2,0.9735922999971081,283.47972579998896,None,ScrollUp,정답입니다,283.47972579998896,None,283.47972579998896,None,283.47972579998896,None,283.47972579998896,None,284.3414536000055,None,284.3414536000055,284.84315349999815,,,,,,,,,,,,,,,,117,2022-05-05_13h55.18.531,FishGame,2022.1.1,59.68702511529037,
,14,넌 책임감있어,1,Green,B,6.347826086956522,6,ScrollUp,ScrollDown,Green.png,2,Positive,Incongruent,0,0,0,0,,,,,,,,,,,,,,,,,0,13,13,13,,,,,,,,,,,,,,,,,,,,,,,,,,,,,,,,,,,,,,,,,,,,,,,,,,,,,,,,,,,,,,,,,,,,,,,,,,,,,,,,,2,1.0737527999735903,285.47893819998717,None,ScrollUp,정답입니다,285.47893819998717,None,285.47893819998717,None,285.47893819998717,None,285.47893819998717,None,286.441590500006,None,286.441590500006,286.943171299994,,,,,,,,,,,,,,,,117,2022-05-05_13h55.18.531,FishGame,2022.1.1,59.68702511529037,
,15,넌 문학적이야,3,Orange,A,4.708333333333334,4.333333333333333,ScrollDown,ScrollUp,Orange.png,2,Neutral,Neutral,0,0,0,0,,,,,,,,,,,,,,,,,0,14,14,14,,,,,,,,,,,,,,,,,,,,,,,,,,,,,,,,,,,,,,,,,,,,,,,,,,,,,,,,,,,,,,,,,,,,,,,,,,,,,,,,,1.0077160497506459,0.8856317999889143,287.57819139998173,None,ScrollDown,정답입니다,287.57819139998173,None,287.57819139998173,None,287.57819139998173,None,287.57819139998173,None,288.3578512999811,None,288.3578512999811,288.8596969000064,,,,,,,,,,,,,,,,117,2022-05-05_13h55.18.531,FishGame,2022.1.1,59.68702511529037,
,16,넌 재미있어,1,Green,B,5.875,5.7,ScrollUp,ScrollDown,Green.png,2,Positive,Incongruent,0,0,0,0,,,,,,,,,,,,,,,,,0,15,15,15,,,,,,,,,,,,,,,,,,,,,,,,,,,,,,,,,,,,,,,,,,,,,,,,,,,,,,,,,,,,,,,,,,,,,,,,,,,,,,,,,2,1.040207999991253,289.4914060999872,None,ScrollUp,정답입니다,289.4914060999872,None,289.4914060999872,None,289.4914060999872,None,289.4914060999872,None,290.4248226000054,None,290.4248226000054,290.9267266000097,,,,,,,,,,,,,,,,117,2022-05-05_13h55.18.531,FishGame,2022.1.1,59.68702511529037,
,17,나를 데려가줘,6,Green,B,0,0,ScrollDown,ScrollUp,Green.png,2,NonTarget,NonTarget,0,0,0,0,,,,,,,,,,,,,,,,,0,16,16,16,,,,,,,,,,,,,,,,,,,,,,,,,,,,,,,,,,,,,,,,,,,,,,,,,,,,,,,,,,,,,,,,,,,,,,,,,,,,,,,,,1,1.0706414000014775,291.5612625000067,None,ScrollDown,정답입니다,291.5612625000067,None,291.5612625000067,None,291.5612625000067,None,291.5612625000067,None,292.52489870000863,None,292.52489870000863,293.0266267999832,,,,,,,,,,,,,,,,117,2022-05-05_13h55.18.531,FishGame,2022.1.1,59.68702511529037,
,18,넌 협력적이야,1,Orange,A,5.625,5.633333333333334,ScrollDown,ScrollUp,Orange.png,2,Positive,Congruent,0,0,0,0,,,,,,,,,,,,,,,,,0,17,17,17,,,,,,,,,,,,,,,,,,,,,,,,,,,,,,,,,,,,,,,,,,,,,,,,,,,,,,,,,,,,,,,,,,,,,,,,,,,,,,,,,1.0540123681227367,0.9523774999834131,293.66573740000604,None,ScrollDown,정답입니다,293.66573740000604,None,293.66573740000604,None,293.66573740000604,None,293.66573740000604,None,294.50817509999615,None,294.50817509999615,295.0095517000009,,,,,,,,,,,,,,,,117,2022-05-05_13h55.18.531,FishGame,2022.1.1,59.68702511529037,
,19,넌 평범해,3,Green,B,4.333333333333332,4.233333333333333,ScrollUp,ScrollDown,Green.png,2,Neutral,Neutral,0,0,0,0,,,,,,,,,,,,,,,,,0,18,18,18,,,,,,,,,,,,,,,,,,,,,,,,,,,,,,,,,,,,,,,,,,,,,,,,,,,,,,,,,,,,,,,,,,,,,,,,,,,,,,,,,2,1.1076689999899827,295.6377399000048,None,ScrollUp,정답입니다,295.6377399000048,None,295.6377399000048,None,295.6377399000048,None,295.6377399000048,None,296.64311639999505,None,296.64311639999505,297.1437694999913,,,,,,,,,,,,,,,,117,2022-05-05_13h55.18.531,FishGame,2022.1.1,59.68702511529037,
,20,넌 오만해,5,Orange,A,2.333333333333333,2,ScrollDown,ScrollUp,Orange.png,2,Negative,Incongruent,0,0,0,0,,,,,,,,,,,,,,,,,0,19,19,19,,,,,,,,,,,,,,,,,,,,,,,,,,,,,,,,,,,,,,,,,,,,,,,,,,,,,,,,,,,,,,,,,,,,,,,,,,,,,,,,,1.0092592636744182,0.8287367000011727,297.77783879998606,None,ScrollDown,정답입니다,297.77783879998606,None,297.77783879998606,None,297.77783879998606,None,297.77783879998606,None,298.49298089998774,None,298.49298089998774,298.9937576999946,,,,,,,,,,,,,,,,117,2022-05-05_13h55.18.531,FishGame,2022.1.1,59.68702511529037,
,21,넌 운이없어,4,Green,B,3,3.466666666666667,ScrollUp,ScrollDown,Green.png,2,Negative,Congruent,0,0,0,0,,,,,,,,,,,,,,,,,0,20,20,20,,,,,,,,,,,,,,,,,,,,,,,,,,,,,,,,,,,,,,,,,,,,,,,,,,,,,,,,,,,,,,,,,,,,,,,,,,,,,,,,,2,0.940207100007683,299.62815840000985,None,ScrollUp,정답입니다,299.62815840000985,None,299.62815840000985,None,299.62815840000985,None,299.62815840000985,None,300.4579645000049,None,300.4579645000049,300.9605295000074,,,,,,,,,,,,,,,,117,2022-05-05_13h55.18.531,FishGame,2022.1.1,59.68702511529037,
,22,넌 창조적이야,2,Green,B,6.125,4.633333333333334,ScrollUp,ScrollDown,Green.png,2,Positive,Incongruent,0,0,0,0,,,,,,,,,,,,,,,,,0,21,21,21,,,,,,,,,,,,,,,,,,,,,,,,,,,,,,,,,,,,,,,,,,,,,,,,,,,,,,,,,,,,,,,,,,,,,,,,,,,,,,,,,2,0.9355734999990091,301.5954151999904,None,ScrollUp,정답입니다,301.5954151999904,None,301.5954151999904,None,301.5954151999904,None,301.5954151999904,None,302.4145393999934,None,302.4145393999934,302.9267783999967,,,,,,,,,,,,,,,,117,2022-05-05_13h55.18.531,FishGame,2022.1.1,59.68702511529037,
,23,나를 보내줘,6,Orange,A,0,0,ScrollUp,ScrollDown,Orange.png,2,NonTarget,NonTarget,0,0,0,0,,,,,,,,,,,,,,,,,0,22,22,22,,,,,,,,,,,,,,,,,,,,,,,,,,,,,,,,,,,,,,,,,,,,,,,,,,,,,,,,,,,,,,,,,,,,,,,,,,,,,,,,,2,1.0231837999890558,303.55501750000985,None,ScrollUp,정답입니다,303.55501750000985,None,303.55501750000985,None,303.55501750000985,None,303.55501750000985,None,304.47525759998825,None,304.47525759998825,304.9768535000039,,,,,,,,,,,,,,,,117,2022-05-05_13h55.18.531,FishGame,2022.1.1,59.68702511529037,
,24,넌 통찰력있어,2,Orange,A,6.5,4.8,ScrollDown,ScrollUp,Orange.png,2,Positive,Congruent,0,0,0,0,,,,,,,,,,,,,,,,,0,23,23,23,,,,,,,,,,,,,,,,,,,,,,,,,,,,,,,,,,,,,,,,,,,,,,,,,,,,,,,,,,,,,,,,,,,,,,,,,,,,,,,,,1,0.8702662999858148,305.6170523999899,None,ScrollDown,정답입니다,305.6170523999899,None,305.6170523999899,None,305.6170523999899,None,305.6170523999899,None,306.3753738999949,None,306.3753738999949,306.8767372999864,,,,,,,,,,,,,,,,117,2022-05-05_13h55.18.531,FishGame,2022.1.1,59.68702511529037,
,25,넌 경솔해,5,Green,B,2.458333333333333,2.266666666666667,ScrollUp,ScrollDown,Green.png,2,Negative,Congruent,0,0,0,0,,,,,,,,,,,,,,,,,0,24,24,24,,,,,,,,,,,,,,,,,,,,,,,,,,,,,,,,,,,,,,,,,,,,,,,,,,,,,,,,,,,,,,,,,,,,,,,,,,,,,,,,,2,0.8565049000026193,307.508573900006,None,ScrollUp,정답입니다,307.508573900006,None,307.508573900006,None,307.508573900006,None,307.508573900006,None,308.2581175999949,None,308.2581175999949,308.7607318999944,,,,,,,,,,,,,,,,117,2022-05-05_13h55.18.531,FishGame,2022.1.1,59.68702511529037,
,26,넌 초조해,4,Orange,A,2.916666666666667,3.133333333333333,ScrollDown,ScrollUp,Orange.png,2,Negative,Incongruent,0,0,0,0,,,,,,,,,,,,,,,,,0,25,25,25,,,,,,,,,,,,,,,,,,,,,,,,,,,,,,,,,,,,,,,,,,,,,,,,,,,,,,,,,,,,,,,,,,,,,,,,,,,,,,,,,1,1.032180199981667,309.3954429999867,None,ScrollDown,정답입니다,309.3954429999867,None,309.3954429999867,None,309.3954429999867,None,309.3954429999867,None,310.31496270000935,None,310.31496270000935,310.8270010999986,,,,,,,,,,,,,,,,117,2022-05-05_13h55.18.531,FishGame,2022.1.1,59.68702511529037,
,27,넌 무관심해,4,Green,B,2.833333333333333,2.9,ScrollUp,ScrollDown,Green.png,2,Negative,Congruent,0,0,0,0,,,,,,,,,,,,,,,,,0,26,26,26,,,,,,,,,,,,,,,,,,,,,,,,,,,,,,,,,,,,,,,,,,,,,,,,,,,,,,,,,,,,,,,,,,,,,,,,,,,,,,,,,2,0.9663927000074182,311.4594896000053,None,ScrollUp,정답입니다,311.4594896000053,None,311.4594896000053,None,311.4594896000053,None,311.4594896000053,None,312.3161834999919,None,312.3161834999919,312.8276579999947,,,,,,,,,,,,,,,,117,2022-05-05_13h55.18.531,FishGame,2022.1.1,59.68702511529037,
,28,넌 감성적이야,3,Green,B,4.125,4.166666666666667,ScrollUp,ScrollDown,Green.png,2,Neutral,Neutral,0,0,0,0,,,,,,,,,,,,,,,,,0,27,27,27,,,,,,,,,,,,,,,,,,,,,,,,,,,,,,,,,,,,,,,,,,,,,,,,,,,,,,,,,,,,,,,,,,,,,,,,,,,,,,,,,2,1.1074060999962967,313.45681969998986,None,ScrollUp,정답입니다,313.45681969998986,None,313.45681969998986,None,313.45681969998986,None,313.45681969998986,None,314.46022229999653,None,314.46022229999653,314.96031900000526,,,,,,,,,,,,,,,,117,2022-05-05_13h55.18.531,FishGame,2022.1.1,59.68702511529037,
,29,넌 배려심있어,1,Orange,A,6.083333333333333,5.5,ScrollDown,ScrollUp,Orange.png,2,Positive,Congruent,0,0,0,0,,,,,,,,,,,,,,,,,0,28,28,28,,,,,,,,,,,,,,,,,,,,,,,,,,,,,,,,,,,,,,,,,,,,,,,,,,,,,,,,,,,,,,,,,,,,,,,,,,,,,,,,,1,0.9404226000187919,315.60970319999615,None,ScrollDown,정답입니다,315.60970319999615,None,315.60970319999615,None,315.60970319999615,None,315.60970319999615,None,316.42702579998877,None,316.42702579998877,316.9270608999941,,,,,,,,,,,,,,,,117,2022-05-05_13h55.18.531,FishGame,2022.1.1,59.68702511529037,
,30,넌 숨김없어,3,Orange,A,4.5,4.933333333333334,ScrollDown,ScrollUp,Orange.png,2,Neutral,Neutral,0,0,0,0,,,,,,,,,,,,,,,,,0,29,29,29,,,,,,,,,,,,,,,,,,,,,,,,,,,,,,,,,,,,,,,,,,,,,,,,,,,,,,,,,,,,,,,,,,,,,,,,,,,,,,,,,1,0.936116700002458,317.5651293999981,None,ScrollDown,정답입니다,317.5651293999981,None,317.5651293999981,None,317.5651293999981,None,317.5651293999981,None,318.39218419999816,None,318.39218419999816,318.8940849000064,,,,,,,,,,,,,,,,117,2022-05-05_13h55.18.531,FishGame,2022.1.1,59.68702511529037,
,31,넌 훌륭해,2,Green,B,5.916666666666667,4.033333333333333,ScrollUp,ScrollDown,Green.png,2,Positive,Incongruent,0,0,0,0,,,,,,,,,,,,,,,,,0,30,30,30,,,,,,,,,,,,,,,,,,,,,,,,,,,,,,,,,,,,,,,,,,,,,,,,,,,,,,,,,,,,,,,,,,,,,,,,,,,,,,,,,2,0.9681316000060178,319.5301599999948,None,ScrollUp,정답입니다,319.5301599999948,None,319.5301599999948,None,319.5301599999948,None,319.5301599999948,None,320.38204160000896,None,320.38204160000896,320.8939356000046,,,,,,,,,,,,,,,,117,2022-05-05_13h55.18.531,FishGame,2022.1.1,59.68702511529037,
,32,넌 슬기로워,2,Orange,A,6.166666666666667,4.1,ScrollDown,ScrollUp,Orange.png,2,Positive,Congruent,0,0,0,0,,,,,,,,,,,,,,,,,0,31,31,31,,,,,,,,,,,,,,,,,,,,,,,,,,,,,,,,,,,,,,,,,,,,,,,,,,,,,,,,,,,,,,,,,,,,,,,,,,,,,,,,,1,0.899839100020472,321.5328851999948,None,ScrollDown,정답입니다,321.5328851999948,None,321.5328851999948,None,321.5328851999948,None,321.5328851999948,None,322.3152514999965,None,322.3152514999965,322.82759209998767,,,,,,,,,,,,,,,,117,2022-05-05_13h55.18.531,FishGame,2022.1.1,59.68702511529037,
,33,넌 냉혹해,5,Orange,A,2.583333333333333,2.1,ScrollDown,ScrollUp,Orange.png,2,Negative,Incongruent,0,0,0,0,,,,,,,,,,,,,,,,,0,32,32,32,,,,,,,,,,,,,,,,,,,,,,,,,,,,,,,,,,,,,,,,,,,,,,,,,,,,,,,,,,,,,,,,,,,,,,,,,,,,,,,,,1,0.8925865000055637,323.48646310000913,None,ScrollDown,정답입니다,323.48646310000913,None,323.48646310000913,None,323.48646310000913,None,323.48646310000913,None,324.2436459999881,None,324.2436459999881,324.74385410000104,,,,,,,,,,,,,,,,117,2022-05-05_13h55.18.531,FishGame,2022.1.1,59.68702511529037,
,34,나를 데려가줘,6,Green,B,0,0,ScrollDown,ScrollUp,Green.png,2,NonTarget,NonTarget,0,0,0,0,,,,,,,,,,,,,,,,,0,33,33,33,,,,,,,,,,,,,,,,,,,,,,,,,,,,,,,,,,,,,,,,,,,,,,,,,,,,,,,,,,,,,,,,,,,,,,,,,,,,,,,,,1,1.028104800003348,325.3742369999818,None,ScrollDown,정답입니다,325.3742369999818,None,325.3742369999818,None,325.3742369999818,None,325.3742369999818,None,326.2962583999906,None,326.2962583999906,326.81069499999285,,,,,,,,,,,,,,,,117,2022-05-05_13h55.18.531,FishGame,2022.1.1,59.68702511529037,
,35,넌 편파적이야,5,Green,B,2.125,2,ScrollUp,ScrollDown,Green.png,2,Negative,Congruent,0,0,0,0,,,,,,,,,,,,,,,,,0,34,34,34,,,,,,,,,,,,,,,,,,,,,,,,,,,,,,,,,,,,,,,,,,,,,,,,,,,,,,,,,,,,,,,,,,,,,,,,,,,,,,,,,2,0.8798132000083569,327.4385981000087,None,ScrollUp,정답입니다,327.4385981000087,None,327.4385981000087,None,327.4385981000087,None,327.4385981000087,None,328.21133240000927,None,328.21133240000927,328.71091669998714,,,,,,,,,,,,,,,,117,2022-05-05_13h55.18.531,FishGame,2022.1.1,59.68702511529037,
,36,넌 슬퍼,4,Orange,A,2.583333333333333,3.066666666666667,ScrollDown,ScrollUp,Orange.png,2,Negative,Incongruent,0,0,0,0,,,,,,,,,,,,,,,,,0,35,35,35,,,,,,,,,,,,,,,,,,,,,,,,,,,,,,,,,,,,,,,,,,,,,,,,,,,,,,,,,,,,,,,,,,,,,,,,,,,,,,,,,1,0.8793949000246357,329.3566109999956,None,ScrollDown,정답입니다,329.3566109999956,None,329.3566109999956,None,329.3566109999956,None,329.3566109999956,None,330.1106712000037,None,330.1106712000037,330.61121030000504,,,,,,,,,,,,,,,,117,2022-05-05_13h55.18.531,FishGame,2022.1.1,59.68702511529037,
,37,나를 데려가줘,6,Green,B,0,0,ScrollDown,ScrollUp,Green.png,2,NonTarget,NonTarget,0,0,0,0,,,,,,,,,,,,,,,,,0,36,36,36,,,,,,,,,,,,,,,,,,,,,,,,,,,,,,,,,,,,,,,,,,,,,,,,,,,,,,,,,,,,,,,,,,,,,,,,,,,,,,,,,1.1188271542390187,1.1128351999795996,331.2441460999835,None,ScrollDown,정답입니다,331.2441460999835,None,331.2441460999835,None,331.2441460999835,None,331.2441460999835,None,332.24685820000013,None,332.24685820000013,332.76101069999277,,,,,,,,,,,,,,,,117,2022-05-05_13h55.18.531,FishGame,2022.1.1,59.68702511529037,
,38,넌 친절해,1,Green,B,6.041666666666667,5.533333333333333,ScrollUp,ScrollDown,Green.png,2,Positive,Incongruent,0,0,0,0,,,,,,,,,,,,,,,,,0,37,37,37,,,,,,,,,,,,,,,,,,,,,,,,,,,,,,,,,,,,,,,,,,,,,,,,,,,,,,,,,,,,,,,,,,,,,,,,,,,,,,,,,2,0.9855127999908291,333.39598259999184,None,ScrollUp,정답입니다,333.39598259999184,None,333.39598259999184,None,333.39598259999184,None,333.39598259999184,None,334.2659191999992,None,334.2659191999992,334.7779491999827,,,,,,,,,,,,,,,,117,2022-05-05_13h55.18.531,FishGame,2022.1.1,59.68702511529037,
,1,넌 엉성해,4,Orange,A,3,3.3,ScrollDown,ScrollUp,Orange.png,3,Negative,Incongruent,0,0,0,0,,,,,,,,,,,,,,,,,,,,,0,0,0,0,,,,,,,,,,,,,,,,,,,,,,,,,,,,,,,,,,,,366.92858909998904,368.4289244999818,368.4621777999855,369.4120239999902,369.46173119999,370.41151469998294,370.41151469998294,None,,,,,,,,,,,,,,,,,,,,,,,,,,,,,,,,,,1,1.2172145000076853,371.577337499999,None,ScrollDown,정답입니다,371.577337499999,None,371.577337499999,None,371.577337499999,None,371.577337499999,None,372.62653459998546,None,372.62653459998546,373.1289936999965,335.27772700000787,None,335.27772700000787,None,0.05462963,-0.07962963,1,0,0,0.01622082997346297,None,365.27834260000964,None,,,117,2022-05-05_13h55.18.531,FishGame,2022.1.1,59.68702511529037,
,2,나를 보내줘,6,Orange,A,0,0,ScrollUp,ScrollDown,Orange.png,3,NonTarget,NonTarget,0,0,0,0,,,,,,,,,,,,,,,,,,,,,0,1,1,1,,,,,,,,,,,,,,,,,,,,,,,,,,,,,,,,,,,,,,,,,,,,,,,,,,,,,,,,,,,,,,,,,,,,,,,,,,,,,2,1.0040211000014096,373.76721289998386,None,ScrollUp,정답입니다,373.76721289998386,None,373.76721289998386,None,373.76721289998386,None,373.76721289998386,None,374.6597521000076,None,374.6597521000076,375.16228799999226,,,,,,,,,,,,,,,,117,2022-05-05_13h55.18.531,FishGame,2022.1.1,59.68702511529037,
,3,넌 활발해,1,Green,B,5.666666666666667,5.6,ScrollUp,ScrollDown,Green.png,3,Positive,Incongruent,0,0,0,0,,,,,,,,,,,,,,,,,,,,,0,2,2,2,,,,,,,,,,,,,,,,,,,,,,,,,,,,,,,,,,,,,,,,,,,,,,,,,,,,,,,,,,,,,,,,,,,,,,,,,,,,,2,0.908987899980275,375.7910421999986,None,ScrollUp,정답입니다,375.7910421999986,None,375.7910421999986,None,375.7910421999986,None,375.7910421999986,None,376.59525330000906,None,376.59525330000906,377.09557539998787,,,,,,,,,,,,,,,,117,2022-05-05_13h55.18.531,FishGame,2022.1.1,59.68702511529037,
,4,넌 논리적이야,2,Orange,A,5.666666666666666,4.633333333333334,ScrollDown,ScrollUp,Orange.png,3,Positive,Congruent,0,0,0,0,,,,,,,,,,,,,,,,,,,,,0,3,3,3,,,,,,,,,,,,,,,,,,,,,,,,,,,,,,,,,,,,,,,,,,,,,,,,,,,,,,,,,,,,,,,,,,,,,,,,,,,,,1,0.8315062000183389,377.72932220000075,None,ScrollDown,정답입니다,377.72932220000075,None,377.72932220000075,None,377.72932220000075,None,377.72932220000075,None,378.450339300005,None,378.450339300005,378.96202639999683,,,,,,,,,,,,,,,,117,2022-05-05_13h55.18.531,FishGame,2022.1.1,59.68702511529037,
,5,넌 과묵해,3,Orange,A,3.875,4.4,ScrollDown,ScrollUp,Orange.png,3,Neutral,Neutral,0,0,0,0,,,,,,,,,,,,,,,,,,,,,0,4,4,4,,,,,,,,,,,,,,,,,,,,,,,,,,,,,,,,,,,,,,,,,,,,,,,,,,,,,,,,,,,,,,,,,,,,,,,,,,,,,1,0.8294897000014316,379.6015622999985,None,ScrollDown,정답입니다,379.6015622999985,None,379.6015622999985,None,379.6015622999985,None,379.6015622999985,None,380.311922199995,None,380.311922199995,380.81239020000794,,,,,,,,,,,,,,,,117,2022-05-05_13h55.18.531,FishGame,2022.1.1,59.68702511529037,
,6,나를 데려가줘,6,Green,B,0,0,ScrollDown,ScrollUp,Green.png,3,NonTarget,NonTarget,0,0,0,0,,,,,,,,,,,,,,,,,,,,,0,5,5,5,,,,,,,,,,,,,,,,,,,,,,,,,,,,,,,,,,,,,,,,,,,,,,,,,,,,,,,,,,,,,,,,,,,,,,,,,,,,,1.080246905485789,1.094574000017019,381.43749779998325,None,ScrollDown,정답입니다,381.43749779998325,None,381.43749779998325,None,381.43749779998325,None,381.43749779998325,None,382.4281503999955,None,382.4281503999955,382.9286501999886,,,,,,,,,,,,,,,,117,2022-05-05_13h55.18.531,FishGame,2022.1.1,59.68702511529037,
,7,넌 미숙해,4,Green,B,3,3,ScrollUp,ScrollDown,Green.png,3,Negative,Congruent,0,0,0,0,,,,,,,,,,,,,,,,,,,,,0,6,6,6,,,,,,,,,,,,,,,,,,,,,,,,,,,,,,,,,,,,,,,,,,,,,,,,,,,,,,,,,,,,,,,,,,,,,,,,,,,,,2,0.9101852000167128,383.55815279998933,None,ScrollUp,정답입니다,383.55815279998933,None,383.55815279998933,None,383.55815279998933,None,383.55815279998933,None,384.36181800000486,None,384.36181800000486,384.86226799999713,,,,,,,,,,,,,,,,117,2022-05-05_13h55.18.531,FishGame,2022.1.1,59.68702511529037,
,8,나를 보내줘,6,Orange,A,0,0,ScrollUp,ScrollDown,Orange.png,3,NonTarget,NonTarget,0,0,0,0,,,,,,,,,,,,,,,,,,,,,0,7,7,7,,,,,,,,,,,,,,,,,,,,,,,,,,,,,,,,,,,,,,,,,,,,,,,,,,,,,,,,,,,,,,,,,,,,,,,,,,,,,2,1.0546435999858659,385.49375339999096,None,ScrollUp,정답입니다,385.49375339999096,None,385.49375339999096,None,385.49375339999096,None,385.49375339999096,None,386.44357060000766,None,386.44357060000766,386.94539099998656,,,,,,,,,,,,,,,,117,2022-05-05_13h55.18.531,FishGame,2022.1.1,59.68702511529037,
,9,넌 자신만만해,3,Green,B,4.833333333333334,4.333333333333333,ScrollUp,ScrollDown,Green.png,3,Neutral,Neutral,0,0,0,0,,,,,,,,,,,,,,,,,,,,,0,8,8,8,,,,,,,,,,,,,,,,,,,,,,,,,,,,,,,,,,,,,,,,,,,,,,,,,,,,,,,,,,,,,,,,,,,,,,,,,,,,,2,1.0780072000052314,387.574137699994,None,ScrollUp,정답입니다,387.574137699994,None,387.574137699994,None,387.574137699994,None,387.574137699994,None,388.5454504000081,None,388.5454504000081,389.0453611999983,,,,,,,,,,,,,,,,117,2022-05-05_13h55.18.531,FishGame,2022.1.1,59.68702511529037,
,10,넌 탐욕스러워,5,Orange,A,2.25,2.1,ScrollDown,ScrollUp,Orange.png,3,Negative,Incongruent,0,0,0,0,,,,,,,,,,,,,,,,,,,,,0,9,9,9,,,,,,,,,,,,,,,,,,,,,,,,,,,,,,,,,,,,,,,,,,,,,,,,,,,,,,,,,,,,,,,,,,,,,,,,,,,,,1,0.9908120000036433,389.69041360000847,None,ScrollDown,정답입니다,389.69041360000847,None,389.69041360000847,None,389.69041360000847,None,389.69041360000847,None,390.56223489998956,None,390.56223489998956,391.0622979000036,,,,,,,,,,,,,,,,117,2022-05-05_13h55.18.531,FishGame,2022.1.1,59.68702511529037,
,11,넌 인기있어,2,Orange,A,5.458333333333333,4.5,ScrollDown,ScrollUp,Orange.png,3,Positive,Congruent,0,0,0,0,,,,,,,,,,,,,,,,,,,,,0,10,10,10,,,,,,,,,,,,,,,,,,,,,,,,,,,,,,,,,,,,,,,,,,,,,,,,,,,,,,,,,,,,,,,,,,,,,,,,,,,,,1,0.9693143999902532,391.6966395000054,None,ScrollDown,정답입니다,391.6966395000054,None,391.6966395000054,None,391.6966395000054,None,391.6966395000054,None,392.56052679999266,None,392.56052679999266,393.06264610000653,,,,,,,,,,,,,,,,117,2022-05-05_13h55.18.531,FishGame,2022.1.1,59.68702511529037,
,12,나를 데려가줘,6,Green,B,0,0,ScrollDown,ScrollUp,Green.png,3,NonTarget,NonTarget,0,0,0,0,,,,,,,,,,,,,,,,,,,,,0,11,11,11,,,,,,,,,,,,,,,,,,,,,,,,,,,,,,,,,,,,,,,,,,,,,,,,,,,,,,,,,,,,,,,,,,,,,,,,,,,,,1,1.1969062999996822,393.6875703999831,None,ScrollDown,정답입니다,393.6875703999831,None,393.6875703999831,None,393.6875703999831,None,393.6875703999831,None,394.7825479999883,None,394.7825479999883,395.2960463000054,,,,,,,,,,,,,,,,117,2022-05-05_13h55.18.531,FishGame,2022.1.1,59.68702511529037,
,13,넌 뛰어나,2,Green,B,6.166666666666667,4,ScrollUp,ScrollDown,Green.png,3,Positive,Incongruent,0,0,0,0,,,,,,,,,,,,,,,,,,,,,0,12,12,12,,,,,,,,,,,,,,,,,,,,,,,,,,,,,,,,,,,,,,,,,,,,,,,,,,,,,,,,,,,,,,,,,,,,,,,,,,,,,2,1.004446699982509,395.9255972999963,None,ScrollUp,정답입니다,395.9255972999963,None,395.9255972999963,None,395.9255972999963,None,395.9255972999963,None,396.82699060000596,None,396.82699060000596,397.329241200001,,,,,,,,,,,,,,,,117,2022-05-05_13h55.18.531,FishGame,2022.1.1,59.68702511529037,
,14,넌 낙관적이야,1,Orange,A,5.75,5.8,ScrollDown,ScrollUp,Orange.png,3,Positive,Congruent,0,0,0,0,,,,,,,,,,,,,,,,,,,,,0,13,13,13,,,,,,,,,,,,,,,,,,,,,,,,,,,,,,,,,,,,,,,,,,,,,,,,,,,,,,,,,,,,,,,,,,,,,,,,,,,,,1,0.8412298999901395,397.96784789999947,None,ScrollDown,정답입니다,397.96784789999947,None,397.96784789999947,None,397.96784789999947,None,397.96784789999947,None,398.69544099998893,None,398.69544099998893,399.1954246000096,,,,,,,,,,,,,,,,117,2022-05-05_13h55.18.531,FishGame,2022.1.1,59.68702511529037,
,15,넌 산만해,4,Green,B,2.695652173913043,3.033333333333333,ScrollUp,ScrollDown,Green.png,3,Negative,Congruent,0,0,0,0,,,,,,,,,,,,,,,,,,,,,0,14,14,14,,,,,,,,,,,,,,,,,,,,,,,,,,,,,,,,,,,,,,,,,,,,,,,,,,,,,,,,,,,,,,,,,,,,,,,,,,,,,2,1.1029281000082847,399.8293497999839,None,ScrollUp,정답입니다,399.8293497999839,None,399.8293497999839,None,399.8293497999839,None,399.8293497999839,None,400.82743299999856,None,400.82743299999856,401.3289308999956,,,,,,,,,,,,,,,,117,2022-05-05_13h55.18.531,FishGame,2022.1.1,59.68702511529037,
,16,나를 보내줘,6,Orange,A,0,0,ScrollUp,ScrollDown,Orange.png,3,NonTarget,NonTarget,0,0,0,0,,,,,,,,,,,,,,,,,,,,,0,15,15,15,,,,,,,,,,,,,,,,,,,,,,,,,,,,,,,,,,,,,,,,,,,,,,,,,,,,,,,,,,,,,,,,,,,,,,,,,,,,,2,1.1312522999942303,401.96022720000474,None,ScrollUp,정답입니다,401.96022720000474,None,401.96022720000474,None,401.96022720000474,None,401.96022720000474,None,402.9824482999975,None,402.9824482999975,403.49612619998516,,,,,,,,,,,,,,,,117,2022-05-05_13h55.18.531,FishGame,2022.1.1,59.68702511529037,
,17,넌 교활해,5,Green,B,2.333333333333333,2.133333333333333,ScrollUp,ScrollDown,Green.png,3,Negative,Congruent,0,0,0,0,,,,,,,,,,,,,,,,,,,,,0,16,16,16,,,,,,,,,,,,,,,,,,,,,,,,,,,,,,,,,,,,,,,,,,,,,,,,,,,,,,,,,,,,,,,,,,,,,,,,,,,,,2,0.9924757000117097,404.1248626000015,None,ScrollUp,정답입니다,404.1248626000015,None,404.1248626000015,None,404.1248626000015,None,404.1248626000015,None,405.01266400000895,None,405.01266400000895,405.5122066999902,,,,,,,,,,,,,,,,117,2022-05-05_13h55.18.531,FishGame,2022.1.1,59.68702511529037,
,18,나를 보내줘,6,Orange,A,0,0,ScrollUp,ScrollDown,Orange.png,3,NonTarget,NonTarget,0,0,0,0,,,,,,,,,,,,,,,,,,,,,0,17,17,17,,,,,,,,,,,,,,,,,,,,,,,,,,,,,,,,,,,,,,,,,,,,,,,,,,,,,,,,,,,,,,,,,,,,,,,,,,,,,2,1.021950399997877,406.14533010000014,None,ScrollUp,정답입니다,406.14533010000014,None,406.14533010000014,None,406.14533010000014,None,406.14533010000014,None,407.0609700999921,None,407.0609700999921,407.56303130000015,,,,,,,,,,,,,,,,117,2022-05-05_13h55.18.531,FishGame,2022.1.1,59.68702511529037,
,19,넌 불친절해,5,Green,B,2.208333333333333,2.033333333333333,ScrollUp,ScrollDown,Green.png,3,Negative,Congruent,0,0,0,0,,,,,,,,,,,,,,,,,,,,,0,18,18,18,,,,,,,,,,,,,,,,,,,,,,,,,,,,,,,,,,,,,,,,,,,,,,,,,,,,,,,,,,,,,,,,,,,,,,,,,,,,,2,1.0195303999935277,408.18963330000406,None,ScrollUp,정답입니다,408.18963330000406,None,408.18963330000406,None,408.18963330000406,None,408.18963330000406,None,409.10088089999044,None,409.10088089999044,409.61292929999763,,,,,,,,,,,,,,,,117,2022-05-05_13h55.18.531,FishGame,2022.1.1,59.68702511529037,
,20,넌 지적이야,2,Green,B,5.75,4.366666666666666,ScrollUp,ScrollDown,Green.png,3,Positive,Incongruent,0,0,0,0,,,,,,,,,,,,,,,,,,,,,0,19,19,19,,,,,,,,,,,,,,,,,,,,,,,,,,,,,,,,,,,,,,,,,,,,,,,,,,,,,,,,,,,,,,,,,,,,,,,,,,,,,2,0.9076418999757152,410.2457715999917,None,ScrollUp,정답입니다,410.2457715999917,None,410.2457715999917,None,410.2457715999917,None,410.2457715999917,None,411.0443249999953,None,411.0443249999953,411.5462944000028,,,,,,,,,,,,,,,,117,2022-05-05_13h55.18.531,FishGame,2022.1.1,59.68702511529037,
,21,넌 우유부단해,4,Orange,A,2.666666666666667,3.166666666666667,ScrollDown,ScrollUp,Orange.png,3,Negative,Incongruent,0,0,0,0,,,,,,,,,,,,,,,,,,,,,0,20,20,20,,,,,,,,,,,,,,,,,,,,,,,,,,,,,,,,,,,,,,,,,,,,,,,,,,,,,,,,,,,,,,,,,,,,,,,,,,,,,1,0.8556659999885596,412.18590350000886,None,ScrollDown,정답입니다,412.18590350000886,None,412.18590350000886,None,412.18590350000886,None,412.18590350000886,None,412.92732879999676,None,412.92732879999676,413.42922039999394,,,,,,,,,,,,,,,,117,2022-05-05_13h55.18.531,FishGame,2022.1.1,59.68702511529037,
,22,나를 데려가줘,6,Green,B,0,0,ScrollDown,ScrollUp,Green.png,3,NonTarget,NonTarget,0,0,0,0,,,,,,,,,,,,,,,,,,,,,0,21,21,21,,,,,,,,,,,,,,,,,,,,,,,,,,,,,,,,,,,,,,,,,,,,,,,,,,,,,,,,,,,,,,,,,,,,,,,,,,,,,1,1.337155299988808,414.0600759999943,None,ScrollDown,정답입니다,414.0600759999943,None,414.0600759999943,None,414.0600759999943,None,414.0600759999943,None,415.2940830999869,None,415.2940830999869,415.7959251999855,,,,,,,,,,,,,,,,117,2022-05-05_13h55.18.531,FishGame,2022.1.1,59.68702511529037,
,23,넌 성실해,1,Green,B,6.041666666666666,5.7,ScrollUp,ScrollDown,Green.png,3,Positive,Incongruent,0,0,0,0,,,,,,,,,,,,,,,,,,,,,0,22,22,22,,,,,,,,,,,,,,,,,,,,,,,,,,,,,,,,,,,,,,,,,,,,,,,,,,,,,,,,,,,,,,,,,,,,,,,,,,,,,2,0.938360800006194,416.42235249999794,None,ScrollUp,정답입니다,416.42235249999794,None,416.42235249999794,None,416.42235249999794,None,416.42235249999794,None,417.2606133999943,None,417.2606133999943,417.7630222000007,,,,,,,,,,,,,,,,117,2022-05-05_13h55.18.531,FishGame,2022.1.1,59.68702511529037,
,24,넌 현실주의적이야,3,Orange,A,4.625,4.4,ScrollDown,ScrollUp,Orange.png,3,Neutral,Neutral,0,0,0,0,,,,,,,,,,,,,,,,,,,,,0,23,23,23,,,,,,,,,,,,,,,,,,,,,,,,,,,,,,,,,,,,,,,,,,,,,,,,,,,,,,,,,,,,,,,,,,,,,,,,,,,,,1,0.994125700002769,418.39566919999197,None,ScrollDown,정답입니다,418.39566919999197,None,418.39566919999197,None,418.39566919999197,None,418.39566919999197,None,419.27928019998944,None,419.27928019998944,419.77972649998264,,,,,,,,,,,,,,,,117,2022-05-05_13h55.18.531,FishGame,2022.1.1,59.68702511529037,
,25,넌 진실돼,1,Orange,A,6.625,5.566666666666666,ScrollDown,ScrollUp,Orange.png,3,Positive,Congruent,0,0,0,0,,,,,,,,,,,,,,,,,,,,,0,24,24,24,,,,,,,,,,,,,,,,,,,,,,,,,,,,,,,,,,,,,,,,,,,,,,,,,,,,,,,,,,,,,,,,,,,,,,,,,,,,,1,0.8447978999756742,420.41568219999317,None,ScrollDown,정답입니다,420.41568219999317,None,420.41568219999317,None,420.41568219999317,None,420.41568219999317,None,421.1482953999948,None,421.1482953999948,421.66309190000175,,,,,,,,,,,,,,,,117,2022-05-05_13h55.18.531,FishGame,2022.1.1,59.68702511529037,
,26,넌 천진난만해,3,Green,B,4.958333333333334,4.833333333333333,ScrollUp,ScrollDown,Green.png,3,Neutral,Neutral,0,0,0,0,,,,,,,,,,,,,,,,,,,,,0,25,25,25,,,,,,,,,,,,,,,,,,,,,,,,,,,,,,,,,,,,,,,,,,,,,,,,,,,,,,,,,,,,,,,,,,,,,,,,,,,,,2,1.1617086000042036,422.29563999999664,None,ScrollUp,정답입니다,422.29563999999664,None,422.29563999999664,None,422.29563999999664,None,422.29563999999664,None,423.34575209999457,None,423.34575209999457,423.8459548999963,,,,,,,,,,,,,,,,117,2022-05-05_13h55.18.531,FishGame,2022.1.1,59.68702511529037,
,27,넌 교양없어,5,Orange,A,2.416666666666667,2.2,ScrollDown,ScrollUp,Orange.png,3,Negative,Incongruent,0,0,0,0,,,,,,,,,,,,,,,,,,,,,0,26,26,26,,,,,,,,,,,,,,,,,,,,,,,,,,,,,,,,,,,,,,,,,,,,,,,,,,,,,,,,,,,,,,,,,,,,,,,,,,,,,1.0200617114702861,0.9906743000028655,424.4804588999832,None,ScrollDown,정답입니다,424.4804588999832,None,424.4804588999832,None,424.4804588999832,None,424.4804588999832,None,425.3631166999985,None,425.3631166999985,425.8632387999969,,,,,,,,,,,,,,,,117,2022-05-05_13h55.18.531,FishGame,2022.1.1,59.68702511529037,
,28,나를 보내줘,6,Orange,A,0,0,ScrollUp,ScrollDown,Orange.png,3,NonTarget,NonTarget,0,0,0,0,,,,,,,,,,,,,,,,,,,,,0,27,27,27,,,,,,,,,,,,,,,,,,,,,,,,,,,,,,,,,,,,,,,,,,,,,,,,,,,,,,,,,,,,,,,,,,,,,,,,,,,,,2,0.9874739999941085,426.4959305000084,None,ScrollUp,정답입니다,426.4959305000084,None,426.4959305000084,None,426.4959305000084,None,426.4959305000084,None,427.3779479000077,None,427.3779479000077,427.88006729999324,,,,,,,,,,,,,,,,117,2022-05-05_13h55.18.531,FishGame,2022.1.1,59.68702511529037,
,29,넌 엉뚱스러워,3,Orange,A,4.166666666666667,4.133333333333334,ScrollDown,ScrollUp,Orange.png,3,Neutral,Neutral,0,0,0,0,,,,,,,,,,,,,,,,,,,,,0,28,28,28,,,,,,,,,,,,,,,,,,,,,,,,,,,,,,,,,,,,,,,,,,,,,,,,,,,,,,,,,,,,,,,,,,,,,,,,,,,,,1,0.9562311999907251,428.5176189999911,None,ScrollDown,정답입니다,428.5176189999911,None,428.5176189999911,None,428.5176189999911,None,428.5176189999911,None,429.3615559999889,None,429.3615559999889,429.8628996000043,,,,,,,,,,,,,,,,117,2022-05-05_13h55.18.531,FishGame,2022.1.1,59.68702511529037,
,30,넌 무지해,4,Green,B,2.541666666666667,3.066666666666667,ScrollUp,ScrollDown,Green.png,3,Negative,Congruent,0,0,0,0,,,,,,,,,,,,,,,,,,,,,0,29,29,29,,,,,,,,,,,,,,,,,,,,,,,,,,,,,,,,,,,,,,,,,,,,,,,,,,,,,,,,,,,,,,,,,,,,,,,,,,,,,2,0.8896729999978561,430.4896041000029,None,ScrollUp,정답입니다,430.4896041000029,None,430.4896041000029,None,430.4896041000029,None,430.4896041000029,None,431.27955909998855,None,431.27955909998855,431.78000619998784,,,,,,,,,,,,,,,,117,2022-05-05_13h55.18.531,FishGame,2022.1.1,59.68702511529037,
,31,넌 음울해,5,Green,B,2.25,2.233333333333333,ScrollUp,ScrollDown,Green.png,3,Negative,Congruent,0,0,0,0,,,,,,,,,,,,,,,,,,,,,0,30,30,30,,,,,,,,,,,,,,,,,,,,,,,,,,,,,,,,,,,,,,,,,,,,,,,,,,,,,,,,,,,,,,,,,,,,,,,,,,,,,2,0.9122659000277054,432.41562139999587,None,ScrollUp,정답입니다,432.41562139999587,None,432.41562139999587,None,432.41562139999587,None,432.41562139999587,None,433.21329539999715,None,433.21329539999715,433.7129886999901,,,,,,,,,,,,,,,,117,2022-05-05_13h55.18.531,FishGame,2022.1.1,59.68702511529037,
,32,넌 냉소적이야,5,Orange,A,2.916666666666667,2.4,ScrollDown,ScrollUp,Orange.png,3,Negative,Incongruent,0,0,0,0,,,,,,,,,,,,,,,,,,,,,0,31,31,31,,,,,,,,,,,,,,,,,,,,,,,,,,,,,,,,,,,,,,,,,,,,,,,,,,,,,,,,,,,,,,,,,,,,,,,,,,,,,1,0.9131896000180859,434.34390410000924,None,ScrollDown,정답입니다,434.34390410000924,None,434.34390410000924,None,434.34390410000924,None,434.34390410000924,None,435.1483870999946,None,435.1483870999946,435.6628676999826,,,,,,,,,,,,,,,,117,2022-05-05_13h55.18.531,FishGame,2022.1.1,59.68702511529037,
,33,나를 데려가줘,6,Green,B,0,0,ScrollDown,ScrollUp,Green.png,3,NonTarget,NonTarget,0,0,0,0,,,,,,,,,,,,,,,,,,,,,0,32,32,32,,,,,,,,,,,,,,,,,,,,,,,,,,,,,,,,,,,,,,,,,,,,,,,,,,,,,,,,,,,,,,,,,,,,,,,,,,,,,1.0246913532416027,1.1584655000187922,436.29024840000784,None,ScrollDown,정답입니다,436.29024840000784,None,436.29024840000784,None,436.29024840000784,None,436.29024840000784,None,437.3460831999837,None,437.3460831999837,437.84670560000814,,,,,,,,,,,,,,,,117,2022-05-05_13h55.18.531,FishGame,2022.1.1,59.68702511529037,
,34,넌 쾌활해,1,Orange,A,5.541666666666666,5.733333333333333,ScrollDown,ScrollUp,Orange.png,3,Positive,Congruent,0,0,0,0,,,,,,,,,,,,,,,,,,,,,0,33,33,33,,,,,,,,,,,,,,,,,,,,,,,,,,,,,,,,,,,,,,,,,,,,,,,,,,,,,,,,,,,,,,,,,,,,,,,,,,,,,1.0478395124276478,1.1412653000152204,438.481724799989,None,ScrollDown,정답입니다,438.481724799989,None,438.481724799989,None,438.481724799989,None,438.481724799989,None,439.51353050000034,None,439.51353050000034,440.0133502999961,,,,,,,,,,,,,,,,117,2022-05-05_13h55.18.531,FishGame,2022.1.1,59.68702511529037,
,35,나를 보내줘,6,Orange,A,0,0,ScrollUp,ScrollDown,Orange.png,3,NonTarget,NonTarget,0,0,0,0,,,,,,,,,,,,,,,,,,,,,0,34,34,34,,,,,,,,,,,,,,,,,,,,,,,,,,,,,,,,,,,,,,,,,,,,,,,,,,,,,,,,,,,,,,,,,,,,,,,,,,,,,1.8811728457609813,0.9426807999843732,440.64191800000845,None,ScrollUp,정답입니다,440.64191800000845,None,440.64191800000845,None,440.64191800000845,None,440.64191800000845,None,441.48014860000694,None,441.48014860000694,441.9805007999821,,,,,,,,,,,,,,,,117,2022-05-05_13h55.18.531,FishGame,2022.1.1,59.68702511529037,
,36,넌 명랑해,1,Green,B,5.739130434782609,5.666666666666667,ScrollUp,ScrollDown,Green.png,3,Positive,Incongruent,0,0,0,0,,,,,,,,,,,,,,,,,,,,,0,35,35,35,,,,,,,,,,,,,,,,,,,,,,,,,,,,,,,,,,,,,,,,,,,,,,,,,,,,,,,,,,,,,,,,,,,,,,,,,,,,,2,0.9616223000048194,442.6141520999954,None,ScrollUp,정답입니다,442.6141520999954,None,442.6141520999954,None,442.6141520999954,None,442.6141520999954,None,443.4666201999935,None,443.4666201999935,443.98052219999954,,,,,,,,,,,,,,,,117,2022-05-05_13h55.18.531,FishGame,2022.1.1,59.68702511529037,
,37,넌 멍해,4,Orange,A,2.833333333333333,3.4,ScrollDown,ScrollUp,Orange.png,3,Negative,Incongruent,0,0,0,0,,,,,,,,,,,,,,,,,,,,,0,36,36,36,,,,,,,,,,,,,,,,,,,,,,,,,,,,,,,,,,,,,,,,,,,,,,,,,,,,,,,,,,,,,,,,,,,,,,,,,,,,,1.0586419602235158,0.8227837000158615,444.608831199992,None,ScrollDown,정답입니다,444.608831199992,None,444.608831199992,None,444.608831199992,None,444.608831199992,None,445.32837820000714,None,445.32837820000714,445.83040139998775,,,,,,,,,,,,,,,,117,2022-05-05_13h55.18.531,FishGame,2022.1.1,59.68702511529037,
,38,나를 데려가줘,6,Green,B,0,0,ScrollDown,ScrollUp,Green.png,3,NonTarget,NonTarget,0,0,0,0,,,,,,,,,,,,,,,,,,,,,0,37,37,37,,,,,,,,,,,,,,,,,,,,,,,,,,,,,,,,,,,,,,,,,,,,,,,,,,,,,,,,,,,,,,,,,,,,,,,,,,,,,1,1.1074363999941852,446.45635220000986,None,ScrollDown,정답입니다,446.45635220000986,None,446.45635220000986,None,446.45635220000986,None,446.45635220000986,None,447.46348139998736,None,447.46348139998736,447.963888600003,,,,,,,,,,,,,,,,117,2022-05-05_13h55.18.531,FishGame,2022.1.1,59.68702511529037,
,39,넌 현명해,2,Orange,A,6.541666666666666,4.533333333333333,ScrollDown,ScrollUp,Orange.png,3,Positive,Congruent,0,0,0,0,,,,,,,,,,,,,,,,,,,,,0,38,38,38,,,,,,,,,,,,,,,,,,,,,,,,,,,,,,,,,,,,,,,,,,,,,,,,,,,,,,,,,,,,,,,,,,,,,,,,,,,,,1,0.9986942000105046,448.60048920000554,None,ScrollDown,정답입니다,448.60048920000554,None,448.60048920000554,None,448.60048920000554,None,448.60048920000554,None,449.4851731999952,None,449.4851731999952,449.99643249998917,,,,,,,,,,,,,,,,117,2022-05-05_13h55.18.531,FishGame,2022.1.1,59.68702511529037,
,40,넌 수줍어,3,Green,B,3.541666666666666,4.366666666666666,ScrollUp,ScrollDown,Green.png,3,Neutral,Neutral,0,0,0,0,,,,,,,,,,,,,,,,,,,,,0,39,39,39,,,,,,,,,,,,,,,,,,,,,,,,,,,,,,,,,,,,,,,,,,,,,,,,,,,,,,,,,,,,,,,,,,,,,,,,,,,,,1.9753086467583973,1.0470752000110224,450.62705750000896,None,ScrollUp,정답입니다,450.62705750000896,None,450.62705750000896,None,450.62705750000896,None,450.62705750000896,None,451.56664730000193,None,451.56664730000193,452.08029949999764,,,,,,,,,,,,,,,,117,2022-05-05_13h55.18.531,FishGame,2022.1.1,59.68702511529037,
,41,나를 데려가줘,6,Green,B,0,0,ScrollDown,ScrollUp,Green.png,3,NonTarget,NonTarget,0,0,0,0,,,,,,,,,,,,,,,,,,,,,0,40,40,40,,,,,,,,,,,,,,,,,,,,,,,,,,,,,,,,,,,,,,,,,,,,,,,,,,,,,,,,,,,,,,,,,,,,,,,,,,,,,1,0.9807228000136092,452.70730149999144,None,ScrollDown,정답입니다,452.70730149999144,None,452.70730149999144,None,452.70730149999144,None,452.70730149999144,None,453.58461990000797,None,453.58461990000797,454.0967360000068,,,,,,,,,,,,,,,,117,2022-05-05_13h55.18.531,FishGame,2022.1.1,59.68702511529037,
,42,넌 성숙해,2,Green,B,5.833333333333333,4.533333333333333,ScrollUp,ScrollDown,Green.png,3,Positive,Incongruent,0,0,0,0,,,,,,,,,,,,,,,,,,,,,0,41,41,41,,,,,,,,,,,,,,,,,,,,,,,,,,,,,,,,,,,,,,,,,,,,,,,,,,,,,,,,,,,,,,,,,,,,,,,,,,,,,2,1.0349047999770846,454.72523149999324,None,ScrollUp,정답입니다,454.72523149999324,None,454.72523149999324,None,454.72523149999324,None,454.72523149999324,None,455.65172709999024,None,455.65172709999024,456.1634309999936,,,,,,,,,,,,,,,,117,2022-05-05_13h55.18.531,FishGame,2022.1.1,59.68702511529037,
,1,넌 매력적이야,2,Green,B,6.125,4.666666666666667,ScrollUp,ScrollDown,Green.png,4,Positive,Incongruent,0,0,0,0,,,,,,,,,,,,,,,,,,,,,,,,,0,0,0,0,,,,,,,,,,,,,,,,,,,,,,,,,,,,,,,,488.89804460000596,490.3979301000072,490.43118710001,491.381441000005,491.43137350000325,492.38134100000025,492.38134100000025,None,,,,,,,,,,,,,,,,,,,,,,,,,,,,,,,,,,2,1.0881816999753937,493.5390361000027,None,ScrollUp,정답입니다,493.5390361000027,None,493.5390361000027,None,493.5390361000027,None,493.5390361000027,None,494.4629739999946,None,494.4629739999946,494.9641374000057,456.66352969998843,None,456.66352969998843,None,0.06111111,-0.09907407,1,0,0,0.0163261299894657,None,486.6641227999935,None,,,117,2022-05-05_13h55.18.531,FishGame,2022.1.1,59.68702511529037,
,2,나를 보내줘,6,Orange,A,0,0,ScrollUp,ScrollDown,Orange.png,4,NonTarget,NonTarget,0,0,0,0,,,,,,,,,,,,,,,,,,,,,,,,,0,1,1,1,,,,,,,,,,,,,,,,,,,,,,,,,,,,,,,,,,,,,,,,,,,,,,,,,,,,,,,,,,,,,,,,,,,,,,,,,2,1.1594047999824397,495.60083199999644,None,ScrollUp,정답입니다,495.60083199999644,None,495.60083199999644,None,495.60083199999644,None,495.60083199999644,None,496.64767149998806,None,496.64767149998806,497.14764539999305,,,,,,,,,,,,,,,,117,2022-05-05_13h55.18.531,FishGame,2022.1.1,59.68702511529037,
,3,넌 조심스러워,3,Orange,A,4.791666666666666,4.666666666666667,ScrollDown,ScrollUp,Orange.png,4,Neutral,Neutral,0,0,0,0,,,,,,,,,,,,,,,,,,,,,,,,,0,2,2,2,,,,,,,,,,,,,,,,,,,,,,,,,,,,,,,,,,,,,,,,,,,,,,,,,,,,,,,,,,,,,,,,,,,,,,,,,1.0061728358268738,0.9573686000076123,497.7873313000018,None,ScrollDown,정답입니다,497.7873313000018,None,497.7873313000018,None,497.7873313000018,None,497.7873313000018,None,498.6293604999955,None,498.6293604999955,499.1308752000041,,,,,,,,,,,,,,,,117,2022-05-05_13h55.18.531,FishGame,2022.1.1,59.68702511529037,
,4,넌 철학적이야,3,Green,B,4.5,4.266666666666667,ScrollUp,ScrollDown,Green.png,4,Neutral,Neutral,0,0,0,0,,,,,,,,,,,,,,,,,,,,,,,,,0,3,3,3,,,,,,,,,,,,,,,,,,,,,,,,,,,,,,,,,,,,,,,,,,,,,,,,,,,,,,,,,,,,,,,,,,,,,,,,,2,0.9568995999870822,499.7655390999862,None,ScrollUp,정답입니다,499.7655390999862,None,499.7655390999862,None,499.7655390999862,None,499.7655390999862,None,500.61288969998714,None,500.61288969998714,501.11467360000825,,,,,,,,,,,,,,,,117,2022-05-05_13h55.18.531,FishGame,2022.1.1,59.68702511529037,
,5,넌 쩨쩨해,5,Orange,A,2.375,2.133333333333333,ScrollDown,ScrollUp,Orange.png,4,Negative,Incongruent,0,0,0,0,,,,,,,,,,,,,,,,,,,,,,,,,0,4,4,4,,,,,,,,,,,,,,,,,,,,,,,,,,,,,,,,,,,,,,,,,,,,,,,,,,,,,,,,,,,,,,,,,,,,,,,,,1,1.021550000004936,501.75218280000263,None,ScrollDown,정답입니다,501.75218280000263,None,501.75218280000263,None,501.75218280000263,None,501.75218280000263,None,502.6627877999854,None,502.6627877999854,503.1649565999978,,,,,,,,,,,,,,,,117,2022-05-05_13h55.18.531,FishGame,2022.1.1,59.68702511529037,
,6,나를 데려가줘,6,Green,B,0,0,ScrollDown,ScrollUp,Green.png,4,NonTarget,NonTarget,0,0,0,0,,,,,,,,,,,,,,,,,,,,,,,,,0,5,5,5,,,,,,,,,,,,,,,,,,,,,,,,,,,,,,,,,,,,,,,,,,,,,,,,,,,,,,,,,,,,,,,,,,,,,,,,,1,1.011972100008279,503.79547519999323,None,ScrollDown,정답입니다,503.79547519999323,None,503.79547519999323,None,503.79547519999323,None,503.79547519999323,None,504.6991360000102,None,504.6991360000102,505.21467079999275,,,,,,,,,,,,,,,,117,2022-05-05_13h55.18.531,FishGame,2022.1.1,59.68702511529037,
,7,넌 고집불통이야,5,Green,B,2.875,2,ScrollUp,ScrollDown,Green.png,4,Negative,Congruent,0,0,0,0,,,,,,,,,,,,,,,,,,,,,,,,,0,6,6,6,,,,,,,,,,,,,,,,,,,,,,,,,,,,,,,,,,,,,,,,,,,,,,,,,,,,,,,,,,,,,,,,,,,,,,,,,2,0.9560540999809746,505.84788119999575,None,ScrollUp,정답입니다,505.84788119999575,None,505.84788119999575,None,505.84788119999575,None,505.84788119999575,None,506.69581219999236,None,506.69581219999236,507.19788150000386,,,,,,,,,,,,,,,,117,2022-05-05_13h55.18.531,FishGame,2022.1.1,59.68702511529037,
,8,넌 무심해,4,Orange,A,2.875,3.2,ScrollDown,ScrollUp,Orange.png,4,Negative,Incongruent,0,0,0,0,,,,,,,,,,,,,,,,,,,,,,,,,0,7,7,7,,,,,,,,,,,,,,,,,,,,,,,,,,,,,,,,,,,,,,,,,,,,,,,,,,,,,,,,,,,,,,,,,,,,,,,,,1,0.972965099994326,507.8386181999813,None,ScrollDown,정답입니다,507.8386181999813,None,507.8386181999813,None,507.8386181999813,None,507.8386181999813,None,508.6964406000043,None,508.6964406000043,509.19831959999283,,,,,,,,,,,,,,,,117,2022-05-05_13h55.18.531,FishGame,2022.1.1,59.68702511529037,
,9,넌 정겨워,1,Orange,A,5.791666666666667,5.666666666666667,ScrollDown,ScrollUp,Orange.png,4,Positive,Congruent,0,0,0,0,,,,,,,,,,,,,,,,,,,,,,,,,0,8,8,8,,,,,,,,,,,,,,,,,,,,,,,,,,,,,,,,,,,,,,,,,,,,,,,,,,,,,,,,,,,,,,,,,,,,,,,,,1,0.9538317999977153,509.8315662999812,None,ScrollDown,정답입니다,509.8315662999812,None,509.8315662999812,None,509.8315662999812,None,509.8315662999812,None,510.6796372999961,None,510.6796372999961,511.1814041000034,,,,,,,,,,,,,,,,117,2022-05-05_13h55.18.531,FishGame,2022.1.1,59.68702511529037,
,10,나를 데려가줘,6,Green,B,0,0,ScrollDown,ScrollUp,Green.png,4,NonTarget,NonTarget,0,0,0,0,,,,,,,,,,,,,,,,,,,,,,,,,0,9,9,9,,,,,,,,,,,,,,,,,,,,,,,,,,,,,,,,,,,,,,,,,,,,,,,,,,,,,,,,,,,,,,,,,,,,,,,,,1,0.9469760000065435,511.81368920000386,None,ScrollDown,정답입니다,511.81368920000386,None,511.81368920000386,None,511.81368920000386,None,511.81368920000386,None,512.6508888999815,None,512.6508888999815,513.1646393999981,,,,,,,,,,,,,,,,117,2022-05-05_13h55.18.531,FishGame,2022.1.1,59.68702511529037,
,11,넌 체제순응적이야,4,Green,B,3,3.6,ScrollUp,ScrollDown,Green.png,4,Negative,Congruent,0,0,0,0,,,,,,,,,,,,,,,,,,,,,,,,,0,10,10,10,,,,,,,,,,,,,,,,,,,,,,,,,,,,,,,,,,,,,,,,,,,,,,,,,,,,,,,,,,,,,,,,,,,,,,,,,2,1.0701790000020992,513.8012139000057,None,ScrollUp,정답입니다,513.8012139000057,None,513.8012139000057,None,513.8012139000057,None,513.8012139000057,None,514.7632966999954,None,514.7632966999954,515.2654361999885,,,,,,,,,,,,,,,,117,2022-05-05_13h55.18.531,FishGame,2022.1.1,59.68702511529037,
,12,나를 보내줘,6,Orange,A,0,0,ScrollUp,ScrollDown,Orange.png,4,NonTarget,NonTarget,0,0,0,0,,,,,,,,,,,,,,,,,,,,,,,,,0,11,11,11,,,,,,,,,,,,,,,,,,,,,,,,,,,,,,,,,,,,,,,,,,,,,,,,,,,,,,,,,,,,,,,,,,,,,,,,,2,1.3620332999853417,515.8932186999882,None,ScrollUp,정답입니다,515.8932186999882,None,515.8932186999882,None,515.8932186999882,None,515.8932186999882,None,517.1478139999963,None,517.1478139999963,517.6485684000072,,,,,,,,,,,,,,,,117,2022-05-05_13h55.18.531,FishGame,2022.1.1,59.68702511529037,
,13,넌 박식해,2,Orange,A,5.625,3.933333333333333,ScrollDown,ScrollUp,Orange.png,4,Positive,Congruent,0,0,0,0,,,,,,,,,,,,,,,,,,,,,,,,,0,12,12,12,,,,,,,,,,,,,,,,,,,,,,,,,,,,,,,,,,,,,,,,,,,,,,,,,,,,,,,,,,,,,,,,,,,,,,,,,1,0.9304016999958549,518.2929571999994,None,ScrollDown,정답입니다,518.2929571999994,None,518.2929571999994,None,518.2929571999994,None,518.2929571999994,None,519.1016385999974,None,519.1016385999974,519.6152703999833,,,,,,,,,,,,,,,,117,2022-05-05_13h55.18.531,FishGame,2022.1.1,59.68702511529037,
,14,나를 보내줘,6,Orange,A,0,0,ScrollUp,ScrollDown,Orange.png,4,NonTarget,NonTarget,0,0,0,0,,,,,,,,,,,,,,,,,,,,,,,,,0,13,13,13,,,,,,,,,,,,,,,,,,,,,,,,,,,,,,,,,,,,,,,,,,,,,,,,,,,,,,,,,,,,,,,,,,,,,,,,,2,0.9373892000003252,520.2494882000028,None,ScrollUp,정답입니다,520.2494882000028,None,520.2494882000028,None,520.2494882000028,None,520.2494882000028,None,521.0797325999883,None,521.0797325999883,521.5820912999916,,,,,,,,,,,,,,,,117,2022-05-05_13h55.18.531,FishGame,2022.1.1,59.68702511529037,
,15,넌 침착해,1,Green,B,5.458333333333333,5.566666666666666,ScrollUp,ScrollDown,Green.png,4,Positive,Incongruent,0,0,0,0,,,,,,,,,,,,,,,,,,,,,,,,,0,14,14,14,,,,,,,,,,,,,,,,,,,,,,,,,,,,,,,,,,,,,,,,,,,,,,,,,,,,,,,,,,,,,,,,,,,,,,,,,2,1.2211675000144169,522.2163691000023,None,ScrollUp,정답입니다,522.2163691000023,None,522.2163691000023,None,522.2163691000023,None,522.2163691000023,None,523.3301422999939,None,523.3301422999939,523.8321260999946,,,,,,,,,,,,,,,,117,2022-05-05_13h55.18.531,FishGame,2022.1.1,59.68702511529037,
,16,나를 데려가줘,6,Green,B,0,0,ScrollDown,ScrollUp,Green.png,4,NonTarget,NonTarget,0,0,0,0,,,,,,,,,,,,,,,,,,,,,,,,,0,15,15,15,,,,,,,,,,,,,,,,,,,,,,,,,,,,,,,,,,,,,,,,,,,,,,,,,,,,,,,,,,,,,,,,,,,,,,,,,1,1.0014481999969576,524.4645659000089,None,ScrollDown,정답입니다,524.4645659000089,None,524.4645659000089,None,524.4645659000089,None,524.4645659000089,None,525.3635711999959,None,525.3635711999959,525.8650558000081,,,,,,,,,,,,,,,,117,2022-05-05_13h55.18.531,FishGame,2022.1.1,59.68702511529037,
,17,넌 행복해,1,Orange,A,6.416666666666666,6.166666666666667,ScrollDown,ScrollUp,Orange.png,4,Positive,Congruent,0,0,0,0,,,,,,,,,,,,,,,,,,,,,,,,,0,16,16,16,,,,,,,,,,,,,,,,,,,,,,,,,,,,,,,,,,,,,,,,,,,,,,,,,,,,,,,,,,,,,,,,,,,,,,,,,1,0.877622900006827,526.501903700002,None,ScrollDown,정답입니다,526.501903700002,None,526.501903700002,None,526.501903700002,None,526.501903700002,None,527.2649968999904,None,527.2649968999904,527.7652620000008,,,,,,,,,,,,,,,,117,2022-05-05_13h55.18.531,FishGame,2022.1.1,59.68702511529037,
,18,넌 겸손해,2,Green,B,5.791666666666667,4.766666666666667,ScrollUp,ScrollDown,Green.png,4,Positive,Incongruent,0,0,0,0,,,,,,,,,,,,,,,,,,,,,,,,,0,17,17,17,,,,,,,,,,,,,,,,,,,,,,,,,,,,,,,,,,,,,,,,,,,,,,,,,,,,,,,,,,,,,,,,,,,,,,,,,2,0.9658820000186097,528.4032525999937,None,ScrollUp,정답입니다,528.4032525999937,None,528.4032525999937,None,528.4032525999937,None,528.4032525999937,None,529.2534886999929,None,529.2534886999929,529.7657048999972,,,,,,,,,,,,,,,,117,2022-05-05_13h55.18.531,FishGame,2022.1.1,59.68702511529037,
,19,나를 보내줘,6,Orange,A,0,0,ScrollUp,ScrollDown,Orange.png,4,NonTarget,NonTarget,0,0,0,0,,,,,,,,,,,,,,,,,,,,,,,,,0,18,18,18,,,,,,,,,,,,,,,,,,,,,,,,,,,,,,,,,,,,,,,,,,,,,,,,,,,,,,,,,,,,,,,,,,,,,,,,,2,0.9853346000018064,530.3974442000035,None,ScrollUp,정답입니다,530.3974442000035,None,530.3974442000035,None,530.3974442000035,None,530.3974442000035,None,531.2698958999827,None,531.2698958999827,531.7824973000097,,,,,,,,,,,,,,,,117,2022-05-05_13h55.18.531,FishGame,2022.1.1,59.68702511529037,
,20,넌 의심없어,3,Orange,A,4.166666666666667,4.6,ScrollDown,ScrollUp,Orange.png,4,Neutral,Neutral,0,0,0,0,,,,,,,,,,,,,,,,,,,,,,,,,0,19,19,19,,,,,,,,,,,,,,,,,,,,,,,,,,,,,,,,,,,,,,,,,,,,,,,,,,,,,,,,,,,,,,,,,,,,,,,,,1,1.0766976000159048,532.4173947999952,None,ScrollDown,정답입니다,532.4173947999952,None,532.4173947999952,None,532.4173947999952,None,532.4173947999952,None,533.3817769000016,None,533.3817769000016,533.8823912999942,,,,,,,,,,,,,,,,117,2022-05-05_13h55.18.531,FishGame,2022.1.1,59.68702511529037,
,21,넌 시시해,4,Orange,A,2.666666666666667,2.966666666666667,ScrollDown,ScrollUp,Orange.png,4,Negative,Incongruent,0,0,0,0,,,,,,,,,,,,,,,,,,,,,,,,,0,20,20,20,,,,,,,,,,,,,,,,,,,,,,,,,,,,,,,,,,,,,,,,,,,,,,,,,,,,,,,,,,,,,,,,,,,,,,,,,1,0.9681563999911305,534.5174953999813,None,ScrollDown,정답입니다,534.5174953999813,None,534.5174953999813,None,534.5174953999813,None,534.5174953999813,None,535.3799485999916,None,535.3799485999916,535.8823940999864,,,,,,,,,,,,,,,,117,2022-05-05_13h55.18.531,FishGame,2022.1.1,59.68702511529037,
,22,나를 데려가줘,6,Green,B,0,0,ScrollDown,ScrollUp,Green.png,4,NonTarget,NonTarget,0,0,0,0,,,,,,,,,,,,,,,,,,,,,,,,,0,21,21,21,,,,,,,,,,,,,,,,,,,,,,,,,,,,,,,,,,,,,,,,,,,,,,,,,,,,,,,,,,,,,,,,,,,,,,,,,1,1.3819129000185058,536.5099612000049,None,ScrollDown,정답입니다,536.5099612000049,None,536.5099612000049,None,536.5099612000049,None,536.5099612000049,None,537.7865816999984,None,537.7865816999984,538.2990720999951,,,,,,,,,,,,,,,,117,2022-05-05_13h55.18.531,FishGame,2022.1.1,59.68702511529037,
,23,넌 무정해,5,Orange,A,2.5,2.2,ScrollDown,ScrollUp,Orange.png,4,Negative,Incongruent,0,0,0,0,,,,,,,,,,,,,,,,,,,,,,,,,0,22,22,22,,,,,,,,,,,,,,,,,,,,,,,,,,,,,,,,,,,,,,,,,,,,,,,,,,,,,,,,,,,,,,,,,,,,,,,,,1,0.8787341000279412,538.9287408000091,None,ScrollDown,정답입니다,538.9287408000091,None,538.9287408000091,None,538.9287408000091,None,538.9287408000091,None,539.6990054000053,None,539.6990054000053,540.199182899989,,,,,,,,,,,,,,,,117,2022-05-05_13h55.18.531,FishGame,2022.1.1,59.68702511529037,
,24,넌 긍정적이야,1,Green,B,6.041666666666667,6.066666666666666,ScrollUp,ScrollDown,Green.png,4,Positive,Incongruent,0,0,0,0,,,,,,,,,,,,,,,,,,,,,,,,,0,23,23,23,,,,,,,,,,,,,,,,,,,,,,,,,,,,,,,,,,,,,,,,,,,,,,,,,,,,,,,,,,,,,,,,,,,,,,,,,2,1.1398077000048943,540.8396802000061,None,ScrollUp,정답입니다,540.8396802000061,None,540.8396802000061,None,540.8396802000061,None,540.8396802000061,None,541.8651634999842,None,541.8651634999842,542.3654156999837,,,,,,,,,,,,,,,,117,2022-05-05_13h55.18.531,FishGame,2022.1.1,59.68702511529037,
,25,나를 보내줘,6,Orange,A,0,0,ScrollUp,ScrollDown,Orange.png,4,NonTarget,NonTarget,0,0,0,0,,,,,,,,,,,,,,,,,,,,,,,,,0,24,24,24,,,,,,,,,,,,,,,,,,,,,,,,,,,,,,,,,,,,,,,,,,,,,,,,,,,,,,,,,,,,,,,,,,,,,,,,,2,1.0100508000177797,543.0028124999953,None,ScrollUp,정답입니다,543.0028124999953,None,543.0028124999953,None,543.0028124999953,None,543.0028124999953,None,543.8986549999972,None,543.8986549999972,544.3989220999938,,,,,,,,,,,,,,,,117,2022-05-05_13h55.18.531,FishGame,2022.1.1,59.68702511529037,
,26,넌 시기심이 많아,5,Green,B,2.458333333333333,2.233333333333333,ScrollUp,ScrollDown,Green.png,4,Negative,Congruent,0,0,0,0,,,,,,,,,,,,,,,,,,,,,,,,,0,25,25,25,,,,,,,,,,,,,,,,,,,,,,,,,,,,,,,,,,,,,,,,,,,,,,,,,,,,,,,,,,,,,,,,,,,,,,,,,2,1.0459972000098787,545.0369620999845,None,ScrollUp,정답입니다,545.0369620999845,None,545.0369620999845,None,545.0369620999845,None,545.0369620999845,None,545.965999899985,None,545.965999899985,546.465809699992,,,,,,,,,,,,,,,,117,2022-05-05_13h55.18.531,FishGame,2022.1.1,59.68702511529037,
,27,넌 탁월해,2,Orange,A,5.708333333333334,4.5,ScrollDown,ScrollUp,Orange.png,4,Positive,Congruent,0,0,0,0,,,,,,,,,,,,,,,,,,,,,,,,,0,26,26,26,,,,,,,,,,,,,,,,,,,,,,,,,,,,,,,,,,,,,,,,,,,,,,,,,,,,,,,,,,,,,,,,,,,,,,,,,1,0.8987720999866724,547.1042863999901,None,ScrollDown,정답입니다,547.1042863999901,None,547.1042863999901,None,547.1042863999901,None,547.1042863999901,None,547.8870835999842,None,547.8870835999842,548.3989329999895,,,,,,,,,,,,,,,,117,2022-05-05_13h55.18.531,FishGame,2022.1.1,59.68702511529037,
,28,나를 데려가줘,6,Green,B,0,0,ScrollDown,ScrollUp,Green.png,4,NonTarget,NonTarget,0,0,0,0,,,,,,,,,,,,,,,,,,,,,,,,,0,27,27,27,,,,,,,,,,,,,,,,,,,,,,,,,,,,,,,,,,,,,,,,,,,,,,,,,,,,,,,,,,,,,,,,,,,,,,,,,1,0.9744152000057511,549.0307197000075,None,ScrollDown,정답입니다,549.0307197000075,None,549.0307197000075,None,549.0307197000075,None,549.0307197000075,None,549.8990264000022,None,549.8990264000022,550.3995792999922,,,,,,,,,,,,,,,,117,2022-05-05_13h55.18.531,FishGame,2022.1.1,59.68702511529037,
,29,넌 조용해,3,Green,B,4.333333333333333,4.166666666666667,ScrollUp,ScrollDown,Green.png,4,Neutral,Neutral,0,0,0,0,,,,,,,,,,,,,,,,,,,,,,,,,0,28,28,28,,,,,,,,,,,,,,,,,,,,,,,,,,,,,,,,,,,,,,,,,,,,,,,,,,,,,,,,,,,,,,,,,,,,,,,,,2,0.8733143999997992,551.0340519000019,None,ScrollUp,정답입니다,551.0340519000019,None,551.0340519000019,None,551.0340519000019,None,551.0340519000019,None,551.7973270000075,None,551.7973270000075,552.2991710999922,,,,,,,,,,,,,,,,117,2022-05-05_13h55.18.531,FishGame,2022.1.1,59.68702511529037,
,30,넌 다정해,1,Orange,A,5.833333333333334,5.7,ScrollDown,ScrollUp,Orange.png,4,Positive,Congruent,0,0,0,0,,,,,,,,,,,,,,,,,,,,,,,,,0,29,29,29,,,,,,,,,,,,,,,,,,,,,,,,,,,,,,,,,,,,,,,,,,,,,,,,,,,,,,,,,,,,,,,,,,,,,,,,,1.0416666567325592,0.8414381000038702,552.9292494999827,None,ScrollDown,정답입니다,552.9292494999827,None,552.9292494999827,None,552.9292494999827,None,552.9292494999827,None,553.6655727000034,None,553.6655727000034,554.1661216999928,,,,,,,,,,,,,,,,117,2022-05-05_13h55.18.531,FishGame,2022.1.1,59.68702511529037,
,31,넌 능력있어,2,Green,B,6.166666666666666,4.6,ScrollUp,ScrollDown,Green.png,4,Positive,Incongruent,0,0,0,0,,,,,,,,,,,,,,,,,,,,,,,,,0,30,30,30,,,,,,,,,,,,,,,,,,,,,,,,,,,,,,,,,,,,,,,,,,,,,,,,,,,,,,,,,,,,,,,,,,,,,,,,,2,0.9684831000049599,554.7893974999897,None,ScrollUp,정답입니다,554.7893974999897,None,554.7893974999897,None,554.7893974999897,None,554.7893974999897,None,555.6641222999897,None,555.6641222999897,556.1657438999973,,,,,,,,,,,,,,,,117,2022-05-05_13h55.18.531,FishGame,2022.1.1,59.68702511529037,
,32,넌 불쾌해,5,Orange,A,2.125,1.933333333333333,ScrollDown,ScrollUp,Orange.png,4,Negative,Incongruent,0,0,0,0,,,,,,,,,,,,,,,,,,,,,,,,,0,31,31,31,,,,,,,,,,,,,,,,,,,,,,,,,,,,,,,,,,,,,,,,,,,,,,,,,,,,,,,,,,,,,,,,,,,,,,,,,1,0.9290403000195511,556.7956552999967,None,ScrollDown,정답입니다,556.7956552999967,None,556.7956552999967,None,556.7956552999967,None,556.7956552999967,None,557.6156483000086,None,557.6156483000086,558.115801899985,,,,,,,,,,,,,,,,117,2022-05-05_13h55.18.531,FishGame,2022.1.1,59.68702511529037,
,33,나를 데려가줘,6,Green,B,0,0,ScrollDown,ScrollUp,Green.png,4,NonTarget,NonTarget,0,0,0,0,,,,,,,,,,,,,,,,,,,,,,,,,0,32,32,32,,,,,,,,,,,,,,,,,,,,,,,,,,,,,,,,,,,,,,,,,,,,,,,,,,,,,,,,,,,,,,,,,,,,,,,,,1,0.9761329999892041,558.7435886999883,None,ScrollDown,정답입니다,558.7435886999883,None,558.7435886999883,None,558.7435886999883,None,558.7435886999883,None,559.6153767000069,None,559.6153767000069,560.1157470000035,,,,,,,,,,,,,,,,117,2022-05-05_13h55.18.531,FishGame,2022.1.1,59.68702511529037,
,34,넌 유순해,3,Orange,A,4.458333333333333,5,ScrollDown,ScrollUp,Orange.png,4,Neutral,Neutral,0,0,0,0,,,,,,,,,,,,,,,,,,,,,,,,,0,33,33,33,,,,,,,,,,,,,,,,,,,,,,,,,,,,,,,,,,,,,,,,,,,,,,,,,,,,,,,,,,,,,,,,,,,,,,,,,1,0.874498199991649,560.7518647999968,None,ScrollDown,정답입니다,560.7518647999968,None,560.7518647999968,None,560.7518647999968,None,560.7518647999968,None,561.5156271999876,None,561.5156271999876,562.0161084999854,,,,,,,,,,,,,,,,117,2022-05-05_13h55.18.531,FishGame,2022.1.1,59.68702511529037,
,35,넌 근심스러워,4,Green,B,2.708333333333333,3.133333333333333,ScrollUp,ScrollDown,Green.png,4,Negative,Congruent,0,0,0,0,,,,,,,,,,,,,,,,,,,,,,,,,0,34,34,34,,,,,,,,,,,,,,,,,,,,,,,,,,,,,,,,,,,,,,,,,,,,,,,,,,,,,,,,,,,,,,,,,,,,,,,,,2,0.8673443000006955,562.6520414999977,None,ScrollUp,정답입니다,562.6520414999977,None,562.6520414999977,None,562.6520414999977,None,562.6520414999977,None,563.405025199987,None,563.405025199987,563.9163070000068,,,,,,,,,,,,,,,,117,2022-05-05_13h55.18.531,FishGame,2022.1.1,59.68702511529037,
,36,넌 세련되었어,2,Orange,A,5.5,4.6,ScrollDown,ScrollUp,Orange.png,4,Positive,Congruent,0,0,0,0,,,,,,,,,,,,,,,,,,,,,,,,,0,35,35,35,,,,,,,,,,,,,,,,,,,,,,,,,,,,,,,,,,,,,,,,,,,,,,,,,,,,,,,,,,,,,,,,,,,,,,,,,1,0.8478024000069126,564.5615824999986,None,ScrollDown,정답입니다,564.5615824999986,None,564.5615824999986,None,564.5615824999986,None,564.5615824999986,None,565.2870090999932,None,565.2870090999932,565.7999259000062,,,,,,,,,,,,,,,,117,2022-05-05_13h55.18.531,FishGame,2022.1.1,59.68702511529037,
,37,나를 보내줘,6,Orange,A,0,0,ScrollUp,ScrollDown,Orange.png,4,NonTarget,NonTarget,0,0,0,0,,,,,,,,,,,,,,,,,,,,,,,,,0,36,36,36,,,,,,,,,,,,,,,,,,,,,,,,,,,,,,,,,,,,,,,,,,,,,,,,,,,,,,,,,,,,,,,,,,,,,,,,,1.9243827362855275,1.1371978000097442,566.4369382000004,None,ScrollUp,정답입니다,566.4369382000004,None,566.4369382000004,None,566.4369382000004,None,566.4369382000004,None,567.4642160999938,None,567.4642160999938,567.9659184000047,,,,,,,,,,,,,,,,117,2022-05-05_13h55.18.531,FishGame,2022.1.1,59.68702511529037,
,38,넌 확고해,3,Green,B,4.708333333333334,4.566666666666666,ScrollUp,ScrollDown,Green.png,4,Neutral,Neutral,0,0,0,0,,,,,,,,,,,,,,,,,,,,,,,,,0,37,37,37,,,,,,,,,,,,,,,,,,,,,,,,,,,,,,,,,,,,,,,,,,,,,,,,,,,,,,,,,,,,,,,,,,,,,,,,,1.9552469154198964,0.9861605999758467,568.597276799992,None,ScrollUp,정답입니다,568.597276799992,None,568.597276799992,None,568.597276799992,None,568.597276799992,None,569.48106250001,None,569.48106250001,569.9826451999834,,,,,,,,,,,,,,,,117,2022-05-05_13h55.18.531,FishGame,2022.1.1,59.68702511529037,
,39,넌 이해심이 많아,1,Green,B,6.041666666666668,5.533333333333333,ScrollUp,ScrollDown,Green.png,4,Positive,Incongruent,0,0,0,0,,,,,,,,,,,,,,,,,,,,,,,,,0,38,38,38,,,,,,,,,,,,,,,,,,,,,,,,,,,,,,,,,,,,,,,,,,,,,,,,,,,,,,,,,,,,,,,,,,,,,,,,,2,0.8799236000049859,570.6154306999815,None,ScrollUp,정답입니다,570.6154306999815,None,570.6154306999815,None,570.6154306999815,None,570.6154306999815,None,571.3846487999836,None,571.3846487999836,571.8997571000073,,,,,,,,,,,,,,,,117,2022-05-05_13h55.18.531,FishGame,2022.1.1,59.68702511529037,
,40,나를 보내줘,6,Orange,A,0,0,ScrollUp,ScrollDown,Orange.png,4,NonTarget,NonTarget,0,0,0,0,,,,,,,,,,,,,,,,,,,,,,,,,0,39,39,39,,,,,,,,,,,,,,,,,,,,,,,,,,,,,,,,,,,,,,,,,,,,,,,,,,,,,,,,,,,,,,,,,,,,,,,,,2,1.1355959000065923,572.5355964000046,None,ScrollUp,정답입니다,572.5355964000046,None,572.5355964000046,None,572.5355964000046,None,572.5355964000046,None,573.5543395999994,None,573.5543395999994,574.0663943999971,,,,,,,,,,,,,,,,117,2022-05-05_13h55.18.531,FishGame,2022.1.1,59.68702511529037,
,41,넌 거칠어,4,Orange,A,2.625,3.033333333333333,ScrollDown,ScrollUp,Orange.png,4,Negative,Incongruent,0,0,0,0,,,,,,,,,,,,,,,,,,,,,,,,,0,40,40,40,,,,,,,,,,,,,,,,,,,,,,,,,,,,,,,,,,,,,,,,,,,,,,,,,,,,,,,,,,,,,,,,,,,,,,,,,1,0.9483461999916472,574.7064241000044,None,ScrollDown,정답입니다,574.7064241000044,None,574.7064241000044,None,574.7064241000044,None,574.7064241000044,None,575.5382382000098,None,575.5382382000098,576.0499587999948,,,,,,,,,,,,,,,,117,2022-05-05_13h55.18.531,FishGame,2022.1.1,59.68702511529037,
,42,넌 변덕맞아,5,Green,B,2.75,2.166666666666667,ScrollUp,ScrollDown,Green.png,4,Negative,Congruent,0,0,0,0,,,,,,,,,,,,,,,,,,,,,,,,,0,41,41,41,,,,,,,,,,,,,,,,,,,,,,,,,,,,,,,,,,,,,,,,,,,,,,,,,,,,,,,,,,,,,,,,,,,,,,,,,2,0.9449760999996215,576.6900714999938,None,ScrollUp,정답입니다,576.6900714999938,None,576.6900714999938,None,576.6900714999938,None,576.6900714999938,None,577.5162668999983,None,577.5162668999983,578.0163082999934,,,,,,,,,,,,,,,,117,2022-05-05_13h55.18.531,FishGame,2022.1.1,59.68702511529037,
,43,나를 데려가줘,6,Green,B,0,0,ScrollDown,ScrollUp,Green.png,4,NonTarget,NonTarget,0,0,0,0,,,,,,,,,,,,,,,,,,,,,,,,,0,42,42,42,,,,,,,,,,,,,,,,,,,,,,,,,,,,,,,,,,,,,,,,,,,,,,,,,,,,,,,,,,,,,,,,,,,,,,,,,1,0.9941125999903306,578.6432628000039,None,ScrollDown,정답입니다,578.6432628000039,None,578.6432628000039,None,578.6432628000039,None,578.6432628000039,None,579.5331339999975,None,579.5331339999975,580.0328150999849,,,,,,,,,,,,,,,,117,2022-05-05_13h55.18.531,FishGame,2022.1.1,59.68702511529037,
,44,넌 외로워,4,Green,B,2.833333333333333,3.3,ScrollUp,ScrollDown,Green.png,4,Negative,Congruent,0,0,0,0,,,,,,,,,,,,,,,,,,,,,,,,,0,43,43,43,,,,,,,,,,,,,,,,,,,,,,,,,,,,,,,,,,,,,,,,,,,,,,,,,,,,,,,,,,,,,,,,,,,,,,,,,2,0.9267173999978695,580.6635612999962,None,ScrollUp,정답입니다,580.6635612999962,None,580.6635612999962,None,580.6635612999962,None,580.6635612999962,None,581.48275190001,None,581.48275190001,581.9832096000027,,,,,,,,,,,,,,,,117,2022-05-05_13h55.18.531,FishGame,2022.1.1,59.68702511529037,
,1,넌 불평스러워,5,Orange,A,2.25,2.066666666666667,ScrollDown,ScrollUp,Orange.png,5,Negative,Incongruent,0,0,0,0,,,,,,,,,,,,,,,,,,,,,,,,,,,,,0,0,0,0,,,,,,,,,,,,,,,,,,,,,,,,,,,,614.6182334999903,616.1173306999844,616.1509065999999,617.1008714000054,617.1506346999959,618.1011384000012,618.1011384000012,None,,,,,,,,,,,,,,,,,,,,,,,,,,,,,,,,,,1,1.2162857000075746,619.2630331999972,None,ScrollDown,정답입니다,619.2630331999972,None,619.2630331999972,None,619.2630331999972,None,619.2630331999972,None,620.315323399991,None,620.315323399991,620.8176036000077,582.482844299986,None,582.482844299986,None,-0.03425926,-0.06759259,1,0,0,0.01586532997316681,None,612.4841884000052,None,,,117,2022-05-05_13h55.18.531,FishGame,2022.1.1,59.68702511529037,
,2,나를 보내줘,6,Orange,A,0,0,ScrollUp,ScrollDown,Orange.png,5,NonTarget,NonTarget,0,0,0,0,,,,,,,,,,,,,,,,,,,,,,,,,,,,,0,1,1,1,,,,,,,,,,,,,,,,,,,,,,,,,,,,,,,,,,,,,,,,,,,,,,,,,,,,,,,,,,,,,,,,,,,,,2,0.9411630000104196,621.4439139000024,None,ScrollUp,정답입니다,621.4439139000024,None,621.4439139000024,None,621.4439139000024,None,621.4439139000024,None,622.28395740001,None,622.28395740001,622.783754300006,,,,,,,,,,,,,,,,117,2022-05-05_13h55.18.531,FishGame,2022.1.1,59.68702511529037,
,3,넌 다재다능해,2,Green,B,6.208333333333333,4.5,ScrollUp,ScrollDown,Green.png,5,Positive,Incongruent,0,0,0,0,,,,,,,,,,,,,,,,,,,,,,,,,,,,,0,2,2,2,,,,,,,,,,,,,,,,,,,,,,,,,,,,,,,,,,,,,,,,,,,,,,,,,,,,,,,,,,,,,,,,,,,,,1.9922839502493541,1.335905099986121,623.4279389999865,None,ScrollUp,정답입니다,623.4279389999865,None,623.4279389999865,None,623.4279389999865,None,623.4279389999865,None,624.6487919999927,None,624.6487919999927,625.1510447000037,,,,,,,,,,,,,,,,117,2022-05-05_13h55.18.531,FishGame,2022.1.1,59.68702511529037,
,4,넌 과감해,3,Orange,A,4.833333333333334,4.6,ScrollDown,ScrollUp,Orange.png,5,Neutral,Neutral,0,0,0,0,,,,,,,,,,,,,,,,,,,,,,,,,,,,,0,3,3,3,,,,,,,,,,,,,,,,,,,,,,,,,,,,,,,,,,,,,,,,,,,,,,,,,,,,,,,,,,,,,,,,,,,,,1.0030864079793294,1.067364299990004,625.7841829000099,None,ScrollDown,정답입니다,625.7841829000099,None,625.7841829000099,None,625.7841829000099,None,625.7841829000099,None,626.7385201999859,None,626.7385201999859,627.2507256999961,,,,,,,,,,,,,,,,117,2022-05-05_13h55.18.531,FishGame,2022.1.1,59.68702511529037,
,5,넌 고분고분해,3,Green,B,3.75,4.033333333333333,ScrollUp,ScrollDown,Green.png,5,Neutral,Neutral,0,0,0,0,,,,,,,,,,,,,,,,,,,,,,,,,,,,,0,4,4,4,,,,,,,,,,,,,,,,,,,,,,,,,,,,,,,,,,,,,,,,,,,,,,,,,,,,,,,,,,,,,,,,,,,,,2,1.0395649999845773,627.8837211999926,None,ScrollUp,정답입니다,627.8837211999926,None,627.8837211999926,None,627.8837211999926,None,627.8837211999926,None,628.8154407999828,None,628.8154407999828,629.3176393999893,,,,,,,,,,,,,,,,117,2022-05-05_13h55.18.531,FishGame,2022.1.1,59.68702511529037,
,6,나를 보내줘,6,Orange,A,0,0,ScrollUp,ScrollDown,Orange.png,5,NonTarget,NonTarget,0,0,0,0,,,,,,,,,,,,,,,,,,,,,,,,,,,,,0,5,5,5,,,,,,,,,,,,,,,,,,,,,,,,,,,,,,,,,,,,,,,,,,,,,,,,,,,,,,,,,,,,,,,,,,,,,2,0.9774990000005346,629.949612700002,None,ScrollUp,정답입니다,629.949612700002,None,629.949612700002,None,629.949612700002,None,629.949612700002,None,630.8176819999935,None,630.8176819999935,631.3179954999941,,,,,,,,,,,,,,,,117,2022-05-05_13h55.18.531,FishGame,2022.1.1,59.68702511529037,
,7,넌 잘 잊어,4,Orange,A,3,3.7,ScrollDown,ScrollUp,Orange.png,5,Negative,Incongruent,0,0,0,0,,,,,,,,,,,,,,,,,,,,,,,,,,,,,0,6,6,6,,,,,,,,,,,,,,,,,,,,,,,,,,,,,,,,,,,,,,,,,,,,,,,,,,,,,,,,,,,,,,,,,,,,,1.1049382785956066,0.8333870000205934,631.9556376999826,None,ScrollDown,정답입니다,631.9556376999826,None,631.9556376999826,None,631.9556376999826,None,631.9556376999826,None,632.6716694000061,None,632.6716694000061,633.1843043999979,,,,,,,,,,,,,,,,117,2022-05-05_13h55.18.531,FishGame,2022.1.1,59.68702511529037,
,8,넌 탐구심이없어,4,Green,B,2.833333333333333,3.066666666666667,ScrollUp,ScrollDown,Green.png,5,Negative,Congruent,0,0,0,0,,,,,,,,,,,,,,,,,,,,,,,,,,,,,0,7,7,7,,,,,,,,,,,,,,,,,,,,,,,,,,,,,,,,,,,,,,,,,,,,,,,,,,,,,,,,,,,,,,,,,,,,,1.8904321044683456,0.8069798999931663,633.8183012999943,None,ScrollUp,정답입니다,633.8183012999943,None,633.8183012999943,None,633.8183012999943,None,633.8183012999943,None,634.517677900003,None,634.517677900003,635.0177796999924,,,,,,,,,,,,,,,,117,2022-05-05_13h55.18.531,FishGame,2022.1.1,59.68702511529037,
,9,나를 데려가줘,6,Green,B,0,0,ScrollDown,ScrollUp,Green.png,5,NonTarget,NonTarget,0,0,0,0,,,,,,,,,,,,,,,,,,,,,,,,,,,,,0,8,8,8,,,,,,,,,,,,,,,,,,,,,,,,,,,,,,,,,,,,,,,,,,,,,,,,,,,,,,,,,,,,,,,,,,,,,1,1.0727712999796495,635.6471478999883,None,ScrollDown,정답입니다,635.6471478999883,None,635.6471478999883,None,635.6471478999883,None,635.6471478999883,None,636.6173756000062,None,636.6173756000062,637.117936900002,,,,,,,,,,,,,,,,117,2022-05-05_13h55.18.531,FishGame,2022.1.1,59.68702511529037,
,10,넌 참되어,2,Orange,A,6.041666666666664,4.733333333333333,ScrollDown,ScrollUp,Orange.png,5,Positive,Congruent,0,0,0,0,,,,,,,,,,,,,,,,,,,,,,,,,,,,,0,9,9,9,,,,,,,,,,,,,,,,,,,,,,,,,,,,,,,,,,,,,,,,,,,,,,,,,,,,,,,,,,,,,,,,,,,,,1,0.9068979000148829,637.7552073999832,None,ScrollDown,정답입니다,637.7552073999832,None,637.7552073999832,None,637.7552073999832,None,637.7552073999832,None,638.5507329999818,None,638.5507329999818,639.0509447999939,,,,,,,,,,,,,,,,117,2022-05-05_13h55.18.531,FishGame,2022.1.1,59.68702511529037,
,11,넌 생기있어,1,Green,B,5.875,5.633333333333334,ScrollUp,ScrollDown,Green.png,5,Positive,Incongruent,0,0,0,0,,,,,,,,,,,,,,,,,,,,,,,,,,,,,0,10,10,10,,,,,,,,,,,,,,,,,,,,,,,,,,,,,,,,,,,,,,,,,,,,,,,,,,,,,,,,,,,,,,,,,,,,,2,1.2342254999966826,639.6821312999818,None,ScrollUp,정답입니다,639.6821312999818,None,639.6821312999818,None,639.6821312999818,None,639.6821312999818,None,640.8057111999951,None,640.8057111999951,641.3178397000011,,,,,,,,,,,,,,,,117,2022-05-05_13h55.18.531,FishGame,2022.1.1,59.68702511529037,
,12,넌 비사교적이야,4,Green,B,2.875,2.9,ScrollUp,ScrollDown,Green.png,5,Negative,Congruent,0,0,0,0,,,,,,,,,,,,,,,,,,,,,,,,,,,,,0,11,11,11,,,,,,,,,,,,,,,,,,,,,,,,,,,,,,,,,,,,,,,,,,,,,,,,,,,,,,,,,,,,,,,,,,,,,1.983024666706721,0.8021718999953009,641.9441036999924,None,ScrollUp,정답입니다,641.9441036999924,None,641.9441036999924,None,641.9441036999924,None,641.9441036999924,None,642.6392283999885,None,642.6392283999885,643.1512839999923,,,,,,,,,,,,,,,,117,2022-05-05_13h55.18.531,FishGame,2022.1.1,59.68702511529037,
,13,나를 데려가줘,6,Green,B,0,0,ScrollDown,ScrollUp,Green.png,5,NonTarget,NonTarget,0,0,0,0,,,,,,,,,,,,,,,,,,,,,,,,,,,,,0,12,12,12,,,,,,,,,,,,,,,,,,,,,,,,,,,,,,,,,,,,,,,,,,,,,,,,,,,,,,,,,,,,,,,,,,,,,1.0324074228604634,0.8769173000182491,643.779557700007,None,ScrollDown,정답입니다,643.779557700007,None,643.779557700007,None,643.779557700007,None,643.779557700007,None,644.5509320999845,None,644.5509320999845,645.0509645999991,,,,,,,,,,,,,,,,117,2022-05-05_13h55.18.531,FishGame,2022.1.1,59.68702511529037,
,14,넌 고독해,4,Orange,A,2.916666666666667,3.233333333333333,ScrollDown,ScrollUp,Orange.png,5,Negative,Incongruent,0,0,0,0,,,,,,,,,,,,,,,,,,,,,,,,,,,,,0,13,13,13,,,,,,,,,,,,,,,,,,,,,,,,,,,,,,,,,,,,,,,,,,,,,,,,,,,,,,,,,,,,,,,,,,,,,1,1.0560852000198793,645.6849208000058,None,ScrollDown,정답입니다,645.6849208000058,None,645.6849208000058,None,645.6849208000058,None,645.6849208000058,None,646.6327221999818,None,646.6327221999818,647.1343794999993,,,,,,,,,,,,,,,,117,2022-05-05_13h55.18.531,FishGame,2022.1.1,59.68702511529037,
,15,넌 신경질적이야,5,Green,B,2.375,2.233333333333333,ScrollUp,ScrollDown,Green.png,5,Negative,Congruent,0,0,0,0,,,,,,,,,,,,,,,,,,,,,,,,,,,,,0,14,14,14,,,,,,,,,,,,,,,,,,,,,,,,,,,,,,,,,,,,,,,,,,,,,,,,,,,,,,,,,,,,,,,,,,,,,2,0.859103499999037,647.7685133999912,None,ScrollUp,정답입니다,647.7685133999912,None,647.7685133999912,None,647.7685133999912,None,647.7685133999912,None,648.5176362000057,None,648.5176362000057,649.0176554000063,,,,,,,,,,,,,,,,117,2022-05-05_13h55.18.531,FishGame,2022.1.1,59.68702511529037,
,16,넌 똑똑해,2,Green,B,5.666666666666667,3.966666666666667,ScrollUp,ScrollDown,Green.png,5,Positive,Incongruent,0,0,0,0,,,,,,,,,,,,,,,,,,,,,,,,,,,,,0,15,15,15,,,,,,,,,,,,,,,,,,,,,,,,,,,,,,,,,,,,,,,,,,,,,,,,,,,,,,,,,,,,,,,,,,,,,1.9614197711149852,1.0875561000138987,649.6518227999914,None,ScrollUp,정답입니다,649.6518227999914,None,649.6518227999914,None,649.6518227999914,None,649.6518227999914,None,650.6323954999971,None,650.6323954999971,651.1346823000058,,,,,,,,,,,,,,,,117,2022-05-05_13h55.18.531,FishGame,2022.1.1,59.68702511529037,
,17,나를 보내줘,6,Orange,A,0,0,ScrollUp,ScrollDown,Orange.png,5,NonTarget,NonTarget,0,0,0,0,,,,,,,,,,,,,,,,,,,,,,,,,,,,,0,16,16,16,,,,,,,,,,,,,,,,,,,,,,,,,,,,,,,,,,,,,,,,,,,,,,,,,,,,,,,,,,,,,,,,,,,,,1,0.9555950000067241,651.7695428000006,None,ScrollDown,오답입니다,651.7695428000006,None,651.7695428000006,None,651.7695428000006,None,651.7695428000006,None,652.6112595000013,None,652.6112595000013,653.118390299991,,,,,,,,,,,,,,,,117,2022-05-05_13h55.18.531,FishGame,2022.1.1,59.68702511529037,
,18,넌 협조적이야,1,Orange,A,5.625,5.666666666666667,ScrollDown,ScrollUp,Orange.png,5,Positive,Congruent,0,0,0,0,,,,,,,,,,,,,,,,,,,,,,,,,,,,,0,17,17,17,,,,,,,,,,,,,,,,,,,,,,,,,,,,,,,,,,,,,,,,,,,,,,,,,,,,,,,,,,,,,,,,,,,,,1,1.0811732999864034,653.7537290999899,None,ScrollDown,정답입니다,653.7537290999899,None,653.7537290999899,None,653.7537290999899,None,653.7537290999899,None,654.7230446999893,None,654.7230446999893,655.2343965999899,,,,,,,,,,,,,,,,117,2022-05-05_13h55.18.531,FishGame,2022.1.1,59.68702511529037,
,19,나를 데려가줘,6,Green,B,0,0,ScrollDown,ScrollUp,Green.png,5,NonTarget,NonTarget,0,0,0,0,,,,,,,,,,,,,,,,,,,,,,,,,,,,,0,18,18,18,,,,,,,,,,,,,,,,,,,,,,,,,,,,,,,,,,,,,,,,,,,,,,,,,,,,,,,,,,,,,,,,,,,,,1,1.0615379000082612,655.8635600999987,None,ScrollDown,정답입니다,655.8635600999987,None,655.8635600999987,None,655.8635600999987,None,655.8635600999987,None,656.8179612999957,None,656.8179612999957,657.318187900004,,,,,,,,,,,,,,,,117,2022-05-05_13h55.18.531,FishGame,2022.1.1,59.68702511529037,
,20,넌 몰인정해,5,Green,B,2.541666666666667,2.066666666666667,ScrollUp,ScrollDown,Green.png,5,Negative,Congruent,0,0,0,0,,,,,,,,,,,,,,,,,,,,,,,,,,,,,0,19,19,19,,,,,,,,,,,,,,,,,,,,,,,,,,,,,,,,,,,,,,,,,,,,,,,,,,,,,,,,,,,,,,,,,,,,,1.9475308458010356,0.9831057999981567,658.0084120999963,None,ScrollUp,정답입니다,658.0084120999963,None,658.0084120999963,None,658.0084120999963,None,658.0084120999963,None,658.8231910000031,None,658.8231910000031,659.3346535000019,,,,,,,,,,,,,,,,117,2022-05-05_13h55.18.531,FishGame,2022.1.1,59.68702511529037,
,21,나를 데려가줘,6,Green,B,0,0,ScrollDown,ScrollUp,Green.png,5,NonTarget,NonTarget,0,0,0,0,,,,,,,,,,,,,,,,,,,,,,,,,,,,,0,20,20,20,,,,,,,,,,,,,,,,,,,,,,,,,,,,,,,,,,,,,,,,,,,,,,,,,,,,,,,,,,,,,,,,,,,,,1,1.0296781999932136,659.9624981000088,None,ScrollDown,정답입니다,659.9624981000088,None,659.9624981000088,None,659.9624981000088,None,659.9624981000088,None,660.8844159999862,None,660.8844159999862,661.3849726000044,,,,,,,,,,,,,,,,117,2022-05-05_13h55.18.531,FishGame,2022.1.1,59.68702511529037,
,22,넌 순진해,3,Green,B,4.125,4.166666666666667,ScrollUp,ScrollDown,Green.png,5,Neutral,Neutral,0,0,0,0,,,,,,,,,,,,,,,,,,,,,,,,,,,,,0,21,21,21,,,,,,,,,,,,,,,,,,,,,,,,,,,,,,,,,,,,,,,,,,,,,,,,,,,,,,,,,,,,,,,,,,,,,2,0.9558359000075143,662.0126725999871,None,ScrollUp,정답입니다,662.0126725999871,None,662.0126725999871,None,662.0126725999871,None,662.0126725999871,None,662.8664790999901,None,662.8664790999901,663.3687094000052,,,,,,,,,,,,,,,,117,2022-05-05_13h55.18.531,FishGame,2022.1.1,59.68702511529037,
,23,넌 신뢰할만해,1,Orange,A,6.625,5.533333333333333,ScrollDown,ScrollUp,Orange.png,5,Positive,Congruent,0,0,0,0,,,,,,,,,,,,,,,,,,,,,,,,,,,,,0,22,22,22,,,,,,,,,,,,,,,,,,,,,,,,,,,,,,,,,,,,,,,,,,,,,,,,,,,,,,,,,,,,,,,,,,,,,1,0.8700554000097327,664.0052503999905,None,ScrollDown,정답입니다,664.0052503999905,None,664.0052503999905,None,664.0052503999905,None,664.0052503999905,None,664.7665587000083,None,664.7665587000083,665.2686822999967,,,,,,,,,,,,,,,,117,2022-05-05_13h55.18.531,FishGame,2022.1.1,59.68702511529037,
,24,나를 보내줘,6,Orange,A,0,0,ScrollUp,ScrollDown,Orange.png,5,NonTarget,NonTarget,0,0,0,0,,,,,,,,,,,,,,,,,,,,,,,,,,,,,0,23,23,23,,,,,,,,,,,,,,,,,,,,,,,,,,,,,,,,,,,,,,,,,,,,,,,,,,,,,,,,,,,,,,,,,,,,,2,0.8842504000058398,665.9076585999865,None,ScrollUp,정답입니다,665.9076585999865,None,665.9076585999865,None,665.9076585999865,None,665.9076585999865,None,666.6733449999883,None,666.6733449999883,667.1851253999921,,,,,,,,,,,,,,,,117,2022-05-05_13h55.18.531,FishGame,2022.1.1,59.68702511529037,
,25,넌 인색해,5,Orange,A,2.625,2.233333333333333,ScrollDown,ScrollUp,Orange.png,5,Negative,Incongruent,0,0,0,0,,,,,,,,,,,,,,,,,,,,,,,,,,,,,0,24,24,24,,,,,,,,,,,,,,,,,,,,,,,,,,,,,,,,,,,,,,,,,,,,,,,,,,,,,,,,,,,,,,,,,,,,,1,0.8777834000065923,667.8230796999997,None,ScrollDown,정답입니다,667.8230796999997,None,667.8230796999997,None,667.8230796999997,None,667.8230796999997,None,668.5850062999816,None,668.5850062999816,669.0847181999998,,,,,,,,,,,,,,,,117,2022-05-05_13h55.18.531,FishGame,2022.1.1,59.68702511529037,
,26,넌 유쾌해,1,Green,B,5.833333333333333,5.766666666666667,ScrollUp,ScrollDown,Green.png,5,Positive,Incongruent,0,0,0,0,,,,,,,,,,,,,,,,,,,,,,,,,,,,,0,25,25,25,,,,,,,,,,,,,,,,,,,,,,,,,,,,,,,,,,,,,,,,,,,,,,,,,,,,,,,,,,,,,,,,,,,,,2,0.845242799987318,669.7136625999992,None,ScrollUp,정답입니다,669.7136625999992,None,669.7136625999992,None,669.7136625999992,None,669.7136625999992,None,670.4525014999963,None,670.4525014999963,670.9514340999885,,,,,,,,,,,,,,,,117,2022-05-05_13h55.18.531,FishGame,2022.1.1,59.68702511529037,
