name,TrialNum,Word,WordCategory,FishType,WordList,WordValence,WordReputation,CorrectResp,IncorrectResp,FishTypeFile,Round,WordType,Condition,LoopforOrange.thisRepN,LoopforOrange.thisTrialN,LoopforOrange.thisN,LoopforOrange.thisIndex,LoopForGreen.thisRepN,LoopForGreen.thisTrialN,LoopForGreen.thisN,LoopForGreen.thisIndex,GreenInstLoop.thisRepN,GreenInstLoop.thisTrialN,GreenInstLoop.thisN,GreenInstLoop.thisIndex,GreenPrac.thisRepN,GreenPrac.thisTrialN,GreenPrac.thisN,GreenPrac.thisIndex,trials_2.thisRepN,trials_2.thisTrialN,trials_2.thisN,trials_2.thisIndex,GreenRound1.thisRepN,GreenRound1.thisTrialN,GreenRound1.thisN,GreenRound1.thisIndex,GreenRound2.thisRepN,GreenRound2.thisTrialN,GreenRound2.thisN,GreenRound2.thisIndex,GreenRound3.thisRepN,GreenRound3.thisTrialN,GreenRound3.thisN,GreenRound3.thisIndex,GreenRound4.thisRepN,GreenRound4.thisTrialN,GreenRound4.thisN,GreenRound4.thisIndex,GreenRound5.thisRepN,GreenRound5.thisTrialN,GreenRound5.thisN,GreenRound5.thisIndex,text_2.started,text_2.stopped,text_3.started,text_3.stopped,key_resp.keys,key_resp.rt,key_resp.started,key_resp.stopped,PassI.started,PassI.stopped,PassInst.keys,PassInst.rt,PassInst.started,PassInst.stopped,mouse_2.x,mouse_2.y,mouse_2.leftButton,mouse_2.midButton,mouse_2.rightButton,mouse_2.started,mouse_2.stopped,image.started,image.stopped,text_5.started,text_5.stopped,text_6.started,text_6.stopped,text_7.started,text_7.stopped,text_8.started,text_8.stopped,slider_3.response,slider_3.rt,slider_3.started,slider_3.stopped,Response_3,Feedback_3,BackGround_3.started,BackGround_3.stopped,Fish_3.started,Fish_3.stopped,WordBox_3.started,WordBox_3.stopped,Words_3.started,Words_3.stopped,BackGround_Feedback_3.started,BackGround_Feedback_3.stopped,Feedbacks_3.started,Feedbacks_3.stopped,Continue_or_not_2.keys,Continue_or_not_2.rt,Continue_or_not_2.started,Continue_or_not_2.stopped,image_4.started,image_4.stopped,mouse_3.x,mouse_3.y,mouse_3.leftButton,mouse_3.midButton,mouse_3.rightButton,mouse_3.started,mouse_3.stopped,startmain.started,startmain.stopped,slider_4.response,slider_4.rt,slider_4.started,slider_4.stopped,Response_4,Feedback_4,BackGround_4.started,BackGround_4.stopped,Fish_4.started,Fish_4.stopped,WordBox_4.started,WordBox_4.stopped,Words_4.started,Words_4.stopped,BackGround_Feedback_4.started,BackGround_Feedback_4.stopped,Feedbacks_4.started,Feedbacks_4.stopped,text.started,text.stopped,break_interval.started,break_interval.stopped,mouse.x,mouse.y,mouse.leftButton,mouse.midButton,mouse.rightButton,mouse.started,mouse.stopped,stratnextround.started,stratnextround.stopped,endgame.started,endgame.stopped,participant,date,expName,psychopyVersion,frameRate,
,,,,,,,,,,,,,,,,,,,,,,,,,,,,,,,,,,,,,,,,,,,,,,,,,,,,,,22.56994290003786,None,22.56994290003786,None,space,1.7897324999794364,23.027734700008295,None,,,,,,,,,,,,,,,,,,,,,,,,,,,,,,,,,,,,,,,,,,,,,,,,,,,,,,,,,,,,,,,,,,,,,,,,,,,,,,,,,,,,,,,,,,118,2022-05-06_12h28.41.713,FishGame,2022.1.1,60.012518608895434,
물고기과제_instruction(참가자용)GreenVersion.mp4,,,,,,,,,,,,,,,,,,0,0,0,0,0,0,0,0,,,,,,,,,,,,,,,,,,,,,,,,,,,,,,,,,,,,,91.64461150002899,None,n,31.370353000005707,91.64461150002899,None,,,,,,,,,,,,,,,,,,,,,,,,,,,,,,,,,,,,,,,,,,,,,,,,,,,,,,,,,,,,,,,,,,,,,,,,,,,,,,,,,,,,118,2022-05-06_12h28.41.713,FishGame,2022.1.1,60.012518608895434,
,1,넌 교활해,5,Orange,B,2.333333333333333,2.133333333333333,ScrollUp,ScrollDown,Orange.png,practice,,,,,,,0,0,0,0,,,,,0,0,0,0,0,0,0,0,,,,,,,,,,,,,,,,,,,,,,,,,,,,,,,,,,,0.015740741,-0.2212963,1,0,0,0.5138341099955142,None,123.04630310001085,None,126.22939759999281,127.7293922000099,127.76267550000921,128.7128156000399,128.7627340000472,129.71259680000367,129.71259680000367,None,2,1.423865900025703,130.9131800000323,None,ScrollUp,정답입니다,130.9131800000323,None,130.9131800000323,None,130.9131800000323,None,130.9131800000323,None,132.13760070002172,None,132.13760070002172,132.64627460000338,,,,,,,,,,,,,,,,,,,,,,,,,,,,,,,,,,,,,,,,,,,,,,,,,118,2022-05-06_12h28.41.713,FishGame,2022.1.1,60.012518608895434,
,2,넌 슬기로워,2,Green,A,6.166666666666667,4.1,ScrollDown,ScrollUp,Green.png,practice,,,,,,,0,0,0,0,,,,,0,0,0,0,0,1,1,1,,,,,,,,,,,,,,,,,,,,,,,,,,,,,,,,,,,,,,,,,,,,,,,,,,,,1.2993827114502587,1.3418620000011288,133.3193511000136,None,ScrollDown,정답입니다,133.3193511000136,None,133.3193511000136,None,133.3193511000136,None,133.3193511000136,None,134.51788380002836,None,134.51788380002836,135.02951880003093,,,,,,,,,,,,,,,,,,,,,,,,,,,,,,,,,,,,,,,,,,,,,,,,,118,2022-05-06_12h28.41.713,FishGame,2022.1.1,60.012518608895434,
,3,나를 보내줘,6,Green,A,0,0,ScrollUp,ScrollDown,Green.png,practice,,,,,,,0,0,0,0,,,,,0,0,0,0,0,2,2,2,,,,,,,,,,,,,,,,,,,,,,,,,,,,,,,,,,,,,,,,,,,,,,,,,,,,1.7746913582086563,1.5599622000008821,135.73345360002713,None,ScrollUp,정답입니다,135.73345360002713,None,135.73345360002713,None,135.73345360002713,None,135.73345360002713,None,137.1198027000064,None,137.1198027000064,137.62962920003338,,,,,,,,,,,,,,,,,,,,,,,,,,,,,,,,,,,,,,,,,,,,,,,,,118,2022-05-06_12h28.41.713,FishGame,2022.1.1,60.012518608895434,
,4,나를 데려가줘,6,Orange,B,0,0,ScrollDown,ScrollUp,Orange.png,practice,,,,,,,0,0,0,0,,,,,0,0,0,0,0,3,3,3,,,,,,,,,,,,,,,,,,,,,,,,,,,,,,,,,,,,,,,,,,,,,,,,,,,,1.1064814925193787,1.2934076000237837,138.32017870002892,None,ScrollDown,정답입니다,138.32017870002892,None,138.32017870002892,None,138.32017870002892,None,138.32017870002892,None,139.45301880000625,None,139.45301880000625,139.96300280001014,,,,,,,,,,,,,,,,,,,,,,,,,,,,,,,,,,,,,,,,,,,,,,,,,118,2022-05-06_12h28.41.713,FishGame,2022.1.1,60.012518608895434,
,1,넌 교활해,5,Orange,B,2.333333333333333,2.133333333333333,ScrollUp,ScrollDown,Orange.png,practice,,,,,,,0,0,0,0,,,,,0,0,0,0,,,,,,,,,,,,,,,,,,,,,,,,,,,,,,,,,,,,,,,,,,,,,,,,,,,,,,,,,,,,,,,,,,,,,,,,,,n,18.48271269997349,140.46291410003323,None,140.46291410003323,None,,,,,,,,,,,,,,,,,,,,,,,,,,,,,,,,,,,,,,,,,,,118,2022-05-06_12h28.41.713,FishGame,2022.1.1,60.012518608895434,
,1,넌 따뜻해,1,Orange,B,6.083333333333333,5.6,ScrollUp,ScrollDown,Orange.png,1,Positive,Incongruent,,,,,0,0,0,0,,,,,,,,,,,,,0,0,0,0,,,,,,,,,,,,,,,,,,,,,,,,,,,,,,,,,,,,,,,,160.54675169999246,162.04668830003357,162.08007910003653,163.03016170003684,163.08024350000778,164.0302128000185,164.0302128000185,None,,,,,,,,,,,,,,,,,,,,,,,,,0.019444445,-0.13425925,1,0,0,0.3129700099816546,None,158.9632508000359,None,1.8425925970077515,1.3541382999974303,165.25047990004532,None,ScrollUp,정답입니다,165.25047990004532,None,165.25047990004532,None,165.25047990004532,None,165.25047990004532,None,166.38760660000844,None,166.38760660000844,166.89678670000285,,,,,,,,,,,,,,,,118,2022-05-06_12h28.41.713,FishGame,2022.1.1,60.012518608895434,
,2,넌 기품있어,2,Orange,B,5.791666666666668,4.5,ScrollUp,ScrollDown,Orange.png,1,Positive,Incongruent,,,,,0,0,0,0,,,,,,,,,,,,,0,1,1,1,,,,,,,,,,,,,,,,,,,,,,,,,,,,,,,,,,,,,,,,,,,,,,,,,,,,,,,,,,,,,,,,,,,,,,,,,,,,,,,,,1.6450617238879204,1.0758637999533676,167.58378760004416,None,ScrollUp,정답입니다,167.58378760004416,None,167.58378760004416,None,167.58378760004416,None,167.58378760004416,None,168.49695310002426,None,168.49695310002426,168.99700299999677,,,,,,,,,,,,,,,,118,2022-05-06_12h28.41.713,FishGame,2022.1.1,60.012518608895434,
,3,나를 보내줘,6,Green,A,0,0,ScrollUp,ScrollDown,Green.png,1,NonTarget,NonTarget,,,,,0,0,0,0,,,,,,,,,,,,,0,2,2,2,,,,,,,,,,,,,,,,,,,,,,,,,,,,,,,,,,,,,,,,,,,,,,,,,,,,,,,,,,,,,,,,,,,,,,,,,,,,,,,,,1.9367283980051677,1.399526999972295,169.68249760003528,None,ScrollUp,정답입니다,169.68249760003528,None,169.68249760003528,None,169.68249760003528,None,169.68249760003528,None,170.9271838000277,None,170.9271838000277,171.43024760001572,,,,,,,,,,,,,,,,118,2022-05-06_12h28.41.713,FishGame,2022.1.1,60.012518608895434,
,4,넌 수동적이야,4,Green,A,2.833333333333333,2.933333333333333,ScrollDown,ScrollUp,Green.png,1,Negative,Incongruent,,,,,0,0,0,0,,,,,,,,,,,,,0,3,3,3,,,,,,,,,,,,,,,,,,,,,,,,,,,,,,,,,,,,,,,,,,,,,,,,,,,,,,,,,,,,,,,,,,,,,,,,,,,,,,,,,1.3055555547277131,1.1151753999874927,172.10653750004712,None,ScrollDown,정답입니다,172.10653750004712,None,172.10653750004712,None,172.10653750004712,None,172.10653750004712,None,173.06916680000722,None,173.06916680000722,173.5803467000369,,,,,,,,,,,,,,,,118,2022-05-06_12h28.41.713,FishGame,2022.1.1,60.012518608895434,
,5,넌 사심이 없어,3,Orange,B,4.916666666666666,4.333333333333333,ScrollUp,ScrollDown,Orange.png,1,Neutral,Neutral,,,,,0,0,0,0,,,,,,,,,,,,,0,4,4,4,,,,,,,,,,,,,,,,,,,,,,,,,,,,,,,,,,,,,,,,,,,,,,,,,,,,,,,,,,,,,,,,,,,,,,,,,,,,,,,,,1.5169753081475696,1.183577400050126,174.26090809999732,None,NoResponse,무응답입니다,174.26090809999732,None,174.26090809999732,None,174.26090809999732,None,174.26090809999732,None,175.29421650001314,None,175.29421650001314,175.79705580003792,,,,,,,,,,,,,,,,118,2022-05-06_12h28.41.713,FishGame,2022.1.1,60.012518608895434,
,6,넌 헤퍼,5,Green,A,2.458333333333334,2.233333333333333,ScrollDown,ScrollUp,Green.png,1,Negative,Incongruent,,,,,0,0,0,0,,,,,,,,,,,,,0,5,5,5,,,,,,,,,,,,,,,,,,,,,,,,,,,,,,,,,,,,,,,,,,,,,,,,,,,,,,,,,,,,,,,,,,,,,,,,,,,,,,,,,1.2160493830839794,1.699550699966494,176.46294890000718,None,ScrollDown,정답입니다,176.46294890000718,None,176.46294890000718,None,176.46294890000718,None,176.46294890000718,None,178.02280810003867,None,178.02280810003867,178.53047350002453,,,,,,,,,,,,,,,,118,2022-05-06_12h28.41.713,FishGame,2022.1.1,60.012518608895434,
,7,넌 말쑥해,3,Green,A,4.833333333333334,4.333333333333333,ScrollDown,ScrollUp,Green.png,1,Neutral,Neutral,,,,,0,0,0,0,,,,,,,,,,,,,0,6,6,6,,,,,,,,,,,,,,,,,,,,,,,,,,,,,,,,,,,,,,,,,,,,,,,,,,,,,,,,,,,,,,,,,,,,,,,,,,,,,,,,,1.1064814925193787,1.3563783999998122,179.2076483000419,None,ScrollDown,정답입니다,179.2076483000419,None,179.2076483000419,None,179.2076483000419,None,179.2076483000419,None,180.41373410000233,None,180.41373410000233,180.91390230000252,,,,,,,,,,,,,,,,118,2022-05-06_12h28.41.713,FishGame,2022.1.1,60.012518608895434,
,8,넌 투덜거려,5,Orange,B,2.541666666666667,2.266666666666667,ScrollUp,ScrollDown,Orange.png,1,Negative,Congruent,,,,,0,0,0,0,,,,,,,,,,,,,0,7,7,7,,,,,,,,,,,,,,,,,,,,,,,,,,,,,,,,,,,,,,,,,,,,,,,,,,,,,,,,,,,,,,,,,,,,,,,,,,,,,,,,,1.7962963034709294,1.0088010000181384,181.59143460000632,None,ScrollUp,정답입니다,181.59143460000632,None,181.59143460000632,None,181.59143460000632,None,181.59143460000632,None,182.4471712000086,None,182.4471712000086,182.9471655000234,,,,,,,,,,,,,,,,118,2022-05-06_12h28.41.713,FishGame,2022.1.1,60.012518608895434,
,9,넌 적극적이야,1,Green,A,5.708333333333333,5.533333333333333,ScrollDown,ScrollUp,Green.png,1,Positive,Congruent,,,,,0,0,0,0,,,,,,,,,,,,,0,8,8,8,,,,,,,,,,,,,,,,,,,,,,,,,,,,,,,,,,,,,,,,,,,,,,,,,,,,,,,,,,,,,,,,,,,,,,,,,,,,,,,,,1.0077160497506459,0.9872990999720059,183.62720089999493,None,ScrollDown,정답입니다,183.62720089999493,None,183.62720089999493,None,183.62720089999493,None,183.62720089999493,None,184.463922200026,None,184.463922200026,184.96400530001847,,,,,,,,,,,,,,,,118,2022-05-06_12h28.41.713,FishGame,2022.1.1,60.012518608895434,
,10,넌 재미없어,4,Orange,B,2.625,2.966666666666667,ScrollUp,ScrollDown,Orange.png,1,Negative,Congruent,,,,,0,0,0,0,,,,,,,,,,,,,0,9,9,9,,,,,,,,,,,,,,,,,,,,,,,,,,,,,,,,,,,,,,,,,,,,,,,,,,,,,,,,,,,,,,,,,,,,,,,,,,,,,,,,,2,1.0760761000565253,185.63327940000454,None,ScrollUp,정답입니다,185.63327940000454,None,185.63327940000454,None,185.63327940000454,None,185.63327940000454,None,186.56417440000223,None,186.56417440000223,187.0640526000061,,,,,,,,,,,,,,,,118,2022-05-06_12h28.41.713,FishGame,2022.1.1,60.012518608895434,
,11,넌 명석해,2,Green,A,5.875,4.033333333333333,ScrollDown,ScrollUp,Green.png,1,Positive,Congruent,,,,,0,0,0,0,,,,,,,,,,,,,0,10,10,10,,,,,,,,,,,,,,,,,,,,,,,,,,,,,,,,,,,,,,,,,,,,,,,,,,,,,,,,,,,,,,,,,,,,,,,,,,,,,,,,,1.0740740497907002,0.9561451000045054,187.7350381000433,None,ScrollDown,정답입니다,187.7350381000433,None,187.7350381000433,None,187.7350381000433,None,187.7350381000433,None,188.54732840001816,None,188.54732840001816,189.0472887000069,,,,,,,,,,,,,,,,118,2022-05-06_12h28.41.713,FishGame,2022.1.1,60.012518608895434,
,12,나를 데려가줘,6,Orange,B,0,0,ScrollDown,ScrollUp,Orange.png,1,NonTarget,NonTarget,,,,,0,0,0,0,,,,,,,,,,,,,0,11,11,11,,,,,,,,,,,,,,,,,,,,,,,,,,,,,,,,,,,,,,,,,,,,,,,,,,,,,,,,,,,,,,,,,,,,,,,,,,,,,,,,,1,1.4637586000026204,189.72667930001626,None,ScrollDown,정답입니다,189.72667930001626,None,189.72667930001626,None,189.72667930001626,None,189.72667930001626,None,191.0364147000364,None,191.0364147000364,191.54730650002602,,,,,,,,,,,,,,,,118,2022-05-06_12h28.41.713,FishGame,2022.1.1,60.012518608895434,
,13,넌 소심해,4,Green,A,3,3.1,ScrollDown,ScrollUp,Green.png,1,Negative,Incongruent,,,,,0,0,0,0,,,,,,,,,,,,,0,12,12,12,,,,,,,,,,,,,,,,,,,,,,,,,,,,,,,,,,,,,,,,,,,,,,,,,,,,,,,,,,,,,,,,,,,,,,,,,,,,,,,,,1.0077160497506459,1.014925499970559,192.2124857000308,None,ScrollDown,정답입니다,192.2124857000308,None,192.2124857000308,None,192.2124857000308,None,192.2124857000308,None,193.08531769999536,None,193.08531769999536,193.5973559000413,,,,,,,,,,,,,,,,118,2022-05-06_12h28.41.713,FishGame,2022.1.1,60.012518608895434,
,14,넌 합리적이야,2,Green,A,5.583333333333333,4.733333333333333,ScrollDown,ScrollUp,Green.png,1,Positive,Congruent,,,,,0,0,0,0,,,,,,,,,,,,,0,13,13,13,,,,,,,,,,,,,,,,,,,,,,,,,,,,,,,,,,,,,,,,,,,,,,,,,,,,,,,,,,,,,,,,,,,,,,,,,,,,,,,,,1.0972222338120143,1.024676900007762,194.26636230002623,None,ScrollDown,정답입니다,194.26636230002623,None,194.26636230002623,None,194.26636230002623,None,194.26636230002623,None,195.14741350000259,None,195.14741350000259,195.6474016000284,,,,,,,,,,,,,,,,118,2022-05-06_12h28.41.713,FishGame,2022.1.1,60.012518608895434,
,15,넌 무자비해,5,Orange,B,2.333333333333333,2.1,ScrollUp,ScrollDown,Orange.png,1,Negative,Congruent,,,,,0,0,0,0,,,,,,,,,,,,,0,14,14,14,,,,,,,,,,,,,,,,,,,,,,,,,,,,,,,,,,,,,,,,,,,,,,,,,,,,,,,,,,,,,,,,,,,,,,,,,,,,,,,,,2,1.0161789000267163,196.31974110001465,None,ScrollUp,정답입니다,196.31974110001465,None,196.31974110001465,None,196.31974110001465,None,196.31974110001465,None,197.19424470001832,None,197.19424470001832,197.69753950001905,,,,,,,,,,,,,,,,118,2022-05-06_12h28.41.713,FishGame,2022.1.1,60.012518608895434,
,16,나를 보내줘,6,Green,A,0,0,ScrollUp,ScrollDown,Green.png,1,NonTarget,NonTarget,,,,,0,0,0,0,,,,,,,,,,,,,0,15,15,15,,,,,,,,,,,,,,,,,,,,,,,,,,,,,,,,,,,,,,,,,,,,,,,,,,,,,,,,,,,,,,,,,,,,,,,,,,,,,,,,,1.9490740597248077,1.2502878999803215,198.35102010000264,None,ScrollUp,정답입니다,198.35102010000264,None,198.35102010000264,None,198.35102010000264,None,198.35102010000264,None,199.47337560000597,None,199.47337560000597,199.98090480000246,,,,,,,,,,,,,,,,118,2022-05-06_12h28.41.713,FishGame,2022.1.1,60.012518608895434,
,17,넌 현실적이야,3,Orange,B,4.608695652173913,4.766666666666667,ScrollUp,ScrollDown,Orange.png,1,Neutral,Neutral,,,,,0,0,0,0,,,,,,,,,,,,,0,16,16,16,,,,,,,,,,,,,,,,,,,,,,,,,,,,,,,,,,,,,,,,,,,,,,,,,,,,,,,,,,,,,,,,,,,,,,,,,,,,,,,,,2,1.2757013999507762,200.65880989999278,None,ScrollUp,정답입니다,200.65880989999278,None,200.65880989999278,None,200.65880989999278,None,200.65880989999278,None,201.78080460004276,None,201.78080460004276,202.280879500031,,,,,,,,,,,,,,,,118,2022-05-06_12h28.41.713,FishGame,2022.1.1,60.012518608895434,
,18,넌 의리있어,1,Orange,B,5.833333333333334,5.633333333333334,ScrollUp,ScrollDown,Orange.png,1,Positive,Incongruent,,,,,0,0,0,0,,,,,,,,,,,,,0,17,17,17,,,,,,,,,,,,,,,,,,,,,,,,,,,,,,,,,,,,,,,,,,,,,,,,,,,,,,,,,,,,,,,,,,,,,,,,,,,,,,,,,2,1.000398900010623,202.9596079000039,None,ScrollUp,정답입니다,202.9596079000039,None,202.9596079000039,None,202.9596079000039,None,202.9596079000039,None,203.81110200000694,None,203.81110200000694,204.31425870000385,,,,,,,,,,,,,,,,118,2022-05-06_12h28.41.713,FishGame,2022.1.1,60.012518608895434,
,19,넌 신경과민이야,5,Green,A,2.541666666666667,2.166666666666667,ScrollDown,ScrollUp,Green.png,1,Negative,Incongruent,,,,,0,0,0,0,,,,,,,,,,,,,0,18,18,18,,,,,,,,,,,,,,,,,,,,,,,,,,,,,,,,,,,,,,,,,,,,,,,,,,,,,,,,,,,,,,,,,,,,,,,,,,,,,,,,,1.0262345671653748,1.0423845000332221,204.99651369999629,None,ScrollDown,정답입니다,204.99651369999629,None,204.99651369999629,None,204.99651369999629,None,204.99651369999629,None,205.88105510000605,None,205.88105510000605,206.38094210001873,,,,,,,,,,,,,,,,118,2022-05-06_12h28.41.713,FishGame,2022.1.1,60.012518608895434,
,20,넌 편안해,1,Green,A,5.916666666666666,5.866666666666666,ScrollDown,ScrollUp,Green.png,1,Positive,Congruent,,,,,0,0,0,0,,,,,,,,,,,,,0,19,19,19,,,,,,,,,,,,,,,,,,,,,,,,,,,,,,,,,,,,,,,,,,,,,,,,,,,,,,,,,,,,,,,,,,,,,,,,,,,,,,,,,1.0709876716136932,0.8552919999929145,207.0481477000285,None,ScrollDown,정답입니다,207.0481477000285,None,207.0481477000285,None,207.0481477000285,None,207.0481477000285,None,207.76446269999724,None,207.76446269999724,208.26437109999824,,,,,,,,,,,,,,,,118,2022-05-06_12h28.41.713,FishGame,2022.1.1,60.012518608895434,
,21,넌 품위있어,2,Orange,B,5.291666666666666,4.466666666666667,ScrollUp,ScrollDown,Orange.png,1,Positive,Incongruent,,,,,0,0,0,0,,,,,,,,,,,,,0,20,20,20,,,,,,,,,,,,,,,,,,,,,,,,,,,,,,,,,,,,,,,,,,,,,,,,,,,,,,,,,,,,,,,,,,,,,,,,,,,,,,,,,2,1.162304800003767,208.938864500029,None,ScrollUp,정답입니다,208.938864500029,None,208.938864500029,None,208.938864500029,None,208.938864500029,None,209.9525936000282,None,209.9525936000282,210.46437770000193,,,,,,,,,,,,,,,,118,2022-05-06_12h28.41.713,FishGame,2022.1.1,60.012518608895434,
,22,넌 빈틈없어,3,Green,A,4.833333333333333,3.966666666666667,ScrollDown,ScrollUp,Green.png,1,Neutral,Neutral,,,,,0,0,0,0,,,,,,,,,,,,,0,21,21,21,,,,,,,,,,,,,,,,,,,,,,,,,,,,,,,,,,,,,,,,,,,,,,,,,,,,,,,,,,,,,,,,,,,,,,,,,,,,,,,,,1,1.0935915000154637,211.13810380001087,None,ScrollDown,정답입니다,211.13810380001087,None,211.13810380001087,None,211.13810380001087,None,211.13810380001087,None,212.08222209999803,None,212.08222209999803,212.59790860000066,,,,,,,,,,,,,,,,118,2022-05-06_12h28.41.713,FishGame,2022.1.1,60.012518608895434,
,23,넌 상상력없어,4,Orange,B,2.833333333333333,3.133333333333333,ScrollUp,ScrollDown,Orange.png,1,Negative,Congruent,,,,,0,0,0,0,,,,,,,,,,,,,0,22,22,22,,,,,,,,,,,,,,,,,,,,,,,,,,,,,,,,,,,,,,,,,,,,,,,,,,,,,,,,,,,,,,,,,,,,,,,,,,,,,,,,,2,1.057445899990853,213.25785630004248,None,ScrollUp,정답입니다,213.25785630004248,None,213.25785630004248,None,213.25785630004248,None,213.25785630004248,None,214.1645016000257,None,214.1645016000257,214.6646510999999,,,,,,,,,,,,,,,,118,2022-05-06_12h28.41.713,FishGame,2022.1.1,60.012518608895434,
,24,넌 지혜로워,2,Orange,B,6.333333333333334,4.633333333333334,ScrollUp,ScrollDown,Orange.png,1,Positive,Incongruent,,,,,0,0,0,0,,,,,,,,,,,,,0,23,23,23,,,,,,,,,,,,,,,,,,,,,,,,,,,,,,,,,,,,,,,,,,,,,,,,,,,,,,,,,,,,,,,,,,,,,,,,,,,,,,,,,2,0.9990235000150278,215.3537415000028,None,ScrollUp,정답입니다,215.3537415000028,None,215.3537415000028,None,215.3537415000028,None,215.3537415000028,None,216.18700340000214,None,216.18700340000214,216.69792430003872,,,,,,,,,,,,,,,,118,2022-05-06_12h28.41.713,FishGame,2022.1.1,60.012518608895434,
,25,넌 시끄러워,4,Green,A,2.833333333333333,3.033333333333333,ScrollDown,ScrollUp,Green.png,1,Negative,Incongruent,,,,,0,0,0,0,,,,,,,,,,,,,0,24,24,24,,,,,,,,,,,,,,,,,,,,,,,,,,,,,,,,,,,,,,,,,,,,,,,,,,,,,,,,,,,,,,,,,,,,,,,,,,,,,,,,,1,0.9506152999820188,217.37064209999517,None,ScrollDown,정답입니다,217.37064209999517,None,217.37064209999517,None,217.37064209999517,None,217.37064209999517,None,218.1781168000307,None,218.1781168000307,218.68178959999932,,,,,,,,,,,,,,,,118,2022-05-06_12h28.41.713,FishGame,2022.1.1,60.012518608895434,
,26,넌 만사태평이야,3,Orange,B,4,4.333333333333333,ScrollUp,ScrollDown,Orange.png,1,Neutral,Neutral,,,,,0,0,0,0,,,,,,,,,,,,,0,25,25,25,,,,,,,,,,,,,,,,,,,,,,,,,,,,,,,,,,,,,,,,,,,,,,,,,,,,,,,,,,,,,,,,,,,,,,,,,,,,,,,,,2,1.2120826999889687,219.39747150003677,None,ScrollUp,정답입니다,219.39747150003677,None,219.39747150003677,None,219.39747150003677,None,219.39747150003677,None,220.42824390000897,None,220.42824390000897,220.93143370002508,,,,,,,,,,,,,,,,118,2022-05-06_12h28.41.713,FishGame,2022.1.1,60.012518608895434,
,27,넌 붙임성있어,1,Green,A,5.708333333333333,5.633333333333334,ScrollDown,ScrollUp,Green.png,1,Positive,Congruent,,,,,0,0,0,0,,,,,,,,,,,,,0,26,26,26,,,,,,,,,,,,,,,,,,,,,,,,,,,,,,,,,,,,,,,,,,,,,,,,,,,,,,,,,,,,,,,,,,,,,,,,,,,,,,,,,1,1.0127646999899298,221.6165490000276,None,ScrollDown,정답입니다,221.6165490000276,None,221.6165490000276,None,221.6165490000276,None,221.6165490000276,None,222.47074690001318,None,222.47074690001318,222.98151690000668,,,,,,,,,,,,,,,,118,2022-05-06_12h28.41.713,FishGame,2022.1.1,60.012518608895434,
,28,넌 영리해,2,Green,A,6,4.033333333333333,ScrollDown,ScrollUp,Green.png,1,Positive,Congruent,,,,,0,0,0,0,,,,,,,,,,,,,0,27,27,27,,,,,,,,,,,,,,,,,,,,,,,,,,,,,,,,,,,,,,,,,,,,,,,,,,,,,,,,,,,,,,,,,,,,,,,,,,,,,,,,,1,0.821070600009989,223.66458730003797,None,ScrollDown,정답입니다,223.66458730003797,None,223.66458730003797,None,223.66458730003797,None,223.66458730003797,None,224.3315944999922,None,224.3315944999922,224.8316209000186,,,,,,,,,,,,,,,,118,2022-05-06_12h28.41.713,FishGame,2022.1.1,60.012518608895434,
,29,넌 열심이야,1,Orange,B,6.041666666666667,5.833333333333333,ScrollUp,ScrollDown,Orange.png,1,Positive,Incongruent,,,,,0,0,0,0,,,,,,,,,,,,,0,28,28,28,,,,,,,,,,,,,,,,,,,,,,,,,,,,,,,,,,,,,,,,,,,,,,,,,,,,,,,,,,,,,,,,,,,,,,,,,,,,,,,,,2,1.0006549999816343,225.52871199999936,None,ScrollUp,정답입니다,225.52871199999936,None,225.52871199999936,None,225.52871199999936,None,225.52871199999936,None,226.35810730000958,None,226.35810730000958,226.86502319999272,,,,,,,,,,,,,,,,118,2022-05-06_12h28.41.713,FishGame,2022.1.1,60.012518608895434,
,30,넌 인기없어,4,Orange,B,3,3.3,ScrollUp,ScrollDown,Orange.png,1,Negative,Congruent,,,,,0,0,0,0,,,,,,,,,,,,,0,29,29,29,,,,,,,,,,,,,,,,,,,,,,,,,,,,,,,,,,,,,,,,,,,,,,,,,,,,,,,,,,,,,,,,,,,,,,,,,,,,,,,,,2,1.0934449999476783,227.5618734000018,None,ScrollUp,정답입니다,227.5618734000018,None,227.5618734000018,None,227.5618734000018,None,227.5618734000018,None,228.4852305999957,None,228.4852305999957,228.99841340002604,,,,,,,,,,,,,,,,118,2022-05-06_12h28.41.713,FishGame,2022.1.1,60.012518608895434,
,31,넌 익살스러워,3,Green,A,4.708333333333334,4.833333333333333,ScrollDown,ScrollUp,Green.png,1,Neutral,Neutral,,,,,0,0,0,0,,,,,,,,,,,,,0,30,30,30,,,,,,,,,,,,,,,,,,,,,,,,,,,,,,,,,,,,,,,,,,,,,,,,,,,,,,,,,,,,,,,,,,,,,,,,,,,,,,,,,1,1.0020901000243612,229.69246620003833,None,ScrollDown,정답입니다,229.69246620003833,None,229.69246620003833,None,229.69246620003833,None,229.69246620003833,None,230.5316358000273,None,230.5316358000273,231.03167520003626,,,,,,,,,,,,,,,,118,2022-05-06_12h28.41.713,FishGame,2022.1.1,60.012518608895434,
,32,넌 이기적이야,5,Orange,B,2.291666666666667,2.333333333333333,ScrollUp,ScrollDown,Orange.png,1,Negative,Congruent,,,,,0,0,0,0,,,,,,,,,,,,,0,31,31,31,,,,,,,,,,,,,,,,,,,,,,,,,,,,,,,,,,,,,,,,,,,,,,,,,,,,,,,,,,,,,,,,,,,,,,,,,,,,,,,,,2,1.079562500002794,231.71509390004212,None,ScrollUp,정답입니다,231.71509390004212,None,231.71509390004212,None,231.71509390004212,None,231.71509390004212,None,232.63676940003643,None,232.63676940003643,233.1482828000444,,,,,,,,,,,,,,,,118,2022-05-06_12h28.41.713,FishGame,2022.1.1,60.012518608895434,
,33,나를 데려가줘,6,Orange,B,0,0,ScrollDown,ScrollUp,Orange.png,1,NonTarget,NonTarget,,,,,0,0,0,0,,,,,,,,,,,,,0,32,32,32,,,,,,,,,,,,,,,,,,,,,,,,,,,,,,,,,,,,,,,,,,,,,,,,,,,,,,,,,,,,,,,,,,,,,,,,,,,,,,,,,1,1.5633113000076264,233.82488700002432,None,ScrollDown,정답입니다,233.82488700002432,None,233.82488700002432,None,233.82488700002432,None,233.82488700002432,None,235.23742960003437,None,235.23742960003437,235.7482616000343,,,,,,,,,,,,,,,,118,2022-05-06_12h28.41.713,FishGame,2022.1.1,60.012518608895434,
,34,넌 기회주의자야,5,Green,A,2.875,2.133333333333333,ScrollDown,ScrollUp,Green.png,1,Negative,Incongruent,,,,,0,0,0,0,,,,,,,,,,,,,0,33,33,33,,,,,,,,,,,,,,,,,,,,,,,,,,,,,,,,,,,,,,,,,,,,,,,,,,,,,,,,,,,,,,,,,,,,,,,,,,,,,,,,,1,1.0836805999861099,236.42672210000455,None,ScrollDown,정답입니다,236.42672210000455,None,236.42672210000455,None,236.42672210000455,None,236.42672210000455,None,237.35693480004556,None,237.35693480004556,237.8652103000204,,,,,,,,,,,,,,,,118,2022-05-06_12h28.41.713,FishGame,2022.1.1,60.012518608895434,
,1,넌 미성숙해,4,Green,A,3,3.2,ScrollDown,ScrollUp,Green.png,2,Negative,Incongruent,,,,,0,0,0,0,,,,,,,,,,,,,,,,,0,0,0,0,,,,,,,,,,,,,,,,,,,,,,,,,,,,,,,,,,,,271.43258610001067,272.93264930002624,272.9659247000236,273.916118299996,273.96626610000385,274.9165390999988,274.9165390999988,None,,,,,,,,,,,,,,,,,,,,,,,,,,,,,,,,,,1,1.3613673000363633,276.1485967000481,None,ScrollDown,정답입니다,276.1485967000481,None,276.1485967000481,None,276.1485967000481,None,276.1485967000481,None,277.2828427000204,None,277.2828427000204,277.7831002000021,238.36524350004038,None,238.36524350004038,None,0.25,-0.1287037,1,0,0,0.015926009975373745,None,268.365804400004,None,,,118,2022-05-06_12h28.41.713,FishGame,2022.1.1,60.012518608895434,
,2,넌 반사회적이야,5,Orange,B,2.416666666666667,2.033333333333333,ScrollUp,ScrollDown,Orange.png,2,Negative,Congruent,,,,,0,0,0,0,,,,,,,,,,,,,,,,,0,1,1,1,,,,,,,,,,,,,,,,,,,,,,,,,,,,,,,,,,,,,,,,,,,,,,,,,,,,,,,,,,,,,,,,,,,,,,,,,,,,,2,1.0506956999888644,278.4402197000454,None,ScrollUp,정답입니다,278.4402197000454,None,278.4402197000454,None,278.4402197000454,None,278.4402197000454,None,279.3633063000161,None,279.3633063000161,279.86652680003317,,,,,,,,,,,,,,,,118,2022-05-06_12h28.41.713,FishGame,2022.1.1,60.012518608895434,
,3,넌 유능해,2,Green,A,6.208333333333333,4.433333333333334,ScrollDown,ScrollUp,Green.png,2,Positive,Congruent,,,,,0,0,0,0,,,,,,,,,,,,,,,,,0,2,2,2,,,,,,,,,,,,,,,,,,,,,,,,,,,,,,,,,,,,,,,,,,,,,,,,,,,,,,,,,,,,,,,,,,,,,,,,,,,,,1,0.9648423999897204,280.5182501000236,None,ScrollDown,정답입니다,280.5182501000236,None,280.5182501000236,None,280.5182501000236,None,280.5182501000236,None,281.3544893999933,None,281.3544893999933,281.8666266000364,,,,,,,,,,,,,,,,118,2022-05-06_12h28.41.713,FishGame,2022.1.1,60.012518608895434,
,4,넌 능숙해,2,Orange,B,5.666666666666667,4.733333333333333,ScrollUp,ScrollDown,Orange.png,2,Positive,Incongruent,,,,,0,0,0,0,,,,,,,,,,,,,,,,,0,3,3,3,,,,,,,,,,,,,,,,,,,,,,,,,,,,,,,,,,,,,,,,,,,,,,,,,,,,,,,,,,,,,,,,,,,,,,,,,,,,,2,0.9831306000123732,282.5139121999964,None,ScrollUp,정답입니다,282.5139121999964,None,282.5139121999964,None,282.5139121999964,None,282.5139121999964,None,283.37969520001207,None,283.37969520001207,283.8833432000247,,,,,,,,,,,,,,,,118,2022-05-06_12h28.41.713,FishGame,2022.1.1,60.012518608895434,
,5,넌 진부해,4,Orange,B,2.458333333333333,3.166666666666667,ScrollUp,ScrollDown,Orange.png,2,Negative,Congruent,,,,,0,0,0,0,,,,,,,,,,,,,,,,,0,4,4,4,,,,,,,,,,,,,,,,,,,,,,,,,,,,,,,,,,,,,,,,,,,,,,,,,,,,,,,,,,,,,,,,,,,,,,,,,,,,,1.9629629850387573,1.0178516999585554,284.53954980004346,None,ScrollUp,정답입니다,284.53954980004346,None,284.53954980004346,None,284.53954980004346,None,284.53954980004346,None,285.4299074000446,None,285.4299074000446,285.93342670000857,,,,,,,,,,,,,,,,118,2022-05-06_12h28.41.713,FishGame,2022.1.1,60.012518608895434,
,6,나를 보내줘,6,Green,A,0,0,ScrollUp,ScrollDown,Green.png,2,NonTarget,NonTarget,,,,,0,0,0,0,,,,,,,,,,,,,,,,,0,5,5,5,,,,,,,,,,,,,,,,,,,,,,,,,,,,,,,,,,,,,,,,,,,,,,,,,,,,,,,,,,,,,,,,,,,,,,,,,,,,,1.8703703731298447,1.107205000007525,286.58017190004466,None,ScrollUp,정답입니다,286.58017190004466,None,286.58017190004466,None,286.58017190004466,None,286.58017190004466,None,287.56680920004146,None,287.56680920004146,288.0669009000412,,,,,,,,,,,,,,,,118,2022-05-06_12h28.41.713,FishGame,2022.1.1,60.012518608895434,
,7,넌 엄격해,3,Green,A,4.166666666666666,4.1,ScrollDown,ScrollUp,Green.png,2,Neutral,Neutral,,,,,0,0,0,0,,,,,,,,,,,,,,,,,0,6,6,6,,,,,,,,,,,,,,,,,,,,,,,,,,,,,,,,,,,,,,,,,,,,,,,,,,,,,,,,,,,,,,,,,,,,,,,,,,,,,1.0787036915620167,1.2172979000024498,288.70784740004456,None,ScrollDown,정답입니다,288.70784740004456,None,288.70784740004456,None,288.70784740004456,None,288.70784740004456,None,289.8047537000384,None,289.8047537000384,290.31690989999333,,,,,,,,,,,,,,,,118,2022-05-06_12h28.41.713,FishGame,2022.1.1,60.012518608895434,
,8,나를 보내줘,6,Green,A,0,0,ScrollUp,ScrollDown,Green.png,2,NonTarget,NonTarget,,,,,0,0,0,0,,,,,,,,,,,,,,,,,0,7,7,7,,,,,,,,,,,,,,,,,,,,,,,,,,,,,,,,,,,,,,,,,,,,,,,,,,,,,,,,,,,,,,,,,,,,,,,,,,,,,1.8503086417913437,1.3749462999985553,290.960947900021,None,ScrollUp,정답입니다,290.960947900021,None,290.960947900021,None,290.960947900021,None,290.960947900021,None,292.21649280004203,None,292.21649280004203,292.7167329000076,,,,,,,,,,,,,,,,118,2022-05-06_12h28.41.713,FishGame,2022.1.1,60.012518608895434,
,9,넌 대담해,3,Orange,B,4.875,4.866666666666666,ScrollUp,ScrollDown,Orange.png,2,Neutral,Neutral,,,,,0,0,0,0,,,,,,,,,,,,,,,,,0,8,8,8,,,,,,,,,,,,,,,,,,,,,,,,,,,,,,,,,,,,,,,,,,,,,,,,,,,,,,,,,,,,,,,,,,,,,,,,,,,,,1.9645061492919922,0.9914088000077754,293.3638842999935,None,ScrollUp,정답입니다,293.3638842999935,None,293.3638842999935,None,293.3638842999935,None,293.3638842999935,None,294.2338496000157,None,294.2338496000157,294.73392339999555,,,,,,,,,,,,,,,,118,2022-05-06_12h28.41.713,FishGame,2022.1.1,60.012518608895434,
,10,넌 꾸준해,1,Green,A,5.916666666666668,5.8,ScrollDown,ScrollUp,Green.png,2,Positive,Congruent,,,,,0,0,0,0,,,,,,,,,,,,,,,,,0,9,9,9,,,,,,,,,,,,,,,,,,,,,,,,,,,,,,,,,,,,,,,,,,,,,,,,,,,,,,,,,,,,,,,,,,,,,,,,,,,,,1,1.0049588999827392,295.3905122000142,None,ScrollDown,정답입니다,295.3905122000142,None,295.3905122000142,None,295.3905122000142,None,295.3905122000142,None,296.266870499996,None,296.266870499996,296.7669440000318,,,,,,,,,,,,,,,,118,2022-05-06_12h28.41.713,FishGame,2022.1.1,60.012518608895434,
,11,나를 데려가줘,6,Orange,B,0,0,ScrollDown,ScrollUp,Orange.png,2,NonTarget,NonTarget,,,,,0,0,0,0,,,,,,,,,,,,,,,,,0,10,10,10,,,,,,,,,,,,,,,,,,,,,,,,,,,,,,,,,,,,,,,,,,,,,,,,,,,,,,,,,,,,,,,,,,,,,,,,,,,,,1.09413580596447,1.0579985000076704,297.41317240003264,None,ScrollDown,정답입니다,297.41317240003264,None,297.41317240003264,None,297.41317240003264,None,297.41317240003264,None,298.3499853000394,None,298.3499853000394,298.85000510001555,,,,,,,,,,,,,,,,118,2022-05-06_12h28.41.713,FishGame,2022.1.1,60.012518608895434,
,12,넌 독선적이야,5,Green,A,2.458333333333333,1.933333333333333,ScrollDown,ScrollUp,Green.png,2,Negative,Incongruent,,,,,0,0,0,0,,,,,,,,,,,,,,,,,0,11,11,11,,,,,,,,,,,,,,,,,,,,,,,,,,,,,,,,,,,,,,,,,,,,,,,,,,,,,,,,,,,,,,,,,,,,,,,,,,,,,1,1.0721301999874413,299.49858360004146,None,ScrollDown,정답입니다,299.49858360004146,None,299.49858360004146,None,299.49858360004146,None,299.49858360004146,None,300.45027990004746,None,300.45027990004746,300.95020150003256,,,,,,,,,,,,,,,,118,2022-05-06_12h28.41.713,FishGame,2022.1.1,60.012518608895434,
,13,나를 보내줘,6,Green,A,0,0,ScrollUp,ScrollDown,Green.png,2,NonTarget,NonTarget,,,,,0,0,0,0,,,,,,,,,,,,,,,,,0,12,12,12,,,,,,,,,,,,,,,,,,,,,,,,,,,,,,,,,,,,,,,,,,,,,,,,,,,,,,,,,,,,,,,,,,,,,,,,,,,,,2,1.1063458999851719,301.5887379000196,None,ScrollUp,정답입니다,301.5887379000196,None,301.5887379000196,None,301.5887379000196,None,301.5887379000196,None,302.58364220004296,None,302.58364220004296,303.0838897000067,,,,,,,,,,,,,,,,118,2022-05-06_12h28.41.713,FishGame,2022.1.1,60.012518608895434,
,14,넌 책임감있어,1,Orange,B,6.347826086956522,6,ScrollUp,ScrollDown,Orange.png,2,Positive,Incongruent,,,,,0,0,0,0,,,,,,,,,,,,,,,,,0,13,13,13,,,,,,,,,,,,,,,,,,,,,,,,,,,,,,,,,,,,,,,,,,,,,,,,,,,,,,,,,,,,,,,,,,,,,,,,,,,,,2,0.9989367999951355,303.73792000004323,None,ScrollUp,정답입니다,303.73792000004323,None,303.73792000004323,None,303.73792000004323,None,303.73792000004323,None,304.6049017000478,None,304.6049017000478,305.11651110003004,,,,,,,,,,,,,,,,118,2022-05-06_12h28.41.713,FishGame,2022.1.1,60.012518608895434,
,15,넌 문학적이야,3,Green,A,4.708333333333334,4.333333333333333,ScrollDown,ScrollUp,Green.png,2,Neutral,Neutral,,,,,0,0,0,0,,,,,,,,,,,,,,,,,0,14,14,14,,,,,,,,,,,,,,,,,,,,,,,,,,,,,,,,,,,,,,,,,,,,,,,,,,,,,,,,,,,,,,,,,,,,,,,,,,,,,1.1481481442848842,0.9412232000031509,305.7716499000089,None,ScrollDown,정답입니다,305.7716499000089,None,305.7716499000089,None,305.7716499000089,None,305.7716499000089,None,306.5833518000436,None,306.5833518000436,307.0838977000094,,,,,,,,,,,,,,,,118,2022-05-06_12h28.41.713,FishGame,2022.1.1,60.012518608895434,
,16,넌 재미있어,1,Orange,B,5.875,5.7,ScrollUp,ScrollDown,Orange.png,2,Positive,Incongruent,,,,,0,0,0,0,,,,,,,,,,,,,,,,,0,15,15,15,,,,,,,,,,,,,,,,,,,,,,,,,,,,,,,,,,,,,,,,,,,,,,,,,,,,,,,,,,,,,,,,,,,,,,,,,,,,,2,1.1113376999855973,307.7451399000129,None,ScrollUp,정답입니다,307.7451399000129,None,307.7451399000129,None,307.7451399000129,None,307.7451399000129,None,308.7223866000422,None,308.7223866000422,309.23325769999065,,,,,,,,,,,,,,,,118,2022-05-06_12h28.41.713,FishGame,2022.1.1,60.012518608895434,
,17,나를 데려가줘,6,Orange,B,0,0,ScrollDown,ScrollUp,Orange.png,2,NonTarget,NonTarget,,,,,0,0,0,0,,,,,,,,,,,,,,,,,0,16,16,16,,,,,,,,,,,,,,,,,,,,,,,,,,,,,,,,,,,,,,,,,,,,,,,,,,,,,,,,,,,,,,,,,,,,,,,,,,,,,1.1080246816078823,1.0253743000212125,309.88229030004004,None,ScrollDown,정답입니다,309.88229030004004,None,309.88229030004004,None,309.88229030004004,None,309.88229030004004,None,310.78378280001925,None,310.78378280001925,311.28410779999103,,,,,,,,,,,,,,,,118,2022-05-06_12h28.41.713,FishGame,2022.1.1,60.012518608895434,
,18,넌 협력적이야,1,Green,A,5.625,5.633333333333334,ScrollDown,ScrollUp,Green.png,2,Positive,Congruent,,,,,0,0,0,0,,,,,,,,,,,,,,,,,0,17,17,17,,,,,,,,,,,,,,,,,,,,,,,,,,,,,,,,,,,,,,,,,,,,,,,,,,,,,,,,,,,,,,,,,,,,,,,,,,,,,1,1.0708142999792472,311.9473075999995,None,ScrollDown,정답입니다,311.9473075999995,None,311.9473075999995,None,311.9473075999995,None,311.9473075999995,None,312.88371349999215,None,312.88371349999215,313.38400100002764,,,,,,,,,,,,,,,,118,2022-05-06_12h28.41.713,FishGame,2022.1.1,60.012518608895434,
,19,넌 평범해,3,Orange,B,4.333333333333332,4.233333333333333,ScrollUp,ScrollDown,Orange.png,2,Neutral,Neutral,,,,,0,0,0,0,,,,,,,,,,,,,,,,,0,18,18,18,,,,,,,,,,,,,,,,,,,,,,,,,,,,,,,,,,,,,,,,,,,,,,,,,,,,,,,,,,,,,,,,,,,,,,,,,,,,,2,1.1653685999917798,314.0374445000198,None,ScrollUp,정답입니다,314.0374445000198,None,314.0374445000198,None,314.0374445000198,None,314.0374445000198,None,315.0717842000304,None,315.0717842000304,315.5840395000414,,,,,,,,,,,,,,,,118,2022-05-06_12h28.41.713,FishGame,2022.1.1,60.012518608895434,
,20,넌 오만해,5,Green,A,2.333333333333333,2,ScrollDown,ScrollUp,Green.png,2,Negative,Incongruent,,,,,0,0,0,0,,,,,,,,,,,,,,,,,0,19,19,19,,,,,,,,,,,,,,,,,,,,,,,,,,,,,,,,,,,,,,,,,,,,,,,,,,,,,,,,,,,,,,,,,,,,,,,,,,,,,1,0.9020060999901034,316.2271076000179,None,ScrollDown,정답입니다,316.2271076000179,None,316.2271076000179,None,316.2271076000179,None,316.2271076000179,None,317.0070743000251,None,317.0070743000251,317.51712259999476,,,,,,,,,,,,,,,,118,2022-05-06_12h28.41.713,FishGame,2022.1.1,60.012518608895434,
,21,넌 운이없어,4,Orange,B,3,3.466666666666667,ScrollUp,ScrollDown,Orange.png,2,Negative,Congruent,,,,,0,0,0,0,,,,,,,,,,,,,,,,,0,20,20,20,,,,,,,,,,,,,,,,,,,,,,,,,,,,,,,,,,,,,,,,,,,,,,,,,,,,,,,,,,,,,,,,,,,,,,,,,,,,,2,0.9715815999661572,318.17042030004086,None,ScrollUp,정답입니다,318.17042030004086,None,318.17042030004086,None,318.17042030004086,None,318.17042030004086,None,319.01416070002597,None,319.01416070002597,319.5173054000479,,,,,,,,,,,,,,,,118,2022-05-06_12h28.41.713,FishGame,2022.1.1,60.012518608895434,
,22,넌 창조적이야,2,Orange,B,6.125,4.633333333333334,ScrollUp,ScrollDown,Orange.png,2,Positive,Incongruent,,,,,0,0,0,0,,,,,,,,,,,,,,,,,0,21,21,21,,,,,,,,,,,,,,,,,,,,,,,,,,,,,,,,,,,,,,,,,,,,,,,,,,,,,,,,,,,,,,,,,,,,,,,,,,,,,2,1.0308214999968186,320.17496150004445,None,ScrollUp,정답입니다,320.17496150004445,None,320.17496150004445,None,320.17496150004445,None,320.17496150004445,None,321.07203810004285,None,321.07203810004285,321.5834622000111,,,,,,,,,,,,,,,,118,2022-05-06_12h28.41.713,FishGame,2022.1.1,60.012518608895434,
,23,나를 보내줘,6,Green,A,0,0,ScrollUp,ScrollDown,Green.png,2,NonTarget,NonTarget,,,,,0,0,0,0,,,,,,,,,,,,,,,,,0,22,22,22,,,,,,,,,,,,,,,,,,,,,,,,,,,,,,,,,,,,,,,,,,,,,,,,,,,,,,,,,,,,,,,,,,,,,,,,,,,,,2,1.2206754999933764,322.2246109000407,None,ScrollUp,정답입니다,322.2246109000407,None,322.2246109000407,None,322.2246109000407,None,322.2246109000407,None,323.33391280000797,None,323.33391280000797,323.83401380002033,,,,,,,,,,,,,,,,118,2022-05-06_12h28.41.713,FishGame,2022.1.1,60.012518608895434,
,24,넌 통찰력있어,2,Green,A,6.5,4.8,ScrollDown,ScrollUp,Green.png,2,Positive,Congruent,,,,,0,0,0,0,,,,,,,,,,,,,,,,,0,23,23,23,,,,,,,,,,,,,,,,,,,,,,,,,,,,,,,,,,,,,,,,,,,,,,,,,,,,,,,,,,,,,,,,,,,,,,,,,,,,,1.0385802288850148,1.1794874999905005,324.4868361999979,None,ScrollDown,정답입니다,324.4868361999979,None,324.4868361999979,None,324.4868361999979,None,324.4868361999979,None,325.53874520002864,None,325.53874520002864,326.0508513000095,,,,,,,,,,,,,,,,118,2022-05-06_12h28.41.713,FishGame,2022.1.1,60.012518608895434,
,25,넌 경솔해,5,Orange,B,2.458333333333333,2.266666666666667,ScrollUp,ScrollDown,Orange.png,2,Negative,Congruent,,,,,0,0,0,0,,,,,,,,,,,,,,,,,0,24,24,24,,,,,,,,,,,,,,,,,,,,,,,,,,,,,,,,,,,,,,,,,,,,,,,,,,,,,,,,,,,,,,,,,,,,,,,,,,,,,2,0.8986679000081494,326.6937930000131,None,ScrollUp,정답입니다,326.6937930000131,None,326.6937930000131,None,326.6937930000131,None,326.6937930000131,None,327.47217980003916,None,327.47217980003916,327.9843179000309,,,,,,,,,,,,,,,,118,2022-05-06_12h28.41.713,FishGame,2022.1.1,60.012518608895434,
,26,넌 초조해,4,Green,A,2.916666666666667,3.133333333333333,ScrollDown,ScrollUp,Green.png,2,Negative,Incongruent,,,,,0,0,0,0,,,,,,,,,,,,,,,,,0,25,25,25,,,,,,,,,,,,,,,,,,,,,,,,,,,,,,,,,,,,,,,,,,,,,,,,,,,,,,,,,,,,,,,,,,,,,,,,,,,,,1,0.9567092999932356,328.6267389000277,None,ScrollDown,정답입니다,328.6267389000277,None,328.6267389000277,None,328.6267389000277,None,328.6267389000277,None,329.46751760004554,None,329.46751760004554,329.9676651000045,,,,,,,,,,,,,,,,118,2022-05-06_12h28.41.713,FishGame,2022.1.1,60.012518608895434,
,27,넌 무관심해,4,Orange,B,2.833333333333333,2.9,ScrollUp,ScrollDown,Orange.png,2,Negative,Congruent,,,,,0,0,0,0,,,,,,,,,,,,,,,,,0,26,26,26,,,,,,,,,,,,,,,,,,,,,,,,,,,,,,,,,,,,,,,,,,,,,,,,,,,,,,,,,,,,,,,,,,,,,,,,,,,,,2,0.9539697999716736,330.61571990000084,None,ScrollUp,정답입니다,330.61571990000084,None,330.61571990000084,None,330.61571990000084,None,330.61571990000084,None,331.4473614000017,None,331.4473614000017,331.95118420000654,,,,,,,,,,,,,,,,118,2022-05-06_12h28.41.713,FishGame,2022.1.1,60.012518608895434,
,28,넌 감성적이야,3,Orange,B,4.125,4.166666666666667,ScrollUp,ScrollDown,Orange.png,2,Neutral,Neutral,,,,,0,0,0,0,,,,,,,,,,,,,,,,,0,27,27,27,,,,,,,,,,,,,,,,,,,,,,,,,,,,,,,,,,,,,,,,,,,,,,,,,,,,,,,,,,,,,,,,,,,,,,,,,,,,,2,1.279357000021264,332.5936928000301,None,ScrollUp,정답입니다,332.5936928000301,None,332.5936928000301,None,332.5936928000301,None,332.5936928000301,None,333.7556709999917,None,333.7556709999917,334.26771149999695,,,,,,,,,,,,,,,,118,2022-05-06_12h28.41.713,FishGame,2022.1.1,60.012518608895434,
,29,넌 배려심있어,1,Green,A,6.083333333333333,5.5,ScrollDown,ScrollUp,Green.png,2,Positive,Congruent,,,,,0,0,0,0,,,,,,,,,,,,,,,,,0,28,28,28,,,,,,,,,,,,,,,,,,,,,,,,,,,,,,,,,,,,,,,,,,,,,,,,,,,,,,,,,,,,,,,,,,,,,,,,,,,,,1,1.2985088999848813,334.90584080002736,None,ScrollDown,정답입니다,334.90584080002736,None,334.90584080002736,None,334.90584080002736,None,334.90584080002736,None,336.08950860000914,None,336.08950860000914,336.6009727999917,,,,,,,,,,,,,,,,118,2022-05-06_12h28.41.713,FishGame,2022.1.1,60.012518608895434,
,30,넌 숨김없어,3,Green,A,4.5,4.933333333333334,ScrollDown,ScrollUp,Green.png,2,Neutral,Neutral,,,,,0,0,0,0,,,,,,,,,,,,,,,,,0,29,29,29,,,,,,,,,,,,,,,,,,,,,,,,,,,,,,,,,,,,,,,,,,,,,,,,,,,,,,,,,,,,,,,,,,,,,,,,,,,,,1,1.022096699976828,337.2502173000248,None,ScrollDown,정답입니다,337.2502173000248,None,337.2502173000248,None,337.2502173000248,None,337.2502173000248,None,338.151178500033,None,338.151178500033,338.65129060001345,,,,,,,,,,,,,,,,118,2022-05-06_12h28.41.713,FishGame,2022.1.1,60.012518608895434,
,31,넌 훌륭해,2,Orange,B,5.916666666666667,4.033333333333333,ScrollUp,ScrollDown,Orange.png,2,Positive,Incongruent,,,,,0,0,0,0,,,,,,,,,,,,,,,,,0,30,30,30,,,,,,,,,,,,,,,,,,,,,,,,,,,,,,,,,,,,,,,,,,,,,,,,,,,,,,,,,,,,,,,,,,,,,,,,,,,,,2,1.0577314000111073,339.30550469999434,None,ScrollUp,정답입니다,339.30550469999434,None,339.30550469999434,None,339.30550469999434,None,339.30550469999434,None,340.2341800000286,None,340.2341800000286,340.7348862999934,,,,,,,,,,,,,,,,118,2022-05-06_12h28.41.713,FishGame,2022.1.1,60.012518608895434,
,32,넌 슬기로워,2,Green,A,6.166666666666667,4.1,ScrollDown,ScrollUp,Green.png,2,Positive,Congruent,,,,,0,0,0,0,,,,,,,,,,,,,,,,,0,31,31,31,,,,,,,,,,,,,,,,,,,,,,,,,,,,,,,,,,,,,,,,,,,,,,,,,,,,,,,,,,,,,,,,,,,,,,,,,,,,,1,0.9388261999702081,341.37271140003577,None,ScrollDown,정답입니다,341.37271140003577,None,341.37271140003577,None,341.37271140003577,None,341.37271140003577,None,342.2009983000462,None,342.2009983000462,342.7017015000456,,,,,,,,,,,,,,,,118,2022-05-06_12h28.41.713,FishGame,2022.1.1,60.012518608895434,
,33,넌 냉혹해,5,Green,A,2.583333333333333,2.1,ScrollDown,ScrollUp,Green.png,2,Negative,Incongruent,,,,,0,0,0,0,,,,,,,,,,,,,,,,,0,32,32,32,,,,,,,,,,,,,,,,,,,,,,,,,,,,,,,,,,,,,,,,,,,,,,,,,,,,,,,,,,,,,,,,,,,,,,,,,,,,,1,0.8845918999868445,343.34132300002966,None,ScrollDown,정답입니다,343.34132300002966,None,343.34132300002966,None,343.34132300002966,None,343.34132300002966,None,344.1145989000215,None,344.1145989000215,344.6179431999917,,,,,,,,,,,,,,,,118,2022-05-06_12h28.41.713,FishGame,2022.1.1,60.012518608895434,
,34,나를 데려가줘,6,Orange,B,0,0,ScrollDown,ScrollUp,Orange.png,2,NonTarget,NonTarget,,,,,0,0,0,0,,,,,,,,,,,,,,,,,0,33,33,33,,,,,,,,,,,,,,,,,,,,,,,,,,,,,,,,,,,,,,,,,,,,,,,,,,,,,,,,,,,,,,,,,,,,,,,,,,,,,1,1.0908193999784999,345.2747852000175,None,ScrollDown,정답입니다,345.2747852000175,None,345.2747852000175,None,345.2747852000175,None,345.2747852000175,None,346.23479220003355,None,346.23479220003355,346.7346203000052,,,,,,,,,,,,,,,,118,2022-05-06_12h28.41.713,FishGame,2022.1.1,60.012518608895434,
,35,넌 편파적이야,5,Orange,B,2.125,2,ScrollUp,ScrollDown,Orange.png,2,Negative,Congruent,,,,,0,0,0,0,,,,,,,,,,,,,,,,,0,34,34,34,,,,,,,,,,,,,,,,,,,,,,,,,,,,,,,,,,,,,,,,,,,,,,,,,,,,,,,,,,,,,,,,,,,,,,,,,,,,,2,0.874380299996119,347.3818636999931,None,ScrollUp,정답입니다,347.3818636999931,None,347.3818636999931,None,347.3818636999931,None,347.3818636999931,None,348.13479810004355,None,348.13479810004355,348.63461649999954,,,,,,,,,,,,,,,,118,2022-05-06_12h28.41.713,FishGame,2022.1.1,60.012518608895434,
,36,넌 슬퍼,4,Green,A,2.583333333333333,3.066666666666667,ScrollDown,ScrollUp,Green.png,2,Negative,Incongruent,,,,,0,0,0,0,,,,,,,,,,,,,,,,,0,35,35,35,,,,,,,,,,,,,,,,,,,,,,,,,,,,,,,,,,,,,,,,,,,,,,,,,,,,,,,,,,,,,,,,,,,,,,,,,,,,,1,0.9103183000115678,349.2790143000311,None,ScrollDown,정답입니다,349.2790143000311,None,349.2790143000311,None,349.2790143000311,None,349.2790143000311,None,350.0678140000091,None,350.0678140000091,350.56814300001133,,,,,,,,,,,,,,,,118,2022-05-06_12h28.41.713,FishGame,2022.1.1,60.012518608895434,
,37,나를 데려가줘,6,Orange,B,0,0,ScrollDown,ScrollUp,Orange.png,2,NonTarget,NonTarget,,,,,0,0,0,0,,,,,,,,,,,,,,,,,0,36,36,36,,,,,,,,,,,,,,,,,,,,,,,,,,,,,,,,,,,,,,,,,,,,,,,,,,,,,,,,,,,,,,,,,,,,,,,,,,,,,1,0.9652726000058465,351.2139939000481,None,ScrollDown,정답입니다,351.2139939000481,None,351.2139939000481,None,351.2139939000481,None,351.2139939000481,None,352.0564371999935,None,352.0564371999935,352.56810410000617,,,,,,,,,,,,,,,,118,2022-05-06_12h28.41.713,FishGame,2022.1.1,60.012518608895434,
,38,넌 친절해,1,Orange,B,6.041666666666667,5.533333333333333,ScrollUp,ScrollDown,Orange.png,2,Positive,Incongruent,,,,,0,0,0,0,,,,,,,,,,,,,,,,,0,37,37,37,,,,,,,,,,,,,,,,,,,,,,,,,,,,,,,,,,,,,,,,,,,,,,,,,,,,,,,,,,,,,,,,,,,,,,,,,,,,,2,1.2825079000322148,353.2214804000105,None,ScrollUp,정답입니다,353.2214804000105,None,353.2214804000105,None,353.2214804000105,None,353.2214804000105,None,354.3726456000004,None,354.3726456000004,354.8847511000349,,,,,,,,,,,,,,,,118,2022-05-06_12h28.41.713,FishGame,2022.1.1,60.012518608895434,
,1,넌 엉성해,4,Green,A,3,3.3,ScrollDown,ScrollUp,Green.png,3,Negative,Incongruent,,,,,0,0,0,0,,,,,,,,,,,,,,,,,,,,,0,0,0,0,,,,,,,,,,,,,,,,,,,,,,,,,,,,,,,,387.55221729999175,389.0522917000344,389.08619659999385,390.035778200021,390.0856654000236,391.03590830002213,391.03590830002213,None,,,,,,,,,,,,,,,,,,,,,,,,,,,,,,,,,,1,1.5027020000270568,392.21001810004236,None,ScrollDown,정답입니다,392.21001810004236,None,392.21001810004236,None,392.21001810004236,None,392.21001810004236,None,393.53545440000016,None,393.53545440000016,394.0357563000289,355.3850313000148,None,355.3850313000148,None,0.13981481,-0.12407407,1,0,0,0.01628221001010388,None,385.38564829999814,None,,,118,2022-05-06_12h28.41.713,FishGame,2022.1.1,60.012518608895434,
,2,나를 보내줘,6,Green,A,0,0,ScrollUp,ScrollDown,Green.png,3,NonTarget,NonTarget,,,,,0,0,0,0,,,,,,,,,,,,,,,,,,,,,0,1,1,1,,,,,,,,,,,,,,,,,,,,,,,,,,,,,,,,,,,,,,,,,,,,,,,,,,,,,,,,,,,,,,,,,,,,,,,,,1.9675925771395366,1.3303230000310577,394.68240859999787,None,ScrollUp,정답입니다,394.68240859999787,None,394.68240859999787,None,394.68240859999787,None,394.68240859999787,None,395.8901996000204,None,395.8901996000204,396.40235660003964,,,,,,,,,,,,,,,,118,2022-05-06_12h28.41.713,FishGame,2022.1.1,60.012518608895434,
,3,넌 활발해,1,Orange,B,5.666666666666667,5.6,ScrollUp,ScrollDown,Orange.png,3,Positive,Incongruent,,,,,0,0,0,0,,,,,,,,,,,,,,,,,,,,,0,2,2,2,,,,,,,,,,,,,,,,,,,,,,,,,,,,,,,,,,,,,,,,,,,,,,,,,,,,,,,,,,,,,,,,,,,,,,,,,2,1.145539099990856,397.0570649000001,None,ScrollUp,정답입니다,397.0570649000001,None,397.0570649000001,None,397.0570649000001,None,397.0570649000001,None,398.0737683000043,None,398.0737683000043,398.5856364000356,,,,,,,,,,,,,,,,118,2022-05-06_12h28.41.713,FishGame,2022.1.1,60.012518608895434,
,4,넌 논리적이야,2,Green,A,5.666666666666666,4.633333333333334,ScrollDown,ScrollUp,Green.png,3,Positive,Congruent,,,,,0,0,0,0,,,,,,,,,,,,,,,,,,,,,0,3,3,3,,,,,,,,,,,,,,,,,,,,,,,,,,,,,,,,,,,,,,,,,,,,,,,,,,,,,,,,,,,,,,,,,,,,,,,,,1,1.0223823999986053,399.2274417000008,None,ScrollDown,정답입니다,399.2274417000008,None,399.2274417000008,None,399.2274417000008,None,399.2274417000008,None,400.1323515000404,None,400.1323515000404,400.63594549999107,,,,,,,,,,,,,,,,118,2022-05-06_12h28.41.713,FishGame,2022.1.1,60.012518608895434,
,5,넌 과묵해,3,Green,A,3.875,4.4,ScrollDown,ScrollUp,Green.png,3,Neutral,Neutral,,,,,0,0,0,0,,,,,,,,,,,,,,,,,,,,,0,4,4,4,,,,,,,,,,,,,,,,,,,,,,,,,,,,,,,,,,,,,,,,,,,,,,,,,,,,,,,,,,,,,,,,,,,,,,,,,1,0.8702066999976523,401.28870610002195,None,ScrollDown,정답입니다,401.28870610002195,None,401.28870610002195,None,401.28870610002195,None,401.28870610002195,None,402.0268670000369,None,402.0268670000369,402.5357943000272,,,,,,,,,,,,,,,,118,2022-05-06_12h28.41.713,FishGame,2022.1.1,60.012518608895434,
,6,나를 데려가줘,6,Orange,B,0,0,ScrollDown,ScrollUp,Orange.png,3,NonTarget,NonTarget,,,,,0,0,0,0,,,,,,,,,,,,,,,,,,,,,0,5,5,5,,,,,,,,,,,,,,,,,,,,,,,,,,,,,,,,,,,,,,,,,,,,,,,,,,,,,,,,,,,,,,,,,,,,,,,,,1,1.0162369999452494,403.1747013000422,None,ScrollDown,정답입니다,403.1747013000422,None,403.1747013000422,None,403.1747013000422,None,403.1747013000422,None,404.07393950002734,None,404.07393950002734,404.58605690003606,,,,,,,,,,,,,,,,118,2022-05-06_12h28.41.713,FishGame,2022.1.1,60.012518608895434,
,7,넌 미숙해,4,Orange,B,3,3,ScrollUp,ScrollDown,Orange.png,3,Negative,Congruent,,,,,0,0,0,0,,,,,,,,,,,,,,,,,,,,,0,6,6,6,,,,,,,,,,,,,,,,,,,,,,,,,,,,,,,,,,,,,,,,,,,,,,,,,,,,,,,,,,,,,,,,,,,,,,,,,2,1.1838836999959312,405.2236394000356,None,ScrollUp,정답입니다,405.2236394000356,None,405.2236394000356,None,405.2236394000356,None,405.2236394000356,None,406.2993220000062,None,406.2993220000062,406.80333660001634,,,,,,,,,,,,,,,,118,2022-05-06_12h28.41.713,FishGame,2022.1.1,60.012518608895434,
,8,나를 보내줘,6,Green,A,0,0,ScrollUp,ScrollDown,Green.png,3,NonTarget,NonTarget,,,,,0,0,0,0,,,,,,,,,,,,,,,,,,,,,0,7,7,7,,,,,,,,,,,,,,,,,,,,,,,,,,,,,,,,,,,,,,,,,,,,,,,,,,,,,,,,,,,,,,,,,,,,,,,,,2,1.1323655000305735,407.46190220001154,None,ScrollUp,정답입니다,407.46190220001154,None,407.46190220001154,None,407.46190220001154,None,407.46190220001154,None,408.4573231000104,None,408.4573231000104,408.9689342000056,,,,,,,,,,,,,,,,118,2022-05-06_12h28.41.713,FishGame,2022.1.1,60.012518608895434,
,9,넌 자신만만해,3,Orange,B,4.833333333333334,4.333333333333333,ScrollUp,ScrollDown,Orange.png,3,Neutral,Neutral,,,,,0,0,0,0,,,,,,,,,,,,,,,,,,,,,0,8,8,8,,,,,,,,,,,,,,,,,,,,,,,,,,,,,,,,,,,,,,,,,,,,,,,,,,,,,,,,,,,,,,,,,,,,,,,,,1.8209876517454784,1.042939100007061,409.62456339999335,None,ScrollUp,정답입니다,409.62456339999335,None,409.62456339999335,None,409.62456339999335,None,409.62456339999335,None,410.53591189999133,None,410.53591189999133,411.03616390004754,,,,,,,,,,,,,,,,118,2022-05-06_12h28.41.713,FishGame,2022.1.1,60.012518608895434,
,10,넌 탐욕스러워,5,Green,A,2.25,2.1,ScrollDown,ScrollUp,Green.png,3,Negative,Incongruent,,,,,0,0,0,0,,,,,,,,,,,,,,,,,,,,,0,9,9,9,,,,,,,,,,,,,,,,,,,,,,,,,,,,,,,,,,,,,,,,,,,,,,,,,,,,,,,,,,,,,,,,,,,,,,,,,1,1.18892029998824,411.68615399999544,None,ScrollDown,정답입니다,411.68615399999544,None,411.68615399999544,None,411.68615399999544,None,411.68615399999544,None,412.75269500003196,None,412.75269500003196,413.253078400041,,,,,,,,,,,,,,,,118,2022-05-06_12h28.41.713,FishGame,2022.1.1,60.012518608895434,
,11,넌 인기있어,2,Green,A,5.458333333333333,4.5,ScrollDown,ScrollUp,Green.png,3,Positive,Congruent,,,,,0,0,0,0,,,,,,,,,,,,,,,,,,,,,0,10,10,10,,,,,,,,,,,,,,,,,,,,,,,,,,,,,,,,,,,,,,,,,,,,,,,,,,,,,,,,,,,,,,,,,,,,,,,,,1,0.8498900000122376,413.88409639999736,None,ScrollDown,정답입니다,413.88409639999736,None,413.88409639999736,None,413.88409639999736,None,413.88409639999736,None,414.6329570999951,None,414.6329570999951,415.1361503000371,,,,,,,,,,,,,,,,118,2022-05-06_12h28.41.713,FishGame,2022.1.1,60.012518608895434,
,12,나를 데려가줘,6,Orange,B,0,0,ScrollDown,ScrollUp,Orange.png,3,NonTarget,NonTarget,,,,,0,0,0,0,,,,,,,,,,,,,,,,,,,,,0,11,11,11,,,,,,,,,,,,,,,,,,,,,,,,,,,,,,,,,,,,,,,,,,,,,,,,,,,,,,,,,,,,,,,,,,,,,,,,,1,1.29140870005358,415.7848248000373,None,ScrollDown,정답입니다,415.7848248000373,None,415.7848248000373,None,415.7848248000373,None,415.7848248000373,None,416.9526472000289,None,416.9526472000289,417.45311820000643,,,,,,,,,,,,,,,,118,2022-05-06_12h28.41.713,FishGame,2022.1.1,60.012518608895434,
,13,넌 뛰어나,2,Orange,B,6.166666666666667,4,ScrollUp,ScrollDown,Orange.png,3,Positive,Incongruent,,,,,0,0,0,0,,,,,,,,,,,,,,,,,,,,,0,12,12,12,,,,,,,,,,,,,,,,,,,,,,,,,,,,,,,,,,,,,,,,,,,,,,,,,,,,,,,,,,,,,,,,,,,,,,,,,1.9444444676240284,1.0379187000216916,418.09368570003426,None,ScrollUp,정답입니다,418.09368570003426,None,418.09368570003426,None,418.09368570003426,None,418.09368570003426,None,419.01600780000445,None,419.01600780000445,419.5190586000099,,,,,,,,,,,,,,,,118,2022-05-06_12h28.41.713,FishGame,2022.1.1,60.012518608895434,
,14,넌 낙관적이야,1,Green,A,5.75,5.8,ScrollDown,ScrollUp,Green.png,3,Positive,Congruent,,,,,0,0,0,0,,,,,,,,,,,,,,,,,,,,,0,13,13,13,,,,,,,,,,,,,,,,,,,,,,,,,,,,,,,,,,,,,,,,,,,,,,,,,,,,,,,,,,,,,,,,,,,,,,,,,1,0.8723571000155061,420.16574570001103,None,ScrollDown,정답입니다,420.16574570001103,None,420.16574570001103,None,420.16574570001103,None,420.16574570001103,None,420.9197004000307,None,420.9197004000307,421.4197578000021,,,,,,,,,,,,,,,,118,2022-05-06_12h28.41.713,FishGame,2022.1.1,60.012518608895434,
,15,넌 산만해,4,Orange,B,2.695652173913043,3.033333333333333,ScrollUp,ScrollDown,Orange.png,3,Negative,Congruent,,,,,0,0,0,0,,,,,,,,,,,,,,,,,,,,,0,14,14,14,,,,,,,,,,,,,,,,,,,,,,,,,,,,,,,,,,,,,,,,,,,,,,,,,,,,,,,,,,,,,,,,,,,,,,,,,2,1.145815500000026,422.0638115000329,None,ScrollUp,정답입니다,422.0638115000329,None,422.0638115000329,None,422.0638115000329,None,422.0638115000329,None,423.0909520999994,None,423.0909520999994,423.6025469000451,,,,,,,,,,,,,,,,118,2022-05-06_12h28.41.713,FishGame,2022.1.1,60.012518608895434,
,16,나를 보내줘,6,Green,A,0,0,ScrollUp,ScrollDown,Green.png,3,NonTarget,NonTarget,,,,,0,0,0,0,,,,,,,,,,,,,,,,,,,,,0,15,15,15,,,,,,,,,,,,,,,,,,,,,,,,,,,,,,,,,,,,,,,,,,,,,,,,,,,,,,,,,,,,,,,,,,,,,,,,,1.7546296268701553,1.2798914999584667,424.24116330000106,None,ScrollUp,정답입니다,424.24116330000106,None,424.24116330000106,None,424.24116330000106,None,424.24116330000106,None,425.4095504000434,None,425.4095504000434,425.91928810003446,,,,,,,,,,,,,,,,118,2022-05-06_12h28.41.713,FishGame,2022.1.1,60.012518608895434,
,17,넌 교활해,5,Orange,B,2.333333333333333,2.133333333333333,ScrollUp,ScrollDown,Orange.png,3,Negative,Congruent,,,,,0,0,0,0,,,,,,,,,,,,,,,,,,,,,0,16,16,16,,,,,,,,,,,,,,,,,,,,,,,,,,,,,,,,,,,,,,,,,,,,,,,,,,,,,,,,,,,,,,,,,,,,,,,,,1.7685185273488362,1.224436999997124,426.6165798000293,None,ScrollUp,정답입니다,426.6165798000293,None,426.6165798000293,None,426.6165798000293,None,426.6165798000293,None,427.66945240000496,None,427.66945240000496,428.17008499999065,,,,,,,,,,,,,,,,118,2022-05-06_12h28.41.713,FishGame,2022.1.1,60.012518608895434,
,18,나를 보내줘,6,Green,A,0,0,ScrollUp,ScrollDown,Green.png,3,NonTarget,NonTarget,,,,,0,0,0,0,,,,,,,,,,,,,,,,,,,,,0,17,17,17,,,,,,,,,,,,,,,,,,,,,,,,,,,,,,,,,,,,,,,,,,,,,,,,,,,,,,,,,,,,,,,,,,,,,,,,,2,1.3072912000352517,428.80121160001727,None,ScrollUp,정답입니다,428.80121160001727,None,428.80121160001727,None,428.80121160001727,None,428.80121160001727,None,430.00291650003055,None,430.00291650003055,430.50337210000725,,,,,,,,,,,,,,,,118,2022-05-06_12h28.41.713,FishGame,2022.1.1,60.012518608895434,
,19,넌 불친절해,5,Orange,B,2.208333333333333,2.033333333333333,ScrollUp,ScrollDown,Orange.png,3,Negative,Congruent,,,,,0,0,0,0,,,,,,,,,,,,,,,,,,,,,0,18,18,18,,,,,,,,,,,,,,,,,,,,,,,,,,,,,,,,,,,,,,,,,,,,,,,,,,,,,,,,,,,,,,,,,,,,,,,,,1.9012345770994823,1.3050201999722049,431.1588150000316,None,ScrollUp,정답입니다,431.1588150000316,None,431.1588150000316,None,431.1588150000316,None,431.1588150000316,None,432.3365546000423,None,432.3365546000423,432.8366524000303,,,,,,,,,,,,,,,,118,2022-05-06_12h28.41.713,FishGame,2022.1.1,60.012518608895434,
,20,넌 지적이야,2,Orange,B,5.75,4.366666666666666,ScrollUp,ScrollDown,Orange.png,3,Positive,Incongruent,,,,,0,0,0,0,,,,,,,,,,,,,,,,,,,,,0,19,19,19,,,,,,,,,,,,,,,,,,,,,,,,,,,,,,,,,,,,,,,,,,,,,,,,,,,,,,,,,,,,,,,,,,,,,,,,,1.9444444676240284,1.032893099996727,433.4757110000355,None,ScrollUp,정답입니다,433.4757110000355,None,433.4757110000355,None,433.4757110000355,None,433.4757110000355,None,434.3999950000434,None,434.3999950000434,434.90349390002666,,,,,,,,,,,,,,,,118,2022-05-06_12h28.41.713,FishGame,2022.1.1,60.012518608895434,
,21,넌 우유부단해,4,Green,A,2.666666666666667,3.166666666666667,ScrollDown,ScrollUp,Green.png,3,Negative,Incongruent,,,,,0,0,0,0,,,,,,,,,,,,,,,,,,,,,0,20,20,20,,,,,,,,,,,,,,,,,,,,,,,,,,,,,,,,,,,,,,,,,,,,,,,,,,,,,,,,,,,,,,,,,,,,,,,,,1.080246905485789,1.124960400047712,435.55143079999834,None,ScrollDown,정답입니다,435.55143079999834,None,435.55143079999834,None,435.55143079999834,None,435.55143079999834,None,436.55332440003986,None,436.55332440003986,437.0534658000106,,,,,,,,,,,,,,,,118,2022-05-06_12h28.41.713,FishGame,2022.1.1,60.012518608895434,
,22,나를 데려가줘,6,Orange,B,0,0,ScrollDown,ScrollUp,Orange.png,3,NonTarget,NonTarget,,,,,0,0,0,0,,,,,,,,,,,,,,,,,,,,,0,21,21,21,,,,,,,,,,,,,,,,,,,,,,,,,,,,,,,,,,,,,,,,,,,,,,,,,,,,,,,,,,,,,,,,,,,,,,,,,1.040123442808787,1.139708700007759,437.70149649999803,None,ScrollDown,정답입니다,437.70149649999803,None,437.70149649999803,None,437.70149649999803,None,437.70149649999803,None,438.72007219999796,None,438.72007219999796,439.2201644000015,,,,,,,,,,,,,,,,118,2022-05-06_12h28.41.713,FishGame,2022.1.1,60.012518608895434,
,23,넌 성실해,1,Orange,B,6.041666666666666,5.7,ScrollUp,ScrollDown,Orange.png,3,Positive,Incongruent,,,,,0,0,0,0,,,,,,,,,,,,,,,,,,,,,0,22,22,22,,,,,,,,,,,,,,,,,,,,,,,,,,,,,,,,,,,,,,,,,,,,,,,,,,,,,,,,,,,,,,,,,,,,,,,,,1.9891975224018097,1.033636000007391,439.8661844000453,None,ScrollUp,정답입니다,439.8661844000453,None,439.8661844000453,None,439.8661844000453,None,439.8661844000453,None,440.7835169000318,None,440.7835169000318,441.2863391000428,,,,,,,,,,,,,,,,118,2022-05-06_12h28.41.713,FishGame,2022.1.1,60.012518608895434,
,24,넌 현실주의적이야,3,Green,A,4.625,4.4,ScrollDown,ScrollUp,Green.png,3,Neutral,Neutral,,,,,0,0,0,0,,,,,,,,,,,,,,,,,,,,,0,23,23,23,,,,,,,,,,,,,,,,,,,,,,,,,,,,,,,,,,,,,,,,,,,,,,,,,,,,,,,,,,,,,,,,,,,,,,,,,1.1234567960103352,1.007994499988854,441.92216310004005,None,ScrollDown,정답입니다,441.92216310004005,None,441.92216310004005,None,441.92216310004005,None,441.92216310004005,None,442.81983890000265,None,442.81983890000265,443.32006090000505,,,,,,,,,,,,,,,,118,2022-05-06_12h28.41.713,FishGame,2022.1.1,60.012518608895434,
,25,넌 진실돼,1,Green,A,6.625,5.566666666666666,ScrollDown,ScrollUp,Green.png,3,Positive,Congruent,,,,,0,0,0,0,,,,,,,,,,,,,,,,,,,,,0,24,24,24,,,,,,,,,,,,,,,,,,,,,,,,,,,,,,,,,,,,,,,,,,,,,,,,,,,,,,,,,,,,,,,,,,,,,,,,,1.0725308855374653,0.9000190999940969,443.96878300001845,None,ScrollDown,정답입니다,443.96878300001845,None,443.96878300001845,None,443.96878300001845,None,443.96878300001845,None,444.74139570002444,None,444.74139570002444,445.2533883000142,,,,,,,,,,,,,,,,118,2022-05-06_12h28.41.713,FishGame,2022.1.1,60.012518608895434,
,26,넌 천진난만해,3,Orange,B,4.958333333333334,4.833333333333333,ScrollUp,ScrollDown,Orange.png,3,Neutral,Neutral,,,,,0,0,0,0,,,,,,,,,,,,,,,,,,,,,0,25,25,25,,,,,,,,,,,,,,,,,,,,,,,,,,,,,,,,,,,,,,,,,,,,,,,,,,,,,,,,,,,,,,,,,,,,,,,,,2,1.0328344000154175,445.90945630002534,None,ScrollUp,정답입니다,445.90945630002534,None,445.90945630002534,None,445.90945630002534,None,445.90945630002534,None,446.80832010001177,None,446.80832010001177,447.32027510000626,,,,,,,,,,,,,,,,118,2022-05-06_12h28.41.713,FishGame,2022.1.1,60.012518608895434,
,27,넌 교양없어,5,Green,A,2.416666666666667,2.2,ScrollDown,ScrollUp,Green.png,3,Negative,Incongruent,,,,,0,0,0,0,,,,,,,,,,,,,,,,,,,,,0,26,26,26,,,,,,,,,,,,,,,,,,,,,,,,,,,,,,,,,,,,,,,,,,,,,,,,,,,,,,,,,,,,,,,,,,,,,,,,,1.2422839452823002,1.0883526999969035,447.97444499999983,None,ScrollDown,정답입니다,447.97444499999983,None,447.97444499999983,None,447.97444499999983,None,447.97444499999983,None,448.9369924000348,None,448.9369924000348,449.43697290000273,,,,,,,,,,,,,,,,118,2022-05-06_12h28.41.713,FishGame,2022.1.1,60.012518608895434,
,28,나를 보내줘,6,Green,A,0,0,ScrollUp,ScrollDown,Green.png,3,NonTarget,NonTarget,,,,,0,0,0,0,,,,,,,,,,,,,,,,,,,,,0,27,27,27,,,,,,,,,,,,,,,,,,,,,,,,,,,,,,,,,,,,,,,,,,,,,,,,,,,,,,,,,,,,,,,,,,,,,,,,,1.7762345721324284,1.0924015999771655,450.07658520003315,None,ScrollUp,정답입니다,450.07658520003315,None,450.07658520003315,None,450.07658520003315,None,450.07658520003315,None,451.0534037000034,None,451.0534037000034,451.5537215000368,,,,,,,,,,,,,,,,118,2022-05-06_12h28.41.713,FishGame,2022.1.1,60.012518608895434,
,29,넌 엉뚱스러워,3,Green,A,4.166666666666667,4.133333333333334,ScrollDown,ScrollUp,Green.png,3,Neutral,Neutral,,,,,0,0,0,0,,,,,,,,,,,,,,,,,,,,,0,28,28,28,,,,,,,,,,,,,,,,,,,,,,,,,,,,,,,,,,,,,,,,,,,,,,,,,,,,,,,,,,,,,,,,,,,,,,,,,1.1373456716537476,1.052430900046602,452.20305450004525,None,ScrollDown,정답입니다,452.20305450004525,None,452.20305450004525,None,452.20305450004525,None,452.20305450004525,None,453.13371590001043,None,453.13371590001043,453.63703250000253,,,,,,,,,,,,,,,,118,2022-05-06_12h28.41.713,FishGame,2022.1.1,60.012518608895434,
,30,넌 무지해,4,Orange,B,2.541666666666667,3.066666666666667,ScrollUp,ScrollDown,Orange.png,3,Negative,Congruent,,,,,0,0,0,0,,,,,,,,,,,,,,,,,,,,,0,29,29,29,,,,,,,,,,,,,,,,,,,,,,,,,,,,,,,,,,,,,,,,,,,,,,,,,,,,,,,,,,,,,,,,,,,,,,,,,2,1.0050562000251375,454.27636880002683,None,ScrollUp,정답입니다,454.27636880002683,None,454.27636880002683,None,454.27636880002683,None,454.27636880002683,None,455.1702808000264,None,455.1702808000264,455.67057710001245,,,,,,,,,,,,,,,,118,2022-05-06_12h28.41.713,FishGame,2022.1.1,60.012518608895434,
,31,넌 음울해,5,Orange,B,2.25,2.233333333333333,ScrollUp,ScrollDown,Orange.png,3,Negative,Congruent,,,,,0,0,0,0,,,,,,,,,,,,,,,,,,,,,0,30,30,30,,,,,,,,,,,,,,,,,,,,,,,,,,,,,,,,,,,,,,,,,,,,,,,,,,,,,,,,,,,,,,,,,,,,,,,,,1.8641975422700245,0.8676596999866888,456.32537430000957,None,ScrollUp,정답입니다,456.32537430000957,None,456.32537430000957,None,456.32537430000957,None,456.32537430000957,None,457.066513400001,None,457.066513400001,457.5705472000409,,,,,,,,,,,,,,,,118,2022-05-06_12h28.41.713,FishGame,2022.1.1,60.012518608895434,
,32,넌 냉소적이야,5,Green,A,2.916666666666667,2.4,ScrollDown,ScrollUp,Green.png,3,Negative,Incongruent,,,,,0,0,0,0,,,,,,,,,,,,,,,,,,,,,0,31,31,31,,,,,,,,,,,,,,,,,,,,,,,,,,,,,,,,,,,,,,,,,,,,,,,,,,,,,,,,,,,,,,,,,,,,,,,,,1.194444437821706,0.9988688000012189,458.20824950002134,None,ScrollDown,정답입니다,458.20824950002134,None,458.20824950002134,None,458.20824950002134,None,458.20824950002134,None,459.09270929999184,None,459.09270929999184,459.60355900001014,,,,,,,,,,,,,,,,118,2022-05-06_12h28.41.713,FishGame,2022.1.1,60.012518608895434,
,33,나를 데려가줘,6,Orange,B,0,0,ScrollDown,ScrollUp,Orange.png,3,NonTarget,NonTarget,,,,,0,0,0,0,,,,,,,,,,,,,,,,,,,,,0,32,32,32,,,,,,,,,,,,,,,,,,,,,,,,,,,,,,,,,,,,,,,,,,,,,,,,,,,,,,,,,,,,,,,,,,,,,,,,,1.1682098756233852,1.0431952000362799,460.26274520001607,None,ScrollDown,정답입니다,460.26274520001607,None,460.26274520001607,None,460.26274520001607,None,460.26274520001607,None,461.1699905000278,None,461.1699905000278,461.6706888000481,,,,,,,,,,,,,,,,118,2022-05-06_12h28.41.713,FishGame,2022.1.1,60.012518608895434,
,34,넌 쾌활해,1,Green,A,5.541666666666666,5.733333333333333,ScrollDown,ScrollUp,Green.png,3,Positive,Congruent,,,,,0,0,0,0,,,,,,,,,,,,,,,,,,,,,0,33,33,33,,,,,,,,,,,,,,,,,,,,,,,,,,,,,,,,,,,,,,,,,,,,,,,,,,,,,,,,,,,,,,,,,,,,,,,,,1.0231481393178303,1.0299010000308044,462.3168025999912,None,ScrollDown,정답입니다,462.3168025999912,None,462.3168025999912,None,462.3168025999912,None,462.3168025999912,None,463.22518780000973,None,463.22518780000973,463.73742760001915,,,,,,,,,,,,,,,,118,2022-05-06_12h28.41.713,FishGame,2022.1.1,60.012518608895434,
,35,나를 보내줘,6,Green,A,0,0,ScrollUp,ScrollDown,Green.png,3,NonTarget,NonTarget,,,,,0,0,0,0,,,,,,,,,,,,,,,,,,,,,0,34,34,34,,,,,,,,,,,,,,,,,,,,,,,,,,,,,,,,,,,,,,,,,,,,,,,,,,,,,,,,,,,,,,,,,,,,,,,,,1.9922839502493541,1.0314532999764197,464.38009550003335,None,ScrollUp,정답입니다,464.38009550003335,None,464.38009550003335,None,464.38009550003335,None,464.38009550003335,None,465.2917390000075,None,465.2917390000075,465.8035103000002,,,,,,,,,,,,,,,,118,2022-05-06_12h28.41.713,FishGame,2022.1.1,60.012518608895434,
,36,넌 명랑해,1,Orange,B,5.739130434782609,5.666666666666667,ScrollUp,ScrollDown,Orange.png,3,Positive,Incongruent,,,,,0,0,0,0,,,,,,,,,,,,,,,,,,,,,0,35,35,35,,,,,,,,,,,,,,,,,,,,,,,,,,,,,,,,,,,,,,,,,,,,,,,,,,,,,,,,,,,,,,,,,,,,,,,,,1.0725308855374653,0.9659476000233553,466.4546494000242,None,ScrollDown,오답입니다,466.4546494000242,None,466.4546494000242,None,466.4546494000242,None,466.4546494000242,None,467.2941882000305,None,467.2941882000305,467.80365429999074,,,,,,,,,,,,,,,,118,2022-05-06_12h28.41.713,FishGame,2022.1.1,60.012518608895434,
,37,넌 멍해,4,Green,A,2.833333333333333,3.4,ScrollDown,ScrollUp,Green.png,3,Negative,Incongruent,,,,,0,0,0,0,,,,,,,,,,,,,,,,,,,,,0,36,36,36,,,,,,,,,,,,,,,,,,,,,,,,,,,,,,,,,,,,,,,,,,,,,,,,,,,,,,,,,,,,,,,,,,,,,,,,,1.0416666567325592,1.4848994999774732,468.4434046000242,None,ScrollDown,정답입니다,468.4434046000242,None,468.4434046000242,None,468.4434046000242,None,468.4434046000242,None,469.8113556000171,None,469.8113556000171,470.3207446000306,,,,,,,,,,,,,,,,118,2022-05-06_12h28.41.713,FishGame,2022.1.1,60.012518608895434,
,38,나를 데려가줘,6,Orange,B,0,0,ScrollDown,ScrollUp,Orange.png,3,NonTarget,NonTarget,,,,,0,0,0,0,,,,,,,,,,,,,,,,,,,,,0,37,37,37,,,,,,,,,,,,,,,,,,,,,,,,,,,,,,,,,,,,,,,,,,,,,,,,,,,,,,,,,,,,,,,,,,,,,,,,,1.040123442808787,1.1829983000061475,470.9618335000123,None,ScrollDown,정답입니다,470.9618335000123,None,470.9618335000123,None,470.9618335000123,None,470.9618335000123,None,472.02528990001883,None,472.02528990001883,472.5373951999936,,,,,,,,,,,,,,,,118,2022-05-06_12h28.41.713,FishGame,2022.1.1,60.012518608895434,
,39,넌 현명해,2,Green,A,6.541666666666666,4.533333333333333,ScrollDown,ScrollUp,Green.png,3,Positive,Congruent,,,,,0,0,0,0,,,,,,,,,,,,,,,,,,,,,0,38,38,38,,,,,,,,,,,,,,,,,,,,,,,,,,,,,,,,,,,,,,,,,,,,,,,,,,,,,,,,,,,,,,,,,,,,,,,,,1,1.01720750000095,473.16930210002465,None,ScrollDown,정답입니다,473.16930210002465,None,473.16930210002465,None,473.16930210002465,None,473.16930210002465,None,474.07524940004805,None,474.07524940004805,474.5877032999997,,,,,,,,,,,,,,,,118,2022-05-06_12h28.41.713,FishGame,2022.1.1,60.012518608895434,
,40,넌 수줍어,3,Orange,B,3.541666666666666,4.366666666666666,ScrollUp,ScrollDown,Orange.png,3,Neutral,Neutral,,,,,0,0,0,0,,,,,,,,,,,,,,,,,,,,,0,39,39,39,,,,,,,,,,,,,,,,,,,,,,,,,,,,,,,,,,,,,,,,,,,,,,,,,,,,,,,,,,,,,,,,,,,,,,,,,2,1.371147199999541,475.23994729999686,None,ScrollUp,정답입니다,475.23994729999686,None,475.23994729999686,None,475.23994729999686,None,475.23994729999686,None,476.48422590002883,None,476.48422590002883,476.98778770002536,,,,,,,,,,,,,,,,118,2022-05-06_12h28.41.713,FishGame,2022.1.1,60.012518608895434,
,41,나를 데려가줘,6,Orange,B,0,0,ScrollDown,ScrollUp,Orange.png,3,NonTarget,NonTarget,,,,,0,0,0,0,,,,,,,,,,,,,,,,,,,,,0,40,40,40,,,,,,,,,,,,,,,,,,,,,,,,,,,,,,,,,,,,,,,,,,,,,,,,,,,,,,,,,,,,,,,,,,,,,,,,,1.09413580596447,1.0582413999945857,477.6277785000275,None,ScrollDown,정답입니다,477.6277785000275,None,477.6277785000275,None,477.6277785000275,None,477.6277785000275,None,478.570939199999,None,478.570939199999,479.0711955000297,,,,,,,,,,,,,,,,118,2022-05-06_12h28.41.713,FishGame,2022.1.1,60.012518608895434,
,42,넌 성숙해,2,Orange,B,5.833333333333333,4.533333333333333,ScrollUp,ScrollDown,Orange.png,3,Positive,Incongruent,,,,,0,0,0,0,,,,,,,,,,,,,,,,,,,,,0,41,41,41,,,,,,,,,,,,,,,,,,,,,,,,,,,,,,,,,,,,,,,,,,,,,,,,,,,,,,,,,,,,,,,,,,,,,,,,,1.8719135870536168,1.1130504999891855,479.70806840003934,None,ScrollUp,정답입니다,479.70806840003934,None,479.70806840003934,None,479.70806840003934,None,479.70806840003934,None,480.7087458000169,None,480.7087458000169,481.22100830002455,,,,,,,,,,,,,,,,118,2022-05-06_12h28.41.713,FishGame,2022.1.1,60.012518608895434,
,1,넌 매력적이야,2,Orange,B,6.125,4.666666666666667,ScrollUp,ScrollDown,Orange.png,4,Positive,Incongruent,,,,,0,0,0,0,,,,,,,,,,,,,,,,,,,,,,,,,0,0,0,0,,,,,,,,,,,,,,,,,,,,,,,,,,,,514.6886753000435,516.1889322000206,516.222026100033,517.1723972000182,517.222273899999,518.1719931000262,518.1719931000262,None,,,,,,,,,,,,,,,,,,,,,,,,,,,,,,,,,,1.9382716119289398,2.2665161000331864,519.358187600039,None,ScrollUp,정답입니다,519.358187600039,None,519.358187600039,None,519.358187600039,None,519.358187600039,None,521.4384964000201,None,521.4384964000201,521.938496000017,481.72113640001044,None,481.72113640001044,None,0.08888889,-0.11574074,1,0,0,0.01626751001458615,None,511.72186049999436,None,,,118,2022-05-06_12h28.41.713,FishGame,2022.1.1,60.012518608895434,
,2,나를 보내줘,6,Green,A,0,0,ScrollUp,ScrollDown,Green.png,4,NonTarget,NonTarget,,,,,0,0,0,0,,,,,,,,,,,,,,,,,,,,,,,,,0,1,1,1,,,,,,,,,,,,,,,,,,,,,,,,,,,,,,,,,,,,,,,,,,,,,,,,,,,,,,,,,,,,,,,,,,,,,2,1.1071308000246063,522.5716406000429,None,ScrollUp,정답입니다,522.5716406000429,None,522.5716406000429,None,522.5716406000429,None,522.5716406000429,None,523.5719181000022,None,523.5719181000022,524.0721400000039,,,,,,,,,,,,,,,,118,2022-05-06_12h28.41.713,FishGame,2022.1.1,60.012518608895434,
,3,넌 조심스러워,3,Green,A,4.791666666666666,4.666666666666667,ScrollDown,ScrollUp,Green.png,4,Neutral,Neutral,,,,,0,0,0,0,,,,,,,,,,,,,,,,,,,,,,,,,0,2,2,2,,,,,,,,,,,,,,,,,,,,,,,,,,,,,,,,,,,,,,,,,,,,,,,,,,,,,,,,,,,,,,,,,,,,,1.1851851791143417,0.9222087999805808,524.7106187000172,None,ScrollDown,정답입니다,524.7106187000172,None,524.7106187000172,None,524.7106187000172,None,524.7106187000172,None,525.5220951000229,None,525.5220951000229,526.021976100048,,,,,,,,,,,,,,,,118,2022-05-06_12h28.41.713,FishGame,2022.1.1,60.012518608895434,
,4,넌 철학적이야,3,Orange,B,4.5,4.266666666666667,ScrollUp,ScrollDown,Orange.png,4,Neutral,Neutral,,,,,0,0,0,0,,,,,,,,,,,,,,,,,,,,,,,,,0,3,3,3,,,,,,,,,,,,,,,,,,,,,,,,,,,,,,,,,,,,,,,,,,,,,,,,,,,,,,,,,,,,,,,,,,,,,1.6728395000100136,0.9677212999667972,526.6752884000307,None,ScrollUp,정답입니다,526.6752884000307,None,526.6752884000307,None,526.6752884000307,None,526.6752884000307,None,527.5187002000166,None,527.5187002000166,528.0220727000269,,,,,,,,,,,,,,,,118,2022-05-06_12h28.41.713,FishGame,2022.1.1,60.012518608895434,
,5,넌 쩨쩨해,5,Green,A,2.375,2.133333333333333,ScrollDown,ScrollUp,Green.png,4,Negative,Incongruent,,,,,0,0,0,0,,,,,,,,,,,,,,,,,,,,,,,,,0,4,4,4,,,,,,,,,,,,,,,,,,,,,,,,,,,,,,,,,,,,,,,,,,,,,,,,,,,,,,,,,,,,,,,,,,,,,1.2160493830839794,0.8199924000073224,528.6611547000357,None,ScrollDown,정답입니다,528.6611547000357,None,528.6611547000357,None,528.6611547000357,None,528.6611547000357,None,529.3628277000389,None,529.3628277000389,529.8726291999919,,,,,,,,,,,,,,,,118,2022-05-06_12h28.41.713,FishGame,2022.1.1,60.012518608895434,
,6,나를 데려가줘,6,Orange,B,0,0,ScrollDown,ScrollUp,Orange.png,4,NonTarget,NonTarget,,,,,0,0,0,0,,,,,,,,,,,,,,,,,,,,,,,,,0,5,5,5,,,,,,,,,,,,,,,,,,,,,,,,,,,,,,,,,,,,,,,,,,,,,,,,,,,,,,,,,,,,,,,,,,,,,1.0848765472571056,1.0726185999810696,530.5105084000388,None,ScrollDown,정답입니다,530.5105084000388,None,530.5105084000388,None,530.5105084000388,None,530.5105084000388,None,531.4720832000021,None,531.4720832000021,531.9722396000288,,,,,,,,,,,,,,,,118,2022-05-06_12h28.41.713,FishGame,2022.1.1,60.012518608895434,
,7,넌 고집불통이야,5,Orange,B,2.875,2,ScrollUp,ScrollDown,Orange.png,4,Negative,Congruent,,,,,0,0,0,0,,,,,,,,,,,,,,,,,,,,,,,,,0,6,6,6,,,,,,,,,,,,,,,,,,,,,,,,,,,,,,,,,,,,,,,,,,,,,,,,,,,,,,,,,,,,,,,,,,,,,1.6851851865649223,1.1350151000078768,532.6190513000474,None,ScrollUp,정답입니다,532.6190513000474,None,532.6190513000474,None,532.6190513000474,None,532.6190513000474,None,533.6288422000362,None,533.6288422000362,534.1389139000094,,,,,,,,,,,,,,,,118,2022-05-06_12h28.41.713,FishGame,2022.1.1,60.012518608895434,
,8,넌 무심해,4,Green,A,2.875,3.2,ScrollDown,ScrollUp,Green.png,4,Negative,Incongruent,,,,,0,0,0,0,,,,,,,,,,,,,,,,,,,,,,,,,0,7,7,7,,,,,,,,,,,,,,,,,,,,,,,,,,,,,,,,,,,,,,,,,,,,,,,,,,,,,,,,,,,,,,,,,,,,,1.296296296020349,0.8728998000151478,534.7769144999911,None,ScrollDown,정답입니다,534.7769144999911,None,534.7769144999911,None,534.7769144999911,None,534.7769144999911,None,535.5384369000094,None,535.5384369000094,536.0382169000222,,,,,,,,,,,,,,,,118,2022-05-06_12h28.41.713,FishGame,2022.1.1,60.012518608895434,
,9,넌 정겨워,1,Green,A,5.791666666666667,5.666666666666667,ScrollDown,ScrollUp,Green.png,4,Positive,Congruent,,,,,0,0,0,0,,,,,,,,,,,,,,,,,,,,,,,,,0,8,8,8,,,,,,,,,,,,,,,,,,,,,,,,,,,,,,,,,,,,,,,,,,,,,,,,,,,,,,,,,,,,,,,,,,,,,1.1975308656692505,0.9682285999879241,536.689220100001,None,ScrollDown,정답입니다,536.689220100001,None,536.689220100001,None,536.689220100001,None,536.689220100001,None,537.527961600048,None,537.527961600048,538.0389776999946,,,,,,,,,,,,,,,,118,2022-05-06_12h28.41.713,FishGame,2022.1.1,60.012518608895434,
,10,나를 데려가줘,6,Orange,B,0,0,ScrollDown,ScrollUp,Orange.png,4,NonTarget,NonTarget,,,,,0,0,0,0,,,,,,,,,,,,,,,,,,,,,,,,,0,9,9,9,,,,,,,,,,,,,,,,,,,,,,,,,,,,,,,,,,,,,,,,,,,,,,,,,,,,,,,,,,,,,,,,,,,,,1.1975308656692505,1.011129799997434,538.6764630000107,None,ScrollDown,정답입니다,538.6764630000107,None,538.6764630000107,None,538.6764630000107,None,538.6764630000107,None,539.5773728000349,None,539.5773728000349,540.0889400000451,,,,,,,,,,,,,,,,118,2022-05-06_12h28.41.713,FishGame,2022.1.1,60.012518608895434,
,11,넌 체제순응적이야,4,Orange,B,3,3.6,ScrollUp,ScrollDown,Orange.png,4,Negative,Congruent,,,,,0,0,0,0,,,,,,,,,,,,,,,,,,,,,,,,,0,10,10,10,,,,,,,,,,,,,,,,,,,,,,,,,,,,,,,,,,,,,,,,,,,,,,,,,,,,,,,,,,,,,,,,,,,,,1.7638888855775197,1.0637261000229046,540.751474299992,None,ScrollUp,정답입니다,540.751474299992,None,540.751474299992,None,540.751474299992,None,540.751474299992,None,541.6767832000041,None,541.6767832000041,542.1889900999959,,,,,,,,,,,,,,,,118,2022-05-06_12h28.41.713,FishGame,2022.1.1,60.012518608895434,
,12,나를 보내줘,6,Green,A,0,0,ScrollUp,ScrollDown,Green.png,4,NonTarget,NonTarget,,,,,0,0,0,0,,,,,,,,,,,,,,,,,,,,,,,,,0,11,11,11,,,,,,,,,,,,,,,,,,,,,,,,,,,,,,,,,,,,,,,,,,,,,,,,,,,,,,,,,,,,,,,,,,,,,1.8657407313585281,1.0124866999685764,542.8321809000336,None,ScrollUp,정답입니다,542.8321809000336,None,542.8321809000336,None,542.8321809000336,None,542.8321809000336,None,543.726756100019,None,543.726756100019,544.238782200031,,,,,,,,,,,,,,,,118,2022-05-06_12h28.41.713,FishGame,2022.1.1,60.012518608895434,
,13,넌 박식해,2,Green,A,5.625,3.933333333333333,ScrollDown,ScrollUp,Green.png,4,Positive,Congruent,,,,,0,0,0,0,,,,,,,,,,,,,,,,,,,,,,,,,0,12,12,12,,,,,,,,,,,,,,,,,,,,,,,,,,,,,,,,,,,,,,,,,,,,,,,,,,,,,,,,,,,,,,,,,,,,,1.0972222338120143,1.0173489999724552,544.8802596000023,None,ScrollDown,정답입니다,544.8802596000023,None,544.8802596000023,None,544.8802596000023,None,544.8802596000023,None,545.7768518000375,None,545.7768518000375,546.2885643999907,,,,,,,,,,,,,,,,118,2022-05-06_12h28.41.713,FishGame,2022.1.1,60.012518608895434,
,14,나를 보내줘,6,Green,A,0,0,ScrollUp,ScrollDown,Green.png,4,NonTarget,NonTarget,,,,,0,0,0,0,,,,,,,,,,,,,,,,,,,,,,,,,0,13,13,13,,,,,,,,,,,,,,,,,,,,,,,,,,,,,,,,,,,,,,,,,,,,,,,,,,,,,,,,,,,,,,,,,,,,,1.9459876318772633,1.1494022000115365,546.9275301000453,None,ScrollUp,정답입니다,546.9275301000453,None,546.9275301000453,None,546.9275301000453,None,546.9275301000453,None,547.9602038000012,None,547.9602038000012,548.472582300019,,,,,,,,,,,,,,,,118,2022-05-06_12h28.41.713,FishGame,2022.1.1,60.012518608895434,
,15,넌 침착해,1,Orange,B,5.458333333333333,5.566666666666666,ScrollUp,ScrollDown,Orange.png,4,Positive,Incongruent,,,,,0,0,0,0,,,,,,,,,,,,,,,,,,,,,,,,,0,14,14,14,,,,,,,,,,,,,,,,,,,,,,,,,,,,,,,,,,,,,,,,,,,,,,,,,,,,,,,,,,,,,,,,,,,,,1.9645061492919922,1.162813399976585,549.1244859000435,None,ScrollUp,정답입니다,549.1244859000435,None,549.1244859000435,None,549.1244859000435,None,549.1244859000435,None,550.1607099000248,None,550.1607099000248,550.6723680000287,,,,,,,,,,,,,,,,118,2022-05-06_12h28.41.713,FishGame,2022.1.1,60.012518608895434,
,16,나를 데려가줘,6,Orange,B,0,0,ScrollDown,ScrollUp,Orange.png,4,NonTarget,NonTarget,,,,,0,0,0,0,,,,,,,,,,,,,,,,,,,,,,,,,0,15,15,15,,,,,,,,,,,,,,,,,,,,,,,,,,,,,,,,,,,,,,,,,,,,,,,,,,,,,,,,,,,,,,,,,,,,,1.2191358109315236,1.034469900012482,551.3166293000104,None,ScrollDown,정답입니다,551.3166293000104,None,551.3166293000104,None,551.3166293000104,None,551.3166293000104,None,552.2356303000124,None,552.2356303000124,552.7387205000268,,,,,,,,,,,,,,,,118,2022-05-06_12h28.41.713,FishGame,2022.1.1,60.012518608895434,
,17,넌 행복해,1,Green,A,6.416666666666666,6.166666666666667,ScrollDown,ScrollUp,Green.png,4,Positive,Congruent,,,,,0,0,0,0,,,,,,,,,,,,,,,,,,,,,,,,,0,16,16,16,,,,,,,,,,,,,,,,,,,,,,,,,,,,,,,,,,,,,,,,,,,,,,,,,,,,,,,,,,,,,,,,,,,,,1.28086419403553,0.7988985999836586,553.4263826000388,None,ScrollDown,정답입니다,553.4263826000388,None,553.4263826000388,None,553.4263826000388,None,553.4263826000388,None,554.0621257000021,None,554.0621257000021,554.57229500002,,,,,,,,,,,,,,,,118,2022-05-06_12h28.41.713,FishGame,2022.1.1,60.012518608895434,
,18,넌 겸손해,2,Orange,B,5.791666666666667,4.766666666666667,ScrollUp,ScrollDown,Orange.png,4,Positive,Incongruent,,,,,0,0,0,0,,,,,,,,,,,,,,,,,,,,,,,,,0,17,17,17,,,,,,,,,,,,,,,,,,,,,,,,,,,,,,,,,,,,,,,,,,,,,,,,,,,,,,,,,,,,,,,,,,,,,1.7808641890684764,1.1978050000034273,555.2345519000082,None,ScrollUp,정답입니다,555.2345519000082,None,555.2345519000082,None,555.2345519000082,None,555.2345519000082,None,556.294411400042,None,556.294411400042,556.8058524000226,,,,,,,,,,,,,,,,118,2022-05-06_12h28.41.713,FishGame,2022.1.1,60.012518608895434,
,19,나를 보내줘,6,Green,A,0,0,ScrollUp,ScrollDown,Green.png,4,NonTarget,NonTarget,,,,,0,0,0,0,,,,,,,,,,,,,,,,,,,,,,,,,0,18,18,18,,,,,,,,,,,,,,,,,,,,,,,,,,,,,,,,,,,,,,,,,,,,,,,,,,,,,,,,,,,,,,,,,,,,,1.8703703731298447,1.1416945999953896,557.4371131000225,None,ScrollUp,정답입니다,557.4371131000225,None,557.4371131000225,None,557.4371131000225,None,557.4371131000225,None,558.4725092000444,None,558.4725092000444,558.9723382000229,,,,,,,,,,,,,,,,118,2022-05-06_12h28.41.713,FishGame,2022.1.1,60.012518608895434,
,20,넌 의심없어,3,Green,A,4.166666666666667,4.6,ScrollDown,ScrollUp,Green.png,4,Neutral,Neutral,,,,,0,0,0,0,,,,,,,,,,,,,,,,,,,,,,,,,0,19,19,19,,,,,,,,,,,,,,,,,,,,,,,,,,,,,,,,,,,,,,,,,,,,,,,,,,,,,,,,,,,,,,,,,,,,,1.276234577099482,0.9346459999796934,559.614486800041,None,ScrollDown,정답입니다,559.614486800041,None,559.614486800041,None,559.614486800041,None,559.614486800041,None,560.4289422000293,None,560.4289422000293,560.9391179000377,,,,,,,,,,,,,,,,118,2022-05-06_12h28.41.713,FishGame,2022.1.1,60.012518608895434,
,21,넌 시시해,4,Green,A,2.666666666666667,2.966666666666667,ScrollDown,ScrollUp,Green.png,4,Negative,Incongruent,,,,,0,0,0,0,,,,,,,,,,,,,,,,,,,,,,,,,0,20,20,20,,,,,,,,,,,,,,,,,,,,,,,,,,,,,,,,,,,,,,,,,,,,,,,,,,,,,,,,,,,,,,,,,,,,,1.2716049353281655,0.9830937999649905,561.5761568000307,None,ScrollDown,정답입니다,561.5761568000307,None,561.5761568000307,None,561.5761568000307,None,561.5761568000307,None,562.4454288000125,None,562.4454288000125,562.9558189000236,,,,,,,,,,,,,,,,118,2022-05-06_12h28.41.713,FishGame,2022.1.1,60.012518608895434,
,22,나를 데려가줘,6,Orange,B,0,0,ScrollDown,ScrollUp,Orange.png,4,NonTarget,NonTarget,,,,,0,0,0,0,,,,,,,,,,,,,,,,,,,,,,,,,0,21,21,21,,,,,,,,,,,,,,,,,,,,,,,,,,,,,,,,,,,,,,,,,,,,,,,,,,,,,,,,,,,,,,,,,,,,,1.1543209999799728,1.1395451999851502,563.5997574999928,None,ScrollDown,정답입니다,563.5997574999928,None,563.5997574999928,None,563.5997574999928,None,563.5997574999928,None,564.6224591000355,None,564.6224591000355,565.1227961000404,,,,,,,,,,,,,,,,118,2022-05-06_12h28.41.713,FishGame,2022.1.1,60.012518608895434,
,23,넌 무정해,5,Green,A,2.5,2.2,ScrollDown,ScrollUp,Green.png,4,Negative,Incongruent,,,,,0,0,0,0,,,,,,,,,,,,,,,,,,,,,,,,,0,22,22,22,,,,,,,,,,,,,,,,,,,,,,,,,,,,,,,,,,,,,,,,,,,,,,,,,,,,,,,,,,,,,,,,,,,,,1.2777777661879859,1.03603810002096,565.7599135999917,None,ScrollDown,정답입니다,565.7599135999917,None,565.7599135999917,None,565.7599135999917,None,565.7599135999917,None,566.6789916999987,None,566.6789916999987,567.1894816000131,,,,,,,,,,,,,,,,118,2022-05-06_12h28.41.713,FishGame,2022.1.1,60.012518608895434,
,24,넌 긍정적이야,1,Orange,B,6.041666666666667,6.066666666666666,ScrollUp,ScrollDown,Orange.png,4,Positive,Incongruent,,,,,0,0,0,0,,,,,,,,,,,,,,,,,,,,,,,,,0,23,23,23,,,,,,,,,,,,,,,,,,,,,,,,,,,,,,,,,,,,,,,,,,,,,,,,,,,,,,,,,,,,,,,,,,,,,1.8086419651905696,1.159001599997282,567.8360669999965,None,ScrollUp,정답입니다,567.8360669999965,None,567.8360669999965,None,567.8360669999965,None,567.8360669999965,None,568.872363100003,None,568.872363100003,569.3728909000056,,,,,,,,,,,,,,,,118,2022-05-06_12h28.41.713,FishGame,2022.1.1,60.012518608895434,
,25,나를 보내줘,6,Green,A,0,0,ScrollUp,ScrollDown,Green.png,4,NonTarget,NonTarget,,,,,0,0,0,0,,,,,,,,,,,,,,,,,,,,,,,,,0,24,24,24,,,,,,,,,,,,,,,,,,,,,,,,,,,,,,,,,,,,,,,,,,,,,,,,,,,,,,,,,,,,,,,,,,,,,1.9351851840813954,2.33846319996519,570.003366000019,None,ScrollUp,정답입니다,570.003366000019,None,570.003366000019,None,570.003366000019,None,570.003366000019,None,572.2396260999958,None,572.2396260999958,572.739836600027,,,,,,,,,,,,,,,,118,2022-05-06_12h28.41.713,FishGame,2022.1.1,60.012518608895434,
,26,넌 시기심이 많아,5,Orange,B,2.458333333333333,2.233333333333333,ScrollUp,ScrollDown,Orange.png,4,Negative,Congruent,,,,,0,0,0,0,,,,,,,,,,,,,,,,,,,,,,,,,0,25,25,25,,,,,,,,,,,,,,,,,,,,,,,,,,,,,,,,,,,,,,,,,,,,,,,,,,,,,,,,,,,,,,,,,,,,,1.8148148208856583,1.2455314000253566,573.3936252000276,None,ScrollUp,정답입니다,573.3936252000276,None,573.3936252000276,None,573.3936252000276,None,573.3936252000276,None,574.506985999993,None,574.506985999993,575.0063076000079,,,,,,,,,,,,,,,,118,2022-05-06_12h28.41.713,FishGame,2022.1.1,60.012518608895434,
,27,넌 탁월해,2,Green,A,5.708333333333334,4.5,ScrollDown,ScrollUp,Green.png,4,Positive,Congruent,,,,,0,0,0,0,,,,,,,,,,,,,,,,,,,,,,,,,0,26,26,26,,,,,,,,,,,,,,,,,,,,,,,,,,,,,,,,,,,,,,,,,,,,,,,,,,,,,,,,,,,,,,,,,,,,,1.180555562178294,0.9667026000097394,575.6533643000294,None,ScrollDown,정답입니다,575.6533643000294,None,575.6533643000294,None,575.6533643000294,None,575.6533643000294,None,576.4941599000013,None,576.4941599000013,577.0065501999925,,,,,,,,,,,,,,,,118,2022-05-06_12h28.41.713,FishGame,2022.1.1,60.012518608895434,
,28,나를 데려가줘,6,Orange,B,0,0,ScrollDown,ScrollUp,Orange.png,4,NonTarget,NonTarget,,,,,0,0,0,0,,,,,,,,,,,,,,,,,,,,,,,,,0,27,27,27,,,,,,,,,,,,,,,,,,,,,,,,,,,,,,,,,,,,,,,,,,,,,,,,,,,,,,,,,,,,,,,,,,,,,1.2515432039896646,1.037679200002458,577.6437165000243,None,ScrollDown,정답입니다,577.6437165000243,None,577.6437165000243,None,577.6437165000243,None,577.6437165000243,None,578.5727282000007,None,578.5727282000007,579.0726810999913,,,,,,,,,,,,,,,,118,2022-05-06_12h28.41.713,FishGame,2022.1.1,60.012518608895434,
,29,넌 조용해,3,Orange,B,4.333333333333333,4.166666666666667,ScrollUp,ScrollDown,Orange.png,4,Neutral,Neutral,,,,,0,0,0,0,,,,,,,,,,,,,,,,,,,,,,,,,0,28,28,28,,,,,,,,,,,,,,,,,,,,,,,,,,,,,,,,,,,,,,,,,,,,,,,,,,,,,,,,,,,,,,,,,,,,,2,1.4665795000037178,579.7183446999989,None,ScrollUp,정답입니다,579.7183446999989,None,579.7183446999989,None,579.7183446999989,None,579.7183446999989,None,581.0698578000301,None,581.0698578000301,581.5734186000191,,,,,,,,,,,,,,,,118,2022-05-06_12h28.41.713,FishGame,2022.1.1,60.012518608895434,
,30,넌 다정해,1,Green,A,5.833333333333334,5.7,ScrollDown,ScrollUp,Green.png,4,Positive,Congruent,,,,,0,0,0,0,,,,,,,,,,,,,,,,,,,,,,,,,0,29,29,29,,,,,,,,,,,,,,,,,,,,,,,,,,,,,,,,,,,,,,,,,,,,,,,,,,,,,,,,,,,,,,,,,,,,,1.253086417913437,1.2827793000033125,582.2189280000166,None,ScrollDown,정답입니다,582.2189280000166,None,582.2189280000166,None,582.2189280000166,None,582.2189280000166,None,583.3777899999986,None,583.3777899999986,583.8897609999985,,,,,,,,,,,,,,,,118,2022-05-06_12h28.41.713,FishGame,2022.1.1,60.012518608895434,
,31,넌 능력있어,2,Orange,B,6.166666666666666,4.6,ScrollUp,ScrollDown,Orange.png,4,Positive,Incongruent,,,,,0,0,0,0,,,,,,,,,,,,,,,,,,,,,,,,,0,30,30,30,,,,,,,,,,,,,,,,,,,,,,,,,,,,,,,,,,,,,,,,,,,,,,,,,,,,,,,,,,,,,,,,,,,,,1.859567900498708,0.9920251999865286,584.5270108000259,None,ScrollUp,정답입니다,584.5270108000259,None,584.5270108000259,None,584.5270108000259,None,584.5270108000259,None,585.4063391000382,None,585.4063391000382,585.9066308000474,,,,,,,,,,,,,,,,118,2022-05-06_12h28.41.713,FishGame,2022.1.1,60.012518608895434,
,32,넌 불쾌해,5,Green,A,2.125,1.933333333333333,ScrollDown,ScrollUp,Green.png,4,Negative,Incongruent,,,,,0,0,0,0,,,,,,,,,,,,,,,,,,,,,,,,,0,31,31,31,,,,,,,,,,,,,,,,,,,,,,,,,,,,,,,,,,,,,,,,,,,,,,,,,,,,,,,,,,,,,,,,,,,,,1.2916666666666665,0.9322384999832138,586.5450299000368,None,ScrollDown,정답입니다,586.5450299000368,None,586.5450299000368,None,586.5450299000368,None,586.5450299000368,None,587.3623300000327,None,587.3623300000327,587.8733765000361,,,,,,,,,,,,,,,,118,2022-05-06_12h28.41.713,FishGame,2022.1.1,60.012518608895434,
,33,나를 데려가줘,6,Orange,B,0,0,ScrollDown,ScrollUp,Orange.png,4,NonTarget,NonTarget,,,,,0,0,0,0,,,,,,,,,,,,,,,,,,,,,,,,,0,32,32,32,,,,,,,,,,,,,,,,,,,,,,,,,,,,,,,,,,,,,,,,,,,,,,,,,,,,,,,,,,,,,,,,,,,,,1.2608024626970291,1.0641877999878488,588.5170990999904,None,ScrollDown,정답입니다,588.5170990999904,None,588.5170990999904,None,588.5170990999904,None,588.5170990999904,None,589.461200300022,None,589.461200300022,589.973504900001,,,,,,,,,,,,,,,,118,2022-05-06_12h28.41.713,FishGame,2022.1.1,60.012518608895434,
,34,넌 유순해,3,Green,A,4.458333333333333,5,ScrollDown,ScrollUp,Green.png,4,Neutral,Neutral,,,,,0,0,0,0,,,,,,,,,,,,,,,,,,,,,,,,,0,33,33,33,,,,,,,,,,,,,,,,,,,,,,,,,,,,,,,,,,,,,,,,,,,,,,,,,,,,,,,,,,,,,,,,,,,,,1.1311728407939274,0.9750965999555774,590.6126318000024,None,ScrollDown,정답입니다,590.6126318000024,None,590.6126318000024,None,590.6126318000024,None,590.6126318000024,None,591.4732058999944,None,591.4732058999944,591.9729302999913,,,,,,,,,,,,,,,,118,2022-05-06_12h28.41.713,FishGame,2022.1.1,60.012518608895434,
,35,넌 근심스러워,4,Orange,B,2.708333333333333,3.133333333333333,ScrollUp,ScrollDown,Orange.png,4,Negative,Congruent,,,,,0,0,0,0,,,,,,,,,,,,,,,,,,,,,,,,,0,34,34,34,,,,,,,,,,,,,,,,,,,,,,,,,,,,,,,,,,,,,,,,,,,,,,,,,,,,,,,,,,,,,,,,,,,,,1.6851851865649223,0.9239921999978833,592.6247569000116,None,ScrollUp,정답입니다,592.6247569000116,None,592.6247569000116,None,592.6247569000116,None,592.6247569000116,None,593.4230796000338,None,593.4230796000338,593.9237712000031,,,,,,,,,,,,,,,,118,2022-05-06_12h28.41.713,FishGame,2022.1.1,60.012518608895434,
,36,넌 세련되었어,2,Green,A,5.5,4.6,ScrollDown,ScrollUp,Green.png,4,Positive,Congruent,,,,,0,0,0,0,,,,,,,,,,,,,,,,,,,,,,,,,0,35,35,35,,,,,,,,,,,,,,,,,,,,,,,,,,,,,,,,,,,,,,,,,,,,,,,,,,,,,,,,,,,,,,,,,,,,,1.2021604826052983,1.1517261000117287,594.5827330000466,None,ScrollDown,정답입니다,594.5827330000466,None,594.5827330000466,None,594.5827330000466,None,594.5827330000466,None,595.5959347000462,None,595.5959347000462,596.1065725000226,,,,,,,,,,,,,,,,118,2022-05-06_12h28.41.713,FishGame,2022.1.1,60.012518608895434,
,37,나를 보내줘,6,Green,A,0,0,ScrollUp,ScrollDown,Green.png,4,NonTarget,NonTarget,,,,,0,0,0,0,,,,,,,,,,,,,,,,,,,,,,,,,0,36,36,36,,,,,,,,,,,,,,,,,,,,,,,,,,,,,,,,,,,,,,,,,,,,,,,,,,,,,,,,,,,,,,,,,,,,,1.9768518606821697,1.1132602999568917,596.7484803000116,None,ScrollUp,정답입니다,596.7484803000116,None,596.7484803000116,None,596.7484803000116,None,596.7484803000116,None,597.74482240004,None,597.74482240004,598.2568622000399,,,,,,,,,,,,,,,,118,2022-05-06_12h28.41.713,FishGame,2022.1.1,60.012518608895434,
,38,넌 확고해,3,Orange,B,4.708333333333334,4.566666666666666,ScrollUp,ScrollDown,Orange.png,4,Neutral,Neutral,,,,,0,0,0,0,,,,,,,,,,,,,,,,,,,,,,,,,0,37,37,37,,,,,,,,,,,,,,,,,,,,,,,,,,,,,,,,,,,,,,,,,,,,,,,,,,,,,,,,,,,,,,,,,,,,,2,0.9988898999872617,598.9109513000003,None,ScrollUp,정답입니다,598.9109513000003,None,598.9109513000003,None,598.9109513000003,None,598.9109513000003,None,599.7777346000075,None,599.7777346000075,600.290243400028,,,,,,,,,,,,,,,,118,2022-05-06_12h28.41.713,FishGame,2022.1.1,60.012518608895434,
,39,넌 이해심이 많아,1,Orange,B,6.041666666666668,5.533333333333333,ScrollUp,ScrollDown,Orange.png,4,Positive,Incongruent,,,,,0,0,0,0,,,,,,,,,,,,,,,,,,,,,,,,,0,38,38,38,,,,,,,,,,,,,,,,,,,,,,,,,,,,,,,,,,,,,,,,,,,,,,,,,,,,,,,,,,,,,,,,,,,,,2,1.025923800014425,600.9333011000417,None,ScrollUp,정답입니다,600.9333011000417,None,600.9333011000417,None,600.9333011000417,None,600.9333011000417,None,601.8406654000282,None,601.8406654000282,602.3401333999936,,,,,,,,,,,,,,,,118,2022-05-06_12h28.41.713,FishGame,2022.1.1,60.012518608895434,
,40,나를 보내줘,6,Green,A,0,0,ScrollUp,ScrollDown,Green.png,4,NonTarget,NonTarget,,,,,0,0,0,0,,,,,,,,,,,,,,,,,,,,,,,,,0,39,39,39,,,,,,,,,,,,,,,,,,,,,,,,,,,,,,,,,,,,,,,,,,,,,,,,,,,,,,,,,,,,,,,,,,,,,2,1.164994899998419,602.977156500041,None,ScrollUp,정답입니다,602.977156500041,None,602.977156500041,None,602.977156500041,None,602.977156500041,None,604.0282630000147,None,604.0282630000147,604.5404165000073,,,,,,,,,,,,,,,,118,2022-05-06_12h28.41.713,FishGame,2022.1.1,60.012518608895434,
,41,넌 거칠어,4,Green,A,2.625,3.033333333333333,ScrollDown,ScrollUp,Green.png,4,Negative,Incongruent,,,,,0,0,0,0,,,,,,,,,,,,,,,,,,,,,,,,,0,40,40,40,,,,,,,,,,,,,,,,,,,,,,,,,,,,,,,,,,,,,,,,,,,,,,,,,,,,,,,,,,,,,,,,,,,,,1.0123456915219624,1.1073141999659128,605.1796619000379,None,ScrollDown,정답입니다,605.1796619000379,None,605.1796619000379,None,605.1796619000379,None,605.1796619000379,None,606.1732742000022,None,606.1732742000022,606.6736321999924,,,,,,,,,,,,,,,,118,2022-05-06_12h28.41.713,FishGame,2022.1.1,60.012518608895434,
,42,넌 변덕맞아,5,Orange,B,2.75,2.166666666666667,ScrollUp,ScrollDown,Orange.png,4,Negative,Congruent,,,,,0,0,0,0,,,,,,,,,,,,,,,,,,,,,,,,,0,41,41,41,,,,,,,,,,,,,,,,,,,,,,,,,,,,,,,,,,,,,,,,,,,,,,,,,,,,,,,,,,,,,,,,,,,,,2,0.9872218000236899,607.3333431000356,None,ScrollUp,정답입니다,607.3333431000356,None,607.3333431000356,None,607.3333431000356,None,607.3333431000356,None,608.1899423000286,None,608.1899423000286,608.6901437999913,,,,,,,,,,,,,,,,118,2022-05-06_12h28.41.713,FishGame,2022.1.1,60.012518608895434,
,43,나를 데려가줘,6,Orange,B,0,0,ScrollDown,ScrollUp,Orange.png,4,NonTarget,NonTarget,,,,,0,0,0,0,,,,,,,,,,,,,,,,,,,,,,,,,0,42,42,42,,,,,,,,,,,,,,,,,,,,,,,,,,,,,,,,,,,,,,,,,,,,,,,,,,,,,,,,,,,,,,,,,,,,,1.174382706483205,1.2332243000273593,609.3345840999973,None,ScrollDown,정답입니다,609.3345840999973,None,609.3345840999973,None,609.3345840999973,None,609.3345840999973,None,610.4446338000125,None,610.4446338000125,610.9566190000041,,,,,,,,,,,,,,,,118,2022-05-06_12h28.41.713,FishGame,2022.1.1,60.012518608895434,
,44,넌 외로워,4,Orange,B,2.833333333333333,3.3,ScrollUp,ScrollDown,Orange.png,4,Negative,Congruent,,,,,0,0,0,0,,,,,,,,,,,,,,,,,,,,,,,,,0,43,43,43,,,,,,,,,,,,,,,,,,,,,,,,,,,,,,,,,,,,,,,,,,,,,,,,,,,,,,,,,,,,,,,,,,,,,2,1.126013699977193,611.6061220000265,None,ScrollUp,정답입니다,611.6061220000265,None,611.6061220000265,None,611.6061220000265,None,611.6061220000265,None,612.6072468000348,None,612.6072468000348,613.1073398000444,,,,,,,,,,,,,,,,118,2022-05-06_12h28.41.713,FishGame,2022.1.1,60.012518608895434,
,1,넌 불평스러워,5,Green,A,2.25,2.066666666666667,ScrollDown,ScrollUp,Green.png,5,Negative,Incongruent,,,,,0,0,0,0,,,,,,,,,,,,,,,,,,,,,,,,,,,,,0,0,0,0,,,,,,,,,,,,,,,,,,,,,,,,649.2579738000059,650.7581498000072,650.7914606000413,651.7415552000166,651.7911931000417,652.7416073000059,652.7416073000059,None,,,,,,,,,,,,,,,,,,,,,,,,,,,,,,,,,,1.2422839452823002,1.0704917999682948,653.9077158000437,None,ScrollDown,정답입니다,653.9077158000437,None,653.9077158000437,None,653.9077158000437,None,653.9077158000437,None,654.8083135000197,None,654.8083135000197,655.3083721000003,613.607274000009,None,613.607274000009,None,-0.0027777778,-0.09166667,1,0,0,0.01583921001292765,None,643.6077629000065,None,,,118,2022-05-06_12h28.41.713,FishGame,2022.1.1,60.012518608895434,
,2,나를 보내줘,6,Green,A,0,0,ScrollUp,ScrollDown,Green.png,5,NonTarget,NonTarget,,,,,0,0,0,0,,,,,,,,,,,,,,,,,,,,,,,,,,,,,0,1,1,1,,,,,,,,,,,,,,,,,,,,,,,,,,,,,,,,,,,,,,,,,,,,,,,,,,,,,,,,,,,,,,,,,1.8117283930381138,1.082054300000891,655.9490720000467,None,ScrollUp,정답입니다,655.9490720000467,None,655.9490720000467,None,655.9490720000467,None,655.9490720000467,None,656.9124928000383,None,656.9124928000383,657.4249684000388,,,,,,,,,,,,,,,,118,2022-05-06_12h28.41.713,FishGame,2022.1.1,60.012518608895434,
,3,넌 다재다능해,2,Orange,B,6.208333333333333,4.5,ScrollUp,ScrollDown,Orange.png,5,Positive,Incongruent,,,,,0,0,0,0,,,,,,,,,,,,,,,,,,,,,,,,,,,,,0,2,2,2,,,,,,,,,,,,,,,,,,,,,,,,,,,,,,,,,,,,,,,,,,,,,,,,,,,,,,,,,,,,,,,,,1.8101851791143417,1.0174107999773696,658.0727060000063,None,ScrollUp,정답입니다,658.0727060000063,None,658.0727060000063,None,658.0727060000063,None,658.0727060000063,None,658.9714479999966,None,658.9714479999966,659.4746017000289,,,,,,,,,,,,,,,,118,2022-05-06_12h28.41.713,FishGame,2022.1.1,60.012518608895434,
,4,넌 과감해,3,Green,A,4.833333333333334,4.6,ScrollDown,ScrollUp,Green.png,5,Neutral,Neutral,,,,,0,0,0,0,,,,,,,,,,,,,,,,,,,,,,,,,,,,,0,3,3,3,,,,,,,,,,,,,,,,,,,,,,,,,,,,,,,,,,,,,,,,,,,,,,,,,,,,,,,,,,,,,,,,,1.3070987686514854,0.8867121000075713,660.1182367000147,None,ScrollDown,정답입니다,660.1182367000147,None,660.1182367000147,None,660.1182367000147,None,660.1182367000147,None,660.8882060000324,None,660.8882060000324,661.391640899994,,,,,,,,,,,,,,,,118,2022-05-06_12h28.41.713,FishGame,2022.1.1,60.012518608895434,
,5,넌 고분고분해,3,Orange,B,3.75,4.033333333333333,ScrollUp,ScrollDown,Orange.png,5,Neutral,Neutral,,,,,0,0,0,0,,,,,,,,,,,,,,,,,,,,,,,,,,,,,0,4,4,4,,,,,,,,,,,,,,,,,,,,,,,,,,,,,,,,,,,,,,,,,,,,,,,,,,,,,,,,,,,,,,,,,1.6944444452722869,0.9593867000075988,662.0490317000076,None,ScrollUp,정답입니다,662.0490317000076,None,662.0490317000076,None,662.0490317000076,None,662.0490317000076,None,662.8747146000387,None,662.8747146000387,663.3748737000278,,,,,,,,,,,,,,,,118,2022-05-06_12h28.41.713,FishGame,2022.1.1,60.012518608895434,
,6,나를 보내줘,6,Green,A,0,0,ScrollUp,ScrollDown,Green.png,5,NonTarget,NonTarget,,,,,0,0,0,0,,,,,,,,,,,,,,,,,,,,,,,,,,,,,0,5,5,5,,,,,,,,,,,,,,,,,,,,,,,,,,,,,,,,,,,,,,,,,,,,,,,,,,,,,,,,,,,,,,,,,1.9012345770994823,1.1052862999495119,664.0117456000298,None,ScrollUp,정답입니다,664.0117456000298,None,664.0117456000298,None,664.0117456000298,None,664.0117456000298,None,665.0084107000148,None,665.0084107000148,665.5086661000387,,,,,,,,,,,,,,,,118,2022-05-06_12h28.41.713,FishGame,2022.1.1,60.012518608895434,
,7,넌 잘 잊어,4,Green,A,3,3.7,ScrollDown,ScrollUp,Green.png,5,Negative,Incongruent,,,,,0,0,0,0,,,,,,,,,,,,,,,,,,,,,,,,,,,,,0,6,6,6,,,,,,,,,,,,,,,,,,,,,,,,,,,,,,,,,,,,,,,,,,,,,,,,,,,,,,,,,,,,,,,,,1.3055555547277131,1.0569726999965496,666.1532399000134,None,ScrollDown,정답입니다,666.1532399000134,None,666.1532399000134,None,666.1532399000134,None,666.1532399000134,None,667.0917414000141,None,667.0917414000141,667.5915247999947,,,,,,,,,,,,,,,,118,2022-05-06_12h28.41.713,FishGame,2022.1.1,60.012518608895434,
,8,넌 탐구심이없어,4,Orange,B,2.833333333333333,3.066666666666667,ScrollUp,ScrollDown,Orange.png,5,Negative,Congruent,,,,,0,0,0,0,,,,,,,,,,,,,,,,,,,,,,,,,,,,,0,7,7,7,,,,,,,,,,,,,,,,,,,,,,,,,,,,,,,,,,,,,,,,,,,,,,,,,,,,,,,,,,,,,,,,,1.8657407313585281,0.9513837000122294,668.2393501000479,None,ScrollUp,정답입니다,668.2393501000479,None,668.2393501000479,None,668.2393501000479,None,668.2393501000479,None,669.0718931000447,None,669.0718931000447,669.5749969000462,,,,,,,,,,,,,,,,118,2022-05-06_12h28.41.713,FishGame,2022.1.1,60.012518608895434,
,9,나를 데려가줘,6,Orange,B,0,0,ScrollDown,ScrollUp,Orange.png,5,NonTarget,NonTarget,,,,,0,0,0,0,,,,,,,,,,,,,,,,,,,,,,,,,,,,,0,8,8,8,,,,,,,,,,,,,,,,,,,,,,,,,,,,,,,,,,,,,,,,,,,,,,,,,,,,,,,,,,,,,,,,,1.1728395173947017,1.2066066000261344,670.2200861000456,None,ScrollDown,정답입니다,670.2200861000456,None,670.2200861000456,None,670.2200861000456,None,670.2200861000456,None,671.3081756000174,None,671.3081756000174,671.8084515000228,,,,,,,,,,,,,,,,118,2022-05-06_12h28.41.713,FishGame,2022.1.1,60.012518608895434,
,10,넌 참되어,2,Green,A,6.041666666666664,4.733333333333333,ScrollDown,ScrollUp,Green.png,5,Positive,Congruent,,,,,0,0,0,0,,,,,,,,,,,,,,,,,,,,,,,,,,,,,0,9,9,9,,,,,,,,,,,,,,,,,,,,,,,,,,,,,,,,,,,,,,,,,,,,,,,,,,,,,,,,,,,,,,,,,1.182098776102066,0.991241599956993,672.4543749000295,None,ScrollDown,정답입니다,672.4543749000295,None,672.4543749000295,None,672.4543749000295,None,672.4543749000295,None,673.325186000031,None,673.325186000031,673.8251333000371,,,,,,,,,,,,,,,,118,2022-05-06_12h28.41.713,FishGame,2022.1.1,60.012518608895434,
,11,넌 생기있어,1,Orange,B,5.875,5.633333333333334,ScrollUp,ScrollDown,Orange.png,5,Positive,Incongruent,,,,,0,0,0,0,,,,,,,,,,,,,,,,,,,,,,,,,,,,,0,10,10,10,,,,,,,,,,,,,,,,,,,,,,,,,,,,,,,,,,,,,,,,,,,,,,,,,,,,,,,,,,,,,,,,,1.9274691144625347,1.0074696999508888,674.4707114000339,None,ScrollUp,정답입니다,674.4707114000339,None,674.4707114000339,None,674.4707114000339,None,674.4707114000339,None,675.3584357000072,None,675.3584357000072,675.8587723000092,,,,,,,,,,,,,,,,118,2022-05-06_12h28.41.713,FishGame,2022.1.1,60.012518608895434,
,12,넌 비사교적이야,4,Orange,B,2.875,2.9,ScrollUp,ScrollDown,Orange.png,5,Negative,Congruent,,,,,0,0,0,0,,,,,,,,,,,,,,,,,,,,,,,,,,,,,0,11,11,11,,,,,,,,,,,,,,,,,,,,,,,,,,,,,,,,,,,,,,,,,,,,,,,,,,,,,,,,,,,,,,,,,1.8827160596847534,0.9418049000087194,676.5045897000236,None,ScrollUp,정답입니다,676.5045897000236,None,676.5045897000236,None,676.5045897000236,None,676.5045897000236,None,677.3252670000074,None,677.3252670000074,677.8255750000244,,,,,,,,,,,,,,,,118,2022-05-06_12h28.41.713,FishGame,2022.1.1,60.012518608895434,
,13,나를 데려가줘,6,Orange,B,0,0,ScrollDown,ScrollUp,Orange.png,5,NonTarget,NonTarget,,,,,0,0,0,0,,,,,,,,,,,,,,,,,,,,,,,,,,,,,0,12,12,12,,,,,,,,,,,,,,,,,,,,,,,,,,,,,,,,,,,,,,,,,,,,,,,,,,,,,,,,,,,,,,,,,1.2731481492519379,0.9922374000307173,678.4651664000121,None,ScrollDown,정답입니다,678.4651664000121,None,678.4651664000121,None,678.4651664000121,None,678.4651664000121,None,679.342002600024,None,679.342002600024,679.8418474000064,,,,,,,,,,,,,,,,118,2022-05-06_12h28.41.713,FishGame,2022.1.1,60.012518608895434,
,14,넌 고독해,4,Green,A,2.916666666666667,3.233333333333333,ScrollDown,ScrollUp,Green.png,5,Negative,Incongruent,,,,,0,0,0,0,,,,,,,,,,,,,,,,,,,,,,,,,,,,,0,13,13,13,,,,,,,,,,,,,,,,,,,,,,,,,,,,,,,,,,,,,,,,,,,,,,,,,,,,,,,,,,,,,,,,,1.2947530820965767,0.8490258000092581,680.4784891000018,None,ScrollDown,정답입니다,680.4784891000018,None,680.4784891000018,None,680.4784891000018,None,680.4784891000018,None,681.2137526000151,None,681.2137526000151,681.7254535999964,,,,,,,,,,,,,,,,118,2022-05-06_12h28.41.713,FishGame,2022.1.1,60.012518608895434,
,15,넌 신경질적이야,5,Orange,B,2.375,2.233333333333333,ScrollUp,ScrollDown,Orange.png,5,Negative,Congruent,,,,,0,0,0,0,,,,,,,,,,,,,,,,,,,,,,,,,,,,,0,14,14,14,,,,,,,,,,,,,,,,,,,,,,,,,,,,,,,,,,,,,,,,,,,,,,,,,,,,,,,,,,,,,,,,,1.7160493781169257,0.9850083999917842,682.385379000043,None,ScrollUp,정답입니다,682.385379000043,None,682.385379000043,None,682.385379000043,None,682.385379000043,None,683.2309590000077,None,683.2309590000077,683.7419799999916,,,,,,,,,,,,,,,,118,2022-05-06_12h28.41.713,FishGame,2022.1.1,60.012518608895434,
,16,넌 똑똑해,2,Orange,B,5.666666666666667,3.966666666666667,ScrollUp,ScrollDown,Orange.png,5,Positive,Incongruent,,,,,0,0,0,0,,,,,,,,,,,,,,,,,,,,,,,,,,,,,0,15,15,15,,,,,,,,,,,,,,,,,,,,,,,,,,,,,,,,,,,,,,,,,,,,,,,,,,,,,,,,,,,,,,,,,1.9490740597248077,1.0260130000533536,684.3886229000054,None,ScrollUp,정답입니다,684.3886229000054,None,684.3886229000054,None,684.3886229000054,None,684.3886229000054,None,685.2920424000476,None,685.2920424000476,685.7921690000221,,,,,,,,,,,,,,,,118,2022-05-06_12h28.41.713,FishGame,2022.1.1,60.012518608895434,
,17,나를 보내줘,6,Green,A,0,0,ScrollUp,ScrollDown,Green.png,5,NonTarget,NonTarget,,,,,0,0,0,0,,,,,,,,,,,,,,,,,,,,,,,,,,,,,0,16,16,16,,,,,,,,,,,,,,,,,,,,,,,,,,,,,,,,,,,,,,,,,,,,,,,,,,,,,,,,,,,,,,,,,1.8333333383003871,1.2842034999630414,686.4251123000286,None,ScrollUp,정답입니다,686.4251123000286,None,686.4251123000286,None,686.4251123000286,None,686.4251123000286,None,687.605454900011,None,687.605454900011,688.1086872000014,,,,,,,,,,,,,,,,118,2022-05-06_12h28.41.713,FishGame,2022.1.1,60.012518608895434,
,18,넌 협조적이야,1,Green,A,5.625,5.666666666666667,ScrollDown,ScrollUp,Green.png,5,Positive,Congruent,,,,,0,0,0,0,,,,,,,,,,,,,,,,,,,,,,,,,,,,,0,17,17,17,,,,,,,,,,,,,,,,,,,,,,,,,,,,,,,,,,,,,,,,,,,,,,,,,,,,,,,,,,,,,,,,,1.2237654278675716,1.151817299949471,688.7584010999999,None,ScrollDown,정답입니다,688.7584010999999,None,688.7584010999999,None,688.7584010999999,None,688.7584010999999,None,689.837370800029,None,689.837370800029,690.3422512999969,,,,,,,,,,,,,,,,118,2022-05-06_12h28.41.713,FishGame,2022.1.1,60.012518608895434,
,19,나를 데려가줘,6,Orange,B,0,0,ScrollDown,ScrollUp,Orange.png,5,NonTarget,NonTarget,,,,,0,0,0,0,,,,,,,,,,,,,,,,,,,,,,,,,,,,,0,18,18,18,,,,,,,,,,,,,,,,,,,,,,,,,,,,,,,,,,,,,,,,,,,,,,,,,,,,,,,,,,,,,,,,,1.3379629602034888,1.04166799999075,690.9832926000236,None,ScrollDown,정답입니다,690.9832926000236,None,690.9832926000236,None,690.9832926000236,None,690.9832926000236,None,691.9089165000478,None,691.9089165000478,692.4086331000435,,,,,,,,,,,,,,,,118,2022-05-06_12h28.41.713,FishGame,2022.1.1,60.012518608895434,
,20,넌 몰인정해,5,Orange,B,2.541666666666667,2.066666666666667,ScrollUp,ScrollDown,Orange.png,5,Negative,Congruent,,,,,0,0,0,0,,,,,,,,,,,,,,,,,,,,,,,,,,,,,0,19,19,19,,,,,,,,,,,,,,,,,,,,,,,,,,,,,,,,,,,,,,,,,,,,,,,,,,,,,,,,,,,,,,,,,1.7885802586873372,1.098414700012654,693.0550365000381,None,ScrollUp,정답입니다,693.0550365000381,None,693.0550365000381,None,693.0550365000381,None,693.0550365000381,None,694.030384200043,None,694.030384200043,694.5424461000366,,,,,,,,,,,,,,,,118,2022-05-06_12h28.41.713,FishGame,2022.1.1,60.012518608895434,
,21,나를 데려가줘,6,Orange,B,0,0,ScrollDown,ScrollUp,Orange.png,5,NonTarget,NonTarget,,,,,0,0,0,0,,,,,,,,,,,,,,,,,,,,,,,,,,,,,0,20,20,20,,,,,,,,,,,,,,,,,,,,,,,,,,,,,,,,,,,,,,,,,,,,,,,,,,,,,,,,,,,,,,,,,1.2206790000200272,1.1026575000141747,695.1804199000471,None,ScrollDown,정답입니다,695.1804199000471,None,695.1804199000471,None,695.1804199000471,None,695.1804199000471,None,696.1723285000189,None,696.1723285000189,696.675630200014,,,,,,,,,,,,,,,,118,2022-05-06_12h28.41.713,FishGame,2022.1.1,60.012518608895434,
,22,넌 순진해,3,Orange,B,4.125,4.166666666666667,ScrollUp,ScrollDown,Orange.png,5,Neutral,Neutral,,,,,0,0,0,0,,,,,,,,,,,,,,,,,,,,,,,,,,,,,0,21,21,21,,,,,,,,,,,,,,,,,,,,,,,,,,,,,,,,,,,,,,,,,,,,,,,,,,,,,,,,,,,,,,,,,1.9320987562338512,1.0234346999786794,697.319762500003,None,ScrollUp,정답입니다,697.319762500003,None,697.319762500003,None,697.319762500003,None,697.319762500003,None,698.2253895000322,None,698.2253895000322,698.7251979000284,,,,,,,,,,,,,,,,118,2022-05-06_12h28.41.713,FishGame,2022.1.1,60.012518608895434,
,23,넌 신뢰할만해,1,Green,A,6.625,5.533333333333333,ScrollDown,ScrollUp,Green.png,5,Positive,Congruent,,,,,0,0,0,0,,,,,,,,,,,,,,,,,,,,,,,,,,,,,0,22,22,22,,,,,,,,,,,,,,,,,,,,,,,,,,,,,,,,,,,,,,,,,,,,,,,,,,,,,,,,,,,,,,,,,1.28086419403553,0.9256138000055216,699.3691446000012,None,ScrollDown,정답입니다,699.3691446000012,None,699.3691446000012,None,699.3691446000012,None,699.3691446000012,None,700.1755471000215,None,700.1755471000215,700.6757614000235,,,,,,,,,,,,,,,,118,2022-05-06_12h28.41.713,FishGame,2022.1.1,60.012518608895434,
