name,TrialNum,Word,WordCategory,FishType,WordList,WordValence,WordReputation,CorrectResp,IncorrectResp,FishTypeFile,Round,WordType,Condition,LoopforOrange.thisRepN,LoopforOrange.thisTrialN,LoopforOrange.thisN,LoopforOrange.thisIndex,OrangeInstLoop.thisRepN,OrangeInstLoop.thisTrialN,OrangeInstLoop.thisN,OrangeInstLoop.thisIndex,OrangePrac.thisRepN,OrangePrac.thisTrialN,OrangePrac.thisN,OrangePrac.thisIndex,temp1.thisRepN,temp1.thisTrialN,temp1.thisN,temp1.thisIndex,OrangeRound1.thisRepN,OrangeRound1.thisTrialN,OrangeRound1.thisN,OrangeRound1.thisIndex,OrangeRound2.thisRepN,OrangeRound2.thisTrialN,OrangeRound2.thisN,OrangeRound2.thisIndex,OrangeRound3.thisRepN,OrangeRound3.thisTrialN,OrangeRound3.thisN,OrangeRound3.thisIndex,OrangeRound4.thisRepN,OrangeRound4.thisTrialN,OrangeRound4.thisN,OrangeRound4.thisIndex,OrangeRound5.thisRepN,OrangeRound5.thisTrialN,OrangeRound5.thisN,OrangeRound5.thisIndex,LoopForGreen.thisRepN,LoopForGreen.thisTrialN,LoopForGreen.thisN,LoopForGreen.thisIndex,text_2.started,text_2.stopped,text_3.started,text_3.stopped,key_resp.keys,key_resp.rt,key_resp.started,key_resp.stopped,PassI_2.started,PassI_2.stopped,PassInst_2.keys,PassInst_2.rt,PassInst_2.started,PassInst_2.stopped,mouse_2.x,mouse_2.y,mouse_2.leftButton,mouse_2.midButton,mouse_2.rightButton,mouse_2.started,mouse_2.stopped,image.started,image.stopped,text_5.started,text_5.stopped,text_6.started,text_6.stopped,text_7.started,text_7.stopped,text_8.started,text_8.stopped,slider_2.response,slider_2.rt,slider_2.started,slider_2.stopped,Response_2,Feedback_2,BackGround_2.started,BackGround_2.stopped,Fish_2.started,Fish_2.stopped,WordBox_2.started,WordBox_2.stopped,Words_2.started,Words_2.stopped,BackGround_Feedback_2.started,BackGround_Feedback_2.stopped,Feedbacks_2.started,Feedbacks_2.stopped,Continue_or_not.keys,Continue_or_not.rt,Continue_or_not.started,Continue_or_not.stopped,image_3.started,image_3.stopped,mouse_3.x,mouse_3.y,mouse_3.leftButton,mouse_3.midButton,mouse_3.rightButton,mouse_3.started,mouse_3.stopped,startmain.started,startmain.stopped,slider.response,slider.rt,slider.started,slider.stopped,Response,Feedback,BackGround.started,BackGround.stopped,Fish.started,Fish.stopped,WordBox.started,WordBox.stopped,Words.started,Words.stopped,BackGround_Feedback.started,BackGround_Feedback.stopped,Feedbacks.started,Feedbacks.stopped,text.started,text.stopped,break_interval.started,break_interval.stopped,mouse.x,mouse.y,mouse.leftButton,mouse.midButton,mouse.rightButton,mouse.started,mouse.stopped,stratnextround.started,stratnextround.stopped,endgame.started,endgame.stopped,participant,date,expName,psychopyVersion,frameRate,
,,,,,,,,,,,,,,,,,,,,,,,,,,,,,,,,,,,,,,,,,,,,,,,,,,,,,,24.343953100033104,None,24.343953100033104,None,space,1.7758684000000358,24.8020705000381,None,,,,,,,,,,,,,,,,,,,,,,,,,,,,,,,,,,,,,,,,,,,,,,,,,,,,,,,,,,,,,,,,,,,,,,,,,,,,,,,,,,,,,,,,,,119,2022-05-06_13h53.02.098,FishGame,2022.1.1,60.10056025350271,
물고기과제_instruction(참가자용)OrangeVersion.mp4,,,,,,,,,,,,,,0,0,0,0,0,0,0,0,,,,,,,,,,,,,,,,,,,,,,,,,,,,,,,,,,,,,,,,,92.88524189998861,None,n,27.11393940000562,92.88524189998861,None,,,,,,,,,,,,,,,,,,,,,,,,,,,,,,,,,,,,,,,,,,,,,,,,,,,,,,,,,,,,,,,,,,,,,,,,,,,,,,,,,,,,119,2022-05-06_13h53.02.098,FishGame,2022.1.1,60.10056025350271,
,1,넌 교활해,5,Green,B,2.333333333333333,2.133333333333333,ScrollUp,ScrollDown,Green.png,practice,,,0,0,0,0,,,,,0,0,0,0,0,0,0,0,,,,,,,,,,,,,,,,,,,,,,,,,,,,,,,,,,,,,,,0.058333334,-0.22592592,1,0,0,0.5125345999840647,None,120.02130590000888,None,126.53798890003236,128.03848149999976,128.07157890003873,129.02161900000647,129.07163630001014,130.021990200039,130.021990200039,None,2,2.917772300017532,131.19770670001162,None,ScrollUp,정답입니다,131.19770670001162,None,131.19770670001162,None,131.19770670001162,None,131.19770670001162,None,133.9387944000191,None,133.9387944000191,134.4380325000384,,,,,,,,,,,,,,,,,,,,,,,,,,,,,,,,,,,,,,,,,,,,,,,,,119,2022-05-06_13h53.02.098,FishGame,2022.1.1,60.10056025350271,
,2,넌 슬기로워,2,Orange,A,6.166666666666667,4.1,ScrollDown,ScrollUp,Orange.png,practice,,,0,0,0,0,,,,,0,0,0,0,0,1,1,1,,,,,,,,,,,,,,,,,,,,,,,,,,,,,,,,,,,,,,,,,,,,,,,,,,,,,,,,1,1.7665951999952085,135.0830324999988,None,ScrollDown,정답입니다,135.0830324999988,None,135.0830324999988,None,135.0830324999988,None,135.0830324999988,None,136.7264065000345,None,136.7264065000345,137.23873440001626,,,,,,,,,,,,,,,,,,,,,,,,,,,,,,,,,,,,,,,,,,,,,,,,,119,2022-05-06_13h53.02.098,FishGame,2022.1.1,60.10056025350271,
,3,나를 보내줘,6,Orange,A,0,0,ScrollUp,ScrollDown,Orange.png,practice,,,0,0,0,0,,,,,0,0,0,0,0,2,2,2,,,,,,,,,,,,,,,,,,,,,,,,,,,,,,,,,,,,,,,,,,,,,,,,,,,,,,,,2,1.3990812000120059,137.9029370000353,None,ScrollUp,정답입니다,137.9029370000353,None,137.9029370000353,None,137.9029370000353,None,137.9029370000353,None,139.1596155000152,None,139.1596155000152,139.67187160003232,,,,,,,,,,,,,,,,,,,,,,,,,,,,,,,,,,,,,,,,,,,,,,,,,119,2022-05-06_13h53.02.098,FishGame,2022.1.1,60.10056025350271,
,4,나를 데려가줘,6,Green,B,0,0,ScrollDown,ScrollUp,Green.png,practice,,,0,0,0,0,,,,,0,0,0,0,0,3,3,3,,,,,,,,,,,,,,,,,,,,,,,,,,,,,,,,,,,,,,,,,,,,,,,,,,,,,,,,1.1064814925193787,1.2730168999987654,140.31178640003782,None,ScrollDown,정답입니다,140.31178640003782,None,140.31178640003782,None,140.31178640003782,None,140.31178640003782,None,141.47169490001397,None,141.47169490001397,141.97186590003548,,,,,,,,,,,,,,,,,,,,,,,,,,,,,,,,,,,,,,,,,,,,,,,,,119,2022-05-06_13h53.02.098,FishGame,2022.1.1,60.10056025350271,
,1,넌 교활해,5,Green,B,2.333333333333333,2.133333333333333,ScrollUp,ScrollDown,Green.png,practice,,,0,0,0,0,,,,,0,0,0,0,,,,,,,,,,,,,,,,,,,,,,,,,,,,,,,,,,,,,,,,,,,,,,,,,,,,,,,,,,,,,,,,,,,,,,,,,,,,,,n,16.096093399974052,142.4717915999936,None,142.4717915999936,None,,,,,,,,,,,,,,,,,,,,,,,,,,,,,,,,,,,,,,,,,,,119,2022-05-06_13h53.02.098,FishGame,2022.1.1,60.10056025350271,
,1,넌 따뜻해,1,Green,B,6.083333333333333,5.6,ScrollUp,ScrollDown,Green.png,1,Positive,Incongruent,0,0,0,0,,,,,,,,,,,,,0,0,0,0,,,,,,,,,,,,,,,,,,,,,,,,,,,,,,,,,,,,,,,,,,,,163.23857970000245,164.7389977000421,164.77203759999247,165.72228819999145,165.77226440003142,166.72243500000332,166.72243500000332,None,,,,,,,,,,,,,,,,,,,,,,,,,0.10092592,-0.30277777,1,0,0,0.31373099994380027,None,158.58888420002768,None,2,1.4970952000003308,167.9072448000079,None,ScrollUp,정답입니다,167.9072448000079,None,167.9072448000079,None,167.9072448000079,None,167.9072448000079,None,169.22019710001769,None,169.22019710001769,169.72194100002525,,,,,,,,,,,,,,,,119,2022-05-06_13h53.02.098,FishGame,2022.1.1,60.10056025350271,
,2,넌 기품있어,2,Green,B,5.791666666666668,4.5,ScrollUp,ScrollDown,Green.png,1,Positive,Incongruent,0,0,0,0,,,,,,,,,,,,,0,1,1,1,,,,,,,,,,,,,,,,,,,,,,,,,,,,,,,,,,,,,,,,,,,,,,,,,,,,,,,,,,,,,,,,,,,,,,,,,,,,,,,,,,,,,2,1.0558175999904051,170.36843880004017,None,ScrollUp,정답입니다,170.36843880004017,None,170.36843880004017,None,170.36843880004017,None,170.36843880004017,None,171.30502520001028,None,171.30502520001028,171.8056641999865,,,,,,,,,,,,,,,,119,2022-05-06_13h53.02.098,FishGame,2022.1.1,60.10056025350271,
,3,나를 보내줘,6,Orange,A,0,0,ScrollUp,ScrollDown,Orange.png,1,NonTarget,NonTarget,0,0,0,0,,,,,,,,,,,,,0,2,2,2,,,,,,,,,,,,,,,,,,,,,,,,,,,,,,,,,,,,,,,,,,,,,,,,,,,,,,,,,,,,,,,,,,,,,,,,,,,,,,,,,,,,,1.9228395223617554,1.4364792000269517,172.45684200001415,None,ScrollUp,정답입니다,172.45684200001415,None,172.45684200001415,None,172.45684200001415,None,172.45684200001415,None,173.76883070002077,None,173.76883070002077,174.27262490004068,,,,,,,,,,,,,,,,119,2022-05-06_13h53.02.098,FishGame,2022.1.1,60.10056025350271,
,4,넌 수동적이야,4,Orange,A,2.833333333333333,2.933333333333333,ScrollDown,ScrollUp,Orange.png,1,Negative,Incongruent,0,0,0,0,,,,,,,,,,,,,0,3,3,3,,,,,,,,,,,,,,,,,,,,,,,,,,,,,,,,,,,,,,,,,,,,,,,,,,,,,,,,,,,,,,,,,,,,,,,,,,,,,,,,,,,,,1,1.701042500033509,174.9267768000136,None,ScrollDown,정답입니다,174.9267768000136,None,174.9267768000136,None,174.9267768000136,None,174.9267768000136,None,176.49369890004164,None,176.49369890004164,177.00599380000494,,,,,,,,,,,,,,,,119,2022-05-06_13h53.02.098,FishGame,2022.1.1,60.10056025350271,
,5,넌 사심이 없어,3,Green,B,4.916666666666666,4.333333333333333,ScrollUp,ScrollDown,Green.png,1,Neutral,Neutral,0,0,0,0,,,,,,,,,,,,,0,4,4,4,,,,,,,,,,,,,,,,,,,,,,,,,,,,,,,,,,,,,,,,,,,,,,,,,,,,,,,,,,,,,,,,,,,,,,,,,,,,,,,,,,,,,2,1.272011399967596,177.64355189999333,None,ScrollUp,정답입니다,177.64355189999333,None,177.64355189999333,None,177.64355189999333,None,177.64355189999333,None,178.8023770999862,None,178.8023770999862,179.30588190001436,,,,,,,,,,,,,,,,119,2022-05-06_13h53.02.098,FishGame,2022.1.1,60.10056025350271,
,6,넌 헤퍼,5,Orange,A,2.458333333333334,2.233333333333333,ScrollDown,ScrollUp,Orange.png,1,Negative,Incongruent,0,0,0,0,,,,,,,,,,,,,0,5,5,5,,,,,,,,,,,,,,,,,,,,,,,,,,,,,,,,,,,,,,,,,,,,,,,,,,,,,,,,,,,,,,,,,,,,,,,,,,,,,,,,,,,,,1.0092592636744182,1.5339563000015914,179.94795579998754,None,ScrollDown,정답입니다,179.94795579998754,None,179.94795579998754,None,179.94795579998754,None,179.94795579998754,None,181.36035959998844,None,181.36035959998844,181.87264810001943,,,,,,,,,,,,,,,,119,2022-05-06_13h53.02.098,FishGame,2022.1.1,60.10056025350271,
,7,넌 말쑥해,3,Orange,A,4.833333333333334,4.333333333333333,ScrollDown,ScrollUp,Orange.png,1,Neutral,Neutral,0,0,0,0,,,,,,,,,,,,,0,6,6,6,,,,,,,,,,,,,,,,,,,,,,,,,,,,,,,,,,,,,,,,,,,,,,,,,,,,,,,,,,,,,,,,,,,,,,,,,,,,,,,,,,,,,1.0123456915219624,1.2661336000310257,182.52034899999853,None,ScrollDown,정답입니다,182.52034899999853,None,182.52034899999853,None,182.52034899999853,None,182.52034899999853,None,183.66059410001617,None,183.66059410001617,184.17305570002645,,,,,,,,,,,,,,,,119,2022-05-06_13h53.02.098,FishGame,2022.1.1,60.10056025350271,
,8,넌 투덜거려,5,Green,B,2.541666666666667,2.266666666666667,ScrollUp,ScrollDown,Green.png,1,Negative,Congruent,0,0,0,0,,,,,,,,,,,,,0,7,7,7,,,,,,,,,,,,,,,,,,,,,,,,,,,,,,,,,,,,,,,,,,,,,,,,,,,,,,,,,,,,,,,,,,,,,,,,,,,,,,,,,,,,,1.7623456716537476,1.2193500000284985,184.81467580003664,None,ScrollUp,정답입니다,184.81467580003664,None,184.81467580003664,None,184.81467580003664,None,184.81467580003664,None,185.91251520003425,None,185.91251520003425,186.4224297000328,,,,,,,,,,,,,,,,119,2022-05-06_13h53.02.098,FishGame,2022.1.1,60.10056025350271,
,9,넌 적극적이야,1,Orange,A,5.708333333333333,5.533333333333333,ScrollDown,ScrollUp,Orange.png,1,Positive,Congruent,0,0,0,0,,,,,,,,,,,,,0,8,8,8,,,,,,,,,,,,,,,,,,,,,,,,,,,,,,,,,,,,,,,,,,,,,,,,,,,,,,,,,,,,,,,,,,,,,,,,,,,,,,,,,,,,,1,2.1242919000214897,187.06418759998633,None,ScrollDown,정답입니다,187.06418759998633,None,187.06418759998633,None,187.06418759998633,None,187.06418759998633,None,189.072426800034,None,189.072426800034,189.5723990999977,,,,,,,,,,,,,,,,119,2022-05-06_13h53.02.098,FishGame,2022.1.1,60.10056025350271,
,10,넌 재미없어,4,Green,B,2.625,2.966666666666667,ScrollUp,ScrollDown,Green.png,1,Negative,Congruent,0,0,0,0,,,,,,,,,,,,,0,9,9,9,,,,,,,,,,,,,,,,,,,,,,,,,,,,,,,,,,,,,,,,,,,,,,,,,,,,,,,,,,,,,,,,,,,,,,,,,,,,,,,,,,,,,2,1.0716189999948256,190.21029750001617,None,ScrollUp,정답입니다,190.21029750001617,None,190.21029750001617,None,190.21029750001617,None,190.21029750001617,None,191.17281660001026,None,191.17281660001026,191.67305959999794,,,,,,,,,,,,,,,,119,2022-05-06_13h53.02.098,FishGame,2022.1.1,60.10056025350271,
,11,넌 명석해,2,Orange,A,5.875,4.033333333333333,ScrollDown,ScrollUp,Orange.png,1,Positive,Congruent,0,0,0,0,,,,,,,,,,,,,0,10,10,10,,,,,,,,,,,,,,,,,,,,,,,,,,,,,,,,,,,,,,,,,,,,,,,,,,,,,,,,,,,,,,,,,,,,,,,,,,,,,,,,,,,,,1,2.090200500038918,192.31441880000057,None,ScrollDown,정답입니다,192.31441880000057,None,192.31441880000057,None,192.31441880000057,None,192.31441880000057,None,194.28950730001088,None,194.28950730001088,194.78907460003393,,,,,,,,,,,,,,,,119,2022-05-06_13h53.02.098,FishGame,2022.1.1,60.10056025350271,
,12,나를 데려가줘,6,Green,B,0,0,ScrollDown,ScrollUp,Green.png,1,NonTarget,NonTarget,0,0,0,0,,,,,,,,,,,,,0,11,11,11,,,,,,,,,,,,,,,,,,,,,,,,,,,,,,,,,,,,,,,,,,,,,,,,,,,,,,,,,,,,,,,,,,,,,,,,,,,,,,,,,,,,,1,1.3098094000015408,195.43146460002754,None,ScrollDown,정답입니다,195.43146460002754,None,195.43146460002754,None,195.43146460002754,None,195.43146460002754,None,196.62289210001472,None,196.62289210001472,197.12347280001268,,,,,,,,,,,,,,,,119,2022-05-06_13h53.02.098,FishGame,2022.1.1,60.10056025350271,
,13,넌 소심해,4,Orange,A,3,3.1,ScrollDown,ScrollUp,Orange.png,1,Negative,Incongruent,0,0,0,0,,,,,,,,,,,,,0,12,12,12,,,,,,,,,,,,,,,,,,,,,,,,,,,,,,,,,,,,,,,,,,,,,,,,,,,,,,,,,,,,,,,,,,,,,,,,,,,,,,,,,,,,,1,1.574401299993042,197.76501420000568,None,ScrollDown,정답입니다,197.76501420000568,None,197.76501420000568,None,197.76501420000568,None,197.76501420000568,None,199.22311300004367,None,199.22311300004367,199.72267960000318,,,,,,,,,,,,,,,,119,2022-05-06_13h53.02.098,FishGame,2022.1.1,60.10056025350271,
,14,넌 합리적이야,2,Orange,A,5.583333333333333,4.733333333333333,ScrollDown,ScrollUp,Orange.png,1,Positive,Congruent,0,0,0,0,,,,,,,,,,,,,0,13,13,13,,,,,,,,,,,,,,,,,,,,,,,,,,,,,,,,,,,,,,,,,,,,,,,,,,,,,,,,,,,,,,,,,,,,,,,,,,,,,,,,,,,,,1,1.3411100000375882,200.37049639999168,None,ScrollDown,정답입니다,200.37049639999168,None,200.37049639999168,None,200.37049639999168,None,200.37049639999168,None,201.58940400002757,None,201.58940400002757,202.0896372999996,,,,,,,,,,,,,,,,119,2022-05-06_13h53.02.098,FishGame,2022.1.1,60.10056025350271,
,15,넌 무자비해,5,Green,B,2.333333333333333,2.1,ScrollUp,ScrollDown,Green.png,1,Negative,Congruent,0,0,0,0,,,,,,,,,,,,,0,14,14,14,,,,,,,,,,,,,,,,,,,,,,,,,,,,,,,,,,,,,,,,,,,,,,,,,,,,,,,,,,,,,,,,,,,,,,,,,,,,,,,,,,,,,1.6265432064731917,1.4415635000332259,202.73058560001664,None,ScrollUp,정답입니다,202.73058560001664,None,202.73058560001664,None,202.73058560001664,None,202.73058560001664,None,204.05603179999162,None,204.05603179999162,204.55643930000952,,,,,,,,,,,,,,,,119,2022-05-06_13h53.02.098,FishGame,2022.1.1,60.10056025350271,
,16,나를 보내줘,6,Orange,A,0,0,ScrollUp,ScrollDown,Orange.png,1,NonTarget,NonTarget,0,0,0,0,,,,,,,,,,,,,0,15,15,15,,,,,,,,,,,,,,,,,,,,,,,,,,,,,,,,,,,,,,,,,,,,,,,,,,,,,,,,,,,,,,,,,,,,,,,,,,,,,,,,,,,,,1.7067901194095612,1.0890242999885231,205.19488490000367,None,ScrollUp,정답입니다,205.19488490000367,None,205.19488490000367,None,205.19488490000367,None,205.19488490000367,None,206.17252720001852,None,206.17252720001852,206.67302849999396,,,,,,,,,,,,,,,,119,2022-05-06_13h53.02.098,FishGame,2022.1.1,60.10056025350271,
,17,넌 현실적이야,3,Green,B,4.608695652173913,4.766666666666667,ScrollUp,ScrollDown,Green.png,1,Neutral,Neutral,0,0,0,0,,,,,,,,,,,,,0,16,16,16,,,,,,,,,,,,,,,,,,,,,,,,,,,,,,,,,,,,,,,,,,,,,,,,,,,,,,,,,,,,,,,,,,,,,,,,,,,,,,,,,,,,,1.6805555572112403,1.44966010004282,207.31810159998713,None,ScrollUp,정답입니다,207.31810159998713,None,207.31810159998713,None,207.31810159998713,None,207.31810159998713,None,208.64422990003368,None,208.64422990003368,209.1564931999892,,,,,,,,,,,,,,,,119,2022-05-06_13h53.02.098,FishGame,2022.1.1,60.10056025350271,
,18,넌 의리있어,1,Green,B,5.833333333333334,5.633333333333334,ScrollUp,ScrollDown,Green.png,1,Positive,Incongruent,0,0,0,0,,,,,,,,,,,,,0,17,17,17,,,,,,,,,,,,,,,,,,,,,,,,,,,,,,,,,,,,,,,,,,,,,,,,,,,,,,,,,,,,,,,,,,,,,,,,,,,,,,,,,,,,,1.8966049353281658,1.2321361000067554,209.79204420000315,None,ScrollUp,정답입니다,209.79204420000315,None,209.79204420000315,None,209.79204420000315,None,209.79204420000315,None,210.91116720001446,None,210.91116720001446,211.42320780002046,,,,,,,,,,,,,,,,119,2022-05-06_13h53.02.098,FishGame,2022.1.1,60.10056025350271,
,19,넌 신경과민이야,5,Orange,A,2.541666666666667,2.166666666666667,ScrollDown,ScrollUp,Orange.png,1,Negative,Incongruent,0,0,0,0,,,,,,,,,,,,,0,18,18,18,,,,,,,,,,,,,,,,,,,,,,,,,,,,,,,,,,,,,,,,,,,,,,,,,,,,,,,,,,,,,,,,,,,,,,,,,,,,,,,,,,,,,1.0462962985038757,1.613540600053966,212.07588930003112,None,ScrollDown,정답입니다,212.07588930003112,None,212.07588930003112,None,212.07588930003112,None,212.07588930003112,None,213.56111720000627,None,213.56111720000627,214.07320580002852,,,,,,,,,,,,,,,,119,2022-05-06_13h53.02.098,FishGame,2022.1.1,60.10056025350271,
,20,넌 편안해,1,Orange,A,5.916666666666666,5.866666666666666,ScrollDown,ScrollUp,Orange.png,1,Positive,Congruent,0,0,0,0,,,,,,,,,,,,,0,19,19,19,,,,,,,,,,,,,,,,,,,,,,,,,,,,,,,,,,,,,,,,,,,,,,,,,,,,,,,,,,,,,,,,,,,,,,,,,,,,,,,,,,,,,1.0385802288850148,1.123571300006006,214.719170700002,None,ScrollDown,정답입니다,214.719170700002,None,214.719170700002,None,214.719170700002,None,214.719170700002,None,215.7233344000415,None,215.7233344000415,216.2233077000128,,,,,,,,,,,,,,,,119,2022-05-06_13h53.02.098,FishGame,2022.1.1,60.10056025350271,
,21,넌 품위있어,2,Green,B,5.291666666666666,4.466666666666667,ScrollUp,ScrollDown,Green.png,1,Positive,Incongruent,0,0,0,0,,,,,,,,,,,,,0,20,20,20,,,,,,,,,,,,,,,,,,,,,,,,,,,,,,,,,,,,,,,,,,,,,,,,,,,,,,,,,,,,,,,,,,,,,,,,,,,,,,,,,,,,,1.7453703681627908,1.0757211000309326,216.86507719999645,None,ScrollUp,정답입니다,216.86507719999645,None,216.86507719999645,None,216.86507719999645,None,216.86507719999645,None,217.82294340000954,None,217.82294340000954,218.3235176000162,,,,,,,,,,,,,,,,119,2022-05-06_13h53.02.098,FishGame,2022.1.1,60.10056025350271,
,22,넌 빈틈없어,3,Orange,A,4.833333333333333,3.966666666666667,ScrollDown,ScrollUp,Orange.png,1,Neutral,Neutral,0,0,0,0,,,,,,,,,,,,,0,21,21,21,,,,,,,,,,,,,,,,,,,,,,,,,,,,,,,,,,,,,,,,,,,,,,,,,,,,,,,,,,,,,,,,,,,,,,,,,,,,,,,,,,,,,1,1.2608644000138156,218.96883880003588,None,ScrollDown,정답입니다,218.96883880003588,None,218.96883880003588,None,218.96883880003588,None,218.96883880003588,None,220.1109943999909,None,220.1109943999909,220.6234414000064,,,,,,,,,,,,,,,,119,2022-05-06_13h53.02.098,FishGame,2022.1.1,60.10056025350271,
,23,넌 상상력없어,4,Green,B,2.833333333333333,3.133333333333333,ScrollUp,ScrollDown,Green.png,1,Negative,Congruent,0,0,0,0,,,,,,,,,,,,,0,22,22,22,,,,,,,,,,,,,,,,,,,,,,,,,,,,,,,,,,,,,,,,,,,,,,,,,,,,,,,,,,,,,,,,,,,,,,,,,,,,,,,,,,,,,1.7638888855775197,1.0240728000062518,221.25939419999486,None,ScrollUp,정답입니다,221.25939419999486,None,221.25939419999486,None,221.25939419999486,None,221.25939419999486,None,222.17355120001594,None,222.17355120001594,222.67335560003994,,,,,,,,,,,,,,,,119,2022-05-06_13h53.02.098,FishGame,2022.1.1,60.10056025350271,
,24,넌 지혜로워,2,Green,B,6.333333333333334,4.633333333333334,ScrollUp,ScrollDown,Green.png,1,Positive,Incongruent,0,0,0,0,,,,,,,,,,,,,0,23,23,23,,,,,,,,,,,,,,,,,,,,,,,,,,,,,,,,,,,,,,,,,,,,,,,,,,,,,,,,,,,,,,,,,,,,,,,,,,,,,,,,,,,,,1.7608024577299755,1.0499144000350498,223.32503750000615,None,ScrollUp,정답입니다,223.32503750000615,None,223.32503750000615,None,223.32503750000615,None,223.32503750000615,None,224.24468669999624,None,224.24468669999624,224.7568379000295,,,,,,,,,,,,,,,,119,2022-05-06_13h53.02.098,FishGame,2022.1.1,60.10056025350271,
,25,넌 시끄러워,4,Orange,A,2.833333333333333,3.033333333333333,ScrollDown,ScrollUp,Orange.png,1,Negative,Incongruent,0,0,0,0,,,,,,,,,,,,,0,24,24,24,,,,,,,,,,,,,,,,,,,,,,,,,,,,,,,,,,,,,,,,,,,,,,,,,,,,,,,,,,,,,,,,,,,,,,,,,,,,,,,,,,,,,1.1527777860562007,1.1965186999877915,225.40669590001926,None,ScrollDown,정답입니다,225.40669590001926,None,225.40669590001926,None,225.40669590001926,None,225.40669590001926,None,226.47821000003023,None,226.47821000003023,226.99023400002625,,,,,,,,,,,,,,,,119,2022-05-06_13h53.02.098,FishGame,2022.1.1,60.10056025350271,
,26,넌 만사태평이야,3,Green,B,4,4.333333333333333,ScrollUp,ScrollDown,Green.png,1,Neutral,Neutral,0,0,0,0,,,,,,,,,,,,,0,25,25,25,,,,,,,,,,,,,,,,,,,,,,,,,,,,,,,,,,,,,,,,,,,,,,,,,,,,,,,,,,,,,,,,,,,,,,,,,,,,,,,,,,,,,1.8549382835626602,1.0532735000015236,227.6320661000209,None,ScrollUp,정답입니다,227.6320661000209,None,227.6320661000209,None,227.6320661000209,None,227.6320661000209,None,228.5640172000276,None,228.5640172000276,229.07368150004186,,,,,,,,,,,,,,,,119,2022-05-06_13h53.02.098,FishGame,2022.1.1,60.10056025350271,
,27,넌 붙임성있어,1,Orange,A,5.708333333333333,5.633333333333334,ScrollDown,ScrollUp,Orange.png,1,Positive,Congruent,0,0,0,0,,,,,,,,,,,,,0,26,26,26,,,,,,,,,,,,,,,,,,,,,,,,,,,,,,,,,,,,,,,,,,,,,,,,,,,,,,,,,,,,,,,,,,,,,,,,,,,,,,,,,,,,,1.0833333333333333,1.1490891999565065,229.71642589999828,None,ScrollDown,정답입니다,229.71642589999828,None,229.71642589999828,None,229.71642589999828,None,229.71642589999828,None,230.7459256000002,None,230.7459256000002,231.25709989998722,,,,,,,,,,,,,,,,119,2022-05-06_13h53.02.098,FishGame,2022.1.1,60.10056025350271,
,28,넌 영리해,2,Orange,A,6,4.033333333333333,ScrollDown,ScrollUp,Orange.png,1,Positive,Congruent,0,0,0,0,,,,,,,,,,,,,0,27,27,27,,,,,,,,,,,,,,,,,,,,,,,,,,,,,,,,,,,,,,,,,,,,,,,,,,,,,,,,,,,,,,,,,,,,,,,,,,,,,,,,,,,,,1.1543209999799728,1.2690925000351854,231.89270480000414,None,ScrollDown,정답입니다,231.89270480000414,None,231.89270480000414,None,231.89270480000414,None,231.89270480000414,None,233.05332669999916,None,233.05332669999916,233.5572445000289,,,,,,,,,,,,,,,,119,2022-05-06_13h53.02.098,FishGame,2022.1.1,60.10056025350271,
,29,넌 열심이야,1,Green,B,6.041666666666667,5.833333333333333,ScrollUp,ScrollDown,Green.png,1,Positive,Incongruent,0,0,0,0,,,,,,,,,,,,,0,28,28,28,,,,,,,,,,,,,,,,,,,,,,,,,,,,,,,,,,,,,,,,,,,,,,,,,,,,,,,,,,,,,,,,,,,,,,,,,,,,,,,,,,,,,1.7762345721324284,1.0691750000114553,234.19492770003853,None,ScrollUp,정답입니다,234.19492770003853,None,234.19492770003853,None,234.19492770003853,None,234.19492770003853,None,235.153411300038,None,235.153411300038,235.65736940002535,,,,,,,,,,,,,,,,119,2022-05-06_13h53.02.098,FishGame,2022.1.1,60.10056025350271,
,30,넌 인기없어,4,Green,B,3,3.3,ScrollUp,ScrollDown,Green.png,1,Negative,Congruent,0,0,0,0,,,,,,,,,,,,,0,29,29,29,,,,,,,,,,,,,,,,,,,,,,,,,,,,,,,,,,,,,,,,,,,,,,,,,,,,,,,,,,,,,,,,,,,,,,,,,,,,,,,,,,,,,1.7700617164373398,0.9998656999669038,236.29958150000311,None,ScrollUp,정답입니다,236.29958150000311,None,236.29958150000311,None,236.29958150000311,None,236.29958150000311,None,237.1781359000015,None,237.1781359000015,237.69091950001894,,,,,,,,,,,,,,,,119,2022-05-06_13h53.02.098,FishGame,2022.1.1,60.10056025350271,
,31,넌 익살스러워,3,Orange,A,4.708333333333334,4.833333333333333,ScrollDown,ScrollUp,Orange.png,1,Neutral,Neutral,0,0,0,0,,,,,,,,,,,,,0,30,30,30,,,,,,,,,,,,,,,,,,,,,,,,,,,,,,,,,,,,,,,,,,,,,,,,,,,,,,,,,,,,,,,,,,,,,,,,,,,,,,,,,,,,,1,1.038819599954877,238.3365088000428,None,ScrollDown,정답입니다,238.3365088000428,None,238.3365088000428,None,238.3365088000428,None,238.3365088000428,None,239.2568596000201,None,239.2568596000201,239.75721800001338,,,,,,,,,,,,,,,,119,2022-05-06_13h53.02.098,FishGame,2022.1.1,60.10056025350271,
,32,넌 이기적이야,5,Green,B,2.291666666666667,2.333333333333333,ScrollUp,ScrollDown,Green.png,1,Negative,Congruent,0,0,0,0,,,,,,,,,,,,,0,31,31,31,,,,,,,,,,,,,,,,,,,,,,,,,,,,,,,,,,,,,,,,,,,,,,,,,,,,,,,,,,,,,,,,,,,,,,,,,,,,,,,,,,,,,1.6496913532416024,1.024384500051383,240.388111200009,None,ScrollUp,정답입니다,240.388111200009,None,240.388111200009,None,240.388111200009,None,240.388111200009,None,241.30716339999344,None,241.30716339999344,241.80723430000944,,,,,,,,,,,,,,,,119,2022-05-06_13h53.02.098,FishGame,2022.1.1,60.10056025350271,
,33,나를 데려가줘,6,Green,B,0,0,ScrollDown,ScrollUp,Green.png,1,NonTarget,NonTarget,0,0,0,0,,,,,,,,,,,,,0,32,32,32,,,,,,,,,,,,,,,,,,,,,,,,,,,,,,,,,,,,,,,,,,,,,,,,,,,,,,,,,,,,,,,,,,,,,,,,,,,,,,,,,,,,,1,1.5470221000141464,242.44152950000716,None,ScrollDown,정답입니다,242.44152950000716,None,242.44152950000716,None,242.44152950000716,None,242.44152950000716,None,243.87859830004163,None,243.87859830004163,244.39057540002977,,,,,,,,,,,,,,,,119,2022-05-06_13h53.02.098,FishGame,2022.1.1,60.10056025350271,
,34,넌 기회주의자야,5,Orange,A,2.875,2.133333333333333,ScrollDown,ScrollUp,Orange.png,1,Negative,Incongruent,0,0,0,0,,,,,,,,,,,,,0,33,33,33,,,,,,,,,,,,,,,,,,,,,,,,,,,,,,,,,,,,,,,,,,,,,,,,,,,,,,,,,,,,,,,,,,,,,,,,,,,,,,,,,,,,,1,1.1506019999505952,245.0374778000405,None,ScrollDown,정답입니다,245.0374778000405,None,245.0374778000405,None,245.0374778000405,None,245.0374778000405,None,246.06181859999197,None,246.06181859999197,246.57391209999332,,,,,,,,,,,,,,,,119,2022-05-06_13h53.02.098,FishGame,2022.1.1,60.10056025350271,
,1,넌 미성숙해,4,Orange,A,3,3.2,ScrollDown,ScrollUp,Orange.png,2,Negative,Incongruent,0,0,0,0,,,,,,,,,,,,,,,,,0,0,0,0,,,,,,,,,,,,,,,,,,,,,,,,,,,,,,,,,,,,,,,,288.9589133000118,290.4583666000399,290.4916219000006,291.44148010003846,291.4917753000045,292.441967700026,292.441967700026,None,,,,,,,,,,,,,,,,,,,,,,,,,,,,,,,,,,1.0570987462997437,1.3551531999837607,293.61251400003675,None,ScrollDown,정답입니다,293.61251400003675,None,293.61251400003675,None,293.61251400003675,None,293.61251400003675,None,294.7916506000329,None,294.7916506000329,295.292022300011,247.07403389998944,None,247.07403389998944,None,0.12962963,-0.08148148,1,0,0,0.016165600041858852,None,277.07480490003945,None,,,119,2022-05-06_13h53.02.098,FishGame,2022.1.1,60.10056025350271,
,2,넌 반사회적이야,5,Green,B,2.416666666666667,2.033333333333333,ScrollUp,ScrollDown,Green.png,2,Negative,Congruent,0,0,0,0,,,,,,,,,,,,,,,,,0,1,1,1,,,,,,,,,,,,,,,,,,,,,,,,,,,,,,,,,,,,,,,,,,,,,,,,,,,,,,,,,,,,,,,,,,,,,,,,,,,,,,,,,1.7453703681627908,0.863531699986197,295.93183740001405,None,ScrollUp,정답입니다,295.93183740001405,None,295.93183740001405,None,295.93183740001405,None,295.93183740001405,None,296.67953580000903,None,296.67953580000903,297.19172490003984,,,,,,,,,,,,,,,,119,2022-05-06_13h53.02.098,FishGame,2022.1.1,60.10056025350271,
,3,넌 유능해,2,Orange,A,6.208333333333333,4.433333333333334,ScrollDown,ScrollUp,Orange.png,2,Positive,Congruent,0,0,0,0,,,,,,,,,,,,,,,,,0,2,2,2,,,,,,,,,,,,,,,,,,,,,,,,,,,,,,,,,,,,,,,,,,,,,,,,,,,,,,,,,,,,,,,,,,,,,,,,,,,,,,,,,1,0.9706208999850787,297.8336527000065,None,ScrollDown,정답입니다,297.8336527000065,None,297.8336527000065,None,297.8336527000065,None,297.8336527000065,None,298.6880795999896,None,298.6880795999896,299.1916433000006,,,,,,,,,,,,,,,,119,2022-05-06_13h53.02.098,FishGame,2022.1.1,60.10056025350271,
,4,넌 능숙해,2,Green,B,5.666666666666667,4.733333333333333,ScrollUp,ScrollDown,Green.png,2,Positive,Incongruent,0,0,0,0,,,,,,,,,,,,,,,,,0,3,3,3,,,,,,,,,,,,,,,,,,,,,,,,,,,,,,,,,,,,,,,,,,,,,,,,,,,,,,,,,,,,,,,,,,,,,,,,,,,,,,,,,2,1.2885043999995105,299.82346620003227,None,ScrollUp,정답입니다,299.82346620003227,None,299.82346620003227,None,299.82346620003227,None,299.82346620003227,None,301.0052574999863,None,301.0052574999863,301.5086552000139,,,,,,,,,,,,,,,,119,2022-05-06_13h53.02.098,FishGame,2022.1.1,60.10056025350271,
,5,넌 진부해,4,Green,B,2.458333333333333,3.166666666666667,ScrollUp,ScrollDown,Green.png,2,Negative,Congruent,0,0,0,0,,,,,,,,,,,,,,,,,0,4,4,4,,,,,,,,,,,,,,,,,,,,,,,,,,,,,,,,,,,,,,,,,,,,,,,,,,,,,,,,,,,,,,,,,,,,,,,,,,,,,,,,,1.8981481492519379,1.0322407000348903,302.16908660001354,None,ScrollUp,정답입니다,302.16908660001354,None,302.16908660001354,None,302.16908660001354,None,302.16908660001354,None,303.0628191999858,None,303.0628191999858,303.57533660001354,,,,,,,,,,,,,,,,119,2022-05-06_13h53.02.098,FishGame,2022.1.1,60.10056025350271,
,6,나를 보내줘,6,Orange,A,0,0,ScrollUp,ScrollDown,Orange.png,2,NonTarget,NonTarget,0,0,0,0,,,,,,,,,,,,,,,,,0,5,5,5,,,,,,,,,,,,,,,,,,,,,,,,,,,,,,,,,,,,,,,,,,,,,,,,,,,,,,,,,,,,,,,,,,,,,,,,,,,,,,,,,1.589506171643734,1.2351400000043213,304.21684820001246,None,ScrollUp,정답입니다,304.21684820001246,None,304.21684820001246,None,304.21684820001246,None,304.21684820001246,None,305.33813089999603,None,305.33813089999603,305.84188419999555,,,,,,,,,,,,,,,,119,2022-05-06_13h53.02.098,FishGame,2022.1.1,60.10056025350271,
,7,넌 엄격해,3,Orange,A,4.166666666666666,4.1,ScrollDown,ScrollUp,Orange.png,2,Neutral,Neutral,0,0,0,0,,,,,,,,,,,,,,,,,0,6,6,6,,,,,,,,,,,,,,,,,,,,,,,,,,,,,,,,,,,,,,,,,,,,,,,,,,,,,,,,,,,,,,,,,,,,,,,,,,,,,,,,,1.1728395173947017,1.3102160000125878,306.4894287000061,None,ScrollDown,정답입니다,306.4894287000061,None,306.4894287000061,None,306.4894287000061,None,306.4894287000061,None,307.67999959998997,None,307.67999959998997,308.1922225999879,,,,,,,,,,,,,,,,119,2022-05-06_13h53.02.098,FishGame,2022.1.1,60.10056025350271,
,8,나를 보내줘,6,Orange,A,0,0,ScrollUp,ScrollDown,Orange.png,2,NonTarget,NonTarget,0,0,0,0,,,,,,,,,,,,,,,,,0,7,7,7,,,,,,,,,,,,,,,,,,,,,,,,,,,,,,,,,,,,,,,,,,,,,,,,,,,,,,,,,,,,,,,,,,,,,,,,,,,,,,,,,1.7222222338120141,1.3888985000085086,308.8352822000161,None,ScrollUp,정답입니다,308.8352822000161,None,308.8352822000161,None,308.8352822000161,None,308.8352822000161,None,310.1085209000157,None,310.1085209000157,310.6089934000047,,,,,,,,,,,,,,,,119,2022-05-06_13h53.02.098,FishGame,2022.1.1,60.10056025350271,
,9,넌 대담해,3,Green,B,4.875,4.866666666666666,ScrollUp,ScrollDown,Green.png,2,Neutral,Neutral,0,0,0,0,,,,,,,,,,,,,,,,,0,8,8,8,,,,,,,,,,,,,,,,,,,,,,,,,,,,,,,,,,,,,,,,,,,,,,,,,,,,,,,,,,,,,,,,,,,,,,,,,,,,,,,,,1.5416666672875485,1.1041270999703556,311.2510176000069,None,NoResponse,무응답입니다,311.2510176000069,None,311.2510176000069,None,311.2510176000069,None,311.2510176000069,None,312.242906200001,None,312.242906200001,312.7418390000239,,,,,,,,,,,,,,,,119,2022-05-06_13h53.02.098,FishGame,2022.1.1,60.10056025350271,
,10,넌 꾸준해,1,Orange,A,5.916666666666668,5.8,ScrollDown,ScrollUp,Orange.png,2,Positive,Congruent,0,0,0,0,,,,,,,,,,,,,,,,,0,9,9,9,,,,,,,,,,,,,,,,,,,,,,,,,,,,,,,,,,,,,,,,,,,,,,,,,,,,,,,,,,,,,,,,,,,,,,,,,,,,,,,,,1,1.4148915000259876,313.38182950002374,None,ScrollDown,정답입니다,313.38182950002374,None,313.38182950002374,None,313.38182950002374,None,313.38182950002374,None,314.6829265000415,None,314.6829265000415,315.1919033000013,,,,,,,,,,,,,,,,119,2022-05-06_13h53.02.098,FishGame,2022.1.1,60.10056025350271,
,11,나를 데려가줘,6,Green,B,0,0,ScrollDown,ScrollUp,Green.png,2,NonTarget,NonTarget,0,0,0,0,,,,,,,,,,,,,,,,,0,10,10,10,,,,,,,,,,,,,,,,,,,,,,,,,,,,,,,,,,,,,,,,,,,,,,,,,,,,,,,,,,,,,,,,,,,,,,,,,,,,,,,,,1,1.3909872000222094,315.8260461000027,None,ScrollDown,정답입니다,315.8260461000027,None,315.8260461000027,None,315.8260461000027,None,315.8260461000027,None,317.10890059999656,None,317.10890059999656,317.6088117000181,,,,,,,,,,,,,,,,119,2022-05-06_13h53.02.098,FishGame,2022.1.1,60.10056025350271,
,12,넌 독선적이야,5,Orange,A,2.458333333333333,1.933333333333333,ScrollDown,ScrollUp,Orange.png,2,Negative,Incongruent,0,0,0,0,,,,,,,,,,,,,,,,,0,11,11,11,,,,,,,,,,,,,,,,,,,,,,,,,,,,,,,,,,,,,,,,,,,,,,,,,,,,,,,,,,,,,,,,,,,,,,,,,,,,,,,,,1,1.3912539000157267,318.26238279999234,None,ScrollDown,정답입니다,318.26238279999234,None,318.26238279999234,None,318.26238279999234,None,318.26238279999234,None,319.52562030003173,None,319.52562030003173,320.0255776999984,,,,,,,,,,,,,,,,119,2022-05-06_13h53.02.098,FishGame,2022.1.1,60.10056025350271,
,13,나를 보내줘,6,Orange,A,0,0,ScrollUp,ScrollDown,Orange.png,2,NonTarget,NonTarget,0,0,0,0,,,,,,,,,,,,,,,,,0,12,12,12,,,,,,,,,,,,,,,,,,,,,,,,,,,,,,,,,,,,,,,,,,,,,,,,,,,,,,,,,,,,,,,,,,,,,,,,,,,,,,,,,2,1.1412425000453368,320.6616589000332,None,ScrollUp,정답입니다,320.6616589000332,None,320.6616589000332,None,320.6616589000332,None,320.6616589000332,None,321.69220009999117,None,321.69220009999117,322.1924562000204,,,,,,,,,,,,,,,,119,2022-05-06_13h53.02.098,FishGame,2022.1.1,60.10056025350271,
,14,넌 책임감있어,1,Green,B,6.347826086956522,6,ScrollUp,ScrollDown,Green.png,2,Positive,Incongruent,0,0,0,0,,,,,,,,,,,,,,,,,0,13,13,13,,,,,,,,,,,,,,,,,,,,,,,,,,,,,,,,,,,,,,,,,,,,,,,,,,,,,,,,,,,,,,,,,,,,,,,,,,,,,,,,,2,1.2862774000386707,322.8315566999954,None,ScrollUp,정답입니다,322.8315566999954,None,322.8315566999954,None,322.8315566999954,None,322.8315566999954,None,324.0056128000142,None,324.0056128000142,324.50897120003356,,,,,,,,,,,,,,,,119,2022-05-06_13h53.02.098,FishGame,2022.1.1,60.10056025350271,
,15,넌 문학적이야,3,Orange,A,4.708333333333334,4.333333333333333,ScrollDown,ScrollUp,Orange.png,2,Neutral,Neutral,0,0,0,0,,,,,,,,,,,,,,,,,0,14,14,14,,,,,,,,,,,,,,,,,,,,,,,,,,,,,,,,,,,,,,,,,,,,,,,,,,,,,,,,,,,,,,,,,,,,,,,,,,,,,,,,,1,1.07140250003431,325.15515130001586,None,ScrollDown,정답입니다,325.15515130001586,None,325.15515130001586,None,325.15515130001586,None,325.15515130001586,None,326.1054667000426,None,326.1054667000426,326.6093039000407,,,,,,,,,,,,,,,,119,2022-05-06_13h53.02.098,FishGame,2022.1.1,60.10056025350271,
,16,넌 재미있어,1,Green,B,5.875,5.7,ScrollUp,ScrollDown,Green.png,2,Positive,Incongruent,0,0,0,0,,,,,,,,,,,,,,,,,0,15,15,15,,,,,,,,,,,,,,,,,,,,,,,,,,,,,,,,,,,,,,,,,,,,,,,,,,,,,,,,,,,,,,,,,,,,,,,,,,,,,,,,,1.9459876318772633,0.9515438000089489,327.23797499999637,None,ScrollUp,정답입니다,327.23797499999637,None,327.23797499999637,None,327.23797499999637,None,327.23797499999637,None,328.0889881000039,None,328.0889881000039,328.5928159999894,,,,,,,,,,,,,,,,119,2022-05-06_13h53.02.098,FishGame,2022.1.1,60.10056025350271,
,17,나를 데려가줘,6,Green,B,0,0,ScrollDown,ScrollUp,Green.png,2,NonTarget,NonTarget,0,0,0,0,,,,,,,,,,,,,,,,,0,16,16,16,,,,,,,,,,,,,,,,,,,,,,,,,,,,,,,,,,,,,,,,,,,,,,,,,,,,,,,,,,,,,,,,,,,,,,,,,,,,,,,,,1,1.7010054999846034,329.2248026999878,None,ScrollDown,정답입니다,329.2248026999878,None,329.2248026999878,None,329.2248026999878,None,329.2248026999878,None,330.82268770004157,None,330.82268770004157,331.3256956000114,,,,,,,,,,,,,,,,119,2022-05-06_13h53.02.098,FishGame,2022.1.1,60.10056025350271,
,18,넌 협력적이야,1,Orange,A,5.625,5.633333333333334,ScrollDown,ScrollUp,Orange.png,2,Positive,Congruent,0,0,0,0,,,,,,,,,,,,,,,,,0,17,17,17,,,,,,,,,,,,,,,,,,,,,,,,,,,,,,,,,,,,,,,,,,,,,,,,,,,,,,,,,,,,,,,,,,,,,,,,,,,,,,,,,1.0648148159186046,0.9138007000437938,331.97370090003824,None,ScrollDown,정답입니다,331.97370090003824,None,331.97370090003824,None,331.97370090003824,None,331.97370090003824,None,332.76484610000625,None,332.76484610000625,333.2755353000248,,,,,,,,,,,,,,,,119,2022-05-06_13h53.02.098,FishGame,2022.1.1,60.10056025350271,
,19,넌 평범해,3,Green,B,4.333333333333332,4.233333333333333,ScrollUp,ScrollDown,Green.png,2,Neutral,Neutral,0,0,0,0,,,,,,,,,,,,,,,,,0,18,18,18,,,,,,,,,,,,,,,,,,,,,,,,,,,,,,,,,,,,,,,,,,,,,,,,,,,,,,,,,,,,,,,,,,,,,,,,,,,,,,,,,1.8549382835626602,1.0110293999896385,333.9210533000296,None,ScrollUp,정답입니다,333.9210533000296,None,333.9210533000296,None,333.9210533000296,None,333.9210533000296,None,334.81379300000845,None,334.81379300000845,335.3262135999976,,,,,,,,,,,,,,,,119,2022-05-06_13h53.02.098,FishGame,2022.1.1,60.10056025350271,
,20,넌 오만해,5,Orange,A,2.333333333333333,2,ScrollDown,ScrollUp,Orange.png,2,Negative,Incongruent,0,0,0,0,,,,,,,,,,,,,,,,,0,19,19,19,,,,,,,,,,,,,,,,,,,,,,,,,,,,,,,,,,,,,,,,,,,,,,,,,,,,,,,,,,,,,,,,,,,,,,,,,,,,,,,,,1,1.0437489000032656,335.9638357000076,None,ScrollDown,정답입니다,335.9638357000076,None,335.9638357000076,None,335.9638357000076,None,335.9638357000076,None,336.8925642000395,None,336.8925642000395,337.392632800038,,,,,,,,,,,,,,,,119,2022-05-06_13h53.02.098,FishGame,2022.1.1,60.10056025350271,
,21,넌 운이없어,4,Green,B,3,3.466666666666667,ScrollUp,ScrollDown,Green.png,2,Negative,Congruent,0,0,0,0,,,,,,,,,,,,,,,,,0,20,20,20,,,,,,,,,,,,,,,,,,,,,,,,,,,,,,,,,,,,,,,,,,,,,,,,,,,,,,,,,,,,,,,,,,,,,,,,,,,,,,,,,2,1.2622304999968037,338.03068530000746,None,ScrollUp,정답입니다,338.03068530000746,None,338.03068530000746,None,338.03068530000746,None,338.03068530000746,None,339.1807234000298,None,339.1807234000298,339.6931677000248,,,,,,,,,,,,,,,,119,2022-05-06_13h53.02.098,FishGame,2022.1.1,60.10056025350271,
,22,넌 창조적이야,2,Green,B,6.125,4.633333333333334,ScrollUp,ScrollDown,Green.png,2,Positive,Incongruent,0,0,0,0,,,,,,,,,,,,,,,,,0,21,21,21,,,,,,,,,,,,,,,,,,,,,,,,,,,,,,,,,,,,,,,,,,,,,,,,,,,,,,,,,,,,,,,,,,,,,,,,,,,,,,,,,1.7947530895471573,1.127264800015837,340.33505170000717,None,ScrollUp,정답입니다,340.33505170000717,None,340.33505170000717,None,340.33505170000717,None,340.33505170000717,None,341.3425042000017,None,341.3425042000017,341.8428450000356,,,,,,,,,,,,,,,,119,2022-05-06_13h53.02.098,FishGame,2022.1.1,60.10056025350271,
,23,나를 보내줘,6,Orange,A,0,0,ScrollUp,ScrollDown,Orange.png,2,NonTarget,NonTarget,0,0,0,0,,,,,,,,,,,,,,,,,0,22,22,22,,,,,,,,,,,,,,,,,,,,,,,,,,,,,,,,,,,,,,,,,,,,,,,,,,,,,,,,,,,,,,,,,,,,,,,,,,,,,,,,,1.6481481517354646,1.1008407999761403,342.50071420002496,None,ScrollUp,정답입니다,342.50071420002496,None,342.50071420002496,None,342.50071420002496,None,342.50071420002496,None,343.4636381000164,None,343.4636381000164,343.9756704000174,,,,,,,,,,,,,,,,119,2022-05-06_13h53.02.098,FishGame,2022.1.1,60.10056025350271,
,24,넌 통찰력있어,2,Orange,A,6.5,4.8,ScrollDown,ScrollUp,Orange.png,2,Positive,Congruent,0,0,0,0,,,,,,,,,,,,,,,,,0,23,23,23,,,,,,,,,,,,,,,,,,,,,,,,,,,,,,,,,,,,,,,,,,,,,,,,,,,,,,,,,,,,,,,,,,,,,,,,,,,,,,,,,1,1.2722278000437655,344.6207558999886,None,ScrollDown,정답입니다,344.6207558999886,None,344.6207558999886,None,344.6207558999886,None,344.6207558999886,None,345.77567920001457,None,345.77567920001457,346.2760708000278,,,,,,,,,,,,,,,,119,2022-05-06_13h53.02.098,FishGame,2022.1.1,60.10056025350271,
,25,넌 경솔해,5,Green,B,2.458333333333333,2.266666666666667,ScrollUp,ScrollDown,Green.png,2,Negative,Congruent,0,0,0,0,,,,,,,,,,,,,,,,,0,24,24,24,,,,,,,,,,,,,,,,,,,,,,,,,,,,,,,,,,,,,,,,,,,,,,,,,,,,,,,,,,,,,,,,,,,,,,,,,,,,,,,,,2,2.022840699995868,346.90939700003946,None,ScrollUp,정답입니다,346.90939700003946,None,346.90939700003946,None,346.90939700003946,None,346.90939700003946,None,348.82608070003334,None,348.82608070003334,349.32599219999975,,,,,,,,,,,,,,,,119,2022-05-06_13h53.02.098,FishGame,2022.1.1,60.10056025350271,
,26,넌 초조해,4,Orange,A,2.916666666666667,3.133333333333333,ScrollDown,ScrollUp,Orange.png,2,Negative,Incongruent,0,0,0,0,,,,,,,,,,,,,,,,,0,25,25,25,,,,,,,,,,,,,,,,,,,,,,,,,,,,,,,,,,,,,,,,,,,,,,,,,,,,,,,,,,,,,,,,,,,,,,,,,,,,,,,,,1.1527777860562007,1.4892556000268087,349.970799600007,None,ScrollDown,정답입니다,349.970799600007,None,349.970799600007,None,349.970799600007,None,349.970799600007,None,351.3430306999944,None,351.3430306999944,351.84313930000644,,,,,,,,,,,,,,,,119,2022-05-06_13h53.02.098,FishGame,2022.1.1,60.10056025350271,
,27,넌 무관심해,4,Green,B,2.833333333333333,2.9,ScrollUp,ScrollDown,Green.png,2,Negative,Congruent,0,0,0,0,,,,,,,,,,,,,,,,,0,26,26,26,,,,,,,,,,,,,,,,,,,,,,,,,,,,,,,,,,,,,,,,,,,,,,,,,,,,,,,,,,,,,,,,,,,,,,,,,,,,,,,,,1.8425925970077515,1.704396600020118,352.48363830003655,None,ScrollUp,정답입니다,352.48363830003655,None,352.48363830003655,None,352.48363830003655,None,352.48363830003655,None,354.07622250000713,None,354.07622250000713,354.57653190003475,,,,,,,,,,,,,,,,119,2022-05-06_13h53.02.098,FishGame,2022.1.1,60.10056025350271,
,28,넌 감성적이야,3,Green,B,4.125,4.166666666666667,ScrollUp,ScrollDown,Green.png,2,Neutral,Neutral,0,0,0,0,,,,,,,,,,,,,,,,,0,27,27,27,,,,,,,,,,,,,,,,,,,,,,,,,,,,,,,,,,,,,,,,,,,,,,,,,,,,,,,,,,,,,,,,,,,,,,,,,,,,,,,,,2,0.7308400000329129,355.209723100008,None,ScrollUp,정답입니다,355.209723100008,None,355.209723100008,None,355.209723100008,None,355.209723100008,None,355.83093130000634,None,355.83093130000634,356.343258500041,,,,,,,,,,,,,,,,119,2022-05-06_13h53.02.098,FishGame,2022.1.1,60.10056025350271,
,29,넌 배려심있어,1,Orange,A,6.083333333333333,5.5,ScrollDown,ScrollUp,Orange.png,2,Positive,Congruent,0,0,0,0,,,,,,,,,,,,,,,,,0,28,28,28,,,,,,,,,,,,,,,,,,,,,,,,,,,,,,,,,,,,,,,,,,,,,,,,,,,,,,,,,,,,,,,,,,,,,,,,,,,,,,,,,1.2237654278675716,1.0773782000178471,356.98978920001537,None,ScrollDown,정답입니다,356.98978920001537,None,356.98978920001537,None,356.98978920001537,None,356.98978920001537,None,357.94819740002276,None,357.94819740002276,358.4603204000159,,,,,,,,,,,,,,,,119,2022-05-06_13h53.02.098,FishGame,2022.1.1,60.10056025350271,
,30,넌 숨김없어,3,Orange,A,4.5,4.933333333333334,ScrollDown,ScrollUp,Orange.png,2,Neutral,Neutral,0,0,0,0,,,,,,,,,,,,,,,,,0,29,29,29,,,,,,,,,,,,,,,,,,,,,,,,,,,,,,,,,,,,,,,,,,,,,,,,,,,,,,,,,,,,,,,,,,,,,,,,,,,,,,,,,1.1311728407939274,0.9684880999848247,359.11232900002506,None,ScrollDown,정답입니다,359.11232900002506,None,359.11232900002506,None,359.11232900002506,None,359.11232900002506,None,359.95660400000634,None,359.95660400000634,360.45998630003305,,,,,,,,,,,,,,,,119,2022-05-06_13h53.02.098,FishGame,2022.1.1,60.10056025350271,
,31,넌 훌륭해,2,Green,B,5.916666666666667,4.033333333333333,ScrollUp,ScrollDown,Green.png,2,Positive,Incongruent,0,0,0,0,,,,,,,,,,,,,,,,,0,30,30,30,,,,,,,,,,,,,,,,,,,,,,,,,,,,,,,,,,,,,,,,,,,,,,,,,,,,,,,,,,,,,,,,,,,,,,,,,,,,,,,,,1.807098776102066,0.9685869999811985,361.10138770000776,None,ScrollUp,정답입니다,361.10138770000776,None,361.10138770000776,None,361.10138770000776,None,361.10138770000776,None,361.95650670002215,None,361.95650670002215,362.46050059999106,,,,,,,,,,,,,,,,119,2022-05-06_13h53.02.098,FishGame,2022.1.1,60.10056025350271,
,32,넌 슬기로워,2,Orange,A,6.166666666666667,4.1,ScrollDown,ScrollUp,Orange.png,2,Positive,Congruent,0,0,0,0,,,,,,,,,,,,,,,,,0,31,31,31,,,,,,,,,,,,,,,,,,,,,,,,,,,,,,,,,,,,,,,,,,,,,,,,,,,,,,,,,,,,,,,,,,,,,,,,,,,,,,,,,1,0.9175416000070982,363.10018210002454,None,ScrollDown,정답입니다,363.10018210002454,None,363.10018210002454,None,363.10018210002454,None,363.10018210002454,None,363.89778980001574,None,363.89778980001574,364.4097952999873,,,,,,,,,,,,,,,,119,2022-05-06_13h53.02.098,FishGame,2022.1.1,60.10056025350271,
,33,넌 냉혹해,5,Orange,A,2.583333333333333,2.1,ScrollDown,ScrollUp,Orange.png,2,Negative,Incongruent,0,0,0,0,,,,,,,,,,,,,,,,,0,32,32,32,,,,,,,,,,,,,,,,,,,,,,,,,,,,,,,,,,,,,,,,,,,,,,,,,,,,,,,,,,,,,,,,,,,,,,,,,,,,,,,,,1.121913582086563,1.0189310000278056,365.0575456999941,None,ScrollDown,정답입니다,365.0575456999941,None,365.0575456999941,None,365.0575456999941,None,365.0575456999941,None,365.9492787999916,None,365.9492787999916,366.459652599995,,,,,,,,,,,,,,,,119,2022-05-06_13h53.02.098,FishGame,2022.1.1,60.10056025350271,
,34,나를 데려가줘,6,Green,B,0,0,ScrollDown,ScrollUp,Green.png,2,NonTarget,NonTarget,0,0,0,0,,,,,,,,,,,,,,,,,0,33,33,33,,,,,,,,,,,,,,,,,,,,,,,,,,,,,,,,,,,,,,,,,,,,,,,,,,,,,,,,,,,,,,,,,,,,,,,,,,,,,,,,,1.1975308656692505,1.0419873999780975,367.10058750002645,None,ScrollDown,정답입니다,367.10058750002645,None,367.10058750002645,None,367.10058750002645,None,367.10058750002645,None,368.02600940002594,None,368.02600940002594,368.5268649000209,,,,,,,,,,,,,,,,119,2022-05-06_13h53.02.098,FishGame,2022.1.1,60.10056025350271,
,35,넌 편파적이야,5,Green,B,2.125,2,ScrollUp,ScrollDown,Green.png,2,Negative,Congruent,0,0,0,0,,,,,,,,,,,,,,,,,0,34,34,34,,,,,,,,,,,,,,,,,,,,,,,,,,,,,,,,,,,,,,,,,,,,,,,,,,,,,,,,,,,,,,,,,,,,,,,,,,,,,,,,,1.8765432039896648,1.4409688000450842,369.1731220000074,None,ScrollUp,정답입니다,369.1731220000074,None,369.1731220000074,None,369.1731220000074,None,369.1731220000074,None,370.4931469000294,None,370.4931469000294,370.9936380000436,,,,,,,,,,,,,,,,119,2022-05-06_13h53.02.098,FishGame,2022.1.1,60.10056025350271,
,36,넌 슬퍼,4,Orange,A,2.583333333333333,3.066666666666667,ScrollDown,ScrollUp,Orange.png,2,Negative,Incongruent,0,0,0,0,,,,,,,,,,,,,,,,,0,35,35,35,,,,,,,,,,,,,,,,,,,,,,,,,,,,,,,,,,,,,,,,,,,,,,,,,,,,,,,,,,,,,,,,,,,,,,,,,,,,,,,,,1,1.217756099998951,371.6250729000312,None,ScrollDown,정답입니다,371.6250729000312,None,371.6250729000312,None,371.6250729000312,None,371.6250729000312,None,372.74001950002275,None,372.74001950002275,373.2435743000242,,,,,,,,,,,,,,,,119,2022-05-06_13h53.02.098,FishGame,2022.1.1,60.10056025350271,
,37,나를 데려가줘,6,Green,B,0,0,ScrollDown,ScrollUp,Green.png,2,NonTarget,NonTarget,0,0,0,0,,,,,,,,,,,,,,,,,0,36,36,36,,,,,,,,,,,,,,,,,,,,,,,,,,,,,,,,,,,,,,,,,,,,,,,,,,,,,,,,,,,,,,,,,,,,,,,,,,,,,,,,,1.0740740497907002,1.333620899997186,373.8753552000271,None,ScrollDown,정답입니다,373.8753552000271,None,373.8753552000271,None,373.8753552000271,None,373.8753552000271,None,375.0978268000181,None,375.0978268000181,375.6101528000436,,,,,,,,,,,,,,,,119,2022-05-06_13h53.02.098,FishGame,2022.1.1,60.10056025350271,
,38,넌 친절해,1,Green,B,6.041666666666667,5.533333333333333,ScrollUp,ScrollDown,Green.png,2,Positive,Incongruent,0,0,0,0,,,,,,,,,,,,,,,,,0,37,37,37,,,,,,,,,,,,,,,,,,,,,,,,,,,,,,,,,,,,,,,,,,,,,,,,,,,,,,,,,,,,,,,,,,,,,,,,,,,,,,,,,1.7067901194095612,1.0252791999955662,376.25326420000056,None,ScrollUp,정답입니다,376.25326420000056,None,376.25326420000056,None,376.25326420000056,None,376.25326420000056,None,377.1599955999991,None,377.1599955999991,377.6602761000395,,,,,,,,,,,,,,,,119,2022-05-06_13h53.02.098,FishGame,2022.1.1,60.10056025350271,
,1,넌 엉성해,4,Orange,A,3,3.3,ScrollDown,ScrollUp,Orange.png,3,Negative,Incongruent,0,0,0,0,,,,,,,,,,,,,,,,,,,,,0,0,0,0,,,,,,,,,,,,,,,,,,,,,,,,,,,,,,,,,,,,410.94449840002926,412.44454090000363,412.47836880001705,413.4277729000314,413.4781474000192,414.42759090004256,414.42759090004256,None,,,,,,,,,,,,,,,,,,,,,,,,,,,,,,,,,,1.0617283880710602,1.0015290000010282,415.60161750001134,None,ScrollDown,정답입니다,415.60161750001134,None,415.60161750001134,None,415.60161750001134,None,415.60161750001134,None,416.42742580000777,None,416.42742580000777,416.9278700000141,378.160659199988,None,378.160659199988,None,0.24166666,-0.085185185,1,0,0,0.015903199964668602,None,408.16117390000727,None,,,119,2022-05-06_13h53.02.098,FishGame,2022.1.1,60.10056025350271,
,2,나를 보내줘,6,Orange,A,0,0,ScrollUp,ScrollDown,Orange.png,3,NonTarget,NonTarget,0,0,0,0,,,,,,,,,,,,,,,,,,,,,0,1,1,1,,,,,,,,,,,,,,,,,,,,,,,,,,,,,,,,,,,,,,,,,,,,,,,,,,,,,,,,,,,,,,,,,,,,,,,,,,,,,1.584876542290052,1.0118383999797516,417.56289940001443,None,ScrollUp,정답입니다,417.56289940001443,None,417.56289940001443,None,417.56289940001443,None,417.56289940001443,None,418.46665880002547,None,418.46665880002547,418.9778210000368,,,,,,,,,,,,,,,,119,2022-05-06_13h53.02.098,FishGame,2022.1.1,60.10056025350271,
,3,넌 활발해,1,Green,B,5.666666666666667,5.6,ScrollUp,ScrollDown,Green.png,3,Positive,Incongruent,0,0,0,0,,,,,,,,,,,,,,,,,,,,,0,2,2,2,,,,,,,,,,,,,,,,,,,,,,,,,,,,,,,,,,,,,,,,,,,,,,,,,,,,,,,,,,,,,,,,,,,,,,,,,,,,,1.9953703780968983,1.121543199988082,419.6232874999987,None,ScrollUp,정답입니다,419.6232874999987,None,419.6232874999987,None,419.6232874999987,None,419.6232874999987,None,420.624585499987,None,420.624585499987,421.12791420001304,,,,,,,,,,,,,,,,119,2022-05-06_13h53.02.098,FishGame,2022.1.1,60.10056025350271,
,4,넌 논리적이야,2,Orange,A,5.666666666666666,4.633333333333334,ScrollDown,ScrollUp,Orange.png,3,Positive,Congruent,0,0,0,0,,,,,,,,,,,,,,,,,,,,,0,3,3,3,,,,,,,,,,,,,,,,,,,,,,,,,,,,,,,,,,,,,,,,,,,,,,,,,,,,,,,,,,,,,,,,,,,,,,,,,,,,,1,0.9840036999667063,421.76626830000896,None,ScrollDown,정답입니다,421.76626830000896,None,421.76626830000896,None,421.76626830000896,None,421.76626830000896,None,422.64125440001953,None,422.64125440001953,423.1446117000305,,,,,,,,,,,,,,,,119,2022-05-06_13h53.02.098,FishGame,2022.1.1,60.10056025350271,
,5,넌 과묵해,3,Orange,A,3.875,4.4,ScrollDown,ScrollUp,Orange.png,3,Neutral,Neutral,0,0,0,0,,,,,,,,,,,,,,,,,,,,,0,4,4,4,,,,,,,,,,,,,,,,,,,,,,,,,,,,,,,,,,,,,,,,,,,,,,,,,,,,,,,,,,,,,,,,,,,,,,,,,,,,,1.0679012437661488,0.943426100013312,423.7873518000124,None,ScrollDown,정답입니다,423.7873518000124,None,423.7873518000124,None,423.7873518000124,None,423.7873518000124,None,424.61084830004256,None,424.61084830004256,425.11127880000276,,,,,,,,,,,,,,,,119,2022-05-06_13h53.02.098,FishGame,2022.1.1,60.10056025350271,
,6,나를 데려가줘,6,Green,B,0,0,ScrollDown,ScrollUp,Green.png,3,NonTarget,NonTarget,0,0,0,0,,,,,,,,,,,,,,,,,,,,,0,5,5,5,,,,,,,,,,,,,,,,,,,,,,,,,,,,,,,,,,,,,,,,,,,,,,,,,,,,,,,,,,,,,,,,,,,,,,,,,,,,,1,1.259187399991788,425.7492520000087,None,ScrollDown,정답입니다,425.7492520000087,None,425.7492520000087,None,425.7492520000087,None,425.7492520000087,None,426.89461160002975,None,426.89461160002975,427.39463570003863,,,,,,,,,,,,,,,,119,2022-05-06_13h53.02.098,FishGame,2022.1.1,60.10056025350271,
,7,넌 미숙해,4,Green,B,3,3,ScrollUp,ScrollDown,Green.png,3,Negative,Congruent,0,0,0,0,,,,,,,,,,,,,,,,,,,,,0,6,6,6,,,,,,,,,,,,,,,,,,,,,,,,,,,,,,,,,,,,,,,,,,,,,,,,,,,,,,,,,,,,,,,,,,,,,,,,,,,,,2,1.0716854999773204,428.02685540000675,None,ScrollUp,정답입니다,428.02685540000675,None,428.02685540000675,None,428.02685540000675,None,428.02685540000675,None,428.99449439998716,None,428.99449439998716,429.4944368000142,,,,,,,,,,,,,,,,119,2022-05-06_13h53.02.098,FishGame,2022.1.1,60.10056025350271,
,8,나를 보내줘,6,Orange,A,0,0,ScrollUp,ScrollDown,Orange.png,3,NonTarget,NonTarget,0,0,0,0,,,,,,,,,,,,,,,,,,,,,0,7,7,7,,,,,,,,,,,,,,,,,,,,,,,,,,,,,,,,,,,,,,,,,,,,,,,,,,,,,,,,,,,,,,,,,,,,,,,,,,,,,1.873456800977389,1.4320752000203356,430.1351146000088,None,ScrollUp,정답입니다,430.1351146000088,None,430.1351146000088,None,430.1351146000088,None,430.1351146000088,None,431.4494255000027,None,431.4494255000027,431.9614591000136,,,,,,,,,,,,,,,,119,2022-05-06_13h53.02.098,FishGame,2022.1.1,60.10056025350271,
,9,넌 자신만만해,3,Green,B,4.833333333333334,4.333333333333333,ScrollUp,ScrollDown,Green.png,3,Neutral,Neutral,0,0,0,0,,,,,,,,,,,,,,,,,,,,,0,8,8,8,,,,,,,,,,,,,,,,,,,,,,,,,,,,,,,,,,,,,,,,,,,,,,,,,,,,,,,,,,,,,,,,,,,,,,,,,,,,,2,1.3094406999880448,432.59295319998637,None,ScrollUp,정답입니다,432.59295319998637,None,432.59295319998637,None,432.59295319998637,None,432.59295319998637,None,433.7946605000179,None,433.7946605000179,434.29480020003393,,,,,,,,,,,,,,,,119,2022-05-06_13h53.02.098,FishGame,2022.1.1,60.10056025350271,
,10,넌 탐욕스러워,5,Orange,A,2.25,2.1,ScrollDown,ScrollUp,Orange.png,3,Negative,Incongruent,0,0,0,0,,,,,,,,,,,,,,,,,,,,,0,9,9,9,,,,,,,,,,,,,,,,,,,,,,,,,,,,,,,,,,,,,,,,,,,,,,,,,,,,,,,,,,,,,,,,,,,,,,,,,,,,,1,1.0917530999868177,434.9454057000112,None,ScrollDown,정답입니다,434.9454057000112,None,434.9454057000112,None,434.9454057000112,None,434.9454057000112,None,435.91140139999334,None,435.91140139999334,436.4116679999861,,,,,,,,,,,,,,,,119,2022-05-06_13h53.02.098,FishGame,2022.1.1,60.10056025350271,
,11,넌 인기있어,2,Orange,A,5.458333333333333,4.5,ScrollDown,ScrollUp,Orange.png,3,Positive,Congruent,0,0,0,0,,,,,,,,,,,,,,,,,,,,,0,10,10,10,,,,,,,,,,,,,,,,,,,,,,,,,,,,,,,,,,,,,,,,,,,,,,,,,,,,,,,,,,,,,,,,,,,,,,,,,,,,,1,1.0488339000148699,437.0577938000206,None,ScrollDown,정답입니다,437.0577938000206,None,437.0577938000206,None,437.0577938000206,None,437.0577938000206,None,437.98311800003285,None,437.98311800003285,438.4949279000284,,,,,,,,,,,,,,,,119,2022-05-06_13h53.02.098,FishGame,2022.1.1,60.10056025350271,
,12,나를 데려가줘,6,Green,B,0,0,ScrollDown,ScrollUp,Green.png,3,NonTarget,NonTarget,0,0,0,0,,,,,,,,,,,,,,,,,,,,,0,11,11,11,,,,,,,,,,,,,,,,,,,,,,,,,,,,,,,,,,,,,,,,,,,,,,,,,,,,,,,,,,,,,,,,,,,,,,,,,,,,,1.0586419602235158,1.381877300038468,439.12604380003177,None,ScrollDown,정답입니다,439.12604380003177,None,439.12604380003177,None,439.12604380003177,None,439.12604380003177,None,440.3997257000301,None,440.3997257000301,440.91177060001064,,,,,,,,,,,,,,,,119,2022-05-06_13h53.02.098,FishGame,2022.1.1,60.10056025350271,
,13,넌 뛰어나,2,Green,B,6.166666666666667,4,ScrollUp,ScrollDown,Green.png,3,Positive,Incongruent,0,0,0,0,,,,,,,,,,,,,,,,,,,,,0,12,12,12,,,,,,,,,,,,,,,,,,,,,,,,,,,,,,,,,,,,,,,,,,,,,,,,,,,,,,,,,,,,,,,,,,,,,,,,,,,,,2,1.5375747000216506,441.5474431000184,None,ScrollUp,정답입니다,441.5474431000184,None,441.5474431000184,None,441.5474431000184,None,441.5474431000184,None,442.9748508000048,None,442.9748508000048,443.47850570001174,,,,,,,,,,,,,,,,119,2022-05-06_13h53.02.098,FishGame,2022.1.1,60.10056025350271,
,14,넌 낙관적이야,1,Orange,A,5.75,5.8,ScrollDown,ScrollUp,Orange.png,3,Positive,Congruent,0,0,0,0,,,,,,,,,,,,,,,,,,,,,0,13,13,13,,,,,,,,,,,,,,,,,,,,,,,,,,,,,,,,,,,,,,,,,,,,,,,,,,,,,,,,,,,,,,,,,,,,,,,,,,,,,1,1.0221903000492603,444.13098549999995,None,ScrollDown,정답입니다,444.13098549999995,None,444.13098549999995,None,444.13098549999995,None,444.13098549999995,None,445.02834850002546,None,445.02834850002546,445.52826420002384,,,,,,,,,,,,,,,,119,2022-05-06_13h53.02.098,FishGame,2022.1.1,60.10056025350271,
,15,넌 산만해,4,Green,B,2.695652173913043,3.033333333333333,ScrollUp,ScrollDown,Green.png,3,Negative,Congruent,0,0,0,0,,,,,,,,,,,,,,,,,,,,,0,14,14,14,,,,,,,,,,,,,,,,,,,,,,,,,,,,,,,,,,,,,,,,,,,,,,,,,,,,,,,,,,,,,,,,,,,,,,,,,,,,,1.8657407313585281,1.2176465999800712,446.16478450002614,None,ScrollUp,정답입니다,446.16478450002614,None,446.16478450002614,None,446.16478450002614,None,446.16478450002614,None,447.27492270001676,None,447.27492270001676,447.77854279999156,,,,,,,,,,,,,,,,119,2022-05-06_13h53.02.098,FishGame,2022.1.1,60.10056025350271,
,16,나를 보내줘,6,Orange,A,0,0,ScrollUp,ScrollDown,Orange.png,3,NonTarget,NonTarget,0,0,0,0,,,,,,,,,,,,,,,,,,,,,0,15,15,15,,,,,,,,,,,,,,,,,,,,,,,,,,,,,,,,,,,,,,,,,,,,,,,,,,,,,,,,,,,,,,,,,,,,,,,,,,,,,1.9953703780968983,1.3476996999816038,448.4148671000148,None,ScrollUp,정답입니다,448.4148671000148,None,448.4148671000148,None,448.4148671000148,None,448.4148671000148,None,449.64964820002206,None,449.64964820002206,450.1618162000086,,,,,,,,,,,,,,,,119,2022-05-06_13h53.02.098,FishGame,2022.1.1,60.10056025350271,
,17,넌 교활해,5,Green,B,2.333333333333333,2.133333333333333,ScrollUp,ScrollDown,Green.png,3,Negative,Congruent,0,0,0,0,,,,,,,,,,,,,,,,,,,,,0,16,16,16,,,,,,,,,,,,,,,,,,,,,,,,,,,,,,,,,,,,,,,,,,,,,,,,,,,,,,,,,,,,,,,,,,,,,,,,,,,,,1.9012345770994823,1.1793933999724686,450.79915320000146,None,ScrollUp,정답입니다,450.79915320000146,None,450.79915320000146,None,450.79915320000146,None,450.79915320000146,None,451.86729630001355,None,451.86729630001355,452.3784064000356,,,,,,,,,,,,,,,,119,2022-05-06_13h53.02.098,FishGame,2022.1.1,60.10056025350271,
,18,나를 보내줘,6,Orange,A,0,0,ScrollUp,ScrollDown,Orange.png,3,NonTarget,NonTarget,0,0,0,0,,,,,,,,,,,,,,,,,,,,,0,17,17,17,,,,,,,,,,,,,,,,,,,,,,,,,,,,,,,,,,,,,,,,,,,,,,,,,,,,,,,,,,,,,,,,,,,,,,,,,,,,,1.9212963084379833,1.6364874000428244,453.01783830003114,None,ScrollUp,정답입니다,453.01783830003114,None,453.01783830003114,None,453.01783830003114,None,453.01783830003114,None,454.5416447999887,None,454.5416447999887,455.04556280002,,,,,,,,,,,,,,,,119,2022-05-06_13h53.02.098,FishGame,2022.1.1,60.10056025350271,
,19,넌 불친절해,5,Green,B,2.208333333333333,2.033333333333333,ScrollUp,ScrollDown,Green.png,3,Negative,Congruent,0,0,0,0,,,,,,,,,,,,,,,,,,,,,0,18,18,18,,,,,,,,,,,,,,,,,,,,,,,,,,,,,,,,,,,,,,,,,,,,,,,,,,,,,,,,,,,,,,,,,,,,,,,,,,,,,1.878086417913437,1.3657165999757126,455.68364820000716,None,ScrollUp,정답입니다,455.68364820000716,None,455.68364820000716,None,455.68364820000716,None,455.68364820000716,None,456.9332085000351,None,456.9332085000351,457.4455506000086,,,,,,,,,,,,,,,,119,2022-05-06_13h53.02.098,FishGame,2022.1.1,60.10056025350271,
,20,넌 지적이야,2,Green,B,5.75,4.366666666666666,ScrollUp,ScrollDown,Green.png,3,Positive,Incongruent,0,0,0,0,,,,,,,,,,,,,,,,,,,,,0,19,19,19,,,,,,,,,,,,,,,,,,,,,,,,,,,,,,,,,,,,,,,,,,,,,,,,,,,,,,,,,,,,,,,,,,,,,,,,,,,,,2,1.0688606000039726,458.0851000000257,None,ScrollUp,정답입니다,458.0851000000257,None,458.0851000000257,None,458.0851000000257,None,458.0851000000257,None,459.04164420004236,None,459.04164420004236,459.5460993000306,,,,,,,,,,,,,,,,119,2022-05-06_13h53.02.098,FishGame,2022.1.1,60.10056025350271,
,21,넌 우유부단해,4,Orange,A,2.666666666666667,3.166666666666667,ScrollDown,ScrollUp,Orange.png,3,Negative,Incongruent,0,0,0,0,,,,,,,,,,,,,,,,,,,,,0,20,20,20,,,,,,,,,,,,,,,,,,,,,,,,,,,,,,,,,,,,,,,,,,,,,,,,,,,,,,,,,,,,,,,,,,,,,,,,,,,,,1,1.215863100020215,460.19688619999215,None,ScrollDown,정답입니다,460.19688619999215,None,460.19688619999215,None,460.19688619999215,None,460.19688619999215,None,461.2832249000203,None,461.2832249000203,461.79532870004186,,,,,,,,,,,,,,,,119,2022-05-06_13h53.02.098,FishGame,2022.1.1,60.10056025350271,
,22,나를 데려가줘,6,Green,B,0,0,ScrollDown,ScrollUp,Green.png,3,NonTarget,NonTarget,0,0,0,0,,,,,,,,,,,,,,,,,,,,,0,21,21,21,,,,,,,,,,,,,,,,,,,,,,,,,,,,,,,,,,,,,,,,,,,,,,,,,,,,,,,,,,,,,,,,,,,,,,,,,,,,,1,1.5323113999911584,462.42716399999335,None,ScrollDown,정답입니다,462.42716399999335,None,462.42716399999335,None,462.42716399999335,None,462.42716399999335,None,463.8498384000268,None,463.8498384000268,464.3621002000291,,,,,,,,,,,,,,,,119,2022-05-06_13h53.02.098,FishGame,2022.1.1,60.10056025350271,
,23,넌 성실해,1,Green,B,6.041666666666666,5.7,ScrollUp,ScrollDown,Green.png,3,Positive,Incongruent,0,0,0,0,,,,,,,,,,,,,,,,,,,,,0,22,22,22,,,,,,,,,,,,,,,,,,,,,,,,,,,,,,,,,,,,,,,,,,,,,,,,,,,,,,,,,,,,,,,,,,,,,,,,,,,,,1.8317901243766148,1.415123599988874,464.988488700008,None,ScrollUp,정답입니다,464.988488700008,None,464.988488700008,None,464.988488700008,None,464.988488700008,None,466.2998910000315,None,466.2998910000315,466.81198480003513,,,,,,,,,,,,,,,,119,2022-05-06_13h53.02.098,FishGame,2022.1.1,60.10056025350271,
,24,넌 현실주의적이야,3,Orange,A,4.625,4.4,ScrollDown,ScrollUp,Orange.png,3,Neutral,Neutral,0,0,0,0,,,,,,,,,,,,,,,,,,,,,0,23,23,23,,,,,,,,,,,,,,,,,,,,,,,,,,,,,,,,,,,,,,,,,,,,,,,,,,,,,,,,,,,,,,,,,,,,,,,,,,,,,1.1049382785956066,1.1207381999702193,467.45138600002974,None,ScrollDown,정답입니다,467.45138600002974,None,467.45138600002974,None,467.45138600002974,None,467.45138600002974,None,468.4586205999949,None,468.4586205999949,468.9619271000265,,,,,,,,,,,,,,,,119,2022-05-06_13h53.02.098,FishGame,2022.1.1,60.10056025350271,
,25,넌 진실돼,1,Orange,A,6.625,5.566666666666666,ScrollDown,ScrollUp,Orange.png,3,Positive,Congruent,0,0,0,0,,,,,,,,,,,,,,,,,,,,,0,24,24,24,,,,,,,,,,,,,,,,,,,,,,,,,,,,,,,,,,,,,,,,,,,,,,,,,,,,,,,,,,,,,,,,,,,,,,,,,,,,,1.0864197611808777,1.4021438999916427,469.6108984000166,None,ScrollDown,정답입니다,469.6108984000166,None,469.6108984000166,None,469.6108984000166,None,469.6108984000166,None,470.8922547000111,None,470.8922547000111,471.39574740000535,,,,,,,,,,,,,,,,119,2022-05-06_13h53.02.098,FishGame,2022.1.1,60.10056025350271,
,26,넌 천진난만해,3,Green,B,4.958333333333334,4.833333333333333,ScrollUp,ScrollDown,Green.png,3,Neutral,Neutral,0,0,0,0,,,,,,,,,,,,,,,,,,,,,0,25,25,25,,,,,,,,,,,,,,,,,,,,,,,,,,,,,,,,,,,,,,,,,,,,,,,,,,,,,,,,,,,,,,,,,,,,,,,,,,,,,1.9182098805904388,1.1575073999702,472.04261880001286,None,ScrollUp,정답입니다,472.04261880001286,None,472.04261880001286,None,472.04261880001286,None,472.04261880001286,None,473.07901230000425,None,473.07901230000425,473.5791671000188,,,,,,,,,,,,,,,,119,2022-05-06_13h53.02.098,FishGame,2022.1.1,60.10056025350271,
,27,넌 교양없어,5,Orange,A,2.416666666666667,2.2,ScrollDown,ScrollUp,Orange.png,3,Negative,Incongruent,0,0,0,0,,,,,,,,,,,,,,,,,,,,,0,26,26,26,,,,,,,,,,,,,,,,,,,,,,,,,,,,,,,,,,,,,,,,,,,,,,,,,,,,,,,,,,,,,,,,,,,,,,,,,,,,,1,1.0650202999822795,474.2188555999892,None,ScrollDown,정답입니다,474.2188555999892,None,474.2188555999892,None,474.2188555999892,None,474.2188555999892,None,475.1676433000248,None,475.1676433000248,475.6793473000289,,,,,,,,,,,,,,,,119,2022-05-06_13h53.02.098,FishGame,2022.1.1,60.10056025350271,
,28,나를 보내줘,6,Orange,A,0,0,ScrollUp,ScrollDown,Orange.png,3,NonTarget,NonTarget,0,0,0,0,,,,,,,,,,,,,,,,,,,,,0,27,27,27,,,,,,,,,,,,,,,,,,,,,,,,,,,,,,,,,,,,,,,,,,,,,,,,,,,,,,,,,,,,,,,,,,,,,,,,,,,,,1,1.158314700005576,476.3178608000162,None,ScrollDown,오답입니다,476.3178608000162,None,476.3178608000162,None,476.3178608000162,None,476.3178608000162,None,477.36219270003494,None,477.36219270003494,477.8622105999966,,,,,,,,,,,,,,,,119,2022-05-06_13h53.02.098,FishGame,2022.1.1,60.10056025350271,
,29,넌 엉뚱스러워,3,Orange,A,4.166666666666667,4.133333333333334,ScrollDown,ScrollUp,Orange.png,3,Neutral,Neutral,0,0,0,0,,,,,,,,,,,,,,,,,,,,,0,28,28,28,,,,,,,,,,,,,,,,,,,,,,,,,,,,,,,,,,,,,,,,,,,,,,,,,,,,,,,,,,,,,,,,,,,,,,,,,,,,,1,1.050695599988103,478.5143409000011,None,ScrollDown,정답입니다,478.5143409000011,None,478.5143409000011,None,478.5143409000011,None,478.5143409000011,None,479.43533800001023,None,479.43533800001023,479.94588990003103,,,,,,,,,,,,,,,,119,2022-05-06_13h53.02.098,FishGame,2022.1.1,60.10056025350271,
,30,넌 무지해,4,Green,B,2.541666666666667,3.066666666666667,ScrollUp,ScrollDown,Green.png,3,Negative,Congruent,0,0,0,0,,,,,,,,,,,,,,,,,,,,,0,29,29,29,,,,,,,,,,,,,,,,,,,,,,,,,,,,,,,,,,,,,,,,,,,,,,,,,,,,,,,,,,,,,,,,,,,,,,,,,,,,,1.9274691144625347,0.965525500010699,480.5734211000381,None,ScrollUp,정답입니다,480.5734211000381,None,480.5734211000381,None,480.5734211000381,None,480.5734211000381,None,481.43413130001863,None,481.43413130001863,481.9459945000126,,,,,,,,,,,,,,,,119,2022-05-06_13h53.02.098,FishGame,2022.1.1,60.10056025350271,
,31,넌 음울해,5,Green,B,2.25,2.233333333333333,ScrollUp,ScrollDown,Green.png,3,Negative,Congruent,0,0,0,0,,,,,,,,,,,,,,,,,,,,,0,30,30,30,,,,,,,,,,,,,,,,,,,,,,,,,,,,,,,,,,,,,,,,,,,,,,,,,,,,,,,,,,,,,,,,,,,,,,,,,,,,,1.7932098756233852,1.0995183999766596,482.58249760000035,None,ScrollUp,정답입니다,482.58249760000035,None,482.58249760000035,None,482.58249760000035,None,482.58249760000035,None,483.5667397000361,None,483.5667397000361,484.0795108000166,,,,,,,,,,,,,,,,119,2022-05-06_13h53.02.098,FishGame,2022.1.1,60.10056025350271,
,32,넌 냉소적이야,5,Orange,A,2.916666666666667,2.4,ScrollDown,ScrollUp,Orange.png,3,Negative,Incongruent,0,0,0,0,,,,,,,,,,,,,,,,,,,,,0,31,31,31,,,,,,,,,,,,,,,,,,,,,,,,,,,,,,,,,,,,,,,,,,,,,,,,,,,,,,,,,,,,,,,,,,,,,,,,,,,,,1,1.0078582999994978,484.71882100001676,None,ScrollDown,정답입니다,484.71882100001676,None,484.71882100001676,None,484.71882100001676,None,484.71882100001676,None,485.61228350002784,None,485.61228350002784,486.11238980002236,,,,,,,,,,,,,,,,119,2022-05-06_13h53.02.098,FishGame,2022.1.1,60.10056025350271,
,33,나를 데려가줘,6,Green,B,0,0,ScrollDown,ScrollUp,Green.png,3,NonTarget,NonTarget,0,0,0,0,,,,,,,,,,,,,,,,,,,,,0,32,32,32,,,,,,,,,,,,,,,,,,,,,,,,,,,,,,,,,,,,,,,,,,,,,,,,,,,,,,,,,,,,,,,,,,,,,,,,,,,,,1,1.1589941000565886,486.7504487000406,None,ScrollDown,정답입니다,486.7504487000406,None,486.7504487000406,None,486.7504487000406,None,486.7504487000406,None,487.7960510000121,None,487.7960510000121,488.296291900042,,,,,,,,,,,,,,,,119,2022-05-06_13h53.02.098,FishGame,2022.1.1,60.10056025350271,
,34,넌 쾌활해,1,Orange,A,5.541666666666666,5.733333333333333,ScrollDown,ScrollUp,Orange.png,3,Positive,Congruent,0,0,0,0,,,,,,,,,,,,,,,,,,,,,0,33,33,33,,,,,,,,,,,,,,,,,,,,,,,,,,,,,,,,,,,,,,,,,,,,,,,,,,,,,,,,,,,,,,,,,,,,,,,,,,,,,1,1.0484600000199862,488.93463319999864,None,ScrollDown,정답입니다,488.93463319999864,None,488.93463319999864,None,488.93463319999864,None,488.93463319999864,None,489.8671283000149,None,489.8671283000149,490.3795963000157,,,,,,,,,,,,,,,,119,2022-05-06_13h53.02.098,FishGame,2022.1.1,60.10056025350271,
,35,나를 보내줘,6,Orange,A,0,0,ScrollUp,ScrollDown,Orange.png,3,NonTarget,NonTarget,0,0,0,0,,,,,,,,,,,,,,,,,,,,,0,34,34,34,,,,,,,,,,,,,,,,,,,,,,,,,,,,,,,,,,,,,,,,,,,,,,,,,,,,,,,,,,,,,,,,,,,,,,,,,,,,,1,1.0895525999949314,491.0105190000031,None,ScrollDown,오답입니다,491.0105190000031,None,491.0105190000031,None,491.0105190000031,None,491.0105190000031,None,491.98919520003255,None,491.98919520003255,492.4960883000167,,,,,,,,,,,,,,,,119,2022-05-06_13h53.02.098,FishGame,2022.1.1,60.10056025350271,
,36,넌 명랑해,1,Green,B,5.739130434782609,5.666666666666667,ScrollUp,ScrollDown,Green.png,3,Positive,Incongruent,0,0,0,0,,,,,,,,,,,,,,,,,,,,,0,35,35,35,,,,,,,,,,,,,,,,,,,,,,,,,,,,,,,,,,,,,,,,,,,,,,,,,,,,,,,,,,,,,,,,,,,,,,,,,,,,,1.9120370248953502,1.6480694999918342,493.13266050000675,None,ScrollUp,정답입니다,493.13266050000675,None,493.13266050000675,None,493.13266050000675,None,493.13266050000675,None,494.66802680003457,None,494.66802680003457,495.1794797999901,,,,,,,,,,,,,,,,119,2022-05-06_13h53.02.098,FishGame,2022.1.1,60.10056025350271,
,37,넌 멍해,4,Orange,A,2.833333333333333,3.4,ScrollDown,ScrollUp,Orange.png,3,Negative,Incongruent,0,0,0,0,,,,,,,,,,,,,,,,,,,,,0,36,36,36,,,,,,,,,,,,,,,,,,,,,,,,,,,,,,,,,,,,,,,,,,,,,,,,,,,,,,,,,,,,,,,,,,,,,,,,,,,,,1,1.1090367000433616,495.8172210000339,None,ScrollDown,정답입니다,495.8172210000339,None,495.8172210000339,None,495.8172210000339,None,495.8172210000339,None,496.8125391000067,None,496.8125391000067,497.31294130004244,,,,,,,,,,,,,,,,119,2022-05-06_13h53.02.098,FishGame,2022.1.1,60.10056025350271,
,38,나를 데려가줘,6,Green,B,0,0,ScrollDown,ScrollUp,Green.png,3,NonTarget,NonTarget,0,0,0,0,,,,,,,,,,,,,,,,,,,,,0,37,37,37,,,,,,,,,,,,,,,,,,,,,,,,,,,,,,,,,,,,,,,,,,,,,,,,,,,,,,,,,,,,,,,,,,,,,,,,,,,,,1,1.3576155999908224,497.94272950000595,None,ScrollDown,정답입니다,497.94272950000595,None,497.94272950000595,None,497.94272950000595,None,497.94272950000595,None,499.19609790004324,None,499.19609790004324,499.6963922000141,,,,,,,,,,,,,,,,119,2022-05-06_13h53.02.098,FishGame,2022.1.1,60.10056025350271,
,39,넌 현명해,2,Orange,A,6.541666666666666,4.533333333333333,ScrollDown,ScrollUp,Orange.png,3,Positive,Congruent,0,0,0,0,,,,,,,,,,,,,,,,,,,,,0,38,38,38,,,,,,,,,,,,,,,,,,,,,,,,,,,,,,,,,,,,,,,,,,,,,,,,,,,,,,,,,,,,,,,,,,,,,,,,,,,,,1,1.0427230999921449,500.3299954000395,None,ScrollDown,정답입니다,500.3299954000395,None,500.3299954000395,None,500.3299954000395,None,500.3299954000395,None,501.26263499999186,None,501.26263499999186,501.7633896000334,,,,,,,,,,,,,,,,119,2022-05-06_13h53.02.098,FishGame,2022.1.1,60.10056025350271,
,40,넌 수줍어,3,Green,B,3.541666666666666,4.366666666666666,ScrollUp,ScrollDown,Green.png,3,Neutral,Neutral,0,0,0,0,,,,,,,,,,,,,,,,,,,,,0,39,39,39,,,,,,,,,,,,,,,,,,,,,,,,,,,,,,,,,,,,,,,,,,,,,,,,,,,,,,,,,,,,,,,,,,,,,,,,,,,,,1.71913580596447,1.2047278000391088,502.40992070001084,None,ScrollUp,정답입니다,502.40992070001084,None,502.40992070001084,None,502.40992070001084,None,502.40992070001084,None,503.4963724000263,None,503.4963724000263,503.9962405000115,,,,,,,,,,,,,,,,119,2022-05-06_13h53.02.098,FishGame,2022.1.1,60.10056025350271,
,41,나를 데려가줘,6,Green,B,0,0,ScrollDown,ScrollUp,Green.png,3,NonTarget,NonTarget,0,0,0,0,,,,,,,,,,,,,,,,,,,,,0,40,40,40,,,,,,,,,,,,,,,,,,,,,,,,,,,,,,,,,,,,,,,,,,,,,,,,,,,,,,,,,,,,,,,,,,,,,,,,,,,,,1,1.2505383000243455,504.63109700003406,None,ScrollDown,정답입니다,504.63109700003406,None,504.63109700003406,None,504.63109700003406,None,504.63109700003406,None,505.76760290004313,None,505.76760290004313,506.2800762000261,,,,,,,,,,,,,,,,119,2022-05-06_13h53.02.098,FishGame,2022.1.1,60.10056025350271,
,42,넌 성숙해,2,Green,B,5.833333333333333,4.533333333333333,ScrollUp,ScrollDown,Green.png,3,Positive,Incongruent,0,0,0,0,,,,,,,,,,,,,,,,,,,,,0,41,41,41,,,,,,,,,,,,,,,,,,,,,,,,,,,,,,,,,,,,,,,,,,,,,,,,,,,,,,,,,,,,,,,,,,,,,,,,,,,,,1.9228395223617554,1.1383392999996431,506.9112657000078,None,ScrollUp,정답입니다,506.9112657000078,None,506.9112657000078,None,506.9112657000078,None,506.9112657000078,None,507.9433452000376,None,507.9433452000376,508.4463531000074,,,,,,,,,,,,,,,,119,2022-05-06_13h53.02.098,FishGame,2022.1.1,60.10056025350271,
,1,넌 매력적이야,2,Green,B,6.125,4.666666666666667,ScrollUp,ScrollDown,Green.png,4,Positive,Incongruent,0,0,0,0,,,,,,,,,,,,,,,,,,,,,,,,,0,0,0,0,,,,,,,,,,,,,,,,,,,,,,,,,,,,,,,,547.3308443000424,548.8313210000051,548.8641332000261,549.8141000000178,549.8644518000074,550.8140697000199,550.8140697000199,None,,,,,,,,,,,,,,,,,,,,,,,,,,,,,,,,,,1.8981481492519379,1.2040778000373393,551.9679843999911,None,ScrollUp,정답입니다,551.9679843999911,None,551.9679843999911,None,551.9679843999911,None,551.9679843999911,None,553.014086500043,None,553.014086500043,553.5142151000327,508.94586909998907,None,508.94586909998907,None,0.2462963,-0.097222224,1,0,0,0.016334399988409132,None,538.9469755000318,None,,,119,2022-05-06_13h53.02.098,FishGame,2022.1.1,60.10056025350271,
,2,나를 보내줘,6,Orange,A,0,0,ScrollUp,ScrollDown,Orange.png,4,NonTarget,NonTarget,0,0,0,0,,,,,,,,,,,,,,,,,,,,,,,,,0,1,1,1,,,,,,,,,,,,,,,,,,,,,,,,,,,,,,,,,,,,,,,,,,,,,,,,,,,,,,,,,,,,,,,,,,,,,,,,,1.807098776102066,1.1757826999528334,554.1512163000298,None,ScrollUp,정답입니다,554.1512163000298,None,554.1512163000298,None,554.1512163000298,None,554.1512163000298,None,555.2133156000054,None,555.2133156000054,555.714374400035,,,,,,,,,,,,,,,,119,2022-05-06_13h53.02.098,FishGame,2022.1.1,60.10056025350271,
,3,넌 조심스러워,3,Orange,A,4.791666666666666,4.666666666666667,ScrollDown,ScrollUp,Orange.png,4,Neutral,Neutral,0,0,0,0,,,,,,,,,,,,,,,,,,,,,,,,,0,2,2,2,,,,,,,,,,,,,,,,,,,,,,,,,,,,,,,,,,,,,,,,,,,,,,,,,,,,,,,,,,,,,,,,,,,,,,,,,1,1.0981991000007838,556.3552817000309,None,ScrollDown,정답입니다,556.3552817000309,None,556.3552817000309,None,556.3552817000309,None,556.3552817000309,None,557.336010500032,None,557.336010500032,557.8475018999889,,,,,,,,,,,,,,,,119,2022-05-06_13h53.02.098,FishGame,2022.1.1,60.10056025350271,
,4,넌 철학적이야,3,Green,B,4.5,4.266666666666667,ScrollUp,ScrollDown,Green.png,4,Neutral,Neutral,0,0,0,0,,,,,,,,,,,,,,,,,,,,,,,,,0,3,3,3,,,,,,,,,,,,,,,,,,,,,,,,,,,,,,,,,,,,,,,,,,,,,,,,,,,,,,,,,,,,,,,,,,,,,,,,,1.8888888905445735,0.9178983000456356,558.4933932000422,None,ScrollUp,정답입니다,558.4933932000422,None,558.4933932000422,None,558.4933932000422,None,558.4933932000422,None,559.2938017999986,None,559.2938017999986,559.7977839999949,,,,,,,,,,,,,,,,119,2022-05-06_13h53.02.098,FishGame,2022.1.1,60.10056025350271,
,5,넌 쩨쩨해,5,Orange,A,2.375,2.133333333333333,ScrollDown,ScrollUp,Orange.png,4,Negative,Incongruent,0,0,0,0,,,,,,,,,,,,,,,,,,,,,,,,,0,4,4,4,,,,,,,,,,,,,,,,,,,,,,,,,,,,,,,,,,,,,,,,,,,,,,,,,,,,,,,,,,,,,,,,,,,,,,,,,1.0416666567325592,0.9026679000235163,560.4424859000137,None,ScrollDown,정답입니다,560.4424859000137,None,560.4424859000137,None,560.4424859000137,None,560.4424859000137,None,561.2277791000088,None,561.2277791000088,561.7308472000295,,,,,,,,,,,,,,,,119,2022-05-06_13h53.02.098,FishGame,2022.1.1,60.10056025350271,
,6,나를 데려가줘,6,Green,B,0,0,ScrollDown,ScrollUp,Green.png,4,NonTarget,NonTarget,0,0,0,0,,,,,,,,,,,,,,,,,,,,,,,,,0,5,5,5,,,,,,,,,,,,,,,,,,,,,,,,,,,,,,,,,,,,,,,,,,,,,,,,,,,,,,,,,,,,,,,,,,,,,,,,,1.8564814726511638,1.1502334999968298,562.3630263000377,None,ScrollUp,오답입니다,562.3630263000377,None,562.3630263000377,None,562.3630263000377,None,562.3630263000377,None,563.4047075000126,None,563.4047075000126,563.9143483000225,,,,,,,,,,,,,,,,119,2022-05-06_13h53.02.098,FishGame,2022.1.1,60.10056025350271,
,7,넌 고집불통이야,5,Green,B,2.875,2,ScrollUp,ScrollDown,Green.png,4,Negative,Congruent,0,0,0,0,,,,,,,,,,,,,,,,,,,,,,,,,0,6,6,6,,,,,,,,,,,,,,,,,,,,,,,,,,,,,,,,,,,,,,,,,,,,,,,,,,,,,,,,,,,,,,,,,,,,,,,,,1.7685185273488362,0.9422278000274673,564.5645485999994,None,ScrollUp,정답입니다,564.5645485999994,None,564.5645485999994,None,564.5645485999994,None,564.5645485999994,None,565.3810964000295,None,565.3810964000295,565.8811170000117,,,,,,,,,,,,,,,,119,2022-05-06_13h53.02.098,FishGame,2022.1.1,60.10056025350271,
,8,넌 무심해,4,Orange,A,2.875,3.2,ScrollDown,ScrollUp,Orange.png,4,Negative,Incongruent,0,0,0,0,,,,,,,,,,,,,,,,,,,,,,,,,0,7,7,7,,,,,,,,,,,,,,,,,,,,,,,,,,,,,,,,,,,,,,,,,,,,,,,,,,,,,,,,,,,,,,,,,,,,,,,,,1.1172839403152466,0.9997092999983579,566.5198926000157,None,ScrollDown,정답입니다,566.5198926000157,None,566.5198926000157,None,566.5198926000157,None,566.5198926000157,None,567.4112394000404,None,567.4112394000404,567.9148709999863,,,,,,,,,,,,,,,,119,2022-05-06_13h53.02.098,FishGame,2022.1.1,60.10056025350271,
,9,넌 정겨워,1,Orange,A,5.791666666666667,5.666666666666667,ScrollDown,ScrollUp,Orange.png,4,Positive,Congruent,0,0,0,0,,,,,,,,,,,,,,,,,,,,,,,,,0,8,8,8,,,,,,,,,,,,,,,,,,,,,,,,,,,,,,,,,,,,,,,,,,,,,,,,,,,,,,,,,,,,,,,,,,,,,,,,,1.0632716019948323,0.9889082000008784,568.5623177000089,None,ScrollDown,정답입니다,568.5623177000089,None,568.5623177000089,None,568.5623177000089,None,568.5623177000089,None,569.4310009999899,None,569.4310009999899,569.9314877000288,,,,,,,,,,,,,,,,119,2022-05-06_13h53.02.098,FishGame,2022.1.1,60.10056025350271,
,10,나를 데려가줘,6,Green,B,0,0,ScrollDown,ScrollUp,Green.png,4,NonTarget,NonTarget,0,0,0,0,,,,,,,,,,,,,,,,,,,,,,,,,0,9,9,9,,,,,,,,,,,,,,,,,,,,,,,,,,,,,,,,,,,,,,,,,,,,,,,,,,,,,,,,,,,,,,,,,,,,,,,,,1.1759259204069774,1.0509006000356749,570.565327999997,None,ScrollDown,정답입니다,570.565327999997,None,570.565327999997,None,570.565327999997,None,570.565327999997,None,571.5036294999882,None,571.5036294999882,572.0144914000412,,,,,,,,,,,,,,,,119,2022-05-06_13h53.02.098,FishGame,2022.1.1,60.10056025350271,
,11,넌 체제순응적이야,4,Green,B,3,3.6,ScrollUp,ScrollDown,Green.png,4,Negative,Congruent,0,0,0,0,,,,,,,,,,,,,,,,,,,,,,,,,0,10,10,10,,,,,,,,,,,,,,,,,,,,,,,,,,,,,,,,,,,,,,,,,,,,,,,,,,,,,,,,,,,,,,,,,,,,,,,,,1.5972222226361432,1.288402899983339,572.6639134000288,None,ScrollUp,정답입니다,572.6639134000288,None,572.6639134000288,None,572.6639134000288,None,572.6639134000288,None,573.8311183000333,None,573.8311183000333,574.3311929000192,,,,,,,,,,,,,,,,119,2022-05-06_13h53.02.098,FishGame,2022.1.1,60.10056025350271,
,12,나를 보내줘,6,Orange,A,0,0,ScrollUp,ScrollDown,Orange.png,4,NonTarget,NonTarget,0,0,0,0,,,,,,,,,,,,,,,,,,,,,,,,,0,11,11,11,,,,,,,,,,,,,,,,,,,,,,,,,,,,,,,,,,,,,,,,,,,,,,,,,,,,,,,,,,,,,,,,,,,,,,,,,1.8302469104528427,1.351598199980799,574.967491700023,None,ScrollUp,정답입니다,574.967491700023,None,574.967491700023,None,574.967491700023,None,574.967491700023,None,576.2113221000182,None,576.2113221000182,576.7147087000194,,,,,,,,,,,,,,,,119,2022-05-06_13h53.02.098,FishGame,2022.1.1,60.10056025350271,
,13,넌 박식해,2,Orange,A,5.625,3.933333333333333,ScrollDown,ScrollUp,Orange.png,4,Positive,Congruent,0,0,0,0,,,,,,,,,,,,,,,,,,,,,,,,,0,12,12,12,,,,,,,,,,,,,,,,,,,,,,,,,,,,,,,,,,,,,,,,,,,,,,,,,,,,,,,,,,,,,,,,,,,,,,,,,1,1.0342513999785297,577.3613804000197,None,ScrollDown,정답입니다,577.3613804000197,None,577.3613804000197,None,577.3613804000197,None,577.3613804000197,None,578.2780020000064,None,578.2780020000064,578.7814737000153,,,,,,,,,,,,,,,,119,2022-05-06_13h53.02.098,FishGame,2022.1.1,60.10056025350271,
,14,나를 보내줘,6,Orange,A,0,0,ScrollUp,ScrollDown,Orange.png,4,NonTarget,NonTarget,0,0,0,0,,,,,,,,,,,,,,,,,,,,,,,,,0,13,13,13,,,,,,,,,,,,,,,,,,,,,,,,,,,,,,,,,,,,,,,,,,,,,,,,,,,,,,,,,,,,,,,,,,,,,,,,,1.658950611948967,1.711922799993772,579.420518900035,None,ScrollUp,정답입니다,579.420518900035,None,579.420518900035,None,579.420518900035,None,579.420518900035,None,581.0148778000148,None,581.0148778000148,581.514774899988,,,,,,,,,,,,,,,,119,2022-05-06_13h53.02.098,FishGame,2022.1.1,60.10056025350271,
,15,넌 침착해,1,Green,B,5.458333333333333,5.566666666666666,ScrollUp,ScrollDown,Green.png,4,Positive,Incongruent,0,0,0,0,,,,,,,,,,,,,,,,,,,,,,,,,0,14,14,14,,,,,,,,,,,,,,,,,,,,,,,,,,,,,,,,,,,,,,,,,,,,,,,,,,,,,,,,,,,,,,,,,,,,,,,,,1.6265432064731917,1.293929899984505,582.1613160000416,None,ScrollUp,정답입니다,582.1613160000416,None,582.1613160000416,None,582.1613160000416,None,582.1613160000416,None,583.3352664000122,None,583.3352664000122,583.8483667999972,,,,,,,,,,,,,,,,119,2022-05-06_13h53.02.098,FishGame,2022.1.1,60.10056025350271,
,16,나를 데려가줘,6,Green,B,0,0,ScrollDown,ScrollUp,Green.png,4,NonTarget,NonTarget,0,0,0,0,,,,,,,,,,,,,,,,,,,,,,,,,0,15,15,15,,,,,,,,,,,,,,,,,,,,,,,,,,,,,,,,,,,,,,,,,,,,,,,,,,,,,,,,,,,,,,,,,,,,,,,,,1.1975308656692505,1.1660361000103876,584.4749773000367,None,ScrollDown,정답입니다,584.4749773000367,None,584.4749773000367,None,584.4749773000367,None,584.4749773000367,None,585.5360557000386,None,585.5360557000386,586.0482365000062,,,,,,,,,,,,,,,,119,2022-05-06_13h53.02.098,FishGame,2022.1.1,60.10056025350271,
,17,넌 행복해,1,Orange,A,6.416666666666666,6.166666666666667,ScrollDown,ScrollUp,Orange.png,4,Positive,Congruent,0,0,0,0,,,,,,,,,,,,,,,,,,,,,,,,,0,16,16,16,,,,,,,,,,,,,,,,,,,,,,,,,,,,,,,,,,,,,,,,,,,,,,,,,,,,,,,,,,,,,,,,,,,,,,,,,1,1.7331924000172876,586.6958205000265,None,ScrollDown,정답입니다,586.6958205000265,None,586.6958205000265,None,586.6958205000265,None,586.6958205000265,None,588.3027666000417,None,588.3027666000417,588.8143987000221,,,,,,,,,,,,,,,,119,2022-05-06_13h53.02.098,FishGame,2022.1.1,60.10056025350271,
,18,넌 겸손해,2,Green,B,5.791666666666667,4.766666666666667,ScrollUp,ScrollDown,Green.png,4,Positive,Incongruent,0,0,0,0,,,,,,,,,,,,,,,,,,,,,,,,,0,17,17,17,,,,,,,,,,,,,,,,,,,,,,,,,,,,,,,,,,,,,,,,,,,,,,,,,,,,,,,,,,,,,,,,,,,,,,,,,2,1.5884377000038512,589.4613112999941,None,ScrollUp,정답입니다,589.4613112999941,None,589.4613112999941,None,589.4613112999941,None,589.4613112999941,None,590.9284048000118,None,590.9284048000118,591.4315607000026,,,,,,,,,,,,,,,,119,2022-05-06_13h53.02.098,FishGame,2022.1.1,60.10056025350271,
,19,나를 보내줘,6,Orange,A,0,0,ScrollUp,ScrollDown,Orange.png,4,NonTarget,NonTarget,0,0,0,0,,,,,,,,,,,,,,,,,,,,,,,,,0,18,18,18,,,,,,,,,,,,,,,,,,,,,,,,,,,,,,,,,,,,,,,,,,,,,,,,,,,,,,,,,,,,,,,,,,,,,,,,,1.807098776102066,1.2179933000006713,592.063866200042,None,ScrollUp,정답입니다,592.063866200042,None,592.063866200042,None,592.063866200042,None,592.063866200042,None,593.1779234000132,None,593.1779234000132,593.6819269999978,,,,,,,,,,,,,,,,119,2022-05-06_13h53.02.098,FishGame,2022.1.1,60.10056025350271,
,20,넌 의심없어,3,Orange,A,4.166666666666667,4.6,ScrollDown,ScrollUp,Orange.png,4,Neutral,Neutral,0,0,0,0,,,,,,,,,,,,,,,,,,,,,,,,,0,19,19,19,,,,,,,,,,,,,,,,,,,,,,,,,,,,,,,,,,,,,,,,,,,,,,,,,,,,,,,,,,,,,,,,,,,,,,,,,1,1.2734547999571078,594.321196200035,None,ScrollDown,정답입니다,594.321196200035,None,594.321196200035,None,594.321196200035,None,594.321196200035,None,595.4817741999868,None,595.4817741999868,595.981889799994,,,,,,,,,,,,,,,,119,2022-05-06_13h53.02.098,FishGame,2022.1.1,60.10056025350271,
,21,넌 시시해,4,Orange,A,2.666666666666667,2.966666666666667,ScrollDown,ScrollUp,Orange.png,4,Negative,Incongruent,0,0,0,0,,,,,,,,,,,,,,,,,,,,,,,,,0,20,20,20,,,,,,,,,,,,,,,,,,,,,,,,,,,,,,,,,,,,,,,,,,,,,,,,,,,,,,,,,,,,,,,,,,,,,,,,,1.0910493781169255,1.0335074000176974,596.6286848000018,None,ScrollDown,정답입니다,596.6286848000018,None,596.6286848000018,None,596.6286848000018,None,596.6286848000018,None,597.545204700029,None,597.545204700029,598.0485453000292,,,,,,,,,,,,,,,,119,2022-05-06_13h53.02.098,FishGame,2022.1.1,60.10056025350271,
,22,나를 데려가줘,6,Green,B,0,0,ScrollDown,ScrollUp,Green.png,4,NonTarget,NonTarget,0,0,0,0,,,,,,,,,,,,,,,,,,,,,,,,,0,21,21,21,,,,,,,,,,,,,,,,,,,,,,,,,,,,,,,,,,,,,,,,,,,,,,,,,,,,,,,,,,,,,,,,,,,,,,,,,1.0540123681227367,1.0760605999967083,598.6869859000435,None,ScrollDown,정답입니다,598.6869859000435,None,598.6869859000435,None,598.6869859000435,None,598.6869859000435,None,599.6484567000298,None,599.6484567000298,600.148682900006,,,,,,,,,,,,,,,,119,2022-05-06_13h53.02.098,FishGame,2022.1.1,60.10056025350271,
,23,넌 무정해,5,Orange,A,2.5,2.2,ScrollDown,ScrollUp,Orange.png,4,Negative,Incongruent,0,0,0,0,,,,,,,,,,,,,,,,,,,,,,,,,0,22,22,22,,,,,,,,,,,,,,,,,,,,,,,,,,,,,,,,,,,,,,,,,,,,,,,,,,,,,,,,,,,,,,,,,,,,,,,,,1,1.0298457000171766,600.7887948999996,None,ScrollDown,정답입니다,600.7887948999996,None,600.7887948999996,None,600.7887948999996,None,600.7887948999996,None,601.7030640000012,None,601.7030640000012,602.2153686000383,,,,,,,,,,,,,,,,119,2022-05-06_13h53.02.098,FishGame,2022.1.1,60.10056025350271,
,24,넌 긍정적이야,1,Green,B,6.041666666666667,6.066666666666666,ScrollUp,ScrollDown,Green.png,4,Positive,Incongruent,0,0,0,0,,,,,,,,,,,,,,,,,,,,,,,,,0,23,23,23,,,,,,,,,,,,,,,,,,,,,,,,,,,,,,,,,,,,,,,,,,,,,,,,,,,,,,,,,,,,,,,,,,,,,,,,,1.6867284004886947,1.2591101999860257,602.8631935000303,None,ScrollUp,정답입니다,602.8631935000303,None,602.8631935000303,None,602.8631935000303,None,602.8631935000303,None,603.9982503000065,None,603.9982503000065,604.499548199994,,,,,,,,,,,,,,,,119,2022-05-06_13h53.02.098,FishGame,2022.1.1,60.10056025350271,
,25,나를 보내줘,6,Orange,A,0,0,ScrollUp,ScrollDown,Orange.png,4,NonTarget,NonTarget,0,0,0,0,,,,,,,,,,,,,,,,,,,,,,,,,0,24,24,24,,,,,,,,,,,,,,,,,,,,,,,,,,,,,,,,,,,,,,,,,,,,,,,,,,,,,,,,,,,,,,,,,,,,,,,,,1.6851851865649223,1.2342104999697767,605.1356609000359,None,ScrollUp,정답입니다,605.1356609000359,None,605.1356609000359,None,605.1356609000359,None,605.1356609000359,None,606.253291400033,None,606.253291400033,606.765304200002,,,,,,,,,,,,,,,,119,2022-05-06_13h53.02.098,FishGame,2022.1.1,60.10056025350271,
,26,넌 시기심이 많아,5,Green,B,2.458333333333333,2.233333333333333,ScrollUp,ScrollDown,Green.png,4,Negative,Congruent,0,0,0,0,,,,,,,,,,,,,,,,,,,,,,,,,0,25,25,25,,,,,,,,,,,,,,,,,,,,,,,,,,,,,,,,,,,,,,,,,,,,,,,,,,,,,,,,,,,,,,,,,,,,,,,,,1.6651234552264214,1.2418332999804989,607.4101618000423,None,ScrollUp,정답입니다,607.4101618000423,None,607.4101618000423,None,607.4101618000423,None,607.4101618000423,None,608.531298100017,None,608.531298100017,609.0319669999881,,,,,,,,,,,,,,,,119,2022-05-06_13h53.02.098,FishGame,2022.1.1,60.10056025350271,
,27,넌 탁월해,2,Orange,A,5.708333333333334,4.5,ScrollDown,ScrollUp,Orange.png,4,Positive,Congruent,0,0,0,0,,,,,,,,,,,,,,,,,,,,,,,,,0,26,26,26,,,,,,,,,,,,,,,,,,,,,,,,,,,,,,,,,,,,,,,,,,,,,,,,,,,,,,,,,,,,,,,,,,,,,,,,,1.1836419651905696,0.9395492000039667,609.6710342000006,None,ScrollDown,정답입니다,609.6710342000006,None,609.6710342000006,None,609.6710342000006,None,609.6710342000006,None,610.4985855999985,None,610.4985855999985,610.9991152000148,,,,,,,,,,,,,,,,119,2022-05-06_13h53.02.098,FishGame,2022.1.1,60.10056025350271,
,28,나를 데려가줘,6,Green,B,0,0,ScrollDown,ScrollUp,Green.png,4,NonTarget,NonTarget,0,0,0,0,,,,,,,,,,,,,,,,,,,,,,,,,0,27,27,27,,,,,,,,,,,,,,,,,,,,,,,,,,,,,,,,,,,,,,,,,,,,,,,,,,,,,,,,,,,,,,,,,,,,,,,,,1.7638888855775197,0.9840794000192545,611.632156000007,None,ScrollUp,오답입니다,611.632156000007,None,611.632156000007,None,611.632156000007,None,611.632156000007,None,612.5052290000021,None,612.5052290000021,613.0155156000401,,,,,,,,,,,,,,,,119,2022-05-06_13h53.02.098,FishGame,2022.1.1,60.10056025350271,
,29,넌 조용해,3,Green,B,4.333333333333333,4.166666666666667,ScrollUp,ScrollDown,Green.png,4,Neutral,Neutral,0,0,0,0,,,,,,,,,,,,,,,,,,,,,,,,,0,28,28,28,,,,,,,,,,,,,,,,,,,,,,,,,,,,,,,,,,,,,,,,,,,,,,,,,,,,,,,,,,,,,,,,,,,,,,,,,1.7623456716537476,1.2176755999680609,613.6551767000346,None,ScrollUp,정답입니다,613.6551767000346,None,613.6551767000346,None,613.6551767000346,None,613.6551767000346,None,614.7558756000362,None,614.7558756000362,615.2656457000412,,,,,,,,,,,,,,,,119,2022-05-06_13h53.02.098,FishGame,2022.1.1,60.10056025350271,
,30,넌 다정해,1,Orange,A,5.833333333333334,5.7,ScrollDown,ScrollUp,Orange.png,4,Positive,Congruent,0,0,0,0,,,,,,,,,,,,,,,,,,,,,,,,,0,29,29,29,,,,,,,,,,,,,,,,,,,,,,,,,,,,,,,,,,,,,,,,,,,,,,,,,,,,,,,,,,,,,,,,,,,,,,,,,1,0.9669803000288084,615.9072246000287,None,ScrollDown,정답입니다,615.9072246000287,None,615.9072246000287,None,615.9072246000287,None,615.9072246000287,None,616.7534542999929,None,616.7534542999929,617.2658681999892,,,,,,,,,,,,,,,,119,2022-05-06_13h53.02.098,FishGame,2022.1.1,60.10056025350271,
,31,넌 능력있어,2,Green,B,6.166666666666666,4.6,ScrollUp,ScrollDown,Green.png,4,Positive,Incongruent,0,0,0,0,,,,,,,,,,,,,,,,,,,,,,,,,0,30,30,30,,,,,,,,,,,,,,,,,,,,,,,,,,,,,,,,,,,,,,,,,,,,,,,,,,,,,,,,,,,,,,,,,,,,,,,,,1.6234567910432816,1.0859165999572724,617.8909687999985,None,ScrollUp,정답입니다,617.8909687999985,None,617.8909687999985,None,617.8909687999985,None,617.8909687999985,None,618.8729051999981,None,618.8729051999981,619.3822115000221,,,,,,,,,,,,,,,,119,2022-05-06_13h53.02.098,FishGame,2022.1.1,60.10056025350271,
,32,넌 불쾌해,5,Orange,A,2.125,1.933333333333333,ScrollDown,ScrollUp,Orange.png,4,Negative,Incongruent,0,0,0,0,,,,,,,,,,,,,,,,,,,,,,,,,0,31,31,31,,,,,,,,,,,,,,,,,,,,,,,,,,,,,,,,,,,,,,,,,,,,,,,,,,,,,,,,,,,,,,,,,,,,,,,,,1.1543209999799728,0.9478633999824524,620.0255115000182,None,ScrollDown,정답입니다,620.0255115000182,None,620.0255115000182,None,620.0255115000182,None,620.0255115000182,None,620.8539260000107,None,620.8539260000107,621.3657029999886,,,,,,,,,,,,,,,,119,2022-05-06_13h53.02.098,FishGame,2022.1.1,60.10056025350271,
,33,나를 데려가줘,6,Green,B,0,0,ScrollDown,ScrollUp,Green.png,4,NonTarget,NonTarget,0,0,0,0,,,,,,,,,,,,,,,,,,,,,,,,,0,32,32,32,,,,,,,,,,,,,,,,,,,,,,,,,,,,,,,,,,,,,,,,,,,,,,,,,,,,,,,,,,,,,,,,,,,,,,,,,1.1851851791143417,1.1852204999886453,621.9958780999877,None,ScrollDown,정답입니다,621.9958780999877,None,621.9958780999877,None,621.9958780999877,None,621.9958780999877,None,623.0710715000168,None,623.0710715000168,623.5821085000061,,,,,,,,,,,,,,,,119,2022-05-06_13h53.02.098,FishGame,2022.1.1,60.10056025350271,
,34,넌 유순해,3,Orange,A,4.458333333333333,5,ScrollDown,ScrollUp,Orange.png,4,Neutral,Neutral,0,0,0,0,,,,,,,,,,,,,,,,,,,,,,,,,0,33,33,33,,,,,,,,,,,,,,,,,,,,,,,,,,,,,,,,,,,,,,,,,,,,,,,,,,,,,,,,,,,,,,,,,,,,,,,,,1.121913582086563,0.9862946999492124,624.2209360999987,None,ScrollDown,정답입니다,624.2209360999987,None,624.2209360999987,None,624.2209360999987,None,624.2209360999987,None,625.095834900043,None,625.095834900043,625.5990469999961,,,,,,,,,,,,,,,,119,2022-05-06_13h53.02.098,FishGame,2022.1.1,60.10056025350271,
,35,넌 근심스러워,4,Green,B,2.708333333333333,3.133333333333333,ScrollUp,ScrollDown,Green.png,4,Negative,Congruent,0,0,0,0,,,,,,,,,,,,,,,,,,,,,,,,,0,34,34,34,,,,,,,,,,,,,,,,,,,,,,,,,,,,,,,,,,,,,,,,,,,,,,,,,,,,,,,,,,,,,,,,,,,,,,,,,1.7283950646718345,0.958553500007838,626.2425888000289,None,ScrollUp,정답입니다,626.2425888000289,None,626.2425888000289,None,626.2425888000289,None,626.2425888000289,None,627.0824507999932,None,627.0824507999932,627.5822769000079,,,,,,,,,,,,,,,,119,2022-05-06_13h53.02.098,FishGame,2022.1.1,60.10056025350271,
,36,넌 세련되었어,2,Orange,A,5.5,4.6,ScrollDown,ScrollUp,Orange.png,4,Positive,Congruent,0,0,0,0,,,,,,,,,,,,,,,,,,,,,,,,,0,35,35,35,,,,,,,,,,,,,,,,,,,,,,,,,,,,,,,,,,,,,,,,,,,,,,,,,,,,,,,,,,,,,,,,,,,,,,,,,1,1.0958730999846011,628.2342295999988,None,ScrollDown,정답입니다,628.2342295999988,None,628.2342295999988,None,628.2342295999988,None,628.2342295999988,None,629.2042561999988,None,629.2042561999988,629.7158394000144,,,,,,,,,,,,,,,,119,2022-05-06_13h53.02.098,FishGame,2022.1.1,60.10056025350271,
,37,나를 보내줘,6,Orange,A,0,0,ScrollUp,ScrollDown,Orange.png,4,NonTarget,NonTarget,0,0,0,0,,,,,,,,,,,,,,,,,,,,,,,,,0,36,36,36,,,,,,,,,,,,,,,,,,,,,,,,,,,,,,,,,,,,,,,,,,,,,,,,,,,,,,,,,,,,,,,,,,,,,,,,,1.904320980111758,1.1559369000024162,630.350651899993,None,ScrollUp,정답입니다,630.350651899993,None,630.350651899993,None,630.350651899993,None,630.350651899993,None,631.3989554999862,None,631.3989554999862,631.8993971000309,,,,,,,,,,,,,,,,119,2022-05-06_13h53.02.098,FishGame,2022.1.1,60.10056025350271,
,38,넌 확고해,3,Green,B,4.708333333333334,4.566666666666666,ScrollUp,ScrollDown,Green.png,4,Neutral,Neutral,0,0,0,0,,,,,,,,,,,,,,,,,,,,,,,,,0,37,37,37,,,,,,,,,,,,,,,,,,,,,,,,,,,,,,,,,,,,,,,,,,,,,,,,,,,,,,,,,,,,,,,,,,,,,,,,,1.8827160596847534,1.1399920999538153,632.5404201000347,None,ScrollUp,정답입니다,632.5404201000347,None,632.5404201000347,None,632.5404201000347,None,632.5404201000347,None,633.5660506000277,None,633.5660506000277,634.0660200000275,,,,,,,,,,,,,,,,119,2022-05-06_13h53.02.098,FishGame,2022.1.1,60.10056025350271,
,39,넌 이해심이 많아,1,Green,B,6.041666666666668,5.533333333333333,ScrollUp,ScrollDown,Green.png,4,Positive,Incongruent,0,0,0,0,,,,,,,,,,,,,,,,,,,,,,,,,0,38,38,38,,,,,,,,,,,,,,,,,,,,,,,,,,,,,,,,,,,,,,,,,,,,,,,,,,,,,,,,,,,,,,,,,,,,,,,,,1.6666666691501937,1.0485427999519743,634.6980693000369,None,ScrollUp,정답입니다,634.6980693000369,None,634.6980693000369,None,634.6980693000369,None,634.6980693000369,None,635.6374996000086,None,635.6374996000086,636.1493923999951,,,,,,,,,,,,,,,,119,2022-05-06_13h53.02.098,FishGame,2022.1.1,60.10056025350271,
,40,나를 보내줘,6,Orange,A,0,0,ScrollUp,ScrollDown,Orange.png,4,NonTarget,NonTarget,0,0,0,0,,,,,,,,,,,,,,,,,,,,,,,,,0,39,39,39,,,,,,,,,,,,,,,,,,,,,,,,,,,,,,,,,,,,,,,,,,,,,,,,,,,,,,,,,,,,,,,,,,,,,,,,,1.939814825852712,1.245531399967149,636.7909696000279,None,ScrollUp,정답입니다,636.7909696000279,None,636.7909696000279,None,636.7909696000279,None,636.7909696000279,None,637.9202860000078,None,637.9202860000078,638.4328506999882,,,,,,,,,,,,,,,,119,2022-05-06_13h53.02.098,FishGame,2022.1.1,60.10056025350271,
,41,넌 거칠어,4,Orange,A,2.625,3.033333333333333,ScrollDown,ScrollUp,Orange.png,4,Negative,Incongruent,0,0,0,0,,,,,,,,,,,,,,,,,,,,,,,,,0,40,40,40,,,,,,,,,,,,,,,,,,,,,,,,,,,,,,,,,,,,,,,,,,,,,,,,,,,,,,,,,,,,,,,,,,,,,,,,,1,1.1671283000032417,639.0742732000072,None,ScrollDown,정답입니다,639.0742732000072,None,639.0742732000072,None,639.0742732000072,None,639.0742732000072,None,640.1291107999859,None,640.1291107999859,640.6325619000127,,,,,,,,,,,,,,,,119,2022-05-06_13h53.02.098,FishGame,2022.1.1,60.10056025350271,
,42,넌 변덕맞아,5,Green,B,2.75,2.166666666666667,ScrollUp,ScrollDown,Green.png,4,Negative,Congruent,0,0,0,0,,,,,,,,,,,,,,,,,,,,,,,,,0,41,41,41,,,,,,,,,,,,,,,,,,,,,,,,,,,,,,,,,,,,,,,,,,,,,,,,,,,,,,,,,,,,,,,,,,,,,,,,,1.7962963034709294,1.150162799982354,641.2765270000091,None,ScrollUp,정답입니다,641.2765270000091,None,641.2765270000091,None,641.2765270000091,None,641.2765270000091,None,642.3041038000374,None,642.3041038000374,642.8160356000299,,,,,,,,,,,,,,,,119,2022-05-06_13h53.02.098,FishGame,2022.1.1,60.10056025350271,
,43,나를 데려가줘,6,Green,B,0,0,ScrollDown,ScrollUp,Green.png,4,NonTarget,NonTarget,0,0,0,0,,,,,,,,,,,,,,,,,,,,,,,,,0,42,42,42,,,,,,,,,,,,,,,,,,,,,,,,,,,,,,,,,,,,,,,,,,,,,,,,,,,,,,,,,,,,,,,,,,,,,,,,,1.8641975422700245,1.2495576000073925,643.4435301999911,None,ScrollUp,오답입니다,643.4435301999911,None,643.4435301999911,None,643.4435301999911,None,643.4435301999911,None,644.5892516000313,None,644.5892516000313,645.099559299997,,,,,,,,,,,,,,,,119,2022-05-06_13h53.02.098,FishGame,2022.1.1,60.10056025350271,
,44,넌 외로워,4,Green,B,2.833333333333333,3.3,ScrollUp,ScrollDown,Green.png,4,Negative,Congruent,0,0,0,0,,,,,,,,,,,,,,,,,,,,,,,,,0,43,43,43,,,,,,,,,,,,,,,,,,,,,,,,,,,,,,,,,,,,,,,,,,,,,,,,,,,,,,,,,,,,,,,,,,,,,,,,,1.8503086417913437,1.1516773999901488,645.7350939000025,None,ScrollUp,정답입니다,645.7350939000025,None,645.7350939000025,None,645.7350939000025,None,645.7350939000025,None,646.7728467000416,None,646.7728467000416,647.2824809000012,,,,,,,,,,,,,,,,119,2022-05-06_13h53.02.098,FishGame,2022.1.1,60.10056025350271,
,1,넌 불평스러워,5,Orange,A,2.25,2.066666666666667,ScrollDown,ScrollUp,Orange.png,5,Negative,Incongruent,0,0,0,0,,,,,,,,,,,,,,,,,,,,,,,,,,,,,0,0,0,0,,,,,,,,,,,,,,,,,,,,,,,,,,,,680.2507114000036,681.7504928000271,681.7837874999968,682.7336239000433,682.7839094999945,683.7336643000017,683.7336643000017,None,,,,,,,,,,,,,,,,,,,,,,,,,,,,,,,,,,1.126543199022611,1.0508643999928609,684.8880833000294,None,ScrollDown,정답입니다,684.8880833000294,None,684.8880833000294,None,684.8880833000294,None,684.8880833000294,None,685.7797554000281,None,685.7797554000281,686.2839138000272,647.7825301000266,None,647.7825301000266,None,0.25185186,-0.09166667,1,0,0,0.016295499983243644,None,677.7834634000319,None,,,119,2022-05-06_13h53.02.098,FishGame,2022.1.1,60.10056025350271,
,2,나를 보내줘,6,Orange,A,0,0,ScrollUp,ScrollDown,Orange.png,5,NonTarget,NonTarget,0,0,0,0,,,,,,,,,,,,,,,,,,,,,,,,,,,,,0,1,1,1,,,,,,,,,,,,,,,,,,,,,,,,,,,,,,,,,,,,,,,,,,,,,,,,,,,,,,,,,,,,,,,,,,,,,1.7052469179034233,1.1479008999885991,686.9198509000125,None,ScrollUp,정답입니다,686.9198509000125,None,686.9198509000125,None,686.9198509000125,None,686.9198509000125,None,687.9552541000303,None,687.9552541000303,688.4671541000134,,,,,,,,,,,,,,,,119,2022-05-06_13h53.02.098,FishGame,2022.1.1,60.10056025350271,
,3,넌 다재다능해,2,Green,B,6.208333333333333,4.5,ScrollUp,ScrollDown,Green.png,5,Positive,Incongruent,0,0,0,0,,,,,,,,,,,,,,,,,,,,,,,,,,,,,0,2,2,2,,,,,,,,,,,,,,,,,,,,,,,,,,,,,,,,,,,,,,,,,,,,,,,,,,,,,,,,,,,,,,,,,,,,,1.6558641965190568,0.9497652999707498,689.1010913000209,None,ScrollUp,정답입니다,689.1010913000209,None,689.1010913000209,None,689.1010913000209,None,689.1010913000209,None,689.9385663000285,None,689.9385663000285,690.4507532000425,,,,,,,,,,,,,,,,119,2022-05-06_13h53.02.098,FishGame,2022.1.1,60.10056025350271,
,4,넌 과감해,3,Orange,A,4.833333333333334,4.6,ScrollDown,ScrollUp,Orange.png,5,Neutral,Neutral,0,0,0,0,,,,,,,,,,,,,,,,,,,,,,,,,,,,,0,3,3,3,,,,,,,,,,,,,,,,,,,,,,,,,,,,,,,,,,,,,,,,,,,,,,,,,,,,,,,,,,,,,,,,,,,,,1.2654321044683456,0.9241864000214264,691.0881192000234,None,ScrollDown,정답입니다,691.0881192000234,None,691.0881192000234,None,691.0881192000234,None,691.0881192000234,None,691.89990020002,None,691.89990020002,692.4005565000116,,,,,,,,,,,,,,,,119,2022-05-06_13h53.02.098,FishGame,2022.1.1,60.10056025350271,
,5,넌 고분고분해,3,Green,B,3.75,4.033333333333333,ScrollUp,ScrollDown,Green.png,5,Neutral,Neutral,0,0,0,0,,,,,,,,,,,,,,,,,,,,,,,,,,,,,0,4,4,4,,,,,,,,,,,,,,,,,,,,,,,,,,,,,,,,,,,,,,,,,,,,,,,,,,,,,,,,,,,,,,,,,,,,,1.9351851840813954,0.9048801999888383,693.0435492999968,None,ScrollUp,정답입니다,693.0435492999968,None,693.0435492999968,None,693.0435492999968,None,693.0435492999968,None,693.8303536000312,None,693.8303536000312,694.3340789999929,,,,,,,,,,,,,,,,119,2022-05-06_13h53.02.098,FishGame,2022.1.1,60.10056025350271,
,6,나를 보내줘,6,Orange,A,0,0,ScrollUp,ScrollDown,Orange.png,5,NonTarget,NonTarget,0,0,0,0,,,,,,,,,,,,,,,,,,,,,,,,,,,,,0,5,5,5,,,,,,,,,,,,,,,,,,,,,,,,,,,,,,,,,,,,,,,,,,,,,,,,,,,,,,,,,,,,,,,,,,,,,1.6728395000100136,1.0199527000077069,694.9650721999933,None,ScrollUp,정답입니다,694.9650721999933,None,694.9650721999933,None,694.9650721999933,None,694.9650721999933,None,695.8804472000338,None,695.8804472000338,696.3841009000316,,,,,,,,,,,,,,,,119,2022-05-06_13h53.02.098,FishGame,2022.1.1,60.10056025350271,
,7,넌 잘 잊어,4,Orange,A,3,3.7,ScrollDown,ScrollUp,Orange.png,5,Negative,Incongruent,0,0,0,0,,,,,,,,,,,,,,,,,,,,,,,,,,,,,0,6,6,6,,,,,,,,,,,,,,,,,,,,,,,,,,,,,,,,,,,,,,,,,,,,,,,,,,,,,,,,,,,,,,,,,,,,,1.1358024577299755,0.9033127999864519,697.0306940000155,None,ScrollDown,정답입니다,697.0306940000155,None,697.0306940000155,None,697.0306940000155,None,697.0306940000155,None,697.8136634000111,None,697.8136634000111,698.3171784000006,,,,,,,,,,,,,,,,119,2022-05-06_13h53.02.098,FishGame,2022.1.1,60.10056025350271,
,8,넌 탐구심이없어,4,Green,B,2.833333333333333,3.066666666666667,ScrollUp,ScrollDown,Green.png,5,Negative,Congruent,0,0,0,0,,,,,,,,,,,,,,,,,,,,,,,,,,,,,0,7,7,7,,,,,,,,,,,,,,,,,,,,,,,,,,,,,,,,,,,,,,,,,,,,,,,,,,,,,,,,,,,,,,,,,,,,,1.8518518557151158,0.9099101999890991,698.9537182000349,None,ScrollUp,정답입니다,698.9537182000349,None,698.9537182000349,None,698.9537182000349,None,698.9537182000349,None,699.7505843000254,None,699.7505843000254,700.2504972000024,,,,,,,,,,,,,,,,119,2022-05-06_13h53.02.098,FishGame,2022.1.1,60.10056025350271,
,9,나를 데려가줘,6,Green,B,0,0,ScrollDown,ScrollUp,Green.png,5,NonTarget,NonTarget,0,0,0,0,,,,,,,,,,,,,,,,,,,,,,,,,,,,,0,8,8,8,,,,,,,,,,,,,,,,,,,,,,,,,,,,,,,,,,,,,,,,,,,,,,,,,,,,,,,,,,,,,,,,,,,,,1,1.2552993000135757,700.8843675000244,None,ScrollDown,정답입니다,700.8843675000244,None,700.8843675000244,None,700.8843675000244,None,700.8843675000244,None,702.0338364000199,None,702.0338364000199,702.5341263000155,,,,,,,,,,,,,,,,119,2022-05-06_13h53.02.098,FishGame,2022.1.1,60.10056025350271,
,10,넌 참되어,2,Orange,A,6.041666666666664,4.733333333333333,ScrollDown,ScrollUp,Orange.png,5,Positive,Congruent,0,0,0,0,,,,,,,,,,,,,,,,,,,,,,,,,,,,,0,9,9,9,,,,,,,,,,,,,,,,,,,,,,,,,,,,,,,,,,,,,,,,,,,,,,,,,,,,,,,,,,,,,,,,,,,,,1,1.0837291000061668,703.1713519000332,None,ScrollDown,정답입니다,703.1713519000332,None,703.1713519000332,None,703.1713519000332,None,703.1713519000332,None,704.1386789000244,None,704.1386789000244,704.6511634000344,,,,,,,,,,,,,,,,119,2022-05-06_13h53.02.098,FishGame,2022.1.1,60.10056025350271,
,11,넌 생기있어,1,Green,B,5.875,5.633333333333334,ScrollUp,ScrollDown,Green.png,5,Positive,Incongruent,0,0,0,0,,,,,,,,,,,,,,,,,,,,,,,,,,,,,0,10,10,10,,,,,,,,,,,,,,,,,,,,,,,,,,,,,,,,,,,,,,,,,,,,,,,,,,,,,,,,,,,,,,,,,,,,,1.6250000049670539,0.8395368999917991,705.2905142999953,None,ScrollUp,정답입니다,705.2905142999953,None,705.2905142999953,None,705.2905142999953,None,705.2905142999953,None,706.0170580000267,None,706.0170580000267,706.5175091000274,,,,,,,,,,,,,,,,119,2022-05-06_13h53.02.098,FishGame,2022.1.1,60.10056025350271,
,12,넌 비사교적이야,4,Green,B,2.875,2.9,ScrollUp,ScrollDown,Green.png,5,Negative,Congruent,0,0,0,0,,,,,,,,,,,,,,,,,,,,,,,,,,,,,0,11,11,11,,,,,,,,,,,,,,,,,,,,,,,,,,,,,,,,,,,,,,,,,,,,,,,,,,,,,,,,,,,,,,,,,,,,,1.7268518507480621,0.8924681000062265,707.1507401000126,None,ScrollUp,정답입니다,707.1507401000126,None,707.1507401000126,None,707.1507401000126,None,707.1507401000126,None,707.9338364999858,None,707.9338364999858,708.4341892999946,,,,,,,,,,,,,,,,119,2022-05-06_13h53.02.098,FishGame,2022.1.1,60.10056025350271,
,13,나를 데려가줘,6,Green,B,0,0,ScrollDown,ScrollUp,Green.png,5,NonTarget,NonTarget,0,0,0,0,,,,,,,,,,,,,,,,,,,,,,,,,,,,,0,12,12,12,,,,,,,,,,,,,,,,,,,,,,,,,,,,,,,,,,,,,,,,,,,,,,,,,,,,,,,,,,,,,,,,,,,,,1,1.1190860999631695,709.0667899000109,None,ScrollDown,정답입니다,709.0667899000109,None,709.0667899000109,None,709.0667899000109,None,709.0667899000109,None,710.081040900026,None,710.081040900026,710.584369499993,,,,,,,,,,,,,,,,119,2022-05-06_13h53.02.098,FishGame,2022.1.1,60.10056025350271,
,14,넌 고독해,4,Orange,A,2.916666666666667,3.233333333333333,ScrollDown,ScrollUp,Orange.png,5,Negative,Incongruent,0,0,0,0,,,,,,,,,,,,,,,,,,,,,,,,,,,,,0,13,13,13,,,,,,,,,,,,,,,,,,,,,,,,,,,,,,,,,,,,,,,,,,,,,,,,,,,,,,,,,,,,,,,,,,,,,1,1.0166008999804035,711.2237983000232,None,ScrollDown,정답입니다,711.2237983000232,None,711.2237983000232,None,711.2237983000232,None,711.2237983000232,None,712.1222713000025,None,712.1222713000025,712.6344061000273,,,,,,,,,,,,,,,,119,2022-05-06_13h53.02.098,FishGame,2022.1.1,60.10056025350271,
,15,넌 신경질적이야,5,Green,B,2.375,2.233333333333333,ScrollUp,ScrollDown,Green.png,5,Negative,Congruent,0,0,0,0,,,,,,,,,,,,,,,,,,,,,,,,,,,,,0,14,14,14,,,,,,,,,,,,,,,,,,,,,,,,,,,,,,,,,,,,,,,,,,,,,,,,,,,,,,,,,,,,,,,,,,,,,1.799382706483205,0.9016848999890499,713.2770003000041,None,ScrollUp,정답입니다,713.2770003000041,None,713.2770003000041,None,713.2770003000041,None,713.2770003000041,None,714.0644718999974,None,714.0644718999974,714.567815700022,,,,,,,,,,,,,,,,119,2022-05-06_13h53.02.098,FishGame,2022.1.1,60.10056025350271,
,16,넌 똑똑해,2,Green,B,5.666666666666667,3.966666666666667,ScrollUp,ScrollDown,Green.png,5,Positive,Incongruent,0,0,0,0,,,,,,,,,,,,,,,,,,,,,,,,,,,,,0,15,15,15,,,,,,,,,,,,,,,,,,,,,,,,,,,,,,,,,,,,,,,,,,,,,,,,,,,,,,,,,,,,,,,,,,,,,1.7916666616996129,0.9927505000378005,715.2061873000348,None,ScrollUp,정답입니다,715.2061873000348,None,715.2061873000348,None,715.2061873000348,None,715.2061873000348,None,716.08419590001,None,716.08419590001,716.5845706000109,,,,,,,,,,,,,,,,119,2022-05-06_13h53.02.098,FishGame,2022.1.1,60.10056025350271,
,17,나를 보내줘,6,Orange,A,0,0,ScrollUp,ScrollDown,Orange.png,5,NonTarget,NonTarget,0,0,0,0,,,,,,,,,,,,,,,,,,,,,,,,,,,,,0,16,16,16,,,,,,,,,,,,,,,,,,,,,,,,,,,,,,,,,,,,,,,,,,,,,,,,,,,,,,,,,,,,,,,,,,,,,1.6203703756133714,1.1557900999905542,717.2216157999937,None,ScrollUp,정답입니다,717.2216157999937,None,717.2216157999937,None,717.2216157999937,None,717.2216157999937,None,718.2672714000219,None,718.2672714000219,718.7678519000183,,,,,,,,,,,,,,,,119,2022-05-06_13h53.02.098,FishGame,2022.1.1,60.10056025350271,
,18,넌 협조적이야,1,Orange,A,5.625,5.666666666666667,ScrollDown,ScrollUp,Orange.png,5,Positive,Congruent,0,0,0,0,,,,,,,,,,,,,,,,,,,,,,,,,,,,,0,17,17,17,,,,,,,,,,,,,,,,,,,,,,,,,,,,,,,,,,,,,,,,,,,,,,,,,,,,,,,,,,,,,,,,,,,,,1,1.0814601000165567,719.4111822000123,None,ScrollDown,정답입니다,719.4111822000123,None,719.4111822000123,None,719.4111822000123,None,719.4111822000123,None,720.3721189000062,None,720.3721189000062,720.8846248000045,,,,,,,,,,,,,,,,119,2022-05-06_13h53.02.098,FishGame,2022.1.1,60.10056025350271,
,19,나를 데려가줘,6,Green,B,0,0,ScrollDown,ScrollUp,Green.png,5,NonTarget,NonTarget,0,0,0,0,,,,,,,,,,,,,,,,,,,,,,,,,,,,,0,18,18,18,,,,,,,,,,,,,,,,,,,,,,,,,,,,,,,,,,,,,,,,,,,,,,,,,,,,,,,,,,,,,,,,,,,,,1.7484567960103354,0.9669754999922588,721.5143139000284,None,ScrollUp,오답입니다,721.5143139000284,None,721.5143139000284,None,721.5143139000284,None,721.5143139000284,None,722.3742910000146,None,722.3742910000146,722.8844021999976,,,,,,,,,,,,,,,,119,2022-05-06_13h53.02.098,FishGame,2022.1.1,60.10056025350271,
,20,넌 몰인정해,5,Green,B,2.541666666666667,2.066666666666667,ScrollUp,ScrollDown,Green.png,5,Negative,Congruent,0,0,0,0,,,,,,,,,,,,,,,,,,,,,,,,,,,,,0,19,19,19,,,,,,,,,,,,,,,,,,,,,,,,,,,,,,,,,,,,,,,,,,,,,,,,,,,,,,,,,,,,,,,,,,,,,1.632716049750646,0.8787372999940999,723.5266296000336,None,ScrollUp,정답입니다,723.5266296000336,None,723.5266296000336,None,723.5266296000336,None,723.5266296000336,None,724.2888037000084,None,724.2888037000084,724.8013413000153,,,,,,,,,,,,,,,,119,2022-05-06_13h53.02.098,FishGame,2022.1.1,60.10056025350271,
,21,나를 데려가줘,6,Green,B,0,0,ScrollDown,ScrollUp,Green.png,5,NonTarget,NonTarget,0,0,0,0,,,,,,,,,,,,,,,,,,,,,,,,,,,,,0,20,20,20,,,,,,,,,,,,,,,,,,,,,,,,,,,,,,,,,,,,,,,,,,,,,,,,,,,,,,,,,,,,,,,,,,,,,1,1.6481538999942131,725.4421772999922,None,ScrollDown,정답입니다,725.4421772999922,None,725.4421772999922,None,725.4421772999922,None,725.4421772999922,None,726.9724892000086,None,726.9724892000086,727.4846086000325,,,,,,,,,,,,,,,,119,2022-05-06_13h53.02.098,FishGame,2022.1.1,60.10056025350271,
,22,넌 순진해,3,Green,B,4.125,4.166666666666667,ScrollUp,ScrollDown,Green.png,5,Neutral,Neutral,0,0,0,0,,,,,,,,,,,,,,,,,,,,,,,,,,,,,0,21,21,21,,,,,,,,,,,,,,,,,,,,,,,,,,,,,,,,,,,,,,,,,,,,,,,,,,,,,,,,,,,,,,,,,,,,,1.6959876591960588,1.2589034999837168,728.1178403000231,None,ScrollUp,정답입니다,728.1178403000231,None,728.1178403000231,None,728.1178403000231,None,728.1178403000231,None,729.2675218000077,None,729.2675218000077,729.7682020000066,,,,,,,,,,,,,,,,119,2022-05-06_13h53.02.098,FishGame,2022.1.1,60.10056025350271,
,23,넌 신뢰할만해,1,Orange,A,6.625,5.533333333333333,ScrollDown,ScrollUp,Orange.png,5,Positive,Congruent,0,0,0,0,,,,,,,,,,,,,,,,,,,,,,,,,,,,,0,22,22,22,,,,,,,,,,,,,,,,,,,,,,,,,,,,,,,,,,,,,,,,,,,,,,,,,,,,,,,,,,,,,,,,,,,,,1,1.1081594999996014,730.4160699000349,None,ScrollDown,정답입니다,730.4160699000349,None,730.4160699000349,None,730.4160699000349,None,730.4160699000349,None,731.4009160000132,None,731.4009160000132,731.9011248000315,,,,,,,,,,,,,,,,119,2022-05-06_13h53.02.098,FishGame,2022.1.1,60.10056025350271,
