name,TrialNum,Word,WordCategory,FishType,WordList,WordValence,WordReputation,CorrectResp,IncorrectResp,FishTypeFile,Round,WordType,Condition,LoopforOrange.thisRepN,LoopforOrange.thisTrialN,LoopforOrange.thisN,LoopforOrange.thisIndex,LoopForGreen.thisRepN,LoopForGreen.thisTrialN,LoopForGreen.thisN,LoopForGreen.thisIndex,GreenInstLoop.thisRepN,GreenInstLoop.thisTrialN,GreenInstLoop.thisN,GreenInstLoop.thisIndex,GreenPrac.thisRepN,GreenPrac.thisTrialN,GreenPrac.thisN,GreenPrac.thisIndex,trials_2.thisRepN,trials_2.thisTrialN,trials_2.thisN,trials_2.thisIndex,GreenRound1.thisRepN,GreenRound1.thisTrialN,GreenRound1.thisN,GreenRound1.thisIndex,GreenRound2.thisRepN,GreenRound2.thisTrialN,GreenRound2.thisN,GreenRound2.thisIndex,GreenRound3.thisRepN,GreenRound3.thisTrialN,GreenRound3.thisN,GreenRound3.thisIndex,GreenRound4.thisRepN,GreenRound4.thisTrialN,GreenRound4.thisN,GreenRound4.thisIndex,GreenRound5.thisRepN,GreenRound5.thisTrialN,GreenRound5.thisN,GreenRound5.thisIndex,text_2.started,text_2.stopped,text_3.started,text_3.stopped,key_resp.keys,key_resp.rt,key_resp.started,key_resp.stopped,PassI.started,PassI.stopped,PassInst.keys,PassInst.rt,PassInst.started,PassInst.stopped,mouse_2.x,mouse_2.y,mouse_2.leftButton,mouse_2.midButton,mouse_2.rightButton,mouse_2.started,mouse_2.stopped,image.started,image.stopped,text_5.started,text_5.stopped,text_6.started,text_6.stopped,text_7.started,text_7.stopped,text_8.started,text_8.stopped,slider_3.response,slider_3.rt,slider_3.started,slider_3.stopped,Response_3,Feedback_3,BackGround_3.started,BackGround_3.stopped,Fish_3.started,Fish_3.stopped,WordBox_3.started,WordBox_3.stopped,Words_3.started,Words_3.stopped,BackGround_Feedback_3.started,BackGround_Feedback_3.stopped,Feedbacks_3.started,Feedbacks_3.stopped,Continue_or_not_2.keys,Continue_or_not_2.rt,Continue_or_not_2.started,Continue_or_not_2.stopped,image_4.started,image_4.stopped,mouse_3.x,mouse_3.y,mouse_3.leftButton,mouse_3.midButton,mouse_3.rightButton,mouse_3.started,mouse_3.stopped,startmain.started,startmain.stopped,slider_4.response,slider_4.rt,slider_4.started,slider_4.stopped,Response_4,Feedback_4,BackGround_4.started,BackGround_4.stopped,Fish_4.started,Fish_4.stopped,WordBox_4.started,WordBox_4.stopped,Words_4.started,Words_4.stopped,BackGround_Feedback_4.started,BackGround_Feedback_4.stopped,Feedbacks_4.started,Feedbacks_4.stopped,text.started,text.stopped,break_interval.started,break_interval.stopped,mouse.x,mouse.y,mouse.leftButton,mouse.midButton,mouse.rightButton,mouse.started,mouse.stopped,stratnextround.started,stratnextround.stopped,endgame.started,endgame.stopped,participant,date,expName,psychopyVersion,frameRate,
,,,,,,,,,,,,,,,,,,,,,,,,,,,,,,,,,,,,,,,,,,,,,,,,,,,,,,22.666354599990882,None,22.666354599990882,None,space,2.395425599999726,23.1240113999811,None,,,,,,,,,,,,,,,,,,,,,,,,,,,,,,,,,,,,,,,,,,,,,,,,,,,,,,,,,,,,,,,,,,,,,,,,,,,,,,,,,,,,,,,,,,120,2022-05-06_15h15.31.595,FishGame,2022.1.1,60.03564915336578,
물고기과제_instruction(참가자용)GreenVersion.mp4,,,,,,,,,,,,,,,,,,0,0,0,0,0,0,0,0,,,,,,,,,,,,,,,,,,,,,,,,,,,,,,,,,,,,,92.35913940001046,None,n,28.228354200022295,92.35913940001046,None,,,,,,,,,,,,,,,,,,,,,,,,,,,,,,,,,,,,,,,,,,,,,,,,,,,,,,,,,,,,,,,,,,,,,,,,,,,,,,,,,,,,120,2022-05-06_15h15.31.595,FishGame,2022.1.1,60.03564915336578,
,1,넌 교활해,5,Orange,B,2.333333333333333,2.133333333333333,ScrollUp,ScrollDown,Orange.png,practice,,,,,,,0,0,0,0,,,,,0,0,0,0,0,0,0,0,,,,,,,,,,,,,,,,,,,,,,,,,,,,,,,,,,,-0.008333334,-0.18333334,1,0,0,0.5132803200394846,None,120.60938500001794,None,124.52634520002175,126.02632740000263,126.06018480000785,127.00946600001771,127.05986069998471,128.01041200000327,128.01041200000327,None,1,1.575777799997013,129.13742159999674,None,ScrollDown,오답입니다,129.13742159999674,None,129.13742159999674,None,129.13742159999674,None,129.13742159999674,None,130.5819042000221,None,130.5819042000221,131.09337529999902,,,,,,,,,,,,,,,,,,,,,,,,,,,,,,,,,,,,,,,,,,,,,,,,,120,2022-05-06_15h15.31.595,FishGame,2022.1.1,60.03564915336578,
,2,넌 슬기로워,2,Green,A,6.166666666666667,4.1,ScrollDown,ScrollUp,Green.png,practice,,,,,,,0,0,0,0,,,,,0,0,0,0,0,1,1,1,,,,,,,,,,,,,,,,,,,,,,,,,,,,,,,,,,,,,,,,,,,,,,,,,,,,1.9614197711149852,2.321893699991051,131.73401730001206,None,ScrollUp,오답입니다,131.73401730001206,None,131.73401730001206,None,131.73401730001206,None,131.73401730001206,None,133.94321769999806,None,133.94321769999806,134.44334399997024,,,,,,,,,,,,,,,,,,,,,,,,,,,,,,,,,,,,,,,,,,,,,,,,,120,2022-05-06_15h15.31.595,FishGame,2022.1.1,60.03564915336578,
,3,나를 보내줘,6,Green,A,0,0,ScrollUp,ScrollDown,Green.png,practice,,,,,,,0,0,0,0,,,,,0,0,0,0,0,2,2,2,,,,,,,,,,,,,,,,,,,,,,,,,,,,,,,,,,,,,,,,,,,,,,,,,,,,2,2.2239843000425026,135.07570859999396,None,ScrollUp,정답입니다,135.07570859999396,None,135.07570859999396,None,135.07570859999396,None,135.07570859999396,None,137.1883770999848,None,137.1883770999848,137.69334549998166,,,,,,,,,,,,,,,,,,,,,,,,,,,,,,,,,,,,,,,,,,,,,,,,,120,2022-05-06_15h15.31.595,FishGame,2022.1.1,60.03564915336578,
,4,나를 데려가줘,6,Orange,B,0,0,ScrollDown,ScrollUp,Orange.png,practice,,,,,,,0,0,0,0,,,,,0,0,0,0,0,3,3,3,,,,,,,,,,,,,,,,,,,,,,,,,,,,,,,,,,,,,,,,,,,,,,,,,,,,1,2.643260399985593,138.3277032999904,None,ScrollDown,정답입니다,138.3277032999904,None,138.3277032999904,None,138.3277032999904,None,138.3277032999904,None,140.86214889999246,None,140.86214889999246,141.37699909997173,,,,,,,,,,,,,,,,,,,,,,,,,,,,,,,,,,,,,,,,,,,,,,,,,120,2022-05-06_15h15.31.595,FishGame,2022.1.1,60.03564915336578,
,1,넌 교활해,5,Orange,B,2.333333333333333,2.133333333333333,ScrollUp,ScrollDown,Orange.png,practice,,,,,,,0,0,0,0,,,,,0,0,0,0,,,,,,,,,,,,,,,,,,,,,,,,,,,,,,,,,,,,,,,,,,,,,,,,,,,,,,,,,,,,,,,,,,,,,,,,,,y,20.695615800039377,141.87670359999174,None,141.87670359999174,None,,,,,,,,,,,,,,,,,,,,,,,,,,,,,,,,,,,,,,,,,,,120,2022-05-06_15h15.31.595,FishGame,2022.1.1,60.03564915336578,
,1,넌 교활해,5,Orange,B,2.333333333333333,2.133333333333333,ScrollUp,ScrollDown,Orange.png,practice,,,,,,,0,0,0,0,,,,,0,1,1,1,0,0,0,0,,,,,,,,,,,,,,,,,,,,,,,,,,,,,,,,,,,,,,,,,,,,,,,,,,,,1,2.108078300021589,162.79432480002288,None,ScrollDown,오답입니다,162.79432480002288,None,162.79432480002288,None,162.79432480002288,None,162.79432480002288,None,164.73371840000618,None,164.73371840000618,165.24407949997112,,,,,,,,,,,,,,,,,,,,,,,,,,,,,,,,,,,,,,,,,,,,,,,,,120,2022-05-06_15h15.31.595,FishGame,2022.1.1,60.03564915336578,
,2,넌 슬기로워,2,Green,A,6.166666666666667,4.1,ScrollDown,ScrollUp,Green.png,practice,,,,,,,0,0,0,0,,,,,0,1,1,1,0,1,1,1,,,,,,,,,,,,,,,,,,,,,,,,,,,,,,,,,,,,,,,,,,,,,,,,,,,,1,1.9074464999721386,165.87056770001072,None,ScrollDown,정답입니다,165.87056770001072,None,165.87056770001072,None,165.87056770001072,None,165.87056770001072,None,167.6771229999722,None,167.6771229999722,168.17751319997478,,,,,,,,,,,,,,,,,,,,,,,,,,,,,,,,,,,,,,,,,,,,,,,,,120,2022-05-06_15h15.31.595,FishGame,2022.1.1,60.03564915336578,
,3,나를 보내줘,6,Green,A,0,0,ScrollUp,ScrollDown,Green.png,practice,,,,,,,0,0,0,0,,,,,0,1,1,1,0,2,2,2,,,,,,,,,,,,,,,,,,,,,,,,,,,,,,,,,,,,,,,,,,,,,,,,,,,,1,1.3352300999686122,168.8058449999662,None,ScrollDown,오답입니다,168.8058449999662,None,168.8058449999662,None,168.8058449999662,None,168.8058449999662,None,170.03367390000494,None,170.03367390000494,170.54386069998145,,,,,,,,,,,,,,,,,,,,,,,,,,,,,,,,,,,,,,,,,,,,,,,,,120,2022-05-06_15h15.31.595,FishGame,2022.1.1,60.03564915336578,
,4,나를 데려가줘,6,Orange,B,0,0,ScrollDown,ScrollUp,Orange.png,practice,,,,,,,0,0,0,0,,,,,0,1,1,1,0,3,3,3,,,,,,,,,,,,,,,,,,,,,,,,,,,,,,,,,,,,,,,,,,,,,,,,,,,,1,3.3077756999991834,171.17572749999817,None,ScrollDown,정답입니다,171.17572749999817,None,171.17572749999817,None,171.17572749999817,None,171.17572749999817,None,174.3712715000147,None,174.3712715000147,174.87786760000745,,,,,,,,,,,,,,,,,,,,,,,,,,,,,,,,,,,,,,,,,,,,,,,,,120,2022-05-06_15h15.31.595,FishGame,2022.1.1,60.03564915336578,
,2,넌 슬기로워,2,Green,A,6.166666666666667,4.1,ScrollDown,ScrollUp,Green.png,practice,,,,,,,0,0,0,0,,,,,0,1,1,1,,,,,,,,,,,,,,,,,,,,,,,,,,,,,,,,,,,,,,,,,,,,,,,,,,,,,,,,,,,,,,,,,,,,,,,,,,n,16.642567200004123,175.37724709999748,None,175.37724709999748,None,,,,,,,,,,,,,,,,,,,,,,,,,,,,,,,,,,,,,,,,,,,120,2022-05-06_15h15.31.595,FishGame,2022.1.1,60.03564915336578,
,1,넌 따뜻해,1,Orange,B,6.083333333333333,5.6,ScrollUp,ScrollDown,Orange.png,1,Positive,Incongruent,,,,,0,0,0,0,,,,,,,,,,,,,0,0,0,0,,,,,,,,,,,,,,,,,,,,,,,,,,,,,,,,,,,,,,,,194.37793899996905,195.87831930001266,195.91100939997705,196.86117009998998,196.91182490001665,197.86189529998228,197.86189529998228,None,,,,,,,,,,,,,,,,,,,,,,,,,-0.046296295,-0.19166666,1,0,0,0.3147788200294599,None,192.04447520000394,None,2,1.6163872000179254,199.0330224999925,None,ScrollUp,정답입니다,199.0330224999925,None,199.0330224999925,None,199.0330224999925,None,199.0330224999925,None,200.47573140001623,None,200.47573140001623,200.9779777000076,,,,,,,,,,,,,,,,120,2022-05-06_15h15.31.595,FishGame,2022.1.1,60.03564915336578,
,2,넌 기품있어,2,Orange,B,5.791666666666668,4.5,ScrollUp,ScrollDown,Orange.png,1,Positive,Incongruent,,,,,0,0,0,0,,,,,,,,,,,,,0,1,1,1,,,,,,,,,,,,,,,,,,,,,,,,,,,,,,,,,,,,,,,,,,,,,,,,,,,,,,,,,,,,,,,,,,,,,,,,,,,,,,,,,2,1.213714900019113,201.62787869997555,None,ScrollUp,정답입니다,201.62787869997555,None,201.62787869997555,None,201.62787869997555,None,201.62787869997555,None,202.71613600000273,None,202.71613600000273,203.22792330000084,,,,,,,,,,,,,,,,120,2022-05-06_15h15.31.595,FishGame,2022.1.1,60.03564915336578,
,3,나를 보내줘,6,Green,A,0,0,ScrollUp,ScrollDown,Green.png,1,NonTarget,NonTarget,,,,,0,0,0,0,,,,,,,,,,,,,0,2,2,2,,,,,,,,,,,,,,,,,,,,,,,,,,,,,,,,,,,,,,,,,,,,,,,,,,,,,,,,,,,,,,,,,,,,,,,,,,,,,,,,,2,1.7920422999886796,203.87443899997743,None,ScrollUp,정답입니다,203.87443899997743,None,203.87443899997743,None,203.87443899997743,None,203.87443899997743,None,205.5447259999928,None,205.5447259999928,206.04465090000303,,,,,,,,,,,,,,,,120,2022-05-06_15h15.31.595,FishGame,2022.1.1,60.03564915336578,
,4,넌 수동적이야,4,Green,A,2.833333333333333,2.933333333333333,ScrollDown,ScrollUp,Green.png,1,Negative,Incongruent,,,,,0,0,0,0,,,,,,,,,,,,,0,3,3,3,,,,,,,,,,,,,,,,,,,,,,,,,,,,,,,,,,,,,,,,,,,,,,,,,,,,,,,,,,,,,,,,,,,,,,,,,,,,,,,,,1,1.4392750000115484,206.69013499998255,None,ScrollDown,정답입니다,206.69013499998255,None,206.69013499998255,None,206.69013499998255,None,206.69013499998255,None,208.01115009997739,None,208.01115009997739,208.51166449999437,,,,,,,,,,,,,,,,120,2022-05-06_15h15.31.595,FishGame,2022.1.1,60.03564915336578,
,5,넌 사심이 없어,3,Orange,B,4.916666666666666,4.333333333333333,ScrollUp,ScrollDown,Orange.png,1,Neutral,Neutral,,,,,0,0,0,0,,,,,,,,,,,,,0,4,4,4,,,,,,,,,,,,,,,,,,,,,,,,,,,,,,,,,,,,,,,,,,,,,,,,,,,,,,,,,,,,,,,,,,,,,,,,,,,,,,,,,2,1.1118870999780484,209.15971340000397,None,ScrollUp,정답입니다,209.15971340000397,None,209.15971340000397,None,209.15971340000397,None,209.15971340000397,None,210.14949999999953,None,210.14949999999953,210.66203870001482,,,,,,,,,,,,,,,,120,2022-05-06_15h15.31.595,FishGame,2022.1.1,60.03564915336578,
,6,넌 헤퍼,5,Green,A,2.458333333333334,2.233333333333333,ScrollDown,ScrollUp,Green.png,1,Negative,Incongruent,,,,,0,0,0,0,,,,,,,,,,,,,0,5,5,5,,,,,,,,,,,,,,,,,,,,,,,,,,,,,,,,,,,,,,,,,,,,,,,,,,,,,,,,,,,,,,,,,,,,,,,,,,,,,,,,,1.1172839403152466,1.313991500006523,211.30124920001253,None,ScrollDown,정답입니다,211.30124920001253,None,211.30124920001253,None,211.30124920001253,None,211.30124920001253,None,212.49957529996755,None,212.49957529996755,213.0117876000004,,,,,,,,,,,,,,,,120,2022-05-06_15h15.31.595,FishGame,2022.1.1,60.03564915336578,
,7,넌 말쑥해,3,Green,A,4.833333333333334,4.333333333333333,ScrollDown,ScrollUp,Green.png,1,Neutral,Neutral,,,,,0,0,0,0,,,,,,,,,,,,,0,6,6,6,,,,,,,,,,,,,,,,,,,,,,,,,,,,,,,,,,,,,,,,,,,,,,,,,,,,,,,,,,,,,,,,,,,,,,,,,,,,,,,,,1.0632716019948323,1.1060037999995984,213.64852919999976,None,ScrollDown,정답입니다,213.64852919999976,None,213.64852919999976,None,213.64852919999976,None,213.64852919999976,None,214.6450553999748,None,214.6450553999748,215.14524500002153,,,,,,,,,,,,,,,,120,2022-05-06_15h15.31.595,FishGame,2022.1.1,60.03564915336578,
,8,넌 투덜거려,5,Orange,B,2.541666666666667,2.266666666666667,ScrollUp,ScrollDown,Orange.png,1,Negative,Congruent,,,,,0,0,0,0,,,,,,,,,,,,,0,7,7,7,,,,,,,,,,,,,,,,,,,,,,,,,,,,,,,,,,,,,,,,,,,,,,,,,,,,,,,,,,,,,,,,,,,,,,,,,,,,,,,,,1.939814825852712,1.3924279000493698,215.79217349999817,None,ScrollUp,정답입니다,215.79217349999817,None,215.79217349999817,None,215.79217349999817,None,215.79217349999817,None,217.06167039996944,None,217.06167039996944,217.56206149997888,,,,,,,,,,,,,,,,120,2022-05-06_15h15.31.595,FishGame,2022.1.1,60.03564915336578,
,9,넌 적극적이야,1,Green,A,5.708333333333333,5.533333333333333,ScrollDown,ScrollUp,Green.png,1,Positive,Congruent,,,,,0,0,0,0,,,,,,,,,,,,,0,8,8,8,,,,,,,,,,,,,,,,,,,,,,,,,,,,,,,,,,,,,,,,,,,,,,,,,,,,,,,,,,,,,,,,,,,,,,,,,,,,,,,,,1,1.0508459000266157,218.2043326999992,None,ScrollDown,정답입니다,218.2043326999992,None,218.2043326999992,None,218.2043326999992,None,218.2043326999992,None,219.14196109998738,None,219.14196109998738,219.6451452000183,,,,,,,,,,,,,,,,120,2022-05-06_15h15.31.595,FishGame,2022.1.1,60.03564915336578,
,10,넌 재미없어,4,Orange,B,2.625,2.966666666666667,ScrollUp,ScrollDown,Orange.png,1,Negative,Congruent,,,,,0,0,0,0,,,,,,,,,,,,,0,9,9,9,,,,,,,,,,,,,,,,,,,,,,,,,,,,,,,,,,,,,,,,,,,,,,,,,,,,,,,,,,,,,,,,,,,,,,,,,,,,,,,,,2,1.0097094000084326,220.28624899999704,None,ScrollUp,정답입니다,220.28624899999704,None,220.28624899999704,None,220.28624899999704,None,220.28624899999704,None,221.17813860002207,None,221.17813860002207,221.67891379998764,,,,,,,,,,,,,,,,120,2022-05-06_15h15.31.595,FishGame,2022.1.1,60.03564915336578,
,11,넌 명석해,2,Green,A,5.875,4.033333333333333,ScrollDown,ScrollUp,Green.png,1,Positive,Congruent,,,,,0,0,0,0,,,,,,,,,,,,,0,10,10,10,,,,,,,,,,,,,,,,,,,,,,,,,,,,,,,,,,,,,,,,,,,,,,,,,,,,,,,,,,,,,,,,,,,,,,,,,,,,,,,,,1,1.0506096000317484,222.31617499998538,None,ScrollDown,정답입니다,222.31617499998538,None,222.31617499998538,None,222.31617499998538,None,222.31617499998538,None,223.24965969996992,None,223.24965969996992,223.76173309999285,,,,,,,,,,,,,,,,120,2022-05-06_15h15.31.595,FishGame,2022.1.1,60.03564915336578,
,12,나를 데려가줘,6,Orange,B,0,0,ScrollDown,ScrollUp,Orange.png,1,NonTarget,NonTarget,,,,,0,0,0,0,,,,,,,,,,,,,0,11,11,11,,,,,,,,,,,,,,,,,,,,,,,,,,,,,,,,,,,,,,,,,,,,,,,,,,,,,,,,,,,,,,,,,,,,,,,,,,,,,,,,,1.0200617114702861,1.6391635999898426,224.40205470001092,None,ScrollDown,정답입니다,224.40205470001092,None,224.40205470001092,None,224.40205470001092,None,224.40205470001092,None,225.9283234999748,None,225.9283234999748,226.42876039998373,,,,,,,,,,,,,,,,120,2022-05-06_15h15.31.595,FishGame,2022.1.1,60.03564915336578,
,13,넌 소심해,4,Green,A,3,3.1,ScrollDown,ScrollUp,Green.png,1,Negative,Incongruent,,,,,0,0,0,0,,,,,,,,,,,,,0,12,12,12,,,,,,,,,,,,,,,,,,,,,,,,,,,,,,,,,,,,,,,,,,,,,,,,,,,,,,,,,,,,,,,,,,,,,,,,,,,,,,,,,1,1.0078760999604128,227.06333400000585,None,ScrollDown,정답입니다,227.06333400000585,None,227.06333400000585,None,227.06333400000585,None,227.06333400000585,None,227.9619829999865,None,227.9619829999865,228.46205530001316,,,,,,,,,,,,,,,,120,2022-05-06_15h15.31.595,FishGame,2022.1.1,60.03564915336578,
,14,넌 합리적이야,2,Green,A,5.583333333333333,4.733333333333333,ScrollDown,ScrollUp,Green.png,1,Positive,Congruent,,,,,0,0,0,0,,,,,,,,,,,,,0,13,13,13,,,,,,,,,,,,,,,,,,,,,,,,,,,,,,,,,,,,,,,,,,,,,,,,,,,,,,,,,,,,,,,,,,,,,,,,,,,,,,,,,1.162037044763565,0.7583835000405088,229.09872569999425,None,ScrollDown,정답입니다,229.09872569999425,None,229.09872569999425,None,229.09872569999425,None,229.09872569999425,None,229.74517900001956,None,229.74517900001956,230.24558079999406,,,,,,,,,,,,,,,,120,2022-05-06_15h15.31.595,FishGame,2022.1.1,60.03564915336578,
,15,넌 무자비해,5,Orange,B,2.333333333333333,2.1,ScrollUp,ScrollDown,Orange.png,1,Negative,Congruent,,,,,0,0,0,0,,,,,,,,,,,,,0,14,14,14,,,,,,,,,,,,,,,,,,,,,,,,,,,,,,,,,,,,,,,,,,,,,,,,,,,,,,,,,,,,,,,,,,,,,,,,,,,,,,,,,2,0.9394773000385612,230.89268639998045,None,ScrollUp,정답입니다,230.89268639998045,None,230.89268639998045,None,230.89268639998045,None,230.89268639998045,None,231.71198000002187,None,231.71198000002187,232.21254979999503,,,,,,,,,,,,,,,,120,2022-05-06_15h15.31.595,FishGame,2022.1.1,60.03564915336578,
,16,나를 보내줘,6,Green,A,0,0,ScrollUp,ScrollDown,Green.png,1,NonTarget,NonTarget,,,,,0,0,0,0,,,,,,,,,,,,,0,15,15,15,,,,,,,,,,,,,,,,,,,,,,,,,,,,,,,,,,,,,,,,,,,,,,,,,,,,,,,,,,,,,,,,,,,,,,,,,,,,,,,,,2,1.449258300010115,232.84238009998808,None,ScrollUp,정답입니다,232.84238009998808,None,232.84238009998808,None,232.84238009998808,None,232.84238009998808,None,234.1832067000214,None,234.1832067000214,234.69515189999947,,,,,,,,,,,,,,,,120,2022-05-06_15h15.31.595,FishGame,2022.1.1,60.03564915336578,
,17,넌 현실적이야,3,Orange,B,4.608695652173913,4.766666666666667,ScrollUp,ScrollDown,Orange.png,1,Neutral,Neutral,,,,,0,0,0,0,,,,,,,,,,,,,0,16,16,16,,,,,,,,,,,,,,,,,,,,,,,,,,,,,,,,,,,,,,,,,,,,,,,,,,,,,,,,,,,,,,,,,,,,,,,,,,,,,,,,,1.7901234477758408,1.0819742999738082,235.33577519998653,None,ScrollUp,정답입니다,235.33577519998653,None,235.33577519998653,None,235.33577519998653,None,235.33577519998653,None,236.29988130001584,None,236.29988130001584,236.8121299999766,,,,,,,,,,,,,,,,120,2022-05-06_15h15.31.595,FishGame,2022.1.1,60.03564915336578,
,18,넌 의리있어,1,Orange,B,5.833333333333334,5.633333333333334,ScrollUp,ScrollDown,Orange.png,1,Positive,Incongruent,,,,,0,0,0,0,,,,,,,,,,,,,0,17,17,17,,,,,,,,,,,,,,,,,,,,,,,,,,,,,,,,,,,,,,,,,,,,,,,,,,,,,,,,,,,,,,,,,,,,,,,,,,,,,,,,,1.6080246890584626,0.7355690999538638,237.45059109997237,None,ScrollUp,정답입니다,237.45059109997237,None,237.45059109997237,None,237.45059109997237,None,237.45059109997237,None,238.06834290002007,None,238.06834290002007,238.5789712999831,,,,,,,,,,,,,,,,120,2022-05-06_15h15.31.595,FishGame,2022.1.1,60.03564915336578,
,19,넌 신경과민이야,5,Green,A,2.541666666666667,2.166666666666667,ScrollDown,ScrollUp,Green.png,1,Negative,Incongruent,,,,,0,0,0,0,,,,,,,,,,,,,0,18,18,18,,,,,,,,,,,,,,,,,,,,,,,,,,,,,,,,,,,,,,,,,,,,,,,,,,,,,,,,,,,,,,,,,,,,,,,,,,,,,,,,,1.0231481393178303,0.8915661000064574,239.22639139997773,None,ScrollDown,정답입니다,239.22639139997773,None,239.22639139997773,None,239.22639139997773,None,239.22639139997773,None,239.994972400018,None,239.994972400018,240.49517880001804,,,,,,,,,,,,,,,,120,2022-05-06_15h15.31.595,FishGame,2022.1.1,60.03564915336578,
,20,넌 편안해,1,Green,A,5.916666666666666,5.866666666666666,ScrollDown,ScrollUp,Green.png,1,Positive,Congruent,,,,,0,0,0,0,,,,,,,,,,,,,0,19,19,19,,,,,,,,,,,,,,,,,,,,,,,,,,,,,,,,,,,,,,,,,,,,,,,,,,,,,,,,,,,,,,,,,,,,,,,,,,,,,,,,,1.1064814925193787,0.8141566999838687,241.1329737000051,None,ScrollDown,정답입니다,241.1329737000051,None,241.1329737000051,None,241.1329737000051,None,241.1329737000051,None,241.83311940002022,None,241.83311940002022,242.34551949996967,,,,,,,,,,,,,,,,120,2022-05-06_15h15.31.595,FishGame,2022.1.1,60.03564915336578,
,21,넌 품위있어,2,Orange,B,5.291666666666666,4.466666666666667,ScrollUp,ScrollDown,Orange.png,1,Positive,Incongruent,,,,,0,0,0,0,,,,,,,,,,,,,0,20,20,20,,,,,,,,,,,,,,,,,,,,,,,,,,,,,,,,,,,,,,,,,,,,,,,,,,,,,,,,,,,,,,,,,,,,,,,,,,,,,,,,,1.9583333432674408,0.8837188000325114,242.9867795999744,None,ScrollUp,정답입니다,242.9867795999744,None,242.9867795999744,None,242.9867795999744,None,242.9867795999744,None,243.74982630001614,None,243.74982630001614,244.26205790002132,,,,,,,,,,,,,,,,120,2022-05-06_15h15.31.595,FishGame,2022.1.1,60.03564915336578,
,22,넌 빈틈없어,3,Green,A,4.833333333333333,3.966666666666667,ScrollDown,ScrollUp,Green.png,1,Neutral,Neutral,,,,,0,0,0,0,,,,,,,,,,,,,0,21,21,21,,,,,,,,,,,,,,,,,,,,,,,,,,,,,,,,,,,,,,,,,,,,,,,,,,,,,,,,,,,,,,,,,,,,,,,,,,,,,,,,,1.200617293516795,0.8470832000020891,244.9025995999691,None,ScrollDown,정답입니다,244.9025995999691,None,244.9025995999691,None,244.9025995999691,None,244.9025995999691,None,245.63343929999974,None,245.63343929999974,246.14580759999808,,,,,,,,,,,,,,,,120,2022-05-06_15h15.31.595,FishGame,2022.1.1,60.03564915336578,
,23,넌 상상력없어,4,Orange,B,2.833333333333333,3.133333333333333,ScrollUp,ScrollDown,Orange.png,1,Negative,Congruent,,,,,0,0,0,0,,,,,,,,,,,,,0,22,22,22,,,,,,,,,,,,,,,,,,,,,,,,,,,,,,,,,,,,,,,,,,,,,,,,,,,,,,,,,,,,,,,,,,,,,,,,,,,,,,,,,2,0.8139165000175126,246.78370909998193,None,ScrollUp,정답입니다,246.78370909998193,None,246.78370909998193,None,246.78370909998193,None,246.78370909998193,None,247.48409639997408,None,247.48409639997408,247.99569010001142,,,,,,,,,,,,,,,,120,2022-05-06_15h15.31.595,FishGame,2022.1.1,60.03564915336578,
,24,넌 지혜로워,2,Orange,B,6.333333333333334,4.633333333333334,ScrollUp,ScrollDown,Orange.png,1,Positive,Incongruent,,,,,0,0,0,0,,,,,,,,,,,,,0,23,23,23,,,,,,,,,,,,,,,,,,,,,,,,,,,,,,,,,,,,,,,,,,,,,,,,,,,,,,,,,,,,,,,,,,,,,,,,,,,,,,,,,2,0.8953536999761127,248.64164159999928,None,ScrollUp,정답입니다,248.64164159999928,None,248.64164159999928,None,248.64164159999928,None,248.64164159999928,None,249.41678400000092,None,249.41678400000092,249.92873139999574,,,,,,,,,,,,,,,,120,2022-05-06_15h15.31.595,FishGame,2022.1.1,60.03564915336578,
,25,넌 시끄러워,4,Green,A,2.833333333333333,3.033333333333333,ScrollDown,ScrollUp,Green.png,1,Negative,Incongruent,,,,,0,0,0,0,,,,,,,,,,,,,0,24,24,24,,,,,,,,,,,,,,,,,,,,,,,,,,,,,,,,,,,,,,,,,,,,,,,,,,,,,,,,,,,,,,,,,,,,,,,,,,,,,,,,,1.141975313425064,0.806740699976217,250.57238989998586,None,ScrollDown,정답입니다,250.57238989998586,None,250.57238989998586,None,250.57238989998586,None,250.57238989998586,None,251.26226719998522,None,251.26226719998522,251.76229759998387,,,,,,,,,,,,,,,,120,2022-05-06_15h15.31.595,FishGame,2022.1.1,60.03564915336578,
,26,넌 만사태평이야,3,Orange,B,4,4.333333333333333,ScrollUp,ScrollDown,Orange.png,1,Neutral,Neutral,,,,,0,0,0,0,,,,,,,,,,,,,0,25,25,25,,,,,,,,,,,,,,,,,,,,,,,,,,,,,,,,,,,,,,,,,,,,,,,,,,,,,,,,,,,,,,,,,,,,,,,,,,,,,,,,,1.2052469104528427,0.7519512000144459,252.40681409998797,None,ScrollDown,오답입니다,252.40681409998797,None,252.40681409998797,None,252.40681409998797,None,252.40681409998797,None,253.03872449998744,None,253.03872449998744,253.54623689997243,,,,,,,,,,,,,,,,120,2022-05-06_15h15.31.595,FishGame,2022.1.1,60.03564915336578,
,27,넌 붙임성있어,1,Green,A,5.708333333333333,5.633333333333334,ScrollDown,ScrollUp,Green.png,1,Positive,Congruent,,,,,0,0,0,0,,,,,,,,,,,,,0,26,26,26,,,,,,,,,,,,,,,,,,,,,,,,,,,,,,,,,,,,,,,,,,,,,,,,,,,,,,,,,,,,,,,,,,,,,,,,,,,,,,,,,1.194444437821706,0.6989153000176884,254.18621949997032,None,ScrollDown,정답입니다,254.18621949997032,None,254.18621949997032,None,254.18621949997032,None,254.18621949997032,None,254.76870549999876,None,254.76870549999876,255.27892589999828,,,,,,,,,,,,,,,,120,2022-05-06_15h15.31.595,FishGame,2022.1.1,60.03564915336578,
,28,넌 영리해,2,Green,A,6,4.033333333333333,ScrollDown,ScrollUp,Green.png,1,Positive,Congruent,,,,,0,0,0,0,,,,,,,,,,,,,0,27,27,27,,,,,,,,,,,,,,,,,,,,,,,,,,,,,,,,,,,,,,,,,,,,,,,,,,,,,,,,,,,,,,,,,,,,,,,,,,,,,,,,,1.296296296020349,0.7277173000038601,255.912821099977,None,ScrollDown,정답입니다,255.912821099977,None,255.912821099977,None,255.912821099977,None,255.912821099977,None,256.5288934999844,None,256.5288934999844,257.0293036000221,,,,,,,,,,,,,,,,120,2022-05-06_15h15.31.595,FishGame,2022.1.1,60.03564915336578,
,29,넌 열심이야,1,Orange,B,6.041666666666667,5.833333333333333,ScrollUp,ScrollDown,Orange.png,1,Positive,Incongruent,,,,,0,0,0,0,,,,,,,,,,,,,0,28,28,28,,,,,,,,,,,,,,,,,,,,,,,,,,,,,,,,,,,,,,,,,,,,,,,,,,,,,,,,,,,,,,,,,,,,,,,,,,,,,,,,,1.7268518507480621,0.8752680000034161,257.66838960000314,None,ScrollUp,정답입니다,257.66838960000314,None,257.66838960000314,None,257.66838960000314,None,257.66838960000314,None,258.42923619999783,None,258.42923619999783,258.92948970000725,,,,,,,,,,,,,,,,120,2022-05-06_15h15.31.595,FishGame,2022.1.1,60.03564915336578,
,30,넌 인기없어,4,Orange,B,3,3.3,ScrollUp,ScrollDown,Orange.png,1,Negative,Congruent,,,,,0,0,0,0,,,,,,,,,,,,,0,29,29,29,,,,,,,,,,,,,,,,,,,,,,,,,,,,,,,,,,,,,,,,,,,,,,,,,,,,,,,,,,,,,,,,,,,,,,,,,,,,,,,,,1.6111111169060073,0.8162664999836124,259.5697047999711,None,ScrollUp,정답입니다,259.5697047999711,None,259.5697047999711,None,259.5697047999711,None,259.5697047999711,None,260.26726419996703,None,260.26726419996703,260.77978859998984,,,,,,,,,,,,,,,,120,2022-05-06_15h15.31.595,FishGame,2022.1.1,60.03564915336578,
,31,넌 익살스러워,3,Green,A,4.708333333333334,4.833333333333333,ScrollDown,ScrollUp,Green.png,1,Neutral,Neutral,,,,,0,0,0,0,,,,,,,,,,,,,0,30,30,30,,,,,,,,,,,,,,,,,,,,,,,,,,,,,,,,,,,,,,,,,,,,,,,,,,,,,,,,,,,,,,,,,,,,,,,,,,,,,,,,,1.1651234477758408,0.8753955999854952,261.4184996999684,None,ScrollDown,정답입니다,261.4184996999684,None,261.4184996999684,None,261.4184996999684,None,261.4184996999684,None,262.1786787000019,None,262.1786787000019,262.6794759000186,,,,,,,,,,,,,,,,120,2022-05-06_15h15.31.595,FishGame,2022.1.1,60.03564915336578,
,32,넌 이기적이야,5,Orange,B,2.291666666666667,2.333333333333333,ScrollUp,ScrollDown,Orange.png,1,Negative,Congruent,,,,,0,0,0,0,,,,,,,,,,,,,0,31,31,31,,,,,,,,,,,,,,,,,,,,,,,,,,,,,,,,,,,,,,,,,,,,,,,,,,,,,,,,,,,,,,,,,,,,,,,,,,,,,,,,,1.7623456716537476,0.74019749998115,263.31561370001873,None,ScrollUp,정답입니다,263.31561370001873,None,263.31561370001873,None,263.31561370001873,None,263.31561370001873,None,263.9458236999926,None,263.9458236999926,264.4461677999934,,,,,,,,,,,,,,,,120,2022-05-06_15h15.31.595,FishGame,2022.1.1,60.03564915336578,
,33,나를 데려가줘,6,Orange,B,0,0,ScrollDown,ScrollUp,Orange.png,1,NonTarget,NonTarget,,,,,0,0,0,0,,,,,,,,,,,,,0,32,32,32,,,,,,,,,,,,,,,,,,,,,,,,,,,,,,,,,,,,,,,,,,,,,,,,,,,,,,,,,,,,,,,,,,,,,,,,,,,,,,,,,1.6419753084580102,0.767219000030309,265.08043089997955,None,ScrollUp,오답입니다,265.08043089997955,None,265.08043089997955,None,265.08043089997955,None,265.08043089997955,None,265.73559479997493,None,265.73559479997493,266.2461264000158,,,,,,,,,,,,,,,,120,2022-05-06_15h15.31.595,FishGame,2022.1.1,60.03564915336578,
,34,넌 기회주의자야,5,Green,A,2.875,2.133333333333333,ScrollDown,ScrollUp,Green.png,1,Negative,Incongruent,,,,,0,0,0,0,,,,,,,,,,,,,0,33,33,33,,,,,,,,,,,,,,,,,,,,,,,,,,,,,,,,,,,,,,,,,,,,,,,,,,,,,,,,,,,,,,,,,,,,,,,,,,,,,,,,,1.1959876517454784,1.1024677000241354,266.88504159997683,None,ScrollDown,정답입니다,266.88504159997683,None,266.88504159997683,None,266.88504159997683,None,266.88504159997683,None,267.86965180002153,None,267.86965180002153,268.37979099998483,,,,,,,,,,,,,,,,120,2022-05-06_15h15.31.595,FishGame,2022.1.1,60.03564915336578,
,1,넌 미성숙해,4,Green,A,3,3.2,ScrollDown,ScrollUp,Green.png,2,Negative,Incongruent,,,,,0,0,0,0,,,,,,,,,,,,,,,,,0,0,0,0,,,,,,,,,,,,,,,,,,,,,,,,,,,,,,,,,,,,304.5134668999817,306.0137140000006,306.0475298999809,306.99683249997906,307.047039499972,307.99733809998725,307.99733809998725,None,,,,,,,,,,,,,,,,,,,,,,,,,,,,,,,,,,1,1.3120296000270173,309.148243899981,None,ScrollDown,정답입니다,309.148243899981,None,309.148243899981,None,309.148243899981,None,309.148243899981,None,310.3017498999834,None,310.3017498999834,310.8134423000156,268.8802476999699,None,268.8802476999699,None,-0.06388889,-0.11851852,1,0,0,0.01618551998399198,None,298.88050319999456,None,,,120,2022-05-06_15h15.31.595,FishGame,2022.1.1,60.03564915336578,
,2,넌 반사회적이야,5,Orange,B,2.416666666666667,2.033333333333333,ScrollUp,ScrollDown,Orange.png,2,Negative,Congruent,,,,,0,0,0,0,,,,,,,,,,,,,,,,,0,1,1,1,,,,,,,,,,,,,,,,,,,,,,,,,,,,,,,,,,,,,,,,,,,,,,,,,,,,,,,,,,,,,,,,,,,,,,,,,,,,,1.879629631837209,0.7735340000363067,311.45443220000016,None,ScrollUp,정답입니다,311.45443220000016,None,311.45443220000016,None,311.45443220000016,None,311.45443220000016,None,312.1138389999978,None,312.1138389999978,312.61361719999695,,,,,,,,,,,,,,,,120,2022-05-06_15h15.31.595,FishGame,2022.1.1,60.03564915336578,
,3,넌 유능해,2,Green,A,6.208333333333333,4.433333333333334,ScrollDown,ScrollUp,Green.png,2,Positive,Congruent,,,,,0,0,0,0,,,,,,,,,,,,,,,,,0,2,2,2,,,,,,,,,,,,,,,,,,,,,,,,,,,,,,,,,,,,,,,,,,,,,,,,,,,,,,,,,,,,,,,,,,,,,,,,,,,,,1,0.8595520000089891,313.24778600002173,None,ScrollDown,정답입니다,313.24778600002173,None,313.24778600002173,None,313.24778600002173,None,313.24778600002173,None,313.9970941999927,None,313.9970941999927,314.4973624999984,,,,,,,,,,,,,,,,120,2022-05-06_15h15.31.595,FishGame,2022.1.1,60.03564915336578,
,4,넌 능숙해,2,Orange,B,5.666666666666667,4.733333333333333,ScrollUp,ScrollDown,Orange.png,2,Positive,Incongruent,,,,,0,0,0,0,,,,,,,,,,,,,,,,,0,3,3,3,,,,,,,,,,,,,,,,,,,,,,,,,,,,,,,,,,,,,,,,,,,,,,,,,,,,,,,,,,,,,,,,,,,,,,,,,,,,,1.7067901194095612,0.8085222999798134,315.1312145999982,None,ScrollUp,정답입니다,315.1312145999982,None,315.1312145999982,None,315.1312145999982,None,315.1312145999982,None,315.83049089997075,None,315.83049089997075,316.3308704000083,,,,,,,,,,,,,,,,120,2022-05-06_15h15.31.595,FishGame,2022.1.1,60.03564915336578,
,5,넌 진부해,4,Orange,B,2.458333333333333,3.166666666666667,ScrollUp,ScrollDown,Orange.png,2,Negative,Congruent,,,,,0,0,0,0,,,,,,,,,,,,,,,,,0,4,4,4,,,,,,,,,,,,,,,,,,,,,,,,,,,,,,,,,,,,,,,,,,,,,,,,,,,,,,,,,,,,,,,,,,,,,,,,,,,,,1.6712962985038757,0.7499966999748722,316.9703747999738,None,ScrollUp,정답입니다,316.9703747999738,None,316.9703747999738,None,316.9703747999738,None,316.9703747999738,None,317.60175929998513,None,317.60175929998513,318.11382319999393,,,,,,,,,,,,,,,,120,2022-05-06_15h15.31.595,FishGame,2022.1.1,60.03564915336578,
,6,나를 보내줘,6,Green,A,0,0,ScrollUp,ScrollDown,Green.png,2,NonTarget,NonTarget,,,,,0,0,0,0,,,,,,,,,,,,,,,,,0,5,5,5,,,,,,,,,,,,,,,,,,,,,,,,,,,,,,,,,,,,,,,,,,,,,,,,,,,,,,,,,,,,,,,,,,,,,,,,,,,,,1.8364197413126628,1.3101362999877892,318.74450009997236,None,ScrollUp,정답입니다,318.74450009997236,None,318.74450009997236,None,318.74450009997236,None,318.74450009997236,None,319.9471892999718,None,319.9471892999718,320.4472595999832,,,,,,,,,,,,,,,,120,2022-05-06_15h15.31.595,FishGame,2022.1.1,60.03564915336578,
,7,넌 엄격해,3,Green,A,4.166666666666666,4.1,ScrollDown,ScrollUp,Green.png,2,Neutral,Neutral,,,,,0,0,0,0,,,,,,,,,,,,,,,,,0,6,6,6,,,,,,,,,,,,,,,,,,,,,,,,,,,,,,,,,,,,,,,,,,,,,,,,,,,,,,,,,,,,,,,,,,,,,,,,,,,,,1.0432098706563313,0.8891186999971978,321.0871749999933,None,ScrollDown,정답입니다,321.0871749999933,None,321.0871749999933,None,321.0871749999933,None,321.0871749999933,None,321.8633564999909,None,321.8633564999909,322.3640954999719,,,,,,,,,,,,,,,,120,2022-05-06_15h15.31.595,FishGame,2022.1.1,60.03564915336578,
,8,나를 보내줘,6,Green,A,0,0,ScrollUp,ScrollDown,Green.png,2,NonTarget,NonTarget,,,,,0,0,0,0,,,,,,,,,,,,,,,,,0,7,7,7,,,,,,,,,,,,,,,,,,,,,,,,,,,,,,,,,,,,,,,,,,,,,,,,,,,,,,,,,,,,,,,,,,,,,,,,,,,,,1.733024681607882,0.8750523999915458,323.0010907999822,None,ScrollUp,정답입니다,323.0010907999822,None,323.0010907999822,None,323.0010907999822,None,323.0010907999822,None,323.76401039998746,None,323.76401039998746,324.26402930001495,,,,,,,,,,,,,,,,120,2022-05-06_15h15.31.595,FishGame,2022.1.1,60.03564915336578,
,9,넌 대담해,3,Orange,B,4.875,4.866666666666666,ScrollUp,ScrollDown,Orange.png,2,Neutral,Neutral,,,,,0,0,0,0,,,,,,,,,,,,,,,,,0,8,8,8,,,,,,,,,,,,,,,,,,,,,,,,,,,,,,,,,,,,,,,,,,,,,,,,,,,,,,,,,,,,,,,,,,,,,,,,,,,,,1.6003086442748704,0.9000509000034072,324.9047951999819,None,ScrollUp,정답입니다,324.9047951999819,None,324.9047951999819,None,324.9047951999819,None,324.9047951999819,None,325.6852254999685,None,325.6852254999685,326.1970201000222,,,,,,,,,,,,,,,,120,2022-05-06_15h15.31.595,FishGame,2022.1.1,60.03564915336578,
,10,넌 꾸준해,1,Green,A,5.916666666666668,5.8,ScrollDown,ScrollUp,Green.png,2,Positive,Congruent,,,,,0,0,0,0,,,,,,,,,,,,,,,,,0,9,9,9,,,,,,,,,,,,,,,,,,,,,,,,,,,,,,,,,,,,,,,,,,,,,,,,,,,,,,,,,,,,,,,,,,,,,,,,,,,,,1.1728395173947017,0.9681418999680318,326.83228929998586,None,ScrollDown,정답입니다,326.83228929998586,None,326.83228929998586,None,326.83228929998586,None,326.83228929998586,None,327.68535089999205,None,327.68535089999205,328.19764249998843,,,,,,,,,,,,,,,,120,2022-05-06_15h15.31.595,FishGame,2022.1.1,60.03564915336578,
,11,나를 데려가줘,6,Orange,B,0,0,ScrollDown,ScrollUp,Orange.png,2,NonTarget,NonTarget,,,,,0,0,0,0,,,,,,,,,,,,,,,,,0,10,10,10,,,,,,,,,,,,,,,,,,,,,,,,,,,,,,,,,,,,,,,,,,,,,,,,,,,,,,,,,,,,,,,,,,,,,,,,,,,,,1.1234567960103352,0.9230171000235714,328.83046640001703,None,ScrollDown,정답입니다,328.83046640001703,None,328.83046640001703,None,328.83046640001703,None,328.83046640001703,None,329.6475514000049,None,329.6475514000049,330.1477450999664,,,,,,,,,,,,,,,,120,2022-05-06_15h15.31.595,FishGame,2022.1.1,60.03564915336578,
,12,넌 독선적이야,5,Green,A,2.458333333333333,1.933333333333333,ScrollDown,ScrollUp,Green.png,2,Negative,Incongruent,,,,,0,0,0,0,,,,,,,,,,,,,,,,,0,11,11,11,,,,,,,,,,,,,,,,,,,,,,,,,,,,,,,,,,,,,,,,,,,,,,,,,,,,,,,,,,,,,,,,,,,,,,,,,,,,,1.1311728407939274,0.8923350999830291,330.8073686999851,None,ScrollDown,정답입니다,330.8073686999851,None,330.8073686999851,None,330.8073686999851,None,330.8073686999851,None,331.5636003999971,None,331.5636003999971,332.0644803000032,,,,,,,,,,,,,,,,120,2022-05-06_15h15.31.595,FishGame,2022.1.1,60.03564915336578,
,13,나를 보내줘,6,Green,A,0,0,ScrollUp,ScrollDown,Green.png,2,NonTarget,NonTarget,,,,,0,0,0,0,,,,,,,,,,,,,,,,,0,12,12,12,,,,,,,,,,,,,,,,,,,,,,,,,,,,,,,,,,,,,,,,,,,,,,,,,,,,,,,,,,,,,,,,,,,,,,,,,,,,,1.7484567960103354,1.2084934000158682,332.69521969999187,None,ScrollUp,정답입니다,332.69521969999187,None,332.69521969999187,None,332.69521969999187,None,332.69521969999187,None,333.79750509996666,None,333.79750509996666,334.29738269996597,,,,,,,,,,,,,,,,120,2022-05-06_15h15.31.595,FishGame,2022.1.1,60.03564915336578,
,14,넌 책임감있어,1,Orange,B,6.347826086956522,6,ScrollUp,ScrollDown,Orange.png,2,Positive,Incongruent,,,,,0,0,0,0,,,,,,,,,,,,,,,,,0,13,13,13,,,,,,,,,,,,,,,,,,,,,,,,,,,,,,,,,,,,,,,,,,,,,,,,,,,,,,,,,,,,,,,,,,,,,,,,,,,,,1.7067901194095612,1.135380099993199,334.940545200021,None,ScrollUp,정답입니다,334.940545200021,None,334.940545200021,None,334.940545200021,None,334.940545200021,None,335.9522898999858,None,335.9522898999858,336.46450190001633,,,,,,,,,,,,,,,,120,2022-05-06_15h15.31.595,FishGame,2022.1.1,60.03564915336578,
,15,넌 문학적이야,3,Green,A,4.708333333333334,4.333333333333333,ScrollDown,ScrollUp,Green.png,2,Neutral,Neutral,,,,,0,0,0,0,,,,,,,,,,,,,,,,,0,14,14,14,,,,,,,,,,,,,,,,,,,,,,,,,,,,,,,,,,,,,,,,,,,,,,,,,,,,,,,,,,,,,,,,,,,,,,,,,,,,,1.2453703731298447,0.7230654000304639,337.1012140000239,None,ScrollDown,정답입니다,337.1012140000239,None,337.1012140000239,None,337.1012140000239,None,337.1012140000239,None,337.7143706000061,None,337.7143706000061,338.21423300000606,,,,,,,,,,,,,,,,120,2022-05-06_15h15.31.595,FishGame,2022.1.1,60.03564915336578,
,16,넌 재미있어,1,Orange,B,5.875,5.7,ScrollUp,ScrollDown,Orange.png,2,Positive,Incongruent,,,,,0,0,0,0,,,,,,,,,,,,,,,,,0,15,15,15,,,,,,,,,,,,,,,,,,,,,,,,,,,,,,,,,,,,,,,,,,,,,,,,,,,,,,,,,,,,,,,,,,,,,,,,,,,,,1.654320982595285,0.9666990000405349,338.850449999969,None,ScrollUp,정답입니다,338.850449999969,None,338.850449999969,None,338.850449999969,None,338.850449999969,None,339.71067349996883,None,339.71067349996883,340.2147754000034,,,,,,,,,,,,,,,,120,2022-05-06_15h15.31.595,FishGame,2022.1.1,60.03564915336578,
,17,나를 데려가줘,6,Orange,B,0,0,ScrollDown,ScrollUp,Orange.png,2,NonTarget,NonTarget,,,,,0,0,0,0,,,,,,,,,,,,,,,,,0,16,16,16,,,,,,,,,,,,,,,,,,,,,,,,,,,,,,,,,,,,,,,,,,,,,,,,,,,,,,,,,,,,,,,,,,,,,,,,,,,,,1.3734567935268083,1.065966100024525,340.84904810000444,None,ScrollDown,정답입니다,340.84904810000444,None,340.84904810000444,None,340.84904810000444,None,340.84904810000444,None,341.8021121000056,None,341.8021121000056,342.31478860002244,,,,,,,,,,,,,,,,120,2022-05-06_15h15.31.595,FishGame,2022.1.1,60.03564915336578,
,18,넌 협력적이야,1,Green,A,5.625,5.633333333333334,ScrollDown,ScrollUp,Green.png,2,Positive,Congruent,,,,,0,0,0,0,,,,,,,,,,,,,,,,,0,17,17,17,,,,,,,,,,,,,,,,,,,,,,,,,,,,,,,,,,,,,,,,,,,,,,,,,,,,,,,,,,,,,,,,,,,,,,,,,,,,,1.1250000099341075,0.8588653999613598,342.95020700001623,None,ScrollDown,정답입니다,342.95020700001623,None,342.95020700001623,None,342.95020700001623,None,342.95020700001623,None,343.69768099999055,None,343.69768099999055,344.19823649997124,,,,,,,,,,,,,,,,120,2022-05-06_15h15.31.595,FishGame,2022.1.1,60.03564915336578,
,19,넌 평범해,3,Orange,B,4.333333333333332,4.233333333333333,ScrollUp,ScrollDown,Orange.png,2,Neutral,Neutral,,,,,0,0,0,0,,,,,,,,,,,,,,,,,0,18,18,18,,,,,,,,,,,,,,,,,,,,,,,,,,,,,,,,,,,,,,,,,,,,,,,,,,,,,,,,,,,,,,,,,,,,,,,,,,,,,1.5617283955216408,0.8574002999812365,344.8395660999813,None,ScrollUp,정답입니다,344.8395660999813,None,344.8395660999813,None,344.8395660999813,None,344.8395660999813,None,345.58074499998474,None,345.58074499998474,346.081817600003,,,,,,,,,,,,,,,,120,2022-05-06_15h15.31.595,FishGame,2022.1.1,60.03564915336578,
,20,넌 오만해,5,Green,A,2.333333333333333,2,ScrollDown,ScrollUp,Green.png,2,Negative,Incongruent,,,,,0,0,0,0,,,,,,,,,,,,,,,,,0,19,19,19,,,,,,,,,,,,,,,,,,,,,,,,,,,,,,,,,,,,,,,,,,,,,,,,,,,,,,,,,,,,,,,,,,,,,,,,,,,,,1.2993827114502587,0.7334601000184193,346.71639419998974,None,ScrollDown,정답입니다,346.71639419998974,None,346.71639419998974,None,346.71639419998974,None,346.71639419998974,None,347.33556029998,None,347.33556029998,347.84801469999366,,,,,,,,,,,,,,,,120,2022-05-06_15h15.31.595,FishGame,2022.1.1,60.03564915336578,
,21,넌 운이없어,4,Orange,B,3,3.466666666666667,ScrollUp,ScrollDown,Orange.png,2,Negative,Congruent,,,,,0,0,0,0,,,,,,,,,,,,,,,,,0,20,20,20,,,,,,,,,,,,,,,,,,,,,,,,,,,,,,,,,,,,,,,,,,,,,,,,,,,,,,,,,,,,,,,,,,,,,,,,,,,,,1.7006172885497413,1.0166025999933481,348.48747029999504,None,ScrollUp,정답입니다,348.48747029999504,None,348.48747029999504,None,348.48747029999504,None,348.48747029999504,None,349.386282499996,None,349.386282499996,349.8977254999918,,,,,,,,,,,,,,,,120,2022-05-06_15h15.31.595,FishGame,2022.1.1,60.03564915336578,
,22,넌 창조적이야,2,Orange,B,6.125,4.633333333333334,ScrollUp,ScrollDown,Orange.png,2,Positive,Incongruent,,,,,0,0,0,0,,,,,,,,,,,,,,,,,0,21,21,21,,,,,,,,,,,,,,,,,,,,,,,,,,,,,,,,,,,,,,,,,,,,,,,,,,,,,,,,,,,,,,,,,,,,,,,,,,,,,1.6126543184121451,0.8450639999937266,350.54218180000316,None,ScrollUp,정답입니다,350.54218180000316,None,350.54218180000316,None,350.54218180000316,None,350.54218180000316,None,351.26993760000914,None,351.26993760000914,351.7811733999988,,,,,,,,,,,,,,,,120,2022-05-06_15h15.31.595,FishGame,2022.1.1,60.03564915336578,
,23,나를 보내줘,6,Green,A,0,0,ScrollUp,ScrollDown,Green.png,2,NonTarget,NonTarget,,,,,0,0,0,0,,,,,,,,,,,,,,,,,0,22,22,22,,,,,,,,,,,,,,,,,,,,,,,,,,,,,,,,,,,,,,,,,,,,,,,,,,,,,,,,,,,,,,,,,,,,,,,,,,,,,1.652777781089147,1.8229673999594525,352.4119592999923,None,ScrollUp,정답입니다,352.4119592999923,None,352.4119592999923,None,352.4119592999923,None,352.4119592999923,None,354.13115159998415,None,354.13115159998415,354.6323205999797,,,,,,,,,,,,,,,,120,2022-05-06_15h15.31.595,FishGame,2022.1.1,60.03564915336578,
,24,넌 통찰력있어,2,Green,A,6.5,4.8,ScrollDown,ScrollUp,Green.png,2,Positive,Congruent,,,,,0,0,0,0,,,,,,,,,,,,,,,,,0,23,23,23,,,,,,,,,,,,,,,,,,,,,,,,,,,,,,,,,,,,,,,,,,,,,,,,,,,,,,,,,,,,,,,,,,,,,,,,,,,,,1.2067901243766148,0.7927206999738701,355.27569889998995,None,ScrollDown,정답입니다,355.27569889998995,None,355.27569889998995,None,355.27569889998995,None,355.27569889998995,None,355.9517266000039,None,355.9517266000039,356.46495019999566,,,,,,,,,,,,,,,,120,2022-05-06_15h15.31.595,FishGame,2022.1.1,60.03564915336578,
,25,넌 경솔해,5,Orange,B,2.458333333333333,2.266666666666667,ScrollUp,ScrollDown,Orange.png,2,Negative,Congruent,,,,,0,0,0,0,,,,,,,,,,,,,,,,,0,24,24,24,,,,,,,,,,,,,,,,,,,,,,,,,,,,,,,,,,,,,,,,,,,,,,,,,,,,,,,,,,,,,,,,,,,,,,,,,,,,,1.5817901206513247,0.8336802000412717,357.10289579996606,None,ScrollUp,정답입니다,357.10289579996606,None,357.10289579996606,None,357.10289579996606,None,357.10289579996606,None,357.81918559997575,None,357.81918559997575,358.3316532999743,,,,,,,,,,,,,,,,120,2022-05-06_15h15.31.595,FishGame,2022.1.1,60.03564915336578,
,26,넌 초조해,4,Green,A,2.916666666666667,3.133333333333333,ScrollDown,ScrollUp,Green.png,2,Negative,Incongruent,,,,,0,0,0,0,,,,,,,,,,,,,,,,,0,25,25,25,,,,,,,,,,,,,,,,,,,,,,,,,,,,,,,,,,,,,,,,,,,,,,,,,,,,,,,,,,,,,,,,,,,,,,,,,,,,,1.174382706483205,0.7173642999841832,358.9667350000236,None,ScrollDown,정답입니다,358.9667350000236,None,358.9667350000236,None,358.9667350000236,None,358.9667350000236,None,359.56918849999784,None,359.56918849999784,360.08165229996666,,,,,,,,,,,,,,,,120,2022-05-06_15h15.31.595,FishGame,2022.1.1,60.03564915336578,
,27,넌 무관심해,4,Orange,B,2.833333333333333,2.9,ScrollUp,ScrollDown,Orange.png,2,Negative,Congruent,,,,,0,0,0,0,,,,,,,,,,,,,,,,,0,26,26,26,,,,,,,,,,,,,,,,,,,,,,,,,,,,,,,,,,,,,,,,,,,,,,,,,,,,,,,,,,,,,,,,,,,,,,,,,,,,,1.549382715175549,1.2845827999990433,360.72846579999896,None,NoResponse,무응답입니다,360.72846579999896,None,360.72846579999896,None,360.72846579999896,None,360.72846579999896,None,361.8908278999734,None,361.8908278999734,362.39872070000274,,,,,,,,,,,,,,,,120,2022-05-06_15h15.31.595,FishGame,2022.1.1,60.03564915336578,
,28,넌 감성적이야,3,Orange,B,4.125,4.166666666666667,ScrollUp,ScrollDown,Orange.png,2,Neutral,Neutral,,,,,0,0,0,0,,,,,,,,,,,,,,,,,0,27,27,27,,,,,,,,,,,,,,,,,,,,,,,,,,,,,,,,,,,,,,,,,,,,,,,,,,,,,,,,,,,,,,,,,,,,,,,,,,,,,1.5617283955216408,0.8997351999860257,363.03715479996754,None,ScrollUp,정답입니다,363.03715479996754,None,363.03715479996754,None,363.03715479996754,None,363.03715479996754,None,363.82161039998755,None,363.82161039998755,364.33175640000263,,,,,,,,,,,,,,,,120,2022-05-06_15h15.31.595,FishGame,2022.1.1,60.03564915336578,
,29,넌 배려심있어,1,Green,A,6.083333333333333,5.5,ScrollDown,ScrollUp,Green.png,2,Positive,Congruent,,,,,0,0,0,0,,,,,,,,,,,,,,,,,0,28,28,28,,,,,,,,,,,,,,,,,,,,,,,,,,,,,,,,,,,,,,,,,,,,,,,,,,,,,,,,,,,,,,,,,,,,,,,,,,,,,1.1373456716537476,0.8057635000441223,364.9667708000052,None,ScrollDown,정답입니다,364.9667708000052,None,364.9667708000052,None,364.9667708000052,None,364.9667708000052,None,365.6645373000065,None,365.6645373000065,366.16504140000325,,,,,,,,,,,,,,,,120,2022-05-06_15h15.31.595,FishGame,2022.1.1,60.03564915336578,
,30,넌 숨김없어,3,Green,A,4.5,4.933333333333334,ScrollDown,ScrollUp,Green.png,2,Neutral,Neutral,,,,,0,0,0,0,,,,,,,,,,,,,,,,,0,29,29,29,,,,,,,,,,,,,,,,,,,,,,,,,,,,,,,,,,,,,,,,,,,,,,,,,,,,,,,,,,,,,,,,,,,,,,,,,,,,,1.1033950646718342,0.7897413999889977,366.80551969999215,None,ScrollDown,정답입니다,366.80551969999215,None,366.80551969999215,None,366.80551969999215,None,366.80551969999215,None,367.48160930001177,None,367.48160930001177,367.981921700004,,,,,,,,,,,,,,,,120,2022-05-06_15h15.31.595,FishGame,2022.1.1,60.03564915336578,
,31,넌 훌륭해,2,Orange,B,5.916666666666667,4.033333333333333,ScrollUp,ScrollDown,Orange.png,2,Positive,Incongruent,,,,,0,0,0,0,,,,,,,,,,,,,,,,,0,30,30,30,,,,,,,,,,,,,,,,,,,,,,,,,,,,,,,,,,,,,,,,,,,,,,,,,,,,,,,,,,,,,,,,,,,,,,,,,,,,,1.6712962985038757,0.8170932999928482,368.6224527999875,None,ScrollUp,정답입니다,368.6224527999875,None,368.6224527999875,None,368.6224527999875,None,368.6224527999875,None,369.3195538999862,None,369.3195538999862,369.8317613999825,,,,,,,,,,,,,,,,120,2022-05-06_15h15.31.595,FishGame,2022.1.1,60.03564915336578,
,32,넌 슬기로워,2,Green,A,6.166666666666667,4.1,ScrollDown,ScrollUp,Green.png,2,Positive,Congruent,,,,,0,0,0,0,,,,,,,,,,,,,,,,,0,31,31,31,,,,,,,,,,,,,,,,,,,,,,,,,,,,,,,,,,,,,,,,,,,,,,,,,,,,,,,,,,,,,,,,,,,,,,,,,,,,,1.3179012288649878,0.6947727999649942,370.4721452000085,None,ScrollDown,정답입니다,370.4721452000085,None,370.4721452000085,None,370.4721452000085,None,370.4721452000085,None,371.05300569999963,None,371.05300569999963,371.56528939999407,,,,,,,,,,,,,,,,120,2022-05-06_15h15.31.595,FishGame,2022.1.1,60.03564915336578,
,33,넌 냉혹해,5,Green,A,2.583333333333333,2.1,ScrollDown,ScrollUp,Green.png,2,Negative,Incongruent,,,,,0,0,0,0,,,,,,,,,,,,,,,,,0,32,32,32,,,,,,,,,,,,,,,,,,,,,,,,,,,,,,,,,,,,,,,,,,,,,,,,,,,,,,,,,,,,,,,,,,,,,,,,,,,,,1.2299382835626602,0.7563617000123486,372.2024173999671,None,ScrollDown,정답입니다,372.2024173999671,None,372.2024173999671,None,372.2024173999671,None,372.2024173999671,None,372.8481648999732,None,372.8481648999732,373.3478420000174,,,,,,,,,,,,,,,,120,2022-05-06_15h15.31.595,FishGame,2022.1.1,60.03564915336578,
,34,나를 데려가줘,6,Orange,B,0,0,ScrollDown,ScrollUp,Orange.png,2,NonTarget,NonTarget,,,,,0,0,0,0,,,,,,,,,,,,,,,,,0,33,33,33,,,,,,,,,,,,,,,,,,,,,,,,,,,,,,,,,,,,,,,,,,,,,,,,,,,,,,,,,,,,,,,,,,,,,,,,,,,,,1.632716049750646,0.7893259000265971,373.98453939997125,None,ScrollUp,오답입니다,373.98453939997125,None,373.98453939997125,None,373.98453939997125,None,373.98453939997125,None,374.65859599999385,None,374.65859599999385,375.165588999982,,,,,,,,,,,,,,,,120,2022-05-06_15h15.31.595,FishGame,2022.1.1,60.03564915336578,
,35,넌 편파적이야,5,Orange,B,2.125,2,ScrollUp,ScrollDown,Orange.png,2,Negative,Congruent,,,,,0,0,0,0,,,,,,,,,,,,,,,,,0,34,34,34,,,,,,,,,,,,,,,,,,,,,,,,,,,,,,,,,,,,,,,,,,,,,,,,,,,,,,,,,,,,,,,,,,,,,,,,,,,,,1.2253086417913437,0.8588031000108458,375.81212129996857,None,ScrollDown,오답입니다,375.81212129996857,None,375.81212129996857,None,375.81212129996857,None,375.81212129996857,None,376.54839439998614,None,376.54839439998614,377.0491560000228,,,,,,,,,,,,,,,,120,2022-05-06_15h15.31.595,FishGame,2022.1.1,60.03564915336578,
,36,넌 슬퍼,4,Green,A,2.583333333333333,3.066666666666667,ScrollDown,ScrollUp,Green.png,2,Negative,Incongruent,,,,,0,0,0,0,,,,,,,,,,,,,,,,,0,35,35,35,,,,,,,,,,,,,,,,,,,,,,,,,,,,,,,,,,,,,,,,,,,,,,,,,,,,,,,,,,,,,,,,,,,,,,,,,,,,,1.253086417913437,0.8786910000490025,377.68129849998513,None,ScrollDown,정답입니다,377.68129849998513,None,377.68129849998513,None,377.68129849998513,None,377.68129849998513,None,378.4530722000054,None,378.4530722000054,378.965277899988,,,,,,,,,,,,,,,,120,2022-05-06_15h15.31.595,FishGame,2022.1.1,60.03564915336578,
,37,나를 데려가줘,6,Orange,B,0,0,ScrollDown,ScrollUp,Orange.png,2,NonTarget,NonTarget,,,,,0,0,0,0,,,,,,,,,,,,,,,,,0,36,36,36,,,,,,,,,,,,,,,,,,,,,,,,,,,,,,,,,,,,,,,,,,,,,,,,,,,,,,,,,,,,,,,,,,,,,,,,,,,,,1.1481481442848842,1.2345381999621168,379.6065736999735,None,ScrollDown,정답입니다,379.6065736999735,None,379.6065736999735,None,379.6065736999735,None,379.6065736999735,None,380.71974309999496,None,380.71974309999496,381.23223959997995,,,,,,,,,,,,,,,,120,2022-05-06_15h15.31.595,FishGame,2022.1.1,60.03564915336578,
,38,넌 친절해,1,Orange,B,6.041666666666667,5.533333333333333,ScrollUp,ScrollDown,Orange.png,2,Positive,Incongruent,,,,,0,0,0,0,,,,,,,,,,,,,,,,,0,37,37,37,,,,,,,,,,,,,,,,,,,,,,,,,,,,,,,,,,,,,,,,,,,,,,,,,,,,,,,,,,,,,,,,,,,,,,,,,,,,,1.5725308619439602,0.8563318000524305,381.8759774999926,None,ScrollUp,정답입니다,381.8759774999926,None,381.8759774999926,None,381.8759774999926,None,381.8759774999926,None,382.61486630002037,None,382.61486630002037,383.1156913000159,,,,,,,,,,,,,,,,120,2022-05-06_15h15.31.595,FishGame,2022.1.1,60.03564915336578,
,1,넌 엉성해,4,Green,A,3,3.3,ScrollDown,ScrollUp,Green.png,3,Negative,Incongruent,,,,,0,0,0,0,,,,,,,,,,,,,,,,,,,,,0,0,0,0,,,,,,,,,,,,,,,,,,,,,,,,,,,,,,,,414.4494593999698,415.94989799999166,415.9828600999899,416.9326610999997,416.98241810000036,417.93334679998225,417.93334679998225,None,,,,,,,,,,,,,,,,,,,,,,,,,,,,,,,,,,1.0123456915219624,1.1531567000201903,419.0848931000219,None,ScrollDown,정답입니다,419.0848931000219,None,419.0848931000219,None,419.0848931000219,None,419.0848931000219,None,420.08270359999733,None,420.08270359999733,420.5826348999981,383.61555509996833,None,383.61555509996833,None,-0.15462963,-0.13425925,1,0,0,0.016327420016750693,None,413.616235399968,None,,,120,2022-05-06_15h15.31.595,FishGame,2022.1.1,60.03564915336578,
,2,나를 보내줘,6,Green,A,0,0,ScrollUp,ScrollDown,Green.png,3,NonTarget,NonTarget,,,,,0,0,0,0,,,,,,,,,,,,,,,,,,,,,0,1,1,1,,,,,,,,,,,,,,,,,,,,,,,,,,,,,,,,,,,,,,,,,,,,,,,,,,,,,,,,,,,,,,,,,,,,,,,,,1.9768518606821697,1.0377239999943413,421.21479339996586,None,ScrollUp,정답입니다,421.21479339996586,None,421.21479339996586,None,421.21479339996586,None,421.21479339996586,None,422.146346399968,None,422.146346399968,422.6501078999718,,,,,,,,,,,,,,,,120,2022-05-06_15h15.31.595,FishGame,2022.1.1,60.03564915336578,
,3,넌 활발해,1,Orange,B,5.666666666666667,5.6,ScrollUp,ScrollDown,Orange.png,3,Positive,Incongruent,,,,,0,0,0,0,,,,,,,,,,,,,,,,,,,,,0,2,2,2,,,,,,,,,,,,,,,,,,,,,,,,,,,,,,,,,,,,,,,,,,,,,,,,,,,,,,,,,,,,,,,,,,,,,,,,,1.6728395000100136,0.827418899978511,423.29299579997314,None,ScrollUp,정답입니다,423.29299579997314,None,423.29299579997314,None,423.29299579997314,None,423.29299579997314,None,424.00401450000936,None,424.00401450000936,424.51651410001796,,,,,,,,,,,,,,,,120,2022-05-06_15h15.31.595,FishGame,2022.1.1,60.03564915336578,
,4,넌 논리적이야,2,Green,A,5.666666666666666,4.633333333333334,ScrollDown,ScrollUp,Green.png,3,Positive,Congruent,,,,,0,0,0,0,,,,,,,,,,,,,,,,,,,,,0,3,3,3,,,,,,,,,,,,,,,,,,,,,,,,,,,,,,,,,,,,,,,,,,,,,,,,,,,,,,,,,,,,,,,,,,,,,,,,,1.1527777860562007,0.7186853000312112,425.1588069999707,None,ScrollDown,정답입니다,425.1588069999707,None,425.1588069999707,None,425.1588069999707,None,425.1588069999707,None,425.75541009998415,None,425.75541009998415,426.26644269999815,,,,,,,,,,,,,,,,120,2022-05-06_15h15.31.595,FishGame,2022.1.1,60.03564915336578,
,5,넌 과묵해,3,Green,A,3.875,4.4,ScrollDown,ScrollUp,Green.png,3,Neutral,Neutral,,,,,0,0,0,0,,,,,,,,,,,,,,,,,,,,,0,4,4,4,,,,,,,,,,,,,,,,,,,,,,,,,,,,,,,,,,,,,,,,,,,,,,,,,,,,,,,,,,,,,,,,,,,,,,,,,1.0632716019948323,0.8493144000531174,426.90246750001097,None,ScrollDown,정답입니다,426.90246750001097,None,426.90246750001097,None,426.90246750001097,None,426.90246750001097,None,427.63793590001296,None,427.63793590001296,428.149251899973,,,,,,,,,,,,,,,,120,2022-05-06_15h15.31.595,FishGame,2022.1.1,60.03564915336578,
,6,나를 데려가줘,6,Orange,B,0,0,ScrollDown,ScrollUp,Orange.png,3,NonTarget,NonTarget,,,,,0,0,0,0,,,,,,,,,,,,,,,,,,,,,0,5,5,5,,,,,,,,,,,,,,,,,,,,,,,,,,,,,,,,,,,,,,,,,,,,,,,,,,,,,,,,,,,,,,,,,,,,,,,,,1.016975333293279,1.0318158000009134,428.7846959999879,None,ScrollDown,정답입니다,428.7846959999879,None,428.7846959999879,None,428.7846959999879,None,428.7846959999879,None,429.7041959000053,None,429.7041959000053,430.21674790000543,,,,,,,,,,,,,,,,120,2022-05-06_15h15.31.595,FishGame,2022.1.1,60.03564915336578,
,7,넌 미숙해,4,Orange,B,3,3,ScrollUp,ScrollDown,Orange.png,3,Negative,Congruent,,,,,0,0,0,0,,,,,,,,,,,,,,,,,,,,,0,6,6,6,,,,,,,,,,,,,,,,,,,,,,,,,,,,,,,,,,,,,,,,,,,,,,,,,,,,,,,,,,,,,,,,,,,,,,,,,1.5817901206513247,0.8661211000289768,430.85423350002384,None,ScrollUp,정답입니다,430.85423350002384,None,430.85423350002384,None,430.85423350002384,None,430.85423350002384,None,431.60433409997495,None,431.60433409997495,432.11646039999323,,,,,,,,,,,,,,,,120,2022-05-06_15h15.31.595,FishGame,2022.1.1,60.03564915336578,
,8,나를 보내줘,6,Green,A,0,0,ScrollUp,ScrollDown,Green.png,3,NonTarget,NonTarget,,,,,0,0,0,0,,,,,,,,,,,,,,,,,,,,,0,7,7,7,,,,,,,,,,,,,,,,,,,,,,,,,,,,,,,,,,,,,,,,,,,,,,,,,,,,,,,,,,,,,,,,,,,,,,,,,1.6080246890584626,1.271870199998375,432.74718539998867,None,ScrollUp,정답입니다,432.74718539998867,None,432.74718539998867,None,432.74718539998867,None,432.74718539998867,None,433.9090314999921,None,433.9090314999921,434.41665219998686,,,,,,,,,,,,,,,,120,2022-05-06_15h15.31.595,FishGame,2022.1.1,60.03564915336578,
,9,넌 자신만만해,3,Orange,B,4.833333333333334,4.333333333333333,ScrollUp,ScrollDown,Orange.png,3,Neutral,Neutral,,,,,0,0,0,0,,,,,,,,,,,,,,,,,,,,,0,8,8,8,,,,,,,,,,,,,,,,,,,,,,,,,,,,,,,,,,,,,,,,,,,,,,,,,,,,,,,,,,,,,,,,,,,,,,,,,1.6867284004886947,1.100903099984862,435.0563135999837,None,ScrollUp,정답입니다,435.0563135999837,None,435.0563135999837,None,435.0563135999837,None,435.0563135999837,None,436.03800000000047,None,436.03800000000047,436.5498707999941,,,,,,,,,,,,,,,,120,2022-05-06_15h15.31.595,FishGame,2022.1.1,60.03564915336578,
,10,넌 탐욕스러워,5,Green,A,2.25,2.1,ScrollDown,ScrollUp,Green.png,3,Negative,Incongruent,,,,,0,0,0,0,,,,,,,,,,,,,,,,,,,,,0,9,9,9,,,,,,,,,,,,,,,,,,,,,,,,,,,,,,,,,,,,,,,,,,,,,,,,,,,,,,,,,,,,,,,,,,,,,,,,,1.0570987462997437,0.8000475000008009,437.1939317000215,None,ScrollDown,정답입니다,437.1939317000215,None,437.1939317000215,None,437.1939317000215,None,437.1939317000215,None,437.87102349998895,None,437.87102349998895,438.3834642000147,,,,,,,,,,,,,,,,120,2022-05-06_15h15.31.595,FishGame,2022.1.1,60.03564915336578,
,11,넌 인기있어,2,Green,A,5.458333333333333,4.5,ScrollDown,ScrollUp,Green.png,3,Positive,Congruent,,,,,0,0,0,0,,,,,,,,,,,,,,,,,,,,,0,10,10,10,,,,,,,,,,,,,,,,,,,,,,,,,,,,,,,,,,,,,,,,,,,,,,,,,,,,,,,,,,,,,,,,,,,,,,,,,1.0216049253940582,0.8390961000113748,439.01818289997755,None,ScrollDown,정답입니다,439.01818289997755,None,439.01818289997755,None,439.01818289997755,None,439.01818289997755,None,439.74988580000354,None,439.74988580000354,440.24989279999863,,,,,,,,,,,,,,,,120,2022-05-06_15h15.31.595,FishGame,2022.1.1,60.03564915336578,
,12,나를 데려가줘,6,Orange,B,0,0,ScrollDown,ScrollUp,Orange.png,3,NonTarget,NonTarget,,,,,0,0,0,0,,,,,,,,,,,,,,,,,,,,,0,11,11,11,,,,,,,,,,,,,,,,,,,,,,,,,,,,,,,,,,,,,,,,,,,,,,,,,,,,,,,,,,,,,,,,,,,,,,,,,1.2283950696388881,1.3094922000309452,440.8894531999831,None,ScrollDown,정답입니다,440.8894531999831,None,440.8894531999831,None,440.8894531999831,None,440.8894531999831,None,442.0829476999934,None,442.0829476999934,442.58373040001607,,,,,,,,,,,,,,,,120,2022-05-06_15h15.31.595,FishGame,2022.1.1,60.03564915336578,
,13,넌 뛰어나,2,Orange,B,6.166666666666667,4,ScrollUp,ScrollDown,Orange.png,3,Positive,Incongruent,,,,,0,0,0,0,,,,,,,,,,,,,,,,,,,,,0,12,12,12,,,,,,,,,,,,,,,,,,,,,,,,,,,,,,,,,,,,,,,,,,,,,,,,,,,,,,,,,,,,,,,,,,,,,,,,,1.6574074104428291,0.8757934999885038,443.2241387999966,None,ScrollUp,정답입니다,443.2241387999966,None,443.2241387999966,None,443.2241387999966,None,443.2241387999966,None,443.9830633000238,None,443.9830633000238,444.4836897000205,,,,,,,,,,,,,,,,120,2022-05-06_15h15.31.595,FishGame,2022.1.1,60.03564915336578,
,14,넌 낙관적이야,1,Green,A,5.75,5.8,ScrollDown,ScrollUp,Green.png,3,Positive,Congruent,,,,,0,0,0,0,,,,,,,,,,,,,,,,,,,,,0,13,13,13,,,,,,,,,,,,,,,,,,,,,,,,,,,,,,,,,,,,,,,,,,,,,,,,,,,,,,,,,,,,,,,,,,,,,,,,,1.141975313425064,0.8521700000273995,445.1207499000011,None,ScrollDown,정답입니다,445.1207499000011,None,445.1207499000011,None,445.1207499000011,None,445.1207499000011,None,445.86330289999023,None,445.86330289999023,446.36699900001986,,,,,,,,,,,,,,,,120,2022-05-06_15h15.31.595,FishGame,2022.1.1,60.03564915336578,
,15,넌 산만해,4,Orange,B,2.695652173913043,3.033333333333333,ScrollUp,ScrollDown,Orange.png,3,Negative,Congruent,,,,,0,0,0,0,,,,,,,,,,,,,,,,,,,,,0,14,14,14,,,,,,,,,,,,,,,,,,,,,,,,,,,,,,,,,,,,,,,,,,,,,,,,,,,,,,,,,,,,,,,,,,,,,,,,,1.5524691368142762,0.8695664000115357,447.00385929999175,None,ScrollUp,정답입니다,447.00385929999175,None,447.00385929999175,None,447.00385929999175,None,447.00385929999175,None,447.7553210000042,None,447.7553210000042,448.2669942000066,,,,,,,,,,,,,,,,120,2022-05-06_15h15.31.595,FishGame,2022.1.1,60.03564915336578,
,16,나를 보내줘,6,Green,A,0,0,ScrollUp,ScrollDown,Green.png,3,NonTarget,NonTarget,,,,,0,0,0,0,,,,,,,,,,,,,,,,,,,,,0,15,15,15,,,,,,,,,,,,,,,,,,,,,,,,,,,,,,,,,,,,,,,,,,,,,,,,,,,,,,,,,,,,,,,,,,,,,,,,,1.1589506169160206,0.9584149000002071,448.89788210002007,None,ScrollDown,오답입니다,448.89788210002007,None,448.89788210002007,None,448.89788210002007,None,448.89788210002007,None,449.74893180001527,None,449.74893180001527,450.2503899000003,,,,,,,,,,,,,,,,120,2022-05-06_15h15.31.595,FishGame,2022.1.1,60.03564915336578,
,17,넌 교활해,5,Orange,B,2.333333333333333,2.133333333333333,ScrollUp,ScrollDown,Orange.png,3,Negative,Congruent,,,,,0,0,0,0,,,,,,,,,,,,,,,,,,,,,0,16,16,16,,,,,,,,,,,,,,,,,,,,,,,,,,,,,,,,,,,,,,,,,,,,,,,,,,,,,,,,,,,,,,,,,,,,,,,,,1.6358024651805558,0.8979086999897845,450.8933942000149,None,ScrollUp,정답입니다,450.8933942000149,None,450.8933942000149,None,450.8933942000149,None,450.8933942000149,None,451.6732805999927,None,451.6732805999927,452.1837810999714,,,,,,,,,,,,,,,,120,2022-05-06_15h15.31.595,FishGame,2022.1.1,60.03564915336578,
,18,나를 보내줘,6,Green,A,0,0,ScrollUp,ScrollDown,Green.png,3,NonTarget,NonTarget,,,,,0,0,0,0,,,,,,,,,,,,,,,,,,,,,0,17,17,17,,,,,,,,,,,,,,,,,,,,,,,,,,,,,,,,,,,,,,,,,,,,,,,,,,,,,,,,,,,,,,,,,,,,,,,,,1.6219135771195092,0.8854317999794148,452.8131522000185,None,ScrollUp,정답입니다,452.8131522000185,None,452.8131522000185,None,452.8131522000185,None,452.8131522000185,None,453.5894840999972,None,453.5894840999972,454.1004239000031,,,,,,,,,,,,,,,,120,2022-05-06_15h15.31.595,FishGame,2022.1.1,60.03564915336578,
,19,넌 불친절해,5,Orange,B,2.208333333333333,2.033333333333333,ScrollUp,ScrollDown,Orange.png,3,Negative,Congruent,,,,,0,0,0,0,,,,,,,,,,,,,,,,,,,,,0,18,18,18,,,,,,,,,,,,,,,,,,,,,,,,,,,,,,,,,,,,,,,,,,,,,,,,,,,,,,,,,,,,,,,,,,,,,,,,,1.6111111169060073,0.8282381999888457,454.7401052999776,None,ScrollUp,정답입니다,454.7401052999776,None,454.7401052999776,None,454.7401052999776,None,454.7401052999776,None,455.4542630999931,None,455.4542630999931,455.96700499998406,,,,,,,,,,,,,,,,120,2022-05-06_15h15.31.595,FishGame,2022.1.1,60.03564915336578,
,20,넌 지적이야,2,Orange,B,5.75,4.366666666666666,ScrollUp,ScrollDown,Orange.png,3,Positive,Incongruent,,,,,0,0,0,0,,,,,,,,,,,,,,,,,,,,,0,19,19,19,,,,,,,,,,,,,,,,,,,,,,,,,,,,,,,,,,,,,,,,,,,,,,,,,,,,,,,,,,,,,,,,,,,,,,,,,1.540123456468185,0.7898784999852069,456.60331550001865,None,NoResponse,무응답입니다,456.60331550001865,None,456.60331550001865,None,456.60331550001865,None,456.60331550001865,None,457.2774128000019,None,457.2774128000019,457.7838722000015,,,,,,,,,,,,,,,,120,2022-05-06_15h15.31.595,FishGame,2022.1.1,60.03564915336578,
,21,넌 우유부단해,4,Green,A,2.666666666666667,3.166666666666667,ScrollDown,ScrollUp,Green.png,3,Negative,Incongruent,,,,,0,0,0,0,,,,,,,,,,,,,,,,,,,,,0,20,20,20,,,,,,,,,,,,,,,,,,,,,,,,,,,,,,,,,,,,,,,,,,,,,,,,,,,,,,,,,,,,,,,,,,,,,,,,,1.2206790000200272,0.8098548999987543,458.43059419997735,None,ScrollDown,정답입니다,458.43059419997735,None,458.43059419997735,None,458.43059419997735,None,458.43059419997735,None,459.11776930000633,None,459.11776930000633,459.6169761000201,,,,,,,,,,,,,,,,120,2022-05-06_15h15.31.595,FishGame,2022.1.1,60.03564915336578,
,22,나를 데려가줘,6,Orange,B,0,0,ScrollDown,ScrollUp,Orange.png,3,NonTarget,NonTarget,,,,,0,0,0,0,,,,,,,,,,,,,,,,,,,,,0,21,21,21,,,,,,,,,,,,,,,,,,,,,,,,,,,,,,,,,,,,,,,,,,,,,,,,,,,,,,,,,,,,,,,,,,,,,,,,,1.1450617164373398,1.2912561000557616,460.2542179999873,None,ScrollDown,정답입니다,460.2542179999873,None,460.2542179999873,None,460.2542179999873,None,460.2542179999873,None,461.4335603999789,None,461.4335603999789,461.93396930000745,,,,,,,,,,,,,,,,120,2022-05-06_15h15.31.595,FishGame,2022.1.1,60.03564915336578,
,23,넌 성실해,1,Orange,B,6.041666666666666,5.7,ScrollUp,ScrollDown,Orange.png,3,Positive,Incongruent,,,,,0,0,0,0,,,,,,,,,,,,,,,,,,,,,0,22,22,22,,,,,,,,,,,,,,,,,,,,,,,,,,,,,,,,,,,,,,,,,,,,,,,,,,,,,,,,,,,,,,,,,,,,,,,,,1.766975313425064,0.882375699991826,462.56743330002064,None,ScrollUp,정답입니다,462.56743330002064,None,462.56743330002064,None,462.56743330002064,None,462.56743330002064,None,463.3389432000113,None,463.3389432000113,463.8503488000133,,,,,,,,,,,,,,,,120,2022-05-06_15h15.31.595,FishGame,2022.1.1,60.03564915336578,
,24,넌 현실주의적이야,3,Green,A,4.625,4.4,ScrollDown,ScrollUp,Green.png,3,Neutral,Neutral,,,,,0,0,0,0,,,,,,,,,,,,,,,,,,,,,0,23,23,23,,,,,,,,,,,,,,,,,,,,,,,,,,,,,,,,,,,,,,,,,,,,,,,,,,,,,,,,,,,,,,,,,,,,,,,,,1.1913580348094304,0.9121223000111058,464.4847482999903,None,ScrollDown,정답입니다,464.4847482999903,None,464.4847482999903,None,464.4847482999903,None,464.4847482999903,None,465.2835854999721,None,465.2835854999721,465.7836228000233,,,,,,,,,,,,,,,,120,2022-05-06_15h15.31.595,FishGame,2022.1.1,60.03564915336578,
,25,넌 진실돼,1,Green,A,6.625,5.566666666666666,ScrollDown,ScrollUp,Green.png,3,Positive,Congruent,,,,,0,0,0,0,,,,,,,,,,,,,,,,,,,,,0,24,24,24,,,,,,,,,,,,,,,,,,,,,,,,,,,,,,,,,,,,,,,,,,,,,,,,,,,,,,,,,,,,,,,,,,,,,,,,,1.1867283930381138,0.8863172000274062,466.4205454000039,None,ScrollDown,정답입니다,466.4205454000039,None,466.4205454000039,None,466.4205454000039,None,466.4205454000039,None,467.1966519000125,None,467.1966519000125,467.7009851000039,,,,,,,,,,,,,,,,120,2022-05-06_15h15.31.595,FishGame,2022.1.1,60.03564915336578,
,26,넌 천진난만해,3,Orange,B,4.958333333333334,4.833333333333333,ScrollUp,ScrollDown,Orange.png,3,Neutral,Neutral,,,,,0,0,0,0,,,,,,,,,,,,,,,,,,,,,0,25,25,25,,,,,,,,,,,,,,,,,,,,,,,,,,,,,,,,,,,,,,,,,,,,,,,,,,,,,,,,,,,,,,,,,,,,,,,,,1.702160490055879,0.8657374000176787,468.3453002999886,None,ScrollUp,정답입니다,468.3453002999886,None,468.3453002999886,None,468.3453002999886,None,468.3453002999886,None,469.0889437000151,None,469.0889437000151,469.60078899998916,,,,,,,,,,,,,,,,120,2022-05-06_15h15.31.595,FishGame,2022.1.1,60.03564915336578,
,27,넌 교양없어,5,Green,A,2.416666666666667,2.2,ScrollDown,ScrollUp,Green.png,3,Negative,Incongruent,,,,,0,0,0,0,,,,,,,,,,,,,,,,,,,,,0,26,26,26,,,,,,,,,,,,,,,,,,,,,,,,,,,,,,,,,,,,,,,,,,,,,,,,,,,,,,,,,,,,,,,,,,,,,,,,,1.1836419651905696,1.093268500000704,470.2375210999744,None,ScrollDown,정답입니다,470.2375210999744,None,470.2375210999744,None,470.2375210999744,None,470.2375210999744,None,471.21684770000866,None,471.21684770000866,471.7177848999854,,,,,,,,,,,,,,,,120,2022-05-06_15h15.31.595,FishGame,2022.1.1,60.03564915336578,
,28,나를 보내줘,6,Green,A,0,0,ScrollUp,ScrollDown,Green.png,3,NonTarget,NonTarget,,,,,0,0,0,0,,,,,,,,,,,,,,,,,,,,,0,27,27,27,,,,,,,,,,,,,,,,,,,,,,,,,,,,,,,,,,,,,,,,,,,,,,,,,,,,,,,,,,,,,,,,,,,,,,,,,1.663580241302649,1.255183900007978,472.3507947999751,None,ScrollUp,정답입니다,472.3507947999751,None,472.3507947999751,None,472.3507947999751,None,472.3507947999751,None,473.5007051000139,None,473.5007051000139,474.00084589998005,,,,,,,,,,,,,,,,120,2022-05-06_15h15.31.595,FishGame,2022.1.1,60.03564915336578,
,29,넌 엉뚱스러워,3,Green,A,4.166666666666667,4.133333333333334,ScrollDown,ScrollUp,Green.png,3,Neutral,Neutral,,,,,0,0,0,0,,,,,,,,,,,,,,,,,,,,,0,28,28,28,,,,,,,,,,,,,,,,,,,,,,,,,,,,,,,,,,,,,,,,,,,,,,,,,,,,,,,,,,,,,,,,,,,,,,,,,1.1697530895471573,0.8505371000501327,474.636834600009,None,ScrollDown,정답입니다,474.636834600009,None,474.636834600009,None,474.636834600009,None,474.636834600009,None,475.37197659997037,None,475.37197659997037,475.88423460000195,,,,,,,,,,,,,,,,120,2022-05-06_15h15.31.595,FishGame,2022.1.1,60.03564915336578,
,30,넌 무지해,4,Orange,B,2.541666666666667,3.066666666666667,ScrollUp,ScrollDown,Orange.png,3,Negative,Congruent,,,,,0,0,0,0,,,,,,,,,,,,,,,,,,,,,0,29,29,29,,,,,,,,,,,,,,,,,,,,,,,,,,,,,,,,,,,,,,,,,,,,,,,,,,,,,,,,,,,,,,,,,,,,,,,,,1.6496913532416024,1.1232269000029191,476.5160875999718,None,ScrollUp,정답입니다,476.5160875999718,None,476.5160875999718,None,476.5160875999718,None,476.5160875999718,None,477.5342412000173,None,477.5342412000173,478.03463820001343,,,,,,,,,,,,,,,,120,2022-05-06_15h15.31.595,FishGame,2022.1.1,60.03564915336578,
,31,넌 음울해,5,Orange,B,2.25,2.233333333333333,ScrollUp,ScrollDown,Orange.png,3,Negative,Congruent,,,,,0,0,0,0,,,,,,,,,,,,,,,,,,,,,0,30,30,30,,,,,,,,,,,,,,,,,,,,,,,,,,,,,,,,,,,,,,,,,,,,,,,,,,,,,,,,,,,,,,,,,,,,,,,,,1.6604938258727393,0.914270100009162,478.68687510001473,None,ScrollUp,정답입니다,478.68687510001473,None,478.68687510001473,None,478.68687510001473,None,478.68687510001473,None,479.4720331999706,None,479.4720331999706,479.98432160000084,,,,,,,,,,,,,,,,120,2022-05-06_15h15.31.595,FishGame,2022.1.1,60.03564915336578,
,32,넌 냉소적이야,5,Green,A,2.916666666666667,2.4,ScrollDown,ScrollUp,Green.png,3,Negative,Incongruent,,,,,0,0,0,0,,,,,,,,,,,,,,,,,,,,,0,31,31,31,,,,,,,,,,,,,,,,,,,,,,,,,,,,,,,,,,,,,,,,,,,,,,,,,,,,,,,,,,,,,,,,,,,,,,,,,1.2422839452823002,0.9501642999821343,480.61445990001084,None,ScrollDown,정답입니다,480.61445990001084,None,480.61445990001084,None,480.61445990001084,None,480.61445990001084,None,481.45555509999394,None,481.45555509999394,481.9673890999984,,,,,,,,,,,,,,,,120,2022-05-06_15h15.31.595,FishGame,2022.1.1,60.03564915336578,
,33,나를 데려가줘,6,Orange,B,0,0,ScrollDown,ScrollUp,Orange.png,3,NonTarget,NonTarget,,,,,0,0,0,0,,,,,,,,,,,,,,,,,,,,,0,32,32,32,,,,,,,,,,,,,,,,,,,,,,,,,,,,,,,,,,,,,,,,,,,,,,,,,,,,,,,,,,,,,,,,,,,,,,,,,1.614197532335917,0.9184320000349544,482.60574129997985,None,ScrollUp,오답입니다,482.60574129997985,None,482.60574129997985,None,482.60574129997985,None,482.60574129997985,None,483.4075947999954,None,483.4075947999954,483.91775600000983,,,,,,,,,,,,,,,,120,2022-05-06_15h15.31.595,FishGame,2022.1.1,60.03564915336578,
,34,넌 쾌활해,1,Green,A,5.541666666666666,5.733333333333333,ScrollDown,ScrollUp,Green.png,3,Positive,Congruent,,,,,0,0,0,0,,,,,,,,,,,,,,,,,,,,,0,33,33,33,,,,,,,,,,,,,,,,,,,,,,,,,,,,,,,,,,,,,,,,,,,,,,,,,,,,,,,,,,,,,,,,,,,,,,,,,1.1959876517454784,0.8587086999905296,484.56894289999036,None,ScrollDown,정답입니다,484.56894289999036,None,484.56894289999036,None,484.56894289999036,None,484.56894289999036,None,485.3003524999949,None,485.3003524999949,485.80114379996667,,,,,,,,,,,,,,,,120,2022-05-06_15h15.31.595,FishGame,2022.1.1,60.03564915336578,
,35,나를 보내줘,6,Green,A,0,0,ScrollUp,ScrollDown,Green.png,3,NonTarget,NonTarget,,,,,0,0,0,0,,,,,,,,,,,,,,,,,,,,,0,34,34,34,,,,,,,,,,,,,,,,,,,,,,,,,,,,,,,,,,,,,,,,,,,,,,,,,,,,,,,,,,,,,,,,,,,,,,,,,1.6435185223817825,0.942479099961929,486.43236490001436,None,ScrollUp,정답입니다,486.43236490001436,None,486.43236490001436,None,486.43236490001436,None,486.43236490001436,None,487.2675667000003,None,487.2675667000003,487.768065900018,,,,,,,,,,,,,,,,120,2022-05-06_15h15.31.595,FishGame,2022.1.1,60.03564915336578,
,36,넌 명랑해,1,Orange,B,5.739130434782609,5.666666666666667,ScrollUp,ScrollDown,Orange.png,3,Positive,Incongruent,,,,,0,0,0,0,,,,,,,,,,,,,,,,,,,,,0,35,35,35,,,,,,,,,,,,,,,,,,,,,,,,,,,,,,,,,,,,,,,,,,,,,,,,,,,,,,,,,,,,,,,,,,,,,,,,,1.7114197611808777,1.082961299980525,488.40806039999006,None,ScrollUp,정답입니다,488.40806039999006,None,488.40806039999006,None,488.40806039999006,None,488.40806039999006,None,489.3722567000077,None,489.3722567000077,489.8846419000183,,,,,,,,,,,,,,,,120,2022-05-06_15h15.31.595,FishGame,2022.1.1,60.03564915336578,
,37,넌 멍해,4,Green,A,2.833333333333333,3.4,ScrollDown,ScrollUp,Green.png,3,Negative,Incongruent,,,,,0,0,0,0,,,,,,,,,,,,,,,,,,,,,0,36,36,36,,,,,,,,,,,,,,,,,,,,,,,,,,,,,,,,,,,,,,,,,,,,,,,,,,,,,,,,,,,,,,,,,,,,,,,,,1.2453703731298447,0.8176547000184655,490.52188969997223,None,ScrollDown,정답입니다,490.52188969997223,None,490.52188969997223,None,490.52188969997223,None,490.52188969997223,None,491.22235860000364,None,491.22235860000364,491.73393679998117,,,,,,,,,,,,,,,,120,2022-05-06_15h15.31.595,FishGame,2022.1.1,60.03564915336578,
,38,나를 데려가줘,6,Orange,B,0,0,ScrollDown,ScrollUp,Orange.png,3,NonTarget,NonTarget,,,,,0,0,0,0,,,,,,,,,,,,,,,,,,,,,0,37,37,37,,,,,,,,,,,,,,,,,,,,,,,,,,,,,,,,,,,,,,,,,,,,,,,,,,,,,,,,,,,,,,,,,,,,,,,,,1.6728395000100136,0.833300500002224,492.3724424999673,None,ScrollUp,오답입니다,492.3724424999673,None,492.3724424999673,None,492.3724424999673,None,492.3724424999673,None,493.0908994000056,None,493.0908994000056,493.60122890002094,,,,,,,,,,,,,,,,120,2022-05-06_15h15.31.595,FishGame,2022.1.1,60.03564915336578,
,39,넌 현명해,2,Green,A,6.541666666666666,4.533333333333333,ScrollDown,ScrollUp,Green.png,3,Positive,Congruent,,,,,0,0,0,0,,,,,,,,,,,,,,,,,,,,,0,38,38,38,,,,,,,,,,,,,,,,,,,,,,,,,,,,,,,,,,,,,,,,,,,,,,,,,,,,,,,,,,,,,,,,,,,,,,,,,1.1913580348094304,0.8067443000036292,494.2300783999963,None,ScrollDown,정답입니다,494.2300783999963,None,494.2300783999963,None,494.2300783999963,None,494.2300783999963,None,494.92866749997484,None,494.92866749997484,495.43476199998986,,,,,,,,,,,,,,,,120,2022-05-06_15h15.31.595,FishGame,2022.1.1,60.03564915336578,
,40,넌 수줍어,3,Orange,B,3.541666666666666,4.366666666666666,ScrollUp,ScrollDown,Orange.png,3,Neutral,Neutral,,,,,0,0,0,0,,,,,,,,,,,,,,,,,,,,,0,39,39,39,,,,,,,,,,,,,,,,,,,,,,,,,,,,,,,,,,,,,,,,,,,,,,,,,,,,,,,,,,,,,,,,,,,,,,,,,1.6388888930281005,0.8588811000226997,496.0804900000221,None,ScrollUp,정답입니다,496.0804900000221,None,496.0804900000221,None,496.0804900000221,None,496.0804900000221,None,496.8173085000017,None,496.8173085000017,497.31768320000265,,,,,,,,,,,,,,,,120,2022-05-06_15h15.31.595,FishGame,2022.1.1,60.03564915336578,
,41,나를 데려가줘,6,Orange,B,0,0,ScrollDown,ScrollUp,Orange.png,3,NonTarget,NonTarget,,,,,0,0,0,0,,,,,,,,,,,,,,,,,,,,,0,40,40,40,,,,,,,,,,,,,,,,,,,,,,,,,,,,,,,,,,,,,,,,,,,,,,,,,,,,,,,,,,,,,,,,,,,,,,,,,1.0262345671653748,1.2071115999715403,497.9549125999911,None,ScrollDown,정답입니다,497.9549125999911,None,497.9549125999911,None,497.9549125999911,None,497.9549125999911,None,499.0509622999816,None,499.0509622999816,499.55187399999704,,,,,,,,,,,,,,,,120,2022-05-06_15h15.31.595,FishGame,2022.1.1,60.03564915336578,
,42,넌 성숙해,2,Orange,B,5.833333333333333,4.533333333333333,ScrollUp,ScrollDown,Orange.png,3,Positive,Incongruent,,,,,0,0,0,0,,,,,,,,,,,,,,,,,,,,,0,41,41,41,,,,,,,,,,,,,,,,,,,,,,,,,,,,,,,,,,,,,,,,,,,,,,,,,,,,,,,,,,,,,,,,,,,,,,,,,1.6250000049670539,0.9260781000484712,500.1869975000154,None,ScrollUp,정답입니다,500.1869975000154,None,500.1869975000154,None,500.1869975000154,None,500.1869975000154,None,501.00127850001445,None,501.00127850001445,501.50130409997655,,,,,,,,,,,,,,,,120,2022-05-06_15h15.31.595,FishGame,2022.1.1,60.03564915336578,
,1,넌 매력적이야,2,Orange,B,6.125,4.666666666666667,ScrollUp,ScrollDown,Orange.png,4,Positive,Incongruent,,,,,0,0,0,0,,,,,,,,,,,,,,,,,,,,,,,,,0,0,0,0,,,,,,,,,,,,,,,,,,,,,,,,,,,,536.8017676000018,538.3021665000124,538.3352911999682,539.285732600023,539.3358735999791,540.2858964999905,540.2858964999905,None,,,,,,,,,,,,,,,,,,,,,,,,,,,,,,,,,,1.723765422900518,1.25412390002748,541.4479048000067,None,ScrollUp,정답입니다,541.4479048000067,None,541.4479048000067,None,541.4479048000067,None,541.4479048000067,None,542.5354627000052,None,542.5354627000052,543.0357293999987,502.00164669996593,None,502.00164669996593,None,-0.17962962,-0.098148145,1,0,0,0.015745120006613433,None,532.0016293000081,None,,,120,2022-05-06_15h15.31.595,FishGame,2022.1.1,60.03564915336578,
,2,나를 보내줘,6,Green,A,0,0,ScrollUp,ScrollDown,Green.png,4,NonTarget,NonTarget,,,,,0,0,0,0,,,,,,,,,,,,,,,,,,,,,,,,,0,1,1,1,,,,,,,,,,,,,,,,,,,,,,,,,,,,,,,,,,,,,,,,,,,,,,,,,,,,,,,,,,,,,,,,,,,,,1.5385802456488213,1.256175099988468,543.6636543999775,None,NoResponse,무응답입니다,543.6636543999775,None,543.6636543999775,None,543.6636543999775,None,543.6636543999775,None,544.8131058000145,None,544.8131058000145,545.3188513999921,,,,,,,,,,,,,,,,120,2022-05-06_15h15.31.595,FishGame,2022.1.1,60.03564915336578,
,3,넌 조심스러워,3,Green,A,4.791666666666666,4.666666666666667,ScrollDown,ScrollUp,Green.png,4,Neutral,Neutral,,,,,0,0,0,0,,,,,,,,,,,,,,,,,,,,,,,,,0,2,2,2,,,,,,,,,,,,,,,,,,,,,,,,,,,,,,,,,,,,,,,,,,,,,,,,,,,,,,,,,,,,,,,,,,,,,1.1496913582086563,0.7900921000400558,545.9515391999739,None,ScrollDown,정답입니다,545.9515391999739,None,545.9515391999739,None,545.9515391999739,None,545.9515391999739,None,546.6302112999838,None,546.6302112999838,547.1361398000154,,,,,,,,,,,,,,,,120,2022-05-06_15h15.31.595,FishGame,2022.1.1,60.03564915336578,
,4,넌 철학적이야,3,Orange,B,4.5,4.266666666666667,ScrollUp,ScrollDown,Orange.png,4,Neutral,Neutral,,,,,0,0,0,0,,,,,,,,,,,,,,,,,,,,,,,,,0,3,3,3,,,,,,,,,,,,,,,,,,,,,,,,,,,,,,,,,,,,,,,,,,,,,,,,,,,,,,,,,,,,,,,,,,,,,1.5879629639287791,0.8018014999688603,547.7779617999913,None,ScrollUp,정답입니다,547.7779617999913,None,547.7779617999913,None,547.7779617999913,None,547.7779617999913,None,548.465363700001,None,548.465363700001,548.9692634000094,,,,,,,,,,,,,,,,120,2022-05-06_15h15.31.595,FishGame,2022.1.1,60.03564915336578,
,5,넌 쩨쩨해,5,Green,A,2.375,2.133333333333333,ScrollDown,ScrollUp,Green.png,4,Negative,Incongruent,,,,,0,0,0,0,,,,,,,,,,,,,,,,,,,,,,,,,0,4,4,4,,,,,,,,,,,,,,,,,,,,,,,,,,,,,,,,,,,,,,,,,,,,,,,,,,,,,,,,,,,,,,,,,,,,,1.1080246816078823,0.7899869999964722,549.6030202999827,None,ScrollDown,정답입니다,549.6030202999827,None,549.6030202999827,None,549.6030202999827,None,549.6030202999827,None,550.2853785000043,None,550.2853785000043,550.78620089998,,,,,,,,,,,,,,,,120,2022-05-06_15h15.31.595,FishGame,2022.1.1,60.03564915336578,
,6,나를 데려가줘,6,Orange,B,0,0,ScrollDown,ScrollUp,Orange.png,4,NonTarget,NonTarget,,,,,0,0,0,0,,,,,,,,,,,,,,,,,,,,,,,,,0,5,5,5,,,,,,,,,,,,,,,,,,,,,,,,,,,,,,,,,,,,,,,,,,,,,,,,,,,,,,,,,,,,,,,,,,,,,1.214506169160207,1.3392761999857612,551.4271283000126,None,ScrollDown,정답입니다,551.4271283000126,None,551.4271283000126,None,551.4271283000126,None,551.4271283000126,None,552.6521986000007,None,552.6521986000007,553.1522957999841,,,,,,,,,,,,,,,,120,2022-05-06_15h15.31.595,FishGame,2022.1.1,60.03564915336578,
,7,넌 고집불통이야,5,Orange,B,2.875,2,ScrollUp,ScrollDown,Orange.png,4,Negative,Congruent,,,,,0,0,0,0,,,,,,,,,,,,,,,,,,,,,,,,,0,6,6,6,,,,,,,,,,,,,,,,,,,,,,,,,,,,,,,,,,,,,,,,,,,,,,,,,,,,,,,,,,,,,,,,,,,,,1.6203703756133714,0.8995796000235714,553.7993790999753,None,ScrollUp,정답입니다,553.7993790999753,None,553.7993790999753,None,553.7993790999753,None,553.7993790999753,None,554.574009599979,None,554.574009599979,555.0862107999856,,,,,,,,,,,,,,,,120,2022-05-06_15h15.31.595,FishGame,2022.1.1,60.03564915336578,
,8,넌 무심해,4,Green,A,2.875,3.2,ScrollDown,ScrollUp,Green.png,4,Negative,Incongruent,,,,,0,0,0,0,,,,,,,,,,,,,,,,,,,,,,,,,0,7,7,7,,,,,,,,,,,,,,,,,,,,,,,,,,,,,,,,,,,,,,,,,,,,,,,,,,,,,,,,,,,,,,,,,,,,,1.0324074228604634,0.941785900038667,555.7155572000192,None,ScrollDown,정답입니다,555.7155572000192,None,555.7155572000192,None,555.7155572000192,None,555.7155572000192,None,556.5519048999995,None,556.5519048999995,557.0526152999955,,,,,,,,,,,,,,,,120,2022-05-06_15h15.31.595,FishGame,2022.1.1,60.03564915336578,
,9,넌 정겨워,1,Green,A,5.791666666666667,5.666666666666667,ScrollDown,ScrollUp,Green.png,4,Positive,Congruent,,,,,0,0,0,0,,,,,,,,,,,,,,,,,,,,,,,,,0,8,8,8,,,,,,,,,,,,,,,,,,,,,,,,,,,,,,,,,,,,,,,,,,,,,,,,,,,,,,,,,,,,,,,,,,,,,1.1682098756233852,0.7482016999856569,557.6862254000152,None,ScrollDown,정답입니다,557.6862254000152,None,557.6862254000152,None,557.6862254000152,None,557.6862254000152,None,558.3238672000007,None,558.3238672000007,558.8357953999657,,,,,,,,,,,,,,,,120,2022-05-06_15h15.31.595,FishGame,2022.1.1,60.03564915336578,
,10,나를 데려가줘,6,Orange,B,0,0,ScrollDown,ScrollUp,Orange.png,4,NonTarget,NonTarget,,,,,0,0,0,0,,,,,,,,,,,,,,,,,,,,,,,,,0,9,9,9,,,,,,,,,,,,,,,,,,,,,,,,,,,,,,,,,,,,,,,,,,,,,,,,,,,,,,,,,,,,,,,,,,,,,1.5925925932824612,0.8012844999902882,559.474377400009,None,ScrollUp,오답입니다,559.474377400009,None,559.474377400009,None,559.474377400009,None,559.474377400009,None,560.1590440999717,None,560.1590440999717,560.6691053999821,,,,,,,,,,,,,,,,120,2022-05-06_15h15.31.595,FishGame,2022.1.1,60.03564915336578,
,11,넌 체제순응적이야,4,Orange,B,3,3.6,ScrollUp,ScrollDown,Orange.png,4,Negative,Congruent,,,,,0,0,0,0,,,,,,,,,,,,,,,,,,,,,,,,,0,10,10,10,,,,,,,,,,,,,,,,,,,,,,,,,,,,,,,,,,,,,,,,,,,,,,,,,,,,,,,,,,,,,,,,,,,,,1.5956790149211884,1.0605089999735355,561.3224672999931,None,ScrollUp,정답입니다,561.3224672999931,None,561.3224672999931,None,561.3224672999931,None,561.3224672999931,None,562.2532565000001,None,562.2532565000001,562.7532160999835,,,,,,,,,,,,,,,,120,2022-05-06_15h15.31.595,FishGame,2022.1.1,60.03564915336578,
,12,나를 보내줘,6,Green,A,0,0,ScrollUp,ScrollDown,Green.png,4,NonTarget,NonTarget,,,,,0,0,0,0,,,,,,,,,,,,,,,,,,,,,,,,,0,11,11,11,,,,,,,,,,,,,,,,,,,,,,,,,,,,,,,,,,,,,,,,,,,,,,,,,,,,,,,,,,,,,,,,,,,,,1.609567902982235,1.0321915000095032,563.3826643999782,None,ScrollUp,정답입니다,563.3826643999782,None,563.3826643999782,None,563.3826643999782,None,563.3826643999782,None,564.3074897999759,None,564.3074897999759,564.8198008000036,,,,,,,,,,,,,,,,120,2022-05-06_15h15.31.595,FishGame,2022.1.1,60.03564915336578,
,13,넌 박식해,2,Green,A,5.625,3.933333333333333,ScrollDown,ScrollUp,Green.png,4,Positive,Congruent,,,,,0,0,0,0,,,,,,,,,,,,,,,,,,,,,,,,,0,12,12,12,,,,,,,,,,,,,,,,,,,,,,,,,,,,,,,,,,,,,,,,,,,,,,,,,,,,,,,,,,,,,,,,,,,,,1.3070987686514854,0.7417708999710158,565.4660842000158,None,ScrollDown,정답입니다,565.4660842000158,None,565.4660842000158,None,565.4660842000158,None,565.4660842000158,None,566.0860690000118,None,566.0860690000118,566.5862549999729,,,,,,,,,,,,,,,,120,2022-05-06_15h15.31.595,FishGame,2022.1.1,60.03564915336578,
,14,나를 보내줘,6,Green,A,0,0,ScrollUp,ScrollDown,Green.png,4,NonTarget,NonTarget,,,,,0,0,0,0,,,,,,,,,,,,,,,,,,,,,,,,,0,13,13,13,,,,,,,,,,,,,,,,,,,,,,,,,,,,,,,,,,,,,,,,,,,,,,,,,,,,,,,,,,,,,,,,,,,,,1.5617283955216408,0.9335082999896258,567.216138000018,None,ScrollUp,정답입니다,567.216138000018,None,567.216138000018,None,567.216138000018,None,567.216138000018,None,568.0409060000093,None,568.0409060000093,568.5530486999778,,,,,,,,,,,,,,,,120,2022-05-06_15h15.31.595,FishGame,2022.1.1,60.03564915336578,
,15,넌 침착해,1,Orange,B,5.458333333333333,5.566666666666666,ScrollUp,ScrollDown,Orange.png,4,Positive,Incongruent,,,,,0,0,0,0,,,,,,,,,,,,,,,,,,,,,,,,,0,14,14,14,,,,,,,,,,,,,,,,,,,,,,,,,,,,,,,,,,,,,,,,,,,,,,,,,,,,,,,,,,,,,,,,,,,,,1.6172839477658272,1.0749607000034302,569.1964686000138,None,ScrollUp,정답입니다,569.1964686000138,None,569.1964686000138,None,569.1964686000138,None,569.1964686000138,None,570.1524867999833,None,570.1524867999833,570.6527787999948,,,,,,,,,,,,,,,,120,2022-05-06_15h15.31.595,FishGame,2022.1.1,60.03564915336578,
,16,나를 데려가줘,6,Orange,B,0,0,ScrollDown,ScrollUp,Orange.png,4,NonTarget,NonTarget,,,,,0,0,0,0,,,,,,,,,,,,,,,,,,,,,,,,,0,15,15,15,,,,,,,,,,,,,,,,,,,,,,,,,,,,,,,,,,,,,,,,,,,,,,,,,,,,,,,,,,,,,,,,,,,,,1.1975308656692505,0.7228696999954991,571.2901932999957,None,ScrollDown,정답입니다,571.2901932999957,None,571.2901932999957,None,571.2901932999957,None,571.2901932999957,None,571.902517199982,None,571.902517199982,572.4029139999766,,,,,,,,,,,,,,,,120,2022-05-06_15h15.31.595,FishGame,2022.1.1,60.03564915336578,
,17,넌 행복해,1,Green,A,6.416666666666666,6.166666666666667,ScrollDown,ScrollUp,Green.png,4,Positive,Congruent,,,,,0,0,0,0,,,,,,,,,,,,,,,,,,,,,,,,,0,16,16,16,,,,,,,,,,,,,,,,,,,,,,,,,,,,,,,,,,,,,,,,,,,,,,,,,,,,,,,,,,,,,,,,,,,,,1.0354938507080078,1.0341384999919683,573.0414575000177,None,ScrollDown,정답입니다,573.0414575000177,None,573.0414575000177,None,573.0414575000177,None,573.0414575000177,None,573.957373799989,None,573.957373799989,574.4699468999752,,,,,,,,,,,,,,,,120,2022-05-06_15h15.31.595,FishGame,2022.1.1,60.03564915336578,
,18,넌 겸손해,2,Orange,B,5.791666666666667,4.766666666666667,ScrollUp,ScrollDown,Orange.png,4,Positive,Incongruent,,,,,0,0,0,0,,,,,,,,,,,,,,,,,,,,,,,,,0,17,17,17,,,,,,,,,,,,,,,,,,,,,,,,,,,,,,,,,,,,,,,,,,,,,,,,,,,,,,,,,,,,,,,,,,,,,1.2361111144224803,0.832288499979768,575.110393400013,None,ScrollDown,오답입니다,575.110393400013,None,575.110393400013,None,575.110393400013,None,575.110393400013,None,575.8259373999899,None,575.8259373999899,576.3363123000017,,,,,,,,,,,,,,,,120,2022-05-06_15h15.31.595,FishGame,2022.1.1,60.03564915336578,
,19,나를 보내줘,6,Green,A,0,0,ScrollUp,ScrollDown,Green.png,4,NonTarget,NonTarget,,,,,0,0,0,0,,,,,,,,,,,,,,,,,,,,,,,,,0,18,18,18,,,,,,,,,,,,,,,,,,,,,,,,,,,,,,,,,,,,,,,,,,,,,,,,,,,,,,,,,,,,,,,,,,,,,1.56944444651405,1.115372100030072,576.9704946000129,None,ScrollUp,정답입니다,576.9704946000129,None,576.9704946000129,None,576.9704946000129,None,576.9704946000129,None,577.9769463000121,None,577.9769463000121,578.4864565000171,,,,,,,,,,,,,,,,120,2022-05-06_15h15.31.595,FishGame,2022.1.1,60.03564915336578,
,20,넌 의심없어,3,Green,A,4.166666666666667,4.6,ScrollDown,ScrollUp,Green.png,4,Neutral,Neutral,,,,,0,0,0,0,,,,,,,,,,,,,,,,,,,,,,,,,0,19,19,19,,,,,,,,,,,,,,,,,,,,,,,,,,,,,,,,,,,,,,,,,,,,,,,,,,,,,,,,,,,,,,,,,,,,,1.2453703731298447,0.9032870000228286,579.1153139999951,None,ScrollDown,정답입니다,579.1153139999951,None,579.1153139999951,None,579.1153139999951,None,579.1153139999951,None,579.9158126999973,None,579.9158126999973,580.4205111999763,,,,,,,,,,,,,,,,120,2022-05-06_15h15.31.595,FishGame,2022.1.1,60.03564915336578,
,21,넌 시시해,4,Green,A,2.666666666666667,2.966666666666667,ScrollDown,ScrollUp,Green.png,4,Negative,Incongruent,,,,,0,0,0,0,,,,,,,,,,,,,,,,,,,,,,,,,0,20,20,20,,,,,,,,,,,,,,,,,,,,,,,,,,,,,,,,,,,,,,,,,,,,,,,,,,,,,,,,,,,,,,,,,,,,,1.544753085821867,0.9061596000101417,581.0534810000099,None,NoResponse,무응답입니다,581.0534810000099,None,581.0534810000099,None,581.0534810000099,None,581.0534810000099,None,581.8471489999793,None,581.8471489999793,582.3531875999761,,,,,,,,,,,,,,,,120,2022-05-06_15h15.31.595,FishGame,2022.1.1,60.03564915336578,
,22,나를 데려가줘,6,Orange,B,0,0,ScrollDown,ScrollUp,Orange.png,4,NonTarget,NonTarget,,,,,0,0,0,0,,,,,,,,,,,,,,,,,,,,,,,,,0,21,21,21,,,,,,,,,,,,,,,,,,,,,,,,,,,,,,,,,,,,,,,,,,,,,,,,,,,,,,,,,,,,,,,,,,,,,1.3333333308498063,1.3508562000351958,582.9906734999968,None,ScrollDown,정답입니다,582.9906734999968,None,582.9906734999968,None,582.9906734999968,None,582.9906734999968,None,584.2263196000131,None,584.2263196000131,584.7363271000213,,,,,,,,,,,,,,,,120,2022-05-06_15h15.31.595,FishGame,2022.1.1,60.03564915336578,
,23,넌 무정해,5,Green,A,2.5,2.2,ScrollDown,ScrollUp,Green.png,4,Negative,Incongruent,,,,,0,0,0,0,,,,,,,,,,,,,,,,,,,,,,,,,0,22,22,22,,,,,,,,,,,,,,,,,,,,,,,,,,,,,,,,,,,,,,,,,,,,,,,,,,,,,,,,,,,,,,,,,,,,,1.1898148208856583,0.8184351999661885,585.3647422000067,None,ScrollDown,정답입니다,585.3647422000067,None,585.3647422000067,None,585.3647422000067,None,585.3647422000067,None,586.0826089999755,None,586.0826089999755,586.5864549999824,,,,,,,,,,,,,,,,120,2022-05-06_15h15.31.595,FishGame,2022.1.1,60.03564915336578,
,24,넌 긍정적이야,1,Orange,B,6.041666666666667,6.066666666666666,ScrollUp,ScrollDown,Orange.png,4,Positive,Incongruent,,,,,0,0,0,0,,,,,,,,,,,,,,,,,,,,,,,,,0,23,23,23,,,,,,,,,,,,,,,,,,,,,,,,,,,,,,,,,,,,,,,,,,,,,,,,,,,,,,,,,,,,,,,,,,,,,1.5092592594834664,1.032273399992846,587.2314795000129,None,NoResponse,무응답입니다,587.2314795000129,None,587.2314795000129,None,587.2314795000129,None,587.2314795000129,None,588.1437896999996,None,588.1437896999996,588.6534528000047,,,,,,,,,,,,,,,,120,2022-05-06_15h15.31.595,FishGame,2022.1.1,60.03564915336578,
,25,나를 보내줘,6,Green,A,0,0,ScrollUp,ScrollDown,Green.png,4,NonTarget,NonTarget,,,,,0,0,0,0,,,,,,,,,,,,,,,,,,,,,,,,,0,24,24,24,,,,,,,,,,,,,,,,,,,,,,,,,,,,,,,,,,,,,,,,,,,,,,,,,,,,,,,,,,,,,,,,,,,,,1.5725308619439602,0.9030675999820232,589.287206500012,None,ScrollUp,정답입니다,589.287206500012,None,589.287206500012,None,589.287206500012,None,589.287206500012,None,590.0783054999774,None,590.0783054999774,590.5866575000109,,,,,,,,,,,,,,,,120,2022-05-06_15h15.31.595,FishGame,2022.1.1,60.03564915336578,
,26,넌 시기심이 많아,5,Orange,B,2.458333333333333,2.233333333333333,ScrollUp,ScrollDown,Orange.png,4,Negative,Congruent,,,,,0,0,0,0,,,,,,,,,,,,,,,,,,,,,,,,,0,25,25,25,,,,,,,,,,,,,,,,,,,,,,,,,,,,,,,,,,,,,,,,,,,,,,,,,,,,,,,,,,,,,,,,,,,,,1.6064814875523248,0.969326899969019,591.2310480999877,None,ScrollUp,정답입니다,591.2310480999877,None,591.2310480999877,None,591.2310480999877,None,591.2310480999877,None,592.0755031000008,None,592.0755031000008,592.5871727999765,,,,,,,,,,,,,,,,120,2022-05-06_15h15.31.595,FishGame,2022.1.1,60.03564915336578,
,27,넌 탁월해,2,Green,A,5.708333333333334,4.5,ScrollDown,ScrollUp,Green.png,4,Positive,Congruent,,,,,0,0,0,0,,,,,,,,,,,,,,,,,,,,,,,,,0,26,26,26,,,,,,,,,,,,,,,,,,,,,,,,,,,,,,,,,,,,,,,,,,,,,,,,,,,,,,,,,,,,,,,,,,,,,1.2098765522241592,0.7850779999862425,593.2238905999693,None,ScrollDown,정답입니다,593.2238905999693,None,593.2238905999693,None,593.2238905999693,None,593.2238905999693,None,593.8911101999693,None,593.8911101999693,594.4036915000179,,,,,,,,,,,,,,,,120,2022-05-06_15h15.31.595,FishGame,2022.1.1,60.03564915336578,
,28,나를 데려가줘,6,Orange,B,0,0,ScrollDown,ScrollUp,Orange.png,4,NonTarget,NonTarget,,,,,0,0,0,0,,,,,,,,,,,,,,,,,,,,,,,,,0,27,27,27,,,,,,,,,,,,,,,,,,,,,,,,,,,,,,,,,,,,,,,,,,,,,,,,,,,,,,,,,,,,,,,,,,,,,1.3179012288649878,1.467801699996926,595.0399918999756,None,ScrollDown,정답입니다,595.0399918999756,None,595.0399918999756,None,595.0399918999756,None,595.0399918999756,None,596.3915821000119,None,596.3915821000119,596.9034116999828,,,,,,,,,,,,,,,,120,2022-05-06_15h15.31.595,FishGame,2022.1.1,60.03564915336578,
,29,넌 조용해,3,Orange,B,4.333333333333333,4.166666666666667,ScrollUp,ScrollDown,Orange.png,4,Neutral,Neutral,,,,,0,0,0,0,,,,,,,,,,,,,,,,,,,,,,,,,0,28,28,28,,,,,,,,,,,,,,,,,,,,,,,,,,,,,,,,,,,,,,,,,,,,,,,,,,,,,,,,,,,,,,,,,,,,,1.7083333333333335,1.1992638999945484,597.542401499988,None,ScrollUp,정답입니다,597.542401499988,None,597.542401499988,None,597.542401499988,None,597.542401499988,None,598.6249973999802,None,598.6249973999802,599.1368561999989,,,,,,,,,,,,,,,,120,2022-05-06_15h15.31.595,FishGame,2022.1.1,60.03564915336578,
,30,넌 다정해,1,Green,A,5.833333333333334,5.7,ScrollDown,ScrollUp,Green.png,4,Positive,Congruent,,,,,0,0,0,0,,,,,,,,,,,,,,,,,,,,,,,,,0,29,29,29,,,,,,,,,,,,,,,,,,,,,,,,,,,,,,,,,,,,,,,,,,,,,,,,,,,,,,,,,,,,,,,,,,,,,1.2546296318372092,0.8348229000112042,599.7697439999902,None,ScrollDown,정답입니다,599.7697439999902,None,599.7697439999902,None,599.7697439999902,None,599.7697439999902,None,600.4912446999806,None,600.4912446999806,601.0037591999862,,,,,,,,,,,,,,,,120,2022-05-06_15h15.31.595,FishGame,2022.1.1,60.03564915336578,
,31,넌 능력있어,2,Orange,B,6.166666666666666,4.6,ScrollUp,ScrollDown,Orange.png,4,Positive,Incongruent,,,,,0,0,0,0,,,,,,,,,,,,,,,,,,,,,,,,,0,30,30,30,,,,,,,,,,,,,,,,,,,,,,,,,,,,,,,,,,,,,,,,,,,,,,,,,,,,,,,,,,,,,,,,,,,,,1.6450617238879204,0.827745899965521,601.6481567000155,None,ScrollUp,정답입니다,601.6481567000155,None,601.6481567000155,None,601.6481567000155,None,601.6481567000155,None,602.3575868000044,None,602.3575868000044,602.8705245999736,,,,,,,,,,,,,,,,120,2022-05-06_15h15.31.595,FishGame,2022.1.1,60.03564915336578,
,32,넌 불쾌해,5,Green,A,2.125,1.933333333333333,ScrollDown,ScrollUp,Green.png,4,Negative,Incongruent,,,,,0,0,0,0,,,,,,,,,,,,,,,,,,,,,,,,,0,31,31,31,,,,,,,,,,,,,,,,,,,,,,,,,,,,,,,,,,,,,,,,,,,,,,,,,,,,,,,,,,,,,,,,,,,,,1.1543209999799728,0.8894779999973252,603.499956100015,None,ScrollDown,정답입니다,603.499956100015,None,603.499956100015,None,603.499956100015,None,603.499956100015,None,604.2862291000201,None,604.2862291000201,604.7869831999997,,,,,,,,,,,,,,,,120,2022-05-06_15h15.31.595,FishGame,2022.1.1,60.03564915336578,
,33,나를 데려가줘,6,Orange,B,0,0,ScrollDown,ScrollUp,Orange.png,4,NonTarget,NonTarget,,,,,0,0,0,0,,,,,,,,,,,,,,,,,,,,,,,,,0,32,32,32,,,,,,,,,,,,,,,,,,,,,,,,,,,,,,,,,,,,,,,,,,,,,,,,,,,,,,,,,,,,,,,,,,,,,1.0925925920406978,0.9667588999727741,605.422181300004,None,ScrollDown,정답입니다,605.422181300004,None,605.422181300004,None,605.422181300004,None,605.422181300004,None,606.2747066000011,None,606.2747066000011,606.7870615000138,,,,,,,,,,,,,,,,120,2022-05-06_15h15.31.595,FishGame,2022.1.1,60.03564915336578,
,34,넌 유순해,3,Green,A,4.458333333333333,5,ScrollDown,ScrollUp,Green.png,4,Neutral,Neutral,,,,,0,0,0,0,,,,,,,,,,,,,,,,,,,,,,,,,0,33,33,33,,,,,,,,,,,,,,,,,,,,,,,,,,,,,,,,,,,,,,,,,,,,,,,,,,,,,,,,,,,,,,,,,,,,,1.2361111144224803,0.8232136000297032,607.4165312999976,None,ScrollDown,정답입니다,607.4165312999976,None,607.4165312999976,None,607.4165312999976,None,607.4165312999976,None,608.1367482999922,None,608.1367482999922,608.6378179999883,,,,,,,,,,,,,,,,120,2022-05-06_15h15.31.595,FishGame,2022.1.1,60.03564915336578,
,35,넌 근심스러워,4,Orange,B,2.708333333333333,3.133333333333333,ScrollUp,ScrollDown,Orange.png,4,Negative,Congruent,,,,,0,0,0,0,,,,,,,,,,,,,,,,,,,,,,,,,0,34,34,34,,,,,,,,,,,,,,,,,,,,,,,,,,,,,,,,,,,,,,,,,,,,,,,,,,,,,,,,,,,,,,,,,,,,,1.5570987661679587,0.7537483000196517,609.2765922999824,None,ScrollUp,정답입니다,609.2765922999824,None,609.2765922999824,None,609.2765922999824,None,609.2765922999824,None,609.9170945999795,None,609.9170945999795,610.4202545000007,,,,,,,,,,,,,,,,120,2022-05-06_15h15.31.595,FishGame,2022.1.1,60.03564915336578,
,36,넌 세련되었어,2,Green,A,5.5,4.6,ScrollDown,ScrollUp,Green.png,4,Positive,Congruent,,,,,0,0,0,0,,,,,,,,,,,,,,,,,,,,,,,,,0,35,35,35,,,,,,,,,,,,,,,,,,,,,,,,,,,,,,,,,,,,,,,,,,,,,,,,,,,,,,,,,,,,,,,,,,,,,1.194444437821706,0.7708853000076488,611.0643906000187,None,ScrollDown,정답입니다,611.0643906000187,None,611.0643906000187,None,611.0643906000187,None,611.0643906000187,None,611.7166310999892,None,611.7166310999892,612.2203402000014,,,,,,,,,,,,,,,,120,2022-05-06_15h15.31.595,FishGame,2022.1.1,60.03564915336578,
,37,나를 보내줘,6,Green,A,0,0,ScrollUp,ScrollDown,Green.png,4,NonTarget,NonTarget,,,,,0,0,0,0,,,,,,,,,,,,,,,,,,,,,,,,,0,36,36,36,,,,,,,,,,,,,,,,,,,,,,,,,,,,,,,,,,,,,,,,,,,,,,,,,,,,,,,,,,,,,,,,,,,,,1.5478395074605942,1.472944599983748,612.8513519999688,None,NoResponse,무응답입니다,612.8513519999688,None,612.8513519999688,None,612.8513519999688,None,612.8513519999688,None,614.2137299000169,None,614.2137299000169,614.7205063999863,,,,,,,,,,,,,,,,120,2022-05-06_15h15.31.595,FishGame,2022.1.1,60.03564915336578,
,38,넌 확고해,3,Orange,B,4.708333333333334,4.566666666666666,ScrollUp,ScrollDown,Orange.png,4,Neutral,Neutral,,,,,0,0,0,0,,,,,,,,,,,,,,,,,,,,,,,,,0,37,37,37,,,,,,,,,,,,,,,,,,,,,,,,,,,,,,,,,,,,,,,,,,,,,,,,,,,,,,,,,,,,,,,,,,,,,1.5416666672875485,1.9673471999703906,615.3608250999823,None,NoResponse,무응답입니다,615.3608250999823,None,615.3608250999823,None,615.3608250999823,None,615.3608250999823,None,617.2082457999932,None,617.2082457999932,617.721017599979,,,,,,,,,,,,,,,,120,2022-05-06_15h15.31.595,FishGame,2022.1.1,60.03564915336578,
,39,넌 이해심이 많아,1,Orange,B,6.041666666666668,5.533333333333333,ScrollUp,ScrollDown,Orange.png,4,Positive,Incongruent,,,,,0,0,0,0,,,,,,,,,,,,,,,,,,,,,,,,,0,38,38,38,,,,,,,,,,,,,,,,,,,,,,,,,,,,,,,,,,,,,,,,,,,,,,,,,,,,,,,,,,,,,,,,,,,,,1.6188271616895995,0.9084507999941707,618.3537885000114,None,ScrollUp,정답입니다,618.3537885000114,None,618.3537885000114,None,618.3537885000114,None,618.3537885000114,None,619.1538460999727,None,619.1538460999727,619.6538960000034,,,,,,,,,,,,,,,,120,2022-05-06_15h15.31.595,FishGame,2022.1.1,60.03564915336578,
,40,나를 보내줘,6,Green,A,0,0,ScrollUp,ScrollDown,Green.png,4,NonTarget,NonTarget,,,,,0,0,0,0,,,,,,,,,,,,,,,,,,,,,,,,,0,39,39,39,,,,,,,,,,,,,,,,,,,,,,,,,,,,,,,,,,,,,,,,,,,,,,,,,,,,,,,,,,,,,,,,,,,,,1.5416666672875485,0.9659126999904402,620.2852552999975,None,NoResponse,무응답입니다,620.2852552999975,None,620.2852552999975,None,620.2852552999975,None,620.2852552999975,None,621.1440865999903,None,621.1440865999903,621.6539492000011,,,,,,,,,,,,,,,,120,2022-05-06_15h15.31.595,FishGame,2022.1.1,60.03564915336578,
,41,넌 거칠어,4,Green,A,2.625,3.033333333333333,ScrollDown,ScrollUp,Green.png,4,Negative,Incongruent,,,,,0,0,0,0,,,,,,,,,,,,,,,,,,,,,,,,,0,40,40,40,,,,,,,,,,,,,,,,,,,,,,,,,,,,,,,,,,,,,,,,,,,,,,,,,,,,,,,,,,,,,,,,,,,,,1.28086419403553,0.8768297000206076,622.2909397999756,None,ScrollDown,정답입니다,622.2909397999756,None,622.2909397999756,None,622.2909397999756,None,622.2909397999756,None,623.0540571999736,None,623.0540571999736,623.5538644000189,,,,,,,,,,,,,,,,120,2022-05-06_15h15.31.595,FishGame,2022.1.1,60.03564915336578,
,42,넌 변덕맞아,5,Orange,B,2.75,2.166666666666667,ScrollUp,ScrollDown,Orange.png,4,Negative,Congruent,,,,,0,0,0,0,,,,,,,,,,,,,,,,,,,,,,,,,0,41,41,41,,,,,,,,,,,,,,,,,,,,,,,,,,,,,,,,,,,,,,,,,,,,,,,,,,,,,,,,,,,,,,,,,,,,,1.6265432064731917,0.9806403999682516,624.2012469000183,None,ScrollUp,정답입니다,624.2012469000183,None,624.2012469000183,None,624.2012469000183,None,624.2012469000183,None,625.0585357000236,None,625.0585357000236,625.5711815999821,,,,,,,,,,,,,,,,120,2022-05-06_15h15.31.595,FishGame,2022.1.1,60.03564915336578,
,43,나를 데려가줘,6,Orange,B,0,0,ScrollDown,ScrollUp,Orange.png,4,NonTarget,NonTarget,,,,,0,0,0,0,,,,,,,,,,,,,,,,,,,,,,,,,0,42,42,42,,,,,,,,,,,,,,,,,,,,,,,,,,,,,,,,,,,,,,,,,,,,,,,,,,,,,,,,,,,,,,,,,,,,,1.192901223897934,0.9382103999960236,626.211657900014,None,ScrollDown,정답입니다,626.211657900014,None,626.211657900014,None,626.211657900014,None,626.211657900014,None,627.0373658000026,None,627.0373658000026,627.5376284000231,,,,,,,,,,,,,,,,120,2022-05-06_15h15.31.595,FishGame,2022.1.1,60.03564915336578,
,44,넌 외로워,4,Orange,B,2.833333333333333,3.3,ScrollUp,ScrollDown,Orange.png,4,Negative,Congruent,,,,,0,0,0,0,,,,,,,,,,,,,,,,,,,,,,,,,0,43,43,43,,,,,,,,,,,,,,,,,,,,,,,,,,,,,,,,,,,,,,,,,,,,,,,,,,,,,,,,,,,,,,,,,,,,,1.6033950597047806,0.8690801000338979,628.2270947999787,None,ScrollUp,정답입니다,628.2270947999787,None,628.2270947999787,None,628.2270947999787,None,628.2270947999787,None,628.9342416999862,None,628.9342416999862,629.4378187999828,,,,,,,,,,,,,,,,120,2022-05-06_15h15.31.595,FishGame,2022.1.1,60.03564915336578,
,1,넌 불평스러워,5,Green,A,2.25,2.066666666666667,ScrollDown,ScrollUp,Green.png,5,Negative,Incongruent,,,,,0,0,0,0,,,,,,,,,,,,,,,,,,,,,,,,,,,,,0,0,0,0,,,,,,,,,,,,,,,,,,,,,,,,660.788172999979,662.2885623999755,662.3214423999889,663.2716094999923,663.3213050999912,664.2714852999779,664.2714852999779,None,,,,,,,,,,,,,,,,,,,,,,,,,,,,,,,,,,1.0925925920406978,1.1552871000021696,665.4212843999849,None,ScrollDown,정답입니다,665.4212843999849,None,665.4212843999849,None,665.4212843999849,None,665.4212843999849,None,666.4211863999953,None,666.4211863999953,666.9212750999723,629.9375114999712,None,629.9375114999712,None,-0.13148148,-0.125,1,0,0,0.016200119978748262,None,659.9383644000045,None,,,120,2022-05-06_15h15.31.595,FishGame,2022.1.1,60.03564915336578,
,2,나를 보내줘,6,Green,A,0,0,ScrollUp,ScrollDown,Green.png,5,NonTarget,NonTarget,,,,,0,0,0,0,,,,,,,,,,,,,,,,,,,,,,,,,,,,,0,1,1,1,,,,,,,,,,,,,,,,,,,,,,,,,,,,,,,,,,,,,,,,,,,,,,,,,,,,,,,,,,,,,,,,,1.6481481517354646,1.191292900010012,667.5559935999918,None,ScrollUp,정답입니다,667.5559935999918,None,667.5559935999918,None,667.5559935999918,None,667.5559935999918,None,668.6382185000111,None,668.6382185000111,669.1383769999957,,,,,,,,,,,,,,,,120,2022-05-06_15h15.31.595,FishGame,2022.1.1,60.03564915336578,
,3,넌 다재다능해,2,Orange,B,6.208333333333333,4.5,ScrollUp,ScrollDown,Orange.png,5,Positive,Incongruent,,,,,0,0,0,0,,,,,,,,,,,,,,,,,,,,,,,,,,,,,0,2,2,2,,,,,,,,,,,,,,,,,,,,,,,,,,,,,,,,,,,,,,,,,,,,,,,,,,,,,,,,,,,,,,,,,1.6404320945342383,0.9176225000410341,669.7823294000118,None,ScrollUp,정답입니다,669.7823294000118,None,669.7823294000118,None,669.7823294000118,None,669.7823294000118,None,670.5766390999779,None,670.5766390999779,671.0882490000222,,,,,,,,,,,,,,,,120,2022-05-06_15h15.31.595,FishGame,2022.1.1,60.03564915336578,
,4,넌 과감해,3,Green,A,4.833333333333334,4.6,ScrollDown,ScrollUp,Green.png,5,Neutral,Neutral,,,,,0,0,0,0,,,,,,,,,,,,,,,,,,,,,,,,,,,,,0,3,3,3,,,,,,,,,,,,,,,,,,,,,,,,,,,,,,,,,,,,,,,,,,,,,,,,,,,,,,,,,,,,,,,,,1,1.0558520999620669,671.7189337000018,None,ScrollDown,정답입니다,671.7189337000018,None,671.7189337000018,None,671.7189337000018,None,671.7189337000018,None,672.6717688000062,None,672.6717688000062,673.1719268999877,,,,,,,,,,,,,,,,120,2022-05-06_15h15.31.595,FishGame,2022.1.1,60.03564915336578,
,5,넌 고분고분해,3,Orange,B,3.75,4.033333333333333,ScrollUp,ScrollDown,Orange.png,5,Neutral,Neutral,,,,,0,0,0,0,,,,,,,,,,,,,,,,,,,,,,,,,,,,,0,4,4,4,,,,,,,,,,,,,,,,,,,,,,,,,,,,,,,,,,,,,,,,,,,,,,,,,,,,,,,,,,,,,,,,,1.7067901194095612,0.8159884999622591,673.8161286999821,None,ScrollUp,정답입니다,673.8161286999821,None,673.8161286999821,None,673.8161286999821,None,673.8161286999821,None,674.5097869000165,None,674.5097869000165,675.0219992999919,,,,,,,,,,,,,,,,120,2022-05-06_15h15.31.595,FishGame,2022.1.1,60.03564915336578,
,6,나를 보내줘,6,Green,A,0,0,ScrollUp,ScrollDown,Green.png,5,NonTarget,NonTarget,,,,,0,0,0,0,,,,,,,,,,,,,,,,,,,,,,,,,,,,,0,5,5,5,,,,,,,,,,,,,,,,,,,,,,,,,,,,,,,,,,,,,,,,,,,,,,,,,,,,,,,,,,,,,,,,,1.584876542290052,0.9894140000105835,675.6532104000216,None,ScrollUp,정답입니다,675.6532104000216,None,675.6532104000216,None,675.6532104000216,None,675.6532104000216,None,676.538437500014,None,676.538437500014,677.0385824000114,,,,,,,,,,,,,,,,120,2022-05-06_15h15.31.595,FishGame,2022.1.1,60.03564915336578,
,7,넌 잘 잊어,4,Green,A,3,3.7,ScrollDown,ScrollUp,Green.png,5,Negative,Incongruent,,,,,0,0,0,0,,,,,,,,,,,,,,,,,,,,,,,,,,,,,0,6,6,6,,,,,,,,,,,,,,,,,,,,,,,,,,,,,,,,,,,,,,,,,,,,,,,,,,,,,,,,,,,,,,,,,1.0416666567325592,0.8512662000139244,677.679231600021,None,ScrollDown,정답입니다,677.679231600021,None,677.679231600021,None,677.679231600021,None,677.679231600021,None,678.4182622000226,None,678.4182622000226,678.9221737000044,,,,,,,,,,,,,,,,120,2022-05-06_15h15.31.595,FishGame,2022.1.1,60.03564915336578,
,8,넌 탐구심이없어,4,Orange,B,2.833333333333333,3.066666666666667,ScrollUp,ScrollDown,Orange.png,5,Negative,Congruent,,,,,0,0,0,0,,,,,,,,,,,,,,,,,,,,,,,,,,,,,0,7,7,7,,,,,,,,,,,,,,,,,,,,,,,,,,,,,,,,,,,,,,,,,,,,,,,,,,,,,,,,,,,,,,,,,1.6126543184121451,0.8669794999877922,679.5670681999763,None,ScrollUp,정답입니다,679.5670681999763,None,679.5670681999763,None,679.5670681999763,None,679.5670681999763,None,680.3096197000123,None,680.3096197000123,680.8217282000114,,,,,,,,,,,,,,,,120,2022-05-06_15h15.31.595,FishGame,2022.1.1,60.03564915336578,
,9,나를 데려가줘,6,Orange,B,0,0,ScrollDown,ScrollUp,Orange.png,5,NonTarget,NonTarget,,,,,0,0,0,0,,,,,,,,,,,,,,,,,,,,,,,,,,,,,0,8,8,8,,,,,,,,,,,,,,,,,,,,,,,,,,,,,,,,,,,,,,,,,,,,,,,,,,,,,,,,,,,,,,,,,1,1.0856373999849893,681.4579138999688,None,ScrollDown,정답입니다,681.4579138999688,None,681.4579138999688,None,681.4579138999688,None,681.4579138999688,None,682.4354582999949,None,682.4354582999949,682.9386132999789,,,,,,,,,,,,,,,,120,2022-05-06_15h15.31.595,FishGame,2022.1.1,60.03564915336578,
,10,넌 참되어,2,Green,A,6.041666666666664,4.733333333333333,ScrollDown,ScrollUp,Green.png,5,Positive,Congruent,,,,,0,0,0,0,,,,,,,,,,,,,,,,,,,,,,,,,,,,,0,9,9,9,,,,,,,,,,,,,,,,,,,,,,,,,,,,,,,,,,,,,,,,,,,,,,,,,,,,,,,,,,,,,,,,,1.141975313425064,0.7878893000306562,683.5795699000009,None,ScrollDown,정답입니다,683.5795699000009,None,683.5795699000009,None,683.5795699000009,None,683.5795699000009,None,684.2518072000239,None,684.2518072000239,684.75574220001,,,,,,,,,,,,,,,,120,2022-05-06_15h15.31.595,FishGame,2022.1.1,60.03564915336578,
,11,넌 생기있어,1,Orange,B,5.875,5.633333333333334,ScrollUp,ScrollDown,Orange.png,5,Positive,Incongruent,,,,,0,0,0,0,,,,,,,,,,,,,,,,,,,,,,,,,,,,,0,10,10,10,,,,,,,,,,,,,,,,,,,,,,,,,,,,,,,,,,,,,,,,,,,,,,,,,,,,,,,,,,,,,,,,,1.68364197264115,0.8622879000031389,685.4208882999956,None,ScrollUp,정답입니다,685.4208882999956,None,685.4208882999956,None,685.4208882999956,None,685.4208882999956,None,686.1432678999845,None,686.1432678999845,686.655501900008,,,,,,,,,,,,,,,,120,2022-05-06_15h15.31.595,FishGame,2022.1.1,60.03564915336578,
,12,넌 비사교적이야,4,Orange,B,2.875,2.9,ScrollUp,ScrollDown,Orange.png,5,Negative,Congruent,,,,,0,0,0,0,,,,,,,,,,,,,,,,,,,,,,,,,,,,,0,11,11,11,,,,,,,,,,,,,,,,,,,,,,,,,,,,,,,,,,,,,,,,,,,,,,,,,,,,,,,,,,,,,,,,,1.4907407405165334,0.90095299994573,687.2881452000001,None,NoResponse,무응답입니다,687.2881452000001,None,687.2881452000001,None,687.2881452000001,None,687.2881452000001,None,688.0793315999908,None,688.0793315999908,688.5892850999953,,,,,,,,,,,,,,,,120,2022-05-06_15h15.31.595,FishGame,2022.1.1,60.03564915336578,
,13,나를 데려가줘,6,Orange,B,0,0,ScrollDown,ScrollUp,Orange.png,5,NonTarget,NonTarget,,,,,0,0,0,0,,,,,,,,,,,,,,,,,,,,,,,,,,,,,0,12,12,12,,,,,,,,,,,,,,,,,,,,,,,,,,,,,,,,,,,,,,,,,,,,,,,,,,,,,,,,,,,,,,,,,1.0077160497506459,0.9008548999554478,689.2248696999741,None,ScrollDown,정답입니다,689.2248696999741,None,689.2248696999741,None,689.2248696999741,None,689.2248696999741,None,690.0113690000144,None,690.0113690000144,690.5225572999916,,,,,,,,,,,,,,,,120,2022-05-06_15h15.31.595,FishGame,2022.1.1,60.03564915336578,
,14,넌 고독해,4,Green,A,2.916666666666667,3.233333333333333,ScrollDown,ScrollUp,Green.png,5,Negative,Incongruent,,,,,0,0,0,0,,,,,,,,,,,,,,,,,,,,,,,,,,,,,0,13,13,13,,,,,,,,,,,,,,,,,,,,,,,,,,,,,,,,,,,,,,,,,,,,,,,,,,,,,,,,,,,,,,,,,1,0.9924142999807373,691.1534691000124,None,ScrollDown,정답입니다,691.1534691000124,None,691.1534691000124,None,691.1534691000124,None,691.1534691000124,None,692.0385903000133,None,692.0385903000133,692.5389999999898,,,,,,,,,,,,,,,,120,2022-05-06_15h15.31.595,FishGame,2022.1.1,60.03564915336578,
,15,넌 신경질적이야,5,Orange,B,2.375,2.233333333333333,ScrollUp,ScrollDown,Orange.png,5,Negative,Congruent,,,,,0,0,0,0,,,,,,,,,,,,,,,,,,,,,,,,,,,,,0,14,14,14,,,,,,,,,,,,,,,,,,,,,,,,,,,,,,,,,,,,,,,,,,,,,,,,,,,,,,,,,,,,,,,,,1.5262345684071383,0.8207444999716245,693.1844842999708,None,NoResponse,무응답입니다,693.1844842999708,None,693.1844842999708,None,693.1844842999708,None,693.1844842999708,None,693.8818450999679,None,693.8818450999679,694.388960900018,,,,,,,,,,,,,,,,120,2022-05-06_15h15.31.595,FishGame,2022.1.1,60.03564915336578,
,16,넌 똑똑해,2,Orange,B,5.666666666666667,3.966666666666667,ScrollUp,ScrollDown,Orange.png,5,Positive,Incongruent,,,,,0,0,0,0,,,,,,,,,,,,,,,,,,,,,,,,,,,,,0,15,15,15,,,,,,,,,,,,,,,,,,,,,,,,,,,,,,,,,,,,,,,,,,,,,,,,,,,,,,,,,,,,,,,,,1.5833333345750966,0.7513782000169158,695.0256340000196,None,ScrollUp,정답입니다,695.0256340000196,None,695.0256340000196,None,695.0256340000196,None,695.0256340000196,None,695.6635889000027,None,695.6635889000027,696.1721974000102,,,,,,,,,,,,,,,,120,2022-05-06_15h15.31.595,FishGame,2022.1.1,60.03564915336578,
,17,나를 보내줘,6,Green,A,0,0,ScrollUp,ScrollDown,Green.png,5,NonTarget,NonTarget,,,,,0,0,0,0,,,,,,,,,,,,,,,,,,,,,,,,,,,,,0,16,16,16,,,,,,,,,,,,,,,,,,,,,,,,,,,,,,,,,,,,,,,,,,,,,,,,,,,,,,,,,,,,,,,,,1.6080246890584626,0.8723136999760754,696.7988608999876,None,ScrollUp,정답입니다,696.7988608999876,None,696.7988608999876,None,696.7988608999876,None,696.7988608999876,None,697.5719197000144,None,697.5719197000144,698.0721800000174,,,,,,,,,,,,,,,,120,2022-05-06_15h15.31.595,FishGame,2022.1.1,60.03564915336578,
