name,TrialNum,Word,WordCategory,FishType,WordList,WordValence,WordReputation,CorrectResp,IncorrectResp,FishTypeFile,Round,WordType,Condition,LoopforOrange.thisRepN,LoopforOrange.thisTrialN,LoopforOrange.thisN,LoopforOrange.thisIndex,OrangeInstLoop.thisRepN,OrangeInstLoop.thisTrialN,OrangeInstLoop.thisN,OrangeInstLoop.thisIndex,OrangePrac.thisRepN,OrangePrac.thisTrialN,OrangePrac.thisN,OrangePrac.thisIndex,temp1.thisRepN,temp1.thisTrialN,temp1.thisN,temp1.thisIndex,OrangeRound1.thisRepN,OrangeRound1.thisTrialN,OrangeRound1.thisN,OrangeRound1.thisIndex,OrangeRound2.thisRepN,OrangeRound2.thisTrialN,OrangeRound2.thisN,OrangeRound2.thisIndex,OrangeRound3.thisRepN,OrangeRound3.thisTrialN,OrangeRound3.thisN,OrangeRound3.thisIndex,OrangeRound4.thisRepN,OrangeRound4.thisTrialN,OrangeRound4.thisN,OrangeRound4.thisIndex,OrangeRound5.thisRepN,OrangeRound5.thisTrialN,OrangeRound5.thisN,OrangeRound5.thisIndex,LoopForGreen.thisRepN,LoopForGreen.thisTrialN,LoopForGreen.thisN,LoopForGreen.thisIndex,text_2.started,text_2.stopped,text_3.started,text_3.stopped,key_resp.keys,key_resp.rt,key_resp.started,key_resp.stopped,PassI_2.started,PassI_2.stopped,PassInst_2.keys,PassInst_2.rt,PassInst_2.started,PassInst_2.stopped,mouse_2.x,mouse_2.y,mouse_2.leftButton,mouse_2.midButton,mouse_2.rightButton,mouse_2.started,mouse_2.stopped,image.started,image.stopped,text_5.started,text_5.stopped,text_6.started,text_6.stopped,text_7.started,text_7.stopped,text_8.started,text_8.stopped,slider_2.response,slider_2.rt,slider_2.started,slider_2.stopped,Response_2,Feedback_2,BackGround_2.started,BackGround_2.stopped,Fish_2.started,Fish_2.stopped,WordBox_2.started,WordBox_2.stopped,Words_2.started,Words_2.stopped,BackGround_Feedback_2.started,BackGround_Feedback_2.stopped,Feedbacks_2.started,Feedbacks_2.stopped,Continue_or_not.keys,Continue_or_not.rt,Continue_or_not.started,Continue_or_not.stopped,image_3.started,image_3.stopped,mouse_3.x,mouse_3.y,mouse_3.leftButton,mouse_3.midButton,mouse_3.rightButton,mouse_3.started,mouse_3.stopped,startmain.started,startmain.stopped,slider.response,slider.rt,slider.started,slider.stopped,Response,Feedback,BackGround.started,BackGround.stopped,Fish.started,Fish.stopped,WordBox.started,WordBox.stopped,Words.started,Words.stopped,BackGround_Feedback.started,BackGround_Feedback.stopped,Feedbacks.started,Feedbacks.stopped,text.started,text.stopped,break_interval.started,break_interval.stopped,mouse.x,mouse.y,mouse.leftButton,mouse.midButton,mouse.rightButton,mouse.started,mouse.stopped,stratnextround.started,stratnextround.stopped,endgame.started,endgame.stopped,participant,date,expName,psychopyVersion,frameRate,
,,,,,,,,,,,,,,,,,,,,,,,,,,,,,,,,,,,,,,,,,,,,,,,,,,,,,,92.85926179995295,None,92.85926179995295,None,space,17.523509999969974,93.31231599999592,None,,,,,,,,,,,,,,,,,,,,,,,,,,,,,,,,,,,,,,,,,,,,,,,,,,,,,,,,,,,,,,,,,,,,,,,,,,,,,,,,,,,,,,,,,,121,2022-05-09_09h21.06.383,FishGame,2022.1.1,59.940790482904234,
물고기과제_instruction(참가자용)OrangeVersion.mp4,,,,,,,,,,,,,,0,0,0,0,0,0,0,0,,,,,,,,,,,,,,,,,,,,,,,,,,,,,,,,,,,,,,,,,177.23268229991663,None,n,40.40048069995828,177.23268229991663,None,,,,,,,,,,,,,,,,,,,,,,,,,,,,,,,,,,,,,,,,,,,,,,,,,,,,,,,,,,,,,,,,,,,,,,,,,,,,,,,,,,,,121,2022-05-09_09h21.06.383,FishGame,2022.1.1,59.940790482904234,
,1,넌 교활해,5,Green,B,2.333333333333333,2.133333333333333,ScrollUp,ScrollDown,Green.png,practice,,,0,0,0,0,,,,,0,0,0,0,0,0,0,0,,,,,,,,,,,,,,,,,,,,,,,,,,,,,,,,,,,,,,,-0.06666667,-0.22685185,1,0,0,0.5134404698619619,None,217.65270069998223,None,220.26960529992357,221.76961109996773,221.80257920001168,222.75345820002258,222.8030471999664,223.75300929998048,223.75300929998048,None,1.8441358109315236,5.477621800033376,224.93047639995348,None,ScrollUp,정답입니다,224.93047639995348,None,224.93047639995348,None,224.93047639995348,None,224.93047639995348,None,230.2317294999957,None,230.2317294999957,230.73626949999016,,,,,,,,,,,,,,,,,,,,,,,,,,,,,,,,,,,,,,,,,,,,,,,,,121,2022-05-09_09h21.06.383,FishGame,2022.1.1,59.940790482904234,
,2,넌 슬기로워,2,Orange,A,6.166666666666667,4.1,ScrollDown,ScrollUp,Orange.png,practice,,,0,0,0,0,,,,,0,0,0,0,0,1,1,1,,,,,,,,,,,,,,,,,,,,,,,,,,,,,,,,,,,,,,,,,,,,,,,,,,,,,,,,1.1867283930381138,1.7344382998999208,231.3895473999437,None,ScrollDown,정답입니다,231.3895473999437,None,231.3895473999437,None,231.3895473999437,None,231.3895473999437,None,232.99111629999243,None,232.99111629999243,233.5034456999274,,,,,,,,,,,,,,,,,,,,,,,,,,,,,,,,,,,,,,,,,,,,,,,,,121,2022-05-09_09h21.06.383,FishGame,2022.1.1,59.940790482904234,
,3,나를 보내줘,6,Orange,A,0,0,ScrollUp,ScrollDown,Orange.png,practice,,,0,0,0,0,,,,,0,0,0,0,0,2,2,2,,,,,,,,,,,,,,,,,,,,,,,,,,,,,,,,,,,,,,,,,,,,,,,,,,,,,,,,1.6558641965190568,1.2480333000421524,234.13983959995676,None,ScrollUp,정답입니다,234.13983959995676,None,234.13983959995676,None,234.13983959995676,None,234.13983959995676,None,235.27458580001257,None,235.27458580001257,235.78635599999689,,,,,,,,,,,,,,,,,,,,,,,,,,,,,,,,,,,,,,,,,,,,,,,,,121,2022-05-09_09h21.06.383,FishGame,2022.1.1,59.940790482904234,
,4,나를 데려가줘,6,Green,B,0,0,ScrollDown,ScrollUp,Green.png,practice,,,0,0,0,0,,,,,0,0,0,0,0,3,3,3,,,,,,,,,,,,,,,,,,,,,,,,,,,,,,,,,,,,,,,,,,,,,,,,,,,,,,,,1.336419758697351,1.0846026000799611,236.4193769999547,None,ScrollDown,정답입니다,236.4193769999547,None,236.4193769999547,None,236.4193769999547,None,236.4193769999547,None,237.39971759996843,None,237.39971759996843,237.9033602999989,,,,,,,,,,,,,,,,,,,,,,,,,,,,,,,,,,,,,,,,,,,,,,,,,121,2022-05-09_09h21.06.383,FishGame,2022.1.1,59.940790482904234,
,1,넌 교활해,5,Green,B,2.333333333333333,2.133333333333333,ScrollUp,ScrollDown,Green.png,practice,,,0,0,0,0,,,,,0,0,0,0,,,,,,,,,,,,,,,,,,,,,,,,,,,,,,,,,,,,,,,,,,,,,,,,,,,,,,,,,,,,,,,,,,,,,,,,,,,,,,y,21.74432459997479,238.40350269991904,None,238.40350269991904,None,,,,,,,,,,,,,,,,,,,,,,,,,,,,,,,,,,,,,,,,,,,121,2022-05-09_09h21.06.383,FishGame,2022.1.1,59.940790482904234,
,1,넌 교활해,5,Green,B,2.333333333333333,2.133333333333333,ScrollUp,ScrollDown,Green.png,practice,,,0,0,0,0,,,,,0,1,1,1,0,0,0,0,,,,,,,,,,,,,,,,,,,,,,,,,,,,,,,,,,,,,,,,,,,,,,,,,,,,,,,,1.5154320988804102,1.0844066999852657,260.35501609998755,None,NoResponse,무응답입니다,260.35501609998755,None,260.35501609998755,None,260.35501609998755,None,260.35501609998755,None,261.29069099994376,None,261.29069099994376,261.8030918999575,,,,,,,,,,,,,,,,,,,,,,,,,,,,,,,,,,,,,,,,,,,,,,,,,121,2022-05-09_09h21.06.383,FishGame,2022.1.1,59.940790482904234,
,2,넌 슬기로워,2,Orange,A,6.166666666666667,4.1,ScrollDown,ScrollUp,Orange.png,practice,,,0,0,0,0,,,,,0,1,1,1,0,1,1,1,,,,,,,,,,,,,,,,,,,,,,,,,,,,,,,,,,,,,,,,,,,,,,,,,,,,,,,,1.2746913631757102,2.318289899965748,262.4370714999968,None,ScrollDown,정답입니다,262.4370714999968,None,262.4370714999968,None,262.4370714999968,None,262.4370714999968,None,264.64450960000977,None,264.64450960000977,265.1532430999214,,,,,,,,,,,,,,,,,,,,,,,,,,,,,,,,,,,,,,,,,,,,,,,,,121,2022-05-09_09h21.06.383,FishGame,2022.1.1,59.940790482904234,
,3,나를 보내줘,6,Orange,A,0,0,ScrollUp,ScrollDown,Orange.png,practice,,,0,0,0,0,,,,,0,1,1,1,0,2,2,2,,,,,,,,,,,,,,,,,,,,,,,,,,,,,,,,,,,,,,,,,,,,,,,,,,,,,,,,1.9722222189108531,1.0009599999757484,265.78518529993016,None,ScrollUp,정답입니다,265.78518529993016,None,265.78518529993016,None,265.78518529993016,None,265.78518529993016,None,266.6836060999194,None,266.6836060999194,267.18732629995793,,,,,,,,,,,,,,,,,,,,,,,,,,,,,,,,,,,,,,,,,,,,,,,,,121,2022-05-09_09h21.06.383,FishGame,2022.1.1,59.940790482904234,
,4,나를 데려가줘,6,Green,B,0,0,ScrollDown,ScrollUp,Green.png,practice,,,0,0,0,0,,,,,0,1,1,1,0,3,3,3,,,,,,,,,,,,,,,,,,,,,,,,,,,,,,,,,,,,,,,,,,,,,,,,,,,,,,,,1.1450617164373398,0.878186299931258,267.81443819997367,None,ScrollDown,정답입니다,267.81443819997367,None,267.81443819997367,None,267.81443819997367,None,267.81443819997367,None,268.58699189999606,None,268.58699189999606,269.0871661999263,,,,,,,,,,,,,,,,,,,,,,,,,,,,,,,,,,,,,,,,,,,,,,,,,121,2022-05-09_09h21.06.383,FishGame,2022.1.1,59.940790482904234,
,2,넌 슬기로워,2,Orange,A,6.166666666666667,4.1,ScrollDown,ScrollUp,Orange.png,practice,,,0,0,0,0,,,,,0,1,1,1,,,,,,,,,,,,,,,,,,,,,,,,,,,,,,,,,,,,,,,,,,,,,,,,,,,,,,,,,,,,,,,,,,,,,,,,,,,,,,n,4.609891999978572,269.58717900002375,None,269.58717900002375,None,,,,,,,,,,,,,,,,,,,,,,,,,,,,,,,,,,,,,,,,,,,121,2022-05-09_09h21.06.383,FishGame,2022.1.1,59.940790482904234,
,1,넌 따뜻해,1,Green,B,6.083333333333333,5.6,ScrollUp,ScrollDown,Green.png,1,Positive,Incongruent,0,0,0,0,,,,,,,,,,,,,0,0,0,0,,,,,,,,,,,,,,,,,,,,,,,,,,,,,,,,,,,,,,,,,,,,277.70377089991234,279.2041337999981,279.23808369995095,280.18746279994957,280.2374768999871,281.1875125999795,281.1875125999795,None,,,,,,,,,,,,,,,,,,,,,,,,,-0.21111111,-0.13148148,1,0,0,0.31470486987382174,None,274.22142539999913,None,1.4830246918524306,1.1658789000939578,282.3537923999829,None,NoResponse,무응답입니다,282.3537923999829,None,282.3537923999829,None,282.3537923999829,None,282.3537923999829,None,283.353532499983,None,283.353532499983,283.85378869995475,,,,,,,,,,,,,,,,121,2022-05-09_09h21.06.383,FishGame,2022.1.1,59.940790482904234,
,2,넌 기품있어,2,Green,B,5.791666666666668,4.5,ScrollUp,ScrollDown,Green.png,1,Positive,Incongruent,0,0,0,0,,,,,,,,,,,,,0,1,1,1,,,,,,,,,,,,,,,,,,,,,,,,,,,,,,,,,,,,,,,,,,,,,,,,,,,,,,,,,,,,,,,,,,,,,,,,,,,,,,,,,,,,,1.8425925970077515,0.9515052000060678,284.51421479997225,None,ScrollUp,정답입니다,284.51421479997225,None,284.51421479997225,None,284.51421479997225,None,284.51421479997225,None,285.3314458000241,None,285.3314458000241,285.8374499999918,,,,,,,,,,,,,,,,121,2022-05-09_09h21.06.383,FishGame,2022.1.1,59.940790482904234,
,3,나를 보내줘,6,Orange,A,0,0,ScrollUp,ScrollDown,Orange.png,1,NonTarget,NonTarget,0,0,0,0,,,,,,,,,,,,,0,2,2,2,,,,,,,,,,,,,,,,,,,,,,,,,,,,,,,,,,,,,,,,,,,,,,,,,,,,,,,,,,,,,,,,,,,,,,,,,,,,,,,,,,,,,1.5509259259949126,1.1184081999817863,286.4898223999189,None,ScrollUp,정답입니다,286.4898223999189,None,286.4898223999189,None,286.4898223999189,None,286.4898223999189,None,287.48441439995077,None,287.48441439995077,287.988023999962,,,,,,,,,,,,,,,,121,2022-05-09_09h21.06.383,FishGame,2022.1.1,59.940790482904234,
,4,넌 수동적이야,4,Orange,A,2.833333333333333,2.933333333333333,ScrollDown,ScrollUp,Orange.png,1,Negative,Incongruent,0,0,0,0,,,,,,,,,,,,,0,3,3,3,,,,,,,,,,,,,,,,,,,,,,,,,,,,,,,,,,,,,,,,,,,,,,,,,,,,,,,,,,,,,,,,,,,,,,,,,,,,,,,,,,,,,1.266975318392118,1.2088366000680253,288.63850509992335,None,ScrollDown,정답입니다,288.63850509992335,None,288.63850509992335,None,288.63850509992335,None,288.63850509992335,None,289.7206596999895,None,289.7206596999895,290.22110889991745,,,,,,,,,,,,,,,,121,2022-05-09_09h21.06.383,FishGame,2022.1.1,59.940790482904234,
,5,넌 사심이 없어,3,Green,B,4.916666666666666,4.333333333333333,ScrollUp,ScrollDown,Green.png,1,Neutral,Neutral,0,0,0,0,,,,,,,,,,,,,0,4,4,4,,,,,,,,,,,,,,,,,,,,,,,,,,,,,,,,,,,,,,,,,,,,,,,,,,,,,,,,,,,,,,,,,,,,,,,,,,,,,,,,,,,,,1.9490740597248077,0.9993275000015274,290.86135949997697,None,ScrollUp,정답입니다,290.86135949997697,None,290.86135949997697,None,290.86135949997697,None,290.86135949997697,None,291.7423812999623,None,291.7423812999623,292.2539166000206,,,,,,,,,,,,,,,,121,2022-05-09_09h21.06.383,FishGame,2022.1.1,59.940790482904234,
,6,넌 헤퍼,5,Orange,A,2.458333333333334,2.233333333333333,ScrollDown,ScrollUp,Orange.png,1,Negative,Incongruent,0,0,0,0,,,,,,,,,,,,,0,5,5,5,,,,,,,,,,,,,,,,,,,,,,,,,,,,,,,,,,,,,,,,,,,,,,,,,,,,,,,,,,,,,,,,,,,,,,,,,,,,,,,,,,,,,1.0833333333333333,0.9932897000107914,292.8972191999201,None,ScrollDown,정답입니다,292.8972191999201,None,292.8972191999201,None,292.8972191999201,None,292.8972191999201,None,293.7708997000009,None,293.7708997000009,294.2715044999495,,,,,,,,,,,,,,,,121,2022-05-09_09h21.06.383,FishGame,2022.1.1,59.940790482904234,
,7,넌 말쑥해,3,Orange,A,4.833333333333334,4.333333333333333,ScrollDown,ScrollUp,Orange.png,1,Neutral,Neutral,0,0,0,0,,,,,,,,,,,,,0,6,6,6,,,,,,,,,,,,,,,,,,,,,,,,,,,,,,,,,,,,,,,,,,,,,,,,,,,,,,,,,,,,,,,,,,,,,,,,,,,,,,,,,,,,,1.1496913582086563,0.9418627999257296,294.9126821999671,None,ScrollDown,정답입니다,294.9126821999671,None,294.9126821999671,None,294.9126821999671,None,294.9126821999671,None,295.73739369993564,None,295.73739369993564,296.2380995999556,,,,,,,,,,,,,,,,121,2022-05-09_09h21.06.383,FishGame,2022.1.1,59.940790482904234,
,8,넌 투덜거려,5,Green,B,2.541666666666667,2.266666666666667,ScrollUp,ScrollDown,Green.png,1,Negative,Congruent,0,0,0,0,,,,,,,,,,,,,0,7,7,7,,,,,,,,,,,,,,,,,,,,,,,,,,,,,,,,,,,,,,,,,,,,,,,,,,,,,,,,,,,,,,,,,,,,,,,,,,,,,,,,,,,,,2,0.8920783000066876,296.89094750001095,None,ScrollUp,정답입니다,296.89094750001095,None,296.89094750001095,None,296.89094750001095,None,296.89094750001095,None,297.6546574999811,None,297.6546574999811,298.154346199939,,,,,,,,,,,,,,,,121,2022-05-09_09h21.06.383,FishGame,2022.1.1,59.940790482904234,
,9,넌 적극적이야,1,Orange,A,5.708333333333333,5.533333333333333,ScrollDown,ScrollUp,Orange.png,1,Positive,Congruent,0,0,0,0,,,,,,,,,,,,,0,8,8,8,,,,,,,,,,,,,,,,,,,,,,,,,,,,,,,,,,,,,,,,,,,,,,,,,,,,,,,,,,,,,,,,,,,,,,,,,,,,,,,,,,,,,1.0617283880710602,1.018143199966289,298.7954723999137,None,ScrollDown,정답입니다,298.7954723999137,None,298.7954723999137,None,298.7954723999137,None,298.7954723999137,None,299.70134169992525,None,299.70134169992525,300.2050708999159,,,,,,,,,,,,,,,,121,2022-05-09_09h21.06.383,FishGame,2022.1.1,59.940790482904234,
,10,넌 재미없어,4,Green,B,2.625,2.966666666666667,ScrollUp,ScrollDown,Green.png,1,Negative,Congruent,0,0,0,0,,,,,,,,,,,,,0,9,9,9,,,,,,,,,,,,,,,,,,,,,,,,,,,,,,,,,,,,,,,,,,,,,,,,,,,,,,,,,,,,,,,,,,,,,,,,,,,,,,,,,,,,,2,1.0348081000847742,300.85174579999875,None,ScrollUp,정답입니다,300.85174579999875,None,300.85174579999875,None,300.85174579999875,None,300.85174579999875,None,301.7676644999301,None,301.7676644999301,302.27170149993617,,,,,,,,,,,,,,,,121,2022-05-09_09h21.06.383,FishGame,2022.1.1,59.940790482904234,
,11,넌 명석해,2,Orange,A,5.875,4.033333333333333,ScrollDown,ScrollUp,Orange.png,1,Positive,Congruent,0,0,0,0,,,,,,,,,,,,,0,10,10,10,,,,,,,,,,,,,,,,,,,,,,,,,,,,,,,,,,,,,,,,,,,,,,,,,,,,,,,,,,,,,,,,,,,,,,,,,,,,,,,,,,,,,1.1049382785956066,0.9837445999728516,302.9131919000065,None,ScrollDown,정답입니다,302.9131919000065,None,302.9131919000065,None,302.9131919000065,None,302.9131919000065,None,303.77571419999003,None,303.77571419999003,304.2880327999592,,,,,,,,,,,,,,,,121,2022-05-09_09h21.06.383,FishGame,2022.1.1,59.940790482904234,
,12,나를 데려가줘,6,Green,B,0,0,ScrollDown,ScrollUp,Green.png,1,NonTarget,NonTarget,0,0,0,0,,,,,,,,,,,,,0,11,11,11,,,,,,,,,,,,,,,,,,,,,,,,,,,,,,,,,,,,,,,,,,,,,,,,,,,,,,,,,,,,,,,,,,,,,,,,,,,,,,,,,,,,,1.0879629751046498,1.1670025000348687,304.924651099951,None,ScrollDown,정답입니다,304.924651099951,None,304.924651099951,None,304.924651099951,None,304.924651099951,None,305.97565079992637,None,305.97565079992637,306.4882232999662,,,,,,,,,,,,,,,,121,2022-05-09_09h21.06.383,FishGame,2022.1.1,59.940790482904234,
,13,넌 소심해,4,Orange,A,3,3.1,ScrollDown,ScrollUp,Orange.png,1,Negative,Incongruent,0,0,0,0,,,,,,,,,,,,,0,12,12,12,,,,,,,,,,,,,,,,,,,,,,,,,,,,,,,,,,,,,,,,,,,,,,,,,,,,,,,,,,,,,,,,,,,,,,,,,,,,,,,,,,,,,1.32253085821867,1.0086620000656694,307.1351146999514,None,ScrollDown,정답입니다,307.1351146999514,None,307.1351146999514,None,307.1351146999514,None,307.1351146999514,None,308.021091899951,None,308.021091899951,308.5219234999968,,,,,,,,,,,,,,,,121,2022-05-09_09h21.06.383,FishGame,2022.1.1,59.940790482904234,
,14,넌 합리적이야,2,Orange,A,5.583333333333333,4.733333333333333,ScrollDown,ScrollUp,Orange.png,1,Positive,Congruent,0,0,0,0,,,,,,,,,,,,,0,13,13,13,,,,,,,,,,,,,,,,,,,,,,,,,,,,,,,,,,,,,,,,,,,,,,,,,,,,,,,,,,,,,,,,,,,,,,,,,,,,,,,,,,,,,1.1975308656692505,1.0204793000593781,309.17223789996933,None,ScrollDown,정답입니다,309.17223789996933,None,309.17223789996933,None,309.17223789996933,None,309.17223789996933,None,310.0715706999181,None,310.0715706999181,310.5716147000203,,,,,,,,,,,,,,,,121,2022-05-09_09h21.06.383,FishGame,2022.1.1,59.940790482904234,
,15,넌 무자비해,5,Green,B,2.333333333333333,2.1,ScrollUp,ScrollDown,Green.png,1,Negative,Congruent,0,0,0,0,,,,,,,,,,,,,0,14,14,14,,,,,,,,,,,,,,,,,,,,,,,,,,,,,,,,,,,,,,,,,,,,,,,,,,,,,,,,,,,,,,,,,,,,,,,,,,,,,,,,,,,,,1.9274691144625347,0.918357599992305,311.22094619995914,None,ScrollUp,정답입니다,311.22094619995914,None,311.22094619995914,None,311.22094619995914,None,311.22094619995914,None,312.0181886999635,None,312.0181886999635,312.5218741999706,,,,,,,,,,,,,,,,121,2022-05-09_09h21.06.383,FishGame,2022.1.1,59.940790482904234,
,16,나를 보내줘,6,Orange,A,0,0,ScrollUp,ScrollDown,Orange.png,1,NonTarget,NonTarget,0,0,0,0,,,,,,,,,,,,,0,15,15,15,,,,,,,,,,,,,,,,,,,,,,,,,,,,,,,,,,,,,,,,,,,,,,,,,,,,,,,,,,,,,,,,,,,,,,,,,,,,,,,,,,,,,1.5339506162951388,1.0077135000610724,313.1720690999646,None,NoResponse,무응답입니다,313.1720690999646,None,313.1720690999646,None,313.1720690999646,None,313.1720690999646,None,314.05573699995875,None,314.05573699995875,314.5546695999801,,,,,,,,,,,,,,,,121,2022-05-09_09h21.06.383,FishGame,2022.1.1,59.940790482904234,
,17,넌 현실적이야,3,Green,B,4.608695652173913,4.766666666666667,ScrollUp,ScrollDown,Green.png,1,Neutral,Neutral,0,0,0,0,,,,,,,,,,,,,0,16,16,16,,,,,,,,,,,,,,,,,,,,,,,,,,,,,,,,,,,,,,,,,,,,,,,,,,,,,,,,,,,,,,,,,,,,,,,,,,,,,,,,,,,,,1,1.3413338999962434,315.19644710002467,None,ScrollDown,오답입니다,315.19644710002467,None,315.19644710002467,None,315.19644710002467,None,315.19644710002467,None,316.42286159994546,None,316.42286159994546,316.93814919993747,,,,,,,,,,,,,,,,121,2022-05-09_09h21.06.383,FishGame,2022.1.1,59.940790482904234,
,18,넌 의리있어,1,Green,B,5.833333333333334,5.633333333333334,ScrollUp,ScrollDown,Green.png,1,Positive,Incongruent,0,0,0,0,,,,,,,,,,,,,0,17,17,17,,,,,,,,,,,,,,,,,,,,,,,,,,,,,,,,,,,,,,,,,,,,,,,,,,,,,,,,,,,,,,,,,,,,,,,,,,,,,,,,,,,,,2,1.1714922999963164,317.58055790001526,None,ScrollUp,정답입니다,317.58055790001526,None,317.58055790001526,None,317.58055790001526,None,317.58055790001526,None,318.6312397000147,None,318.6312397000147,319.13842309999745,,,,,,,,,,,,,,,,121,2022-05-09_09h21.06.383,FishGame,2022.1.1,59.940790482904234,
,19,넌 신경과민이야,5,Orange,A,2.541666666666667,2.166666666666667,ScrollDown,ScrollUp,Orange.png,1,Negative,Incongruent,0,0,0,0,,,,,,,,,,,,,0,18,18,18,,,,,,,,,,,,,,,,,,,,,,,,,,,,,,,,,,,,,,,,,,,,,,,,,,,,,,,,,,,,,,,,,,,,,,,,,,,,,,,,,,,,,1.0864197611808777,1.084796900046058,319.7912648000056,None,ScrollDown,정답입니다,319.7912648000056,None,319.7912648000056,None,319.7912648000056,None,319.7912648000056,None,320.7453928999603,None,320.7453928999603,321.25494130002335,,,,,,,,,,,,,,,,121,2022-05-09_09h21.06.383,FishGame,2022.1.1,59.940790482904234,
,20,넌 편안해,1,Orange,A,5.916666666666666,5.866666666666666,ScrollDown,ScrollUp,Orange.png,1,Positive,Congruent,0,0,0,0,,,,,,,,,,,,,0,19,19,19,,,,,,,,,,,,,,,,,,,,,,,,,,,,,,,,,,,,,,,,,,,,,,,,,,,,,,,,,,,,,,,,,,,,,,,,,,,,,,,,,,,,,1.1111111094554265,1.036007900023833,321.90567289991304,None,ScrollDown,정답입니다,321.90567289991304,None,321.90567289991304,None,321.90567289991304,None,321.90567289991304,None,322.81140829995275,None,322.81140829995275,323.3220600999193,,,,,,,,,,,,,,,,121,2022-05-09_09h21.06.383,FishGame,2022.1.1,59.940790482904234,
,21,넌 품위있어,2,Green,B,5.291666666666666,4.466666666666667,ScrollUp,ScrollDown,Green.png,1,Positive,Incongruent,0,0,0,0,,,,,,,,,,,,,0,20,20,20,,,,,,,,,,,,,,,,,,,,,,,,,,,,,,,,,,,,,,,,,,,,,,,,,,,,,,,,,,,,,,,,,,,,,,,,,,,,,,,,,,,,,1.9135802388191223,0.9849276999011636,323.9604971000226,None,ScrollUp,정답입니다,323.9604971000226,None,323.9604971000226,None,323.9604971000226,None,323.9604971000226,None,324.83496449992526,None,324.83496449992526,325.3386596000055,,,,,,,,,,,,,,,,121,2022-05-09_09h21.06.383,FishGame,2022.1.1,59.940790482904234,
,22,넌 빈틈없어,3,Orange,A,4.833333333333333,3.966666666666667,ScrollDown,ScrollUp,Orange.png,1,Neutral,Neutral,0,0,0,0,,,,,,,,,,,,,0,21,21,21,,,,,,,,,,,,,,,,,,,,,,,,,,,,,,,,,,,,,,,,,,,,,,,,,,,,,,,,,,,,,,,,,,,,,,,,,,,,,,,,,,,,,1.2021604826052983,0.8880131000187248,325.9858462000266,None,ScrollDown,정답입니다,325.9858462000266,None,325.9858462000266,None,325.9858462000266,None,325.9858462000266,None,326.75506519991904,None,326.75506519991904,327.25543909997214,,,,,,,,,,,,,,,,121,2022-05-09_09h21.06.383,FishGame,2022.1.1,59.940790482904234,
,23,넌 상상력없어,4,Green,B,2.833333333333333,3.133333333333333,ScrollUp,ScrollDown,Green.png,1,Negative,Congruent,0,0,0,0,,,,,,,,,,,,,0,22,22,22,,,,,,,,,,,,,,,,,,,,,,,,,,,,,,,,,,,,,,,,,,,,,,,,,,,,,,,,,,,,,,,,,,,,,,,,,,,,,,,,,,,,,2,1.0013024000218138,327.90157859993633,None,ScrollUp,정답입니다,327.90157859993633,None,327.90157859993633,None,327.90157859993633,None,327.90157859993633,None,328.7851773999864,None,328.7851773999864,329.28846239997074,,,,,,,,,,,,,,,,121,2022-05-09_09h21.06.383,FishGame,2022.1.1,59.940790482904234,
,24,넌 지혜로워,2,Green,B,6.333333333333334,4.633333333333334,ScrollUp,ScrollDown,Green.png,1,Positive,Incongruent,0,0,0,0,,,,,,,,,,,,,0,23,23,23,,,,,,,,,,,,,,,,,,,,,,,,,,,,,,,,,,,,,,,,,,,,,,,,,,,,,,,,,,,,,,,,,,,,,,,,,,,,,,,,,,,,,2,1.0724772000685334,329.93182759999763,None,ScrollUp,정답입니다,329.93182759999763,None,329.93182759999763,None,329.93182759999763,None,329.93182759999763,None,330.8884143999312,None,330.8884143999312,331.3883022000082,,,,,,,,,,,,,,,,121,2022-05-09_09h21.06.383,FishGame,2022.1.1,59.940790482904234,
,25,넌 시끄러워,4,Orange,A,2.833333333333333,3.033333333333333,ScrollDown,ScrollUp,Orange.png,1,Negative,Incongruent,0,0,0,0,,,,,,,,,,,,,0,24,24,24,,,,,,,,,,,,,,,,,,,,,,,,,,,,,,,,,,,,,,,,,,,,,,,,,,,,,,,,,,,,,,,,,,,,,,,,,,,,,,,,,,,,,1.0864197611808777,1.093328999937512,332.0422380999662,None,ScrollDown,정답입니다,332.0422380999662,None,332.0422380999662,None,332.0422380999662,None,332.0422380999662,None,333.0049843000015,None,333.0049843000015,333.50534769997466,,,,,,,,,,,,,,,,121,2022-05-09_09h21.06.383,FishGame,2022.1.1,59.940790482904234,
,26,넌 만사태평이야,3,Green,B,4,4.333333333333333,ScrollUp,ScrollDown,Green.png,1,Neutral,Neutral,0,0,0,0,,,,,,,,,,,,,0,25,25,25,,,,,,,,,,,,,,,,,,,,,,,,,,,,,,,,,,,,,,,,,,,,,,,,,,,,,,,,,,,,,,,,,,,,,,,,,,,,,,,,,,,,,1.8132716069618862,0.9328359999926761,334.14944740000647,None,ScrollUp,정답입니다,334.14944740000647,None,334.14944740000647,None,334.14944740000647,None,334.14944740000647,None,334.9600079000229,None,334.9600079000229,335.4718760999385,,,,,,,,,,,,,,,,121,2022-05-09_09h21.06.383,FishGame,2022.1.1,59.940790482904234,
,27,넌 붙임성있어,1,Orange,A,5.708333333333333,5.633333333333334,ScrollDown,ScrollUp,Orange.png,1,Positive,Congruent,0,0,0,0,,,,,,,,,,,,,0,26,26,26,,,,,,,,,,,,,,,,,,,,,,,,,,,,,,,,,,,,,,,,,,,,,,,,,,,,,,,,,,,,,,,,,,,,,,,,,,,,,,,,,,,,,1.1064814925193787,1.0161210000514984,336.1171493999427,None,ScrollDown,정답입니다,336.1171493999427,None,336.1171493999427,None,336.1171493999427,None,336.1171493999427,None,337.009701199946,None,337.009701199946,337.52205679996405,,,,,,,,,,,,,,,,121,2022-05-09_09h21.06.383,FishGame,2022.1.1,59.940790482904234,
,28,넌 영리해,2,Orange,A,6,4.033333333333333,ScrollDown,ScrollUp,Orange.png,1,Positive,Congruent,0,0,0,0,,,,,,,,,,,,,0,27,27,27,,,,,,,,,,,,,,,,,,,,,,,,,,,,,,,,,,,,,,,,,,,,,,,,,,,,,,,,,,,,,,,,,,,,,,,,,,,,,,,,,,,,,1,1.0290823000250384,338.15906819992233,None,ScrollDown,정답입니다,338.15906819992233,None,338.15906819992233,None,338.15906819992233,None,338.15906819992233,None,339.07694950001314,None,339.07694950001314,339.58925169997383,,,,,,,,,,,,,,,,121,2022-05-09_09h21.06.383,FishGame,2022.1.1,59.940790482904234,
,29,넌 열심이야,1,Green,B,6.041666666666667,5.833333333333333,ScrollUp,ScrollDown,Green.png,1,Positive,Incongruent,0,0,0,0,,,,,,,,,,,,,0,28,28,28,,,,,,,,,,,,,,,,,,,,,,,,,,,,,,,,,,,,,,,,,,,,,,,,,,,,,,,,,,,,,,,,,,,,,,,,,,,,,,,,,,,,,2,0.9742932000663131,340.22197880002204,None,ScrollUp,정답입니다,340.22197880002204,None,340.22197880002204,None,340.22197880002204,None,340.22197880002204,None,341.0887141999556,None,341.0887141999556,341.58878569991793,,,,,,,,,,,,,,,,121,2022-05-09_09h21.06.383,FishGame,2022.1.1,59.940790482904234,
,30,넌 인기없어,4,Green,B,3,3.3,ScrollUp,ScrollDown,Green.png,1,Negative,Congruent,0,0,0,0,,,,,,,,,,,,,0,29,29,29,,,,,,,,,,,,,,,,,,,,,,,,,,,,,,,,,,,,,,,,,,,,,,,,,,,,,,,,,,,,,,,,,,,,,,,,,,,,,,,,,,,,,2,0.8655250000301749,342.2248144999612,None,ScrollUp,정답입니다,342.2248144999612,None,342.2248144999612,None,342.2248144999612,None,342.2248144999612,None,342.9767681999365,None,342.9767681999365,343.489173399983,,,,,,,,,,,,,,,,121,2022-05-09_09h21.06.383,FishGame,2022.1.1,59.940790482904234,
,31,넌 익살스러워,3,Orange,A,4.708333333333334,4.833333333333333,ScrollDown,ScrollUp,Orange.png,1,Neutral,Neutral,0,0,0,0,,,,,,,,,,,,,0,30,30,30,,,,,,,,,,,,,,,,,,,,,,,,,,,,,,,,,,,,,,,,,,,,,,,,,,,,,,,,,,,,,,,,,,,,,,,,,,,,,,,,,,,,,1.0509259402751923,0.9101282000774518,344.1373657999793,None,ScrollDown,정답입니다,344.1373657999793,None,344.1373657999793,None,344.1373657999793,None,344.1373657999793,None,344.92473969992716,None,344.92473969992716,345.4393710999284,,,,,,,,,,,,,,,,121,2022-05-09_09h21.06.383,FishGame,2022.1.1,59.940790482904234,
,32,넌 이기적이야,5,Green,B,2.291666666666667,2.333333333333333,ScrollUp,ScrollDown,Green.png,1,Negative,Congruent,0,0,0,0,,,,,,,,,,,,,0,31,31,31,,,,,,,,,,,,,,,,,,,,,,,,,,,,,,,,,,,,,,,,,,,,,,,,,,,,,,,,,,,,,,,,,,,,,,,,,,,,,,,,,,,,,1.817901223897934,0.8204658000031486,346.0973410999868,None,ScrollUp,정답입니다,346.0973410999868,None,346.0973410999868,None,346.0973410999868,None,346.0973410999868,None,346.78907759999856,None,346.78907759999856,347.28922329994384,,,,,,,,,,,,,,,,121,2022-05-09_09h21.06.383,FishGame,2022.1.1,59.940790482904234,
,33,나를 데려가줘,6,Green,B,0,0,ScrollDown,ScrollUp,Green.png,1,NonTarget,NonTarget,0,0,0,0,,,,,,,,,,,,,0,32,32,32,,,,,,,,,,,,,,,,,,,,,,,,,,,,,,,,,,,,,,,,,,,,,,,,,,,,,,,,,,,,,,,,,,,,,,,,,,,,,,,,,,,,,1.1527777860562007,0.9086507000029087,347.92103809991386,None,ScrollDown,정답입니다,347.92103809991386,None,347.92103809991386,None,347.92103809991386,None,347.92103809991386,None,348.72197359998245,None,348.72197359998245,349.22238159994595,,,,,,,,,,,,,,,,121,2022-05-09_09h21.06.383,FishGame,2022.1.1,59.940790482904234,
,34,넌 기회주의자야,5,Orange,A,2.875,2.133333333333333,ScrollDown,ScrollUp,Orange.png,1,Negative,Incongruent,0,0,0,0,,,,,,,,,,,,,0,33,33,33,,,,,,,,,,,,,,,,,,,,,,,,,,,,,,,,,,,,,,,,,,,,,,,,,,,,,,,,,,,,,,,,,,,,,,,,,,,,,,,,,,,,,1.1728395173947017,0.9582285999786109,349.8673559000017,None,ScrollDown,정답입니다,349.8673559000017,None,349.8673559000017,None,349.8673559000017,None,349.8673559000017,None,350.70564870000817,None,350.70564870000817,351.20548619993497,,,,,,,,,,,,,,,,121,2022-05-09_09h21.06.383,FishGame,2022.1.1,59.940790482904234,
,1,넌 미성숙해,4,Orange,A,3,3.2,ScrollDown,ScrollUp,Orange.png,2,Negative,Incongruent,0,0,0,0,,,,,,,,,,,,,,,,,0,0,0,0,,,,,,,,,,,,,,,,,,,,,,,,,,,,,,,,,,,,,,,,383.08990719995927,384.5900781999808,384.6234885000158,385.573388800025,385.6228791999165,386.5730784999905,386.5730784999905,None,,,,,,,,,,,,,,,,,,,,,,,,,,,,,,,,,,1.233024686574936,1.1008720999816433,387.7940071999328,None,ScrollDown,정답입니다,387.7940071999328,None,387.7940071999328,None,387.7940071999328,None,387.7940071999328,None,388.6899997999426,None,388.6899997999426,389.19029099994805,351.7059015999548,None,351.7059015999548,None,-0.4138889,-0.098148145,1,0,0,0.015655870083719492,None,381.7064152000239,None,,,121,2022-05-09_09h21.06.383,FishGame,2022.1.1,59.940790482904234,
,2,넌 반사회적이야,5,Green,B,2.416666666666667,2.033333333333333,ScrollUp,ScrollDown,Green.png,2,Negative,Congruent,0,0,0,0,,,,,,,,,,,,,,,,,0,1,1,1,,,,,,,,,,,,,,,,,,,,,,,,,,,,,,,,,,,,,,,,,,,,,,,,,,,,,,,,,,,,,,,,,,,,,,,,,,,,,,,,,1.9228395223617554,1.0151366000063717,389.83071369992103,None,ScrollUp,정답입니다,389.83071369992103,None,389.83071369992103,None,389.83071369992103,None,389.83071369992103,None,390.72802829998545,None,390.72802829998545,391.2404537999537,,,,,,,,,,,,,,,,121,2022-05-09_09h21.06.383,FishGame,2022.1.1,59.940790482904234,
,3,넌 유능해,2,Orange,A,6.208333333333333,4.433333333333334,ScrollDown,ScrollUp,Orange.png,2,Positive,Congruent,0,0,0,0,,,,,,,,,,,,,,,,,0,2,2,2,,,,,,,,,,,,,,,,,,,,,,,,,,,,,,,,,,,,,,,,,,,,,,,,,,,,,,,,,,,,,,,,,,,,,,,,,,,,,,,,,1.0339506367842357,0.9613534000236541,391.8886744999327,None,ScrollDown,정답입니다,391.8886744999327,None,391.8886744999327,None,391.8886744999327,None,391.8886744999327,None,392.7282058999408,None,392.7282058999408,393.2409008999821,,,,,,,,,,,,,,,,121,2022-05-09_09h21.06.383,FishGame,2022.1.1,59.940790482904234,
,4,넌 능숙해,2,Green,B,5.666666666666667,4.733333333333333,ScrollUp,ScrollDown,Green.png,2,Positive,Incongruent,0,0,0,0,,,,,,,,,,,,,,,,,0,3,3,3,,,,,,,,,,,,,,,,,,,,,,,,,,,,,,,,,,,,,,,,,,,,,,,,,,,,,,,,,,,,,,,,,,,,,,,,,,,,,,,,,1.9228395223617554,0.9251716000726447,393.877925699926,None,ScrollUp,정답입니다,393.877925699926,None,393.877925699926,None,393.877925699926,None,393.877925699926,None,394.6899151999969,None,394.6899151999969,395.1900512999855,,,,,,,,,,,,,,,,121,2022-05-09_09h21.06.383,FishGame,2022.1.1,59.940790482904234,
,5,넌 진부해,4,Green,B,2.458333333333333,3.166666666666667,ScrollUp,ScrollDown,Green.png,2,Negative,Congruent,0,0,0,0,,,,,,,,,,,,,,,,,0,4,4,4,,,,,,,,,,,,,,,,,,,,,,,,,,,,,,,,,,,,,,,,,,,,,,,,,,,,,,,,,,,,,,,,,,,,,,,,,,,,,,,,,1.9151234527428944,0.9135667000664398,395.83043729991186,None,ScrollUp,정답입니다,395.83043729991186,None,395.83043729991186,None,395.83043729991186,None,395.83043729991186,None,396.6280739000067,None,396.6280739000067,397.14053660002537,,,,,,,,,,,,,,,,121,2022-05-09_09h21.06.383,FishGame,2022.1.1,59.940790482904234,
,6,나를 보내줘,6,Orange,A,0,0,ScrollUp,ScrollDown,Orange.png,2,NonTarget,NonTarget,0,0,0,0,,,,,,,,,,,,,,,,,0,5,5,5,,,,,,,,,,,,,,,,,,,,,,,,,,,,,,,,,,,,,,,,,,,,,,,,,,,,,,,,,,,,,,,,,,,,,,,,,,,,,,,,,1.733024681607882,1.1987801999785006,397.79869029996917,None,ScrollUp,정답입니다,397.79869029996917,None,397.79869029996917,None,397.79869029996917,None,397.79869029996917,None,398.8613868999528,None,398.8613868999528,399.373327099951,,,,,,,,,,,,,,,,121,2022-05-09_09h21.06.383,FishGame,2022.1.1,59.940790482904234,
,7,넌 엄격해,3,Orange,A,4.166666666666666,4.1,ScrollDown,ScrollUp,Orange.png,2,Neutral,Neutral,0,0,0,0,,,,,,,,,,,,,,,,,0,6,6,6,,,,,,,,,,,,,,,,,,,,,,,,,,,,,,,,,,,,,,,,,,,,,,,,,,,,,,,,,,,,,,,,,,,,,,,,,,,,,,,,,1.1851851791143417,0.9605034000705928,400.0270791000221,None,ScrollDown,정답입니다,400.0270791000221,None,400.0270791000221,None,400.0270791000221,None,400.0270791000221,None,400.8561645000009,None,400.8561645000009,401.35718009993434,,,,,,,,,,,,,,,,121,2022-05-09_09h21.06.383,FishGame,2022.1.1,59.940790482904234,
,8,나를 보내줘,6,Orange,A,0,0,ScrollUp,ScrollDown,Orange.png,2,NonTarget,NonTarget,0,0,0,0,,,,,,,,,,,,,,,,,0,7,7,7,,,,,,,,,,,,,,,,,,,,,,,,,,,,,,,,,,,,,,,,,,,,,,,,,,,,,,,,,,,,,,,,,,,,,,,,,,,,,,,,,1.90586419403553,0.9096517000580207,401.9939843999455,None,ScrollUp,정답입니다,401.9939843999455,None,401.9939843999455,None,401.9939843999455,None,401.9939843999455,None,402.79346069996245,None,402.79346069996245,403.3073055000277,,,,,,,,,,,,,,,,121,2022-05-09_09h21.06.383,FishGame,2022.1.1,59.940790482904234,
,9,넌 대담해,3,Green,B,4.875,4.866666666666666,ScrollUp,ScrollDown,Green.png,2,Neutral,Neutral,0,0,0,0,,,,,,,,,,,,,,,,,0,8,8,8,,,,,,,,,,,,,,,,,,,,,,,,,,,,,,,,,,,,,,,,,,,,,,,,,,,,,,,,,,,,,,,,,,,,,,,,,,,,,,,,,1.6728395000100136,1.0273111999267712,403.9545668999199,None,ScrollUp,정답입니다,403.9545668999199,None,403.9545668999199,None,403.9545668999199,None,403.9545668999199,None,404.85676230001263,None,404.85676230001263,405.3570639999816,,,,,,,,,,,,,,,,121,2022-05-09_09h21.06.383,FishGame,2022.1.1,59.940790482904234,
,10,넌 꾸준해,1,Orange,A,5.916666666666668,5.8,ScrollDown,ScrollUp,Orange.png,2,Positive,Congruent,0,0,0,0,,,,,,,,,,,,,,,,,0,9,9,9,,,,,,,,,,,,,,,,,,,,,,,,,,,,,,,,,,,,,,,,,,,,,,,,,,,,,,,,,,,,,,,,,,,,,,,,,,,,,,,,,1.2237654278675716,1.625782800023444,406.01233639998827,None,ScrollDown,정답입니다,406.01233639998827,None,406.01233639998827,None,406.01233639998827,None,406.01233639998827,None,407.5069368999684,None,407.5069368999684,408.00716549996287,,,,,,,,,,,,,,,,121,2022-05-09_09h21.06.383,FishGame,2022.1.1,59.940790482904234,
,11,나를 데려가줘,6,Green,B,0,0,ScrollDown,ScrollUp,Green.png,2,NonTarget,NonTarget,0,0,0,0,,,,,,,,,,,,,,,,,0,10,10,10,,,,,,,,,,,,,,,,,,,,,,,,,,,,,,,,,,,,,,,,,,,,,,,,,,,,,,,,,,,,,,,,,,,,,,,,,,,,,,,,,1.1388888855775197,1.0328119000187144,408.63857549999375,None,ScrollDown,정답입니다,408.63857549999375,None,408.63857549999375,None,408.63857549999375,None,408.63857549999375,None,409.56133139994927,None,409.56133139994927,410.0740988999605,,,,,,,,,,,,,,,,121,2022-05-09_09h21.06.383,FishGame,2022.1.1,59.940790482904234,
,12,넌 독선적이야,5,Orange,A,2.458333333333333,1.933333333333333,ScrollDown,ScrollUp,Orange.png,2,Negative,Incongruent,0,0,0,0,,,,,,,,,,,,,,,,,0,11,11,11,,,,,,,,,,,,,,,,,,,,,,,,,,,,,,,,,,,,,,,,,,,,,,,,,,,,,,,,,,,,,,,,,,,,,,,,,,,,,,,,,1.233024686574936,0.9041321000549942,410.7180355999153,None,ScrollDown,정답입니다,410.7180355999153,None,410.7180355999153,None,410.7180355999153,None,410.7180355999153,None,411.4979508999968,None,411.4979508999968,412.0065903000068,,,,,,,,,,,,,,,,121,2022-05-09_09h21.06.383,FishGame,2022.1.1,59.940790482904234,
,13,나를 보내줘,6,Orange,A,0,0,ScrollUp,ScrollDown,Orange.png,2,NonTarget,NonTarget,0,0,0,0,,,,,,,,,,,,,,,,,0,12,12,12,,,,,,,,,,,,,,,,,,,,,,,,,,,,,,,,,,,,,,,,,,,,,,,,,,,,,,,,,,,,,,,,,,,,,,,,,,,,,,,,,1.8919753183921177,0.9270715999882668,412.6471810999792,None,ScrollUp,정답입니다,412.6471810999792,None,412.6471810999792,None,412.6471810999792,None,412.6471810999792,None,413.4567232999252,None,413.4567232999252,413.9575832999544,,,,,,,,,,,,,,,,121,2022-05-09_09h21.06.383,FishGame,2022.1.1,59.940790482904234,
,14,넌 책임감있어,1,Green,B,6.347826086956522,6,ScrollUp,ScrollDown,Green.png,2,Positive,Incongruent,0,0,0,0,,,,,,,,,,,,,,,,,0,13,13,13,,,,,,,,,,,,,,,,,,,,,,,,,,,,,,,,,,,,,,,,,,,,,,,,,,,,,,,,,,,,,,,,,,,,,,,,,,,,,,,,,1.8086419651905696,0.811595999985002,414.6078903999878,None,ScrollUp,정답입니다,414.6078903999878,None,414.6078903999878,None,414.6078903999878,None,414.6078903999878,None,415.29514319996815,None,415.29514319996815,415.80673279997427,,,,,,,,,,,,,,,,121,2022-05-09_09h21.06.383,FishGame,2022.1.1,59.940790482904234,
,15,넌 문학적이야,3,Orange,A,4.708333333333334,4.333333333333333,ScrollDown,ScrollUp,Orange.png,2,Neutral,Neutral,0,0,0,0,,,,,,,,,,,,,,,,,0,14,14,14,,,,,,,,,,,,,,,,,,,,,,,,,,,,,,,,,,,,,,,,,,,,,,,,,,,,,,,,,,,,,,,,,,,,,,,,,,,,,,,,,1.0524691541989644,0.8603629000717774,416.45769089995883,None,ScrollDown,정답입니다,416.45769089995883,None,416.45769089995883,None,416.45769089995883,None,416.45769089995883,None,417.19036339991726,None,417.19036339991726,417.69080039998516,,,,,,,,,,,,,,,,121,2022-05-09_09h21.06.383,FishGame,2022.1.1,59.940790482904234,
,16,넌 재미있어,1,Green,B,5.875,5.7,ScrollUp,ScrollDown,Green.png,2,Positive,Incongruent,0,0,0,0,,,,,,,,,,,,,,,,,0,15,15,15,,,,,,,,,,,,,,,,,,,,,,,,,,,,,,,,,,,,,,,,,,,,,,,,,,,,,,,,,,,,,,,,,,,,,,,,,,,,,,,,,1.7824074029922485,0.7671319000655785,418.32124429999385,None,ScrollUp,정답입니다,418.32124429999385,None,418.32124429999385,None,418.32124429999385,None,418.32124429999385,None,418.9796070000157,None,418.9796070000157,419.4904956999235,,,,,,,,,,,,,,,,121,2022-05-09_09h21.06.383,FishGame,2022.1.1,59.940790482904234,
,17,나를 데려가줘,6,Green,B,0,0,ScrollDown,ScrollUp,Green.png,2,NonTarget,NonTarget,0,0,0,0,,,,,,,,,,,,,,,,,0,16,16,16,,,,,,,,,,,,,,,,,,,,,,,,,,,,,,,,,,,,,,,,,,,,,,,,,,,,,,,,,,,,,,,,,,,,,,,,,,,,,,,,,1.2175925970077515,0.8939274000003934,420.1207680000225,None,ScrollDown,정답입니다,420.1207680000225,None,420.1207680000225,None,420.1207680000225,None,420.1207680000225,None,420.90688839997165,None,420.90688839997165,421.4077099999413,,,,,,,,,,,,,,,,121,2022-05-09_09h21.06.383,FishGame,2022.1.1,59.940790482904234,
,18,넌 협력적이야,1,Orange,A,5.625,5.633333333333334,ScrollDown,ScrollUp,Orange.png,2,Positive,Congruent,0,0,0,0,,,,,,,,,,,,,,,,,0,17,17,17,,,,,,,,,,,,,,,,,,,,,,,,,,,,,,,,,,,,,,,,,,,,,,,,,,,,,,,,,,,,,,,,,,,,,,,,,,,,,,,,,1.0972222338120143,0.8518146000569686,422.04964580002706,None,ScrollDown,정답입니다,422.04964580002706,None,422.04964580002706,None,422.04964580002706,None,422.04964580002706,None,422.7803901999723,None,422.7803901999723,423.2913162999321,,,,,,,,,,,,,,,,121,2022-05-09_09h21.06.383,FishGame,2022.1.1,59.940790482904234,
,19,넌 평범해,3,Green,B,4.333333333333332,4.233333333333333,ScrollUp,ScrollDown,Green.png,2,Neutral,Neutral,0,0,0,0,,,,,,,,,,,,,,,,,0,18,18,18,,,,,,,,,,,,,,,,,,,,,,,,,,,,,,,,,,,,,,,,,,,,,,,,,,,,,,,,,,,,,,,,,,,,,,,,,,,,,,,,,1.5,0.7754693999886513,423.9223165999865,None,NoResponse,무응답입니다,423.9223165999865,None,423.9223165999865,None,423.9223165999865,None,423.9223165999865,None,424.5929129999131,None,424.5929129999131,425.10731330001727,,,,,,,,,,,,,,,,121,2022-05-09_09h21.06.383,FishGame,2022.1.1,59.940790482904234,
,20,넌 오만해,5,Orange,A,2.333333333333333,2,ScrollDown,ScrollUp,Orange.png,2,Negative,Incongruent,0,0,0,0,,,,,,,,,,,,,,,,,0,19,19,19,,,,,,,,,,,,,,,,,,,,,,,,,,,,,,,,,,,,,,,,,,,,,,,,,,,,,,,,,,,,,,,,,,,,,,,,,,,,,,,,,1.1712963034709294,0.8697264000074938,425.74554919998627,None,ScrollDown,정답입니다,425.74554919998627,None,425.74554919998627,None,425.74554919998627,None,425.74554919998627,None,426.4986428000266,None,426.4986428000266,427.0069635999389,,,,,,,,,,,,,,,,121,2022-05-09_09h21.06.383,FishGame,2022.1.1,59.940790482904234,
,21,넌 운이없어,4,Green,B,3,3.466666666666667,ScrollUp,ScrollDown,Green.png,2,Negative,Congruent,0,0,0,0,,,,,,,,,,,,,,,,,0,20,20,20,,,,,,,,,,,,,,,,,,,,,,,,,,,,,,,,,,,,,,,,,,,,,,,,,,,,,,,,,,,,,,,,,,,,,,,,,,,,,,,,,1.7793209999799728,0.7923008999787271,427.65557479998097,None,ScrollUp,정답입니다,427.65557479998097,None,427.65557479998097,None,427.65557479998097,None,427.65557479998097,None,428.32413530000485,None,428.32413530000485,428.8244388999883,,,,,,,,,,,,,,,,121,2022-05-09_09h21.06.383,FishGame,2022.1.1,59.940790482904234,
,22,넌 창조적이야,2,Green,B,6.125,4.633333333333334,ScrollUp,ScrollDown,Green.png,2,Positive,Incongruent,0,0,0,0,,,,,,,,,,,,,,,,,0,21,21,21,,,,,,,,,,,,,,,,,,,,,,,,,,,,,,,,,,,,,,,,,,,,,,,,,,,,,,,,,,,,,,,,,,,,,,,,,,,,,,,,,1.8966049353281658,0.808589700027369,429.4726416999474,None,ScrollUp,정답입니다,429.4726416999474,None,429.4726416999474,None,429.4726416999474,None,429.4726416999474,None,430.15754759998526,None,430.15754759998526,430.65802450000774,,,,,,,,,,,,,,,,121,2022-05-09_09h21.06.383,FishGame,2022.1.1,59.940790482904234,
,23,나를 보내줘,6,Orange,A,0,0,ScrollUp,ScrollDown,Orange.png,2,NonTarget,NonTarget,0,0,0,0,,,,,,,,,,,,,,,,,0,22,22,22,,,,,,,,,,,,,,,,,,,,,,,,,,,,,,,,,,,,,,,,,,,,,,,,,,,,,,,,,,,,,,,,,,,,,,,,,,,,,,,,,1.7345678955316544,0.8603460000595078,431.2940881999675,None,ScrollUp,정답입니다,431.2940881999675,None,431.2940881999675,None,431.2940881999675,None,431.2940881999675,None,432.045129599981,None,432.045129599981,432.5574850999983,,,,,,,,,,,,,,,,121,2022-05-09_09h21.06.383,FishGame,2022.1.1,59.940790482904234,
,24,넌 통찰력있어,2,Orange,A,6.5,4.8,ScrollDown,ScrollUp,Orange.png,2,Positive,Congruent,0,0,0,0,,,,,,,,,,,,,,,,,0,23,23,23,,,,,,,,,,,,,,,,,,,,,,,,,,,,,,,,,,,,,,,,,,,,,,,,,,,,,,,,,,,,,,,,,,,,,,,,,,,,,,,,,1.2299382835626602,0.864899400039576,433.2021731999703,None,ScrollDown,정답입니다,433.2021731999703,None,433.2021731999703,None,433.2021731999703,None,433.2021731999703,None,433.94618269999046,None,433.94618269999046,434.45768489991315,,,,,,,,,,,,,,,,121,2022-05-09_09h21.06.383,FishGame,2022.1.1,59.940790482904234,
,25,넌 경솔해,5,Green,B,2.458333333333333,2.266666666666667,ScrollUp,ScrollDown,Green.png,2,Negative,Congruent,0,0,0,0,,,,,,,,,,,,,,,,,0,24,24,24,,,,,,,,,,,,,,,,,,,,,,,,,,,,,,,,,,,,,,,,,,,,,,,,,,,,,,,,,,,,,,,,,,,,,,,,,,,,,,,,,1.5061728393969438,0.7925747000845149,435.10098999994807,None,NoResponse,무응답입니다,435.10098999994807,None,435.10098999994807,None,435.10098999994807,None,435.10098999994807,None,435.7744130999781,None,435.7744130999781,436.274847600027,,,,,,,,,,,,,,,,121,2022-05-09_09h21.06.383,FishGame,2022.1.1,59.940790482904234,
,26,넌 초조해,4,Orange,A,2.916666666666667,3.133333333333333,ScrollDown,ScrollUp,Orange.png,2,Negative,Incongruent,0,0,0,0,,,,,,,,,,,,,,,,,0,25,25,25,,,,,,,,,,,,,,,,,,,,,,,,,,,,,,,,,,,,,,,,,,,,,,,,,,,,,,,,,,,,,,,,,,,,,,,,,,,,,,,,,1.121913582086563,0.9154658999759704,436.9268171999138,None,ScrollDown,정답입니다,436.9268171999138,None,436.9268171999138,None,436.9268171999138,None,436.9268171999138,None,437.7141158999875,None,437.7141158999875,438.2247050999431,,,,,,,,,,,,,,,,121,2022-05-09_09h21.06.383,FishGame,2022.1.1,59.940790482904234,
,27,넌 무관심해,4,Green,B,2.833333333333333,2.9,ScrollUp,ScrollDown,Green.png,2,Negative,Congruent,0,0,0,0,,,,,,,,,,,,,,,,,0,26,26,26,,,,,,,,,,,,,,,,,,,,,,,,,,,,,,,,,,,,,,,,,,,,,,,,,,,,,,,,,,,,,,,,,,,,,,,,,,,,,,,,,1.9320987562338512,0.7739840999711305,438.85833169997204,None,ScrollUp,정답입니다,438.85833169997204,None,438.85833169997204,None,438.85833169997204,None,438.85833169997204,None,439.5245176999597,None,439.5245176999597,440.02457010000944,,,,,,,,,,,,,,,,121,2022-05-09_09h21.06.383,FishGame,2022.1.1,59.940790482904234,
,28,넌 감성적이야,3,Green,B,4.125,4.166666666666667,ScrollUp,ScrollDown,Green.png,2,Neutral,Neutral,0,0,0,0,,,,,,,,,,,,,,,,,0,27,27,27,,,,,,,,,,,,,,,,,,,,,,,,,,,,,,,,,,,,,,,,,,,,,,,,,,,,,,,,,,,,,,,,,,,,,,,,,,,,,,,,,1.8688271592060726,0.8338083000853658,440.654856499983,None,ScrollUp,정답입니다,440.654856499983,None,440.654856499983,None,440.654856499983,None,440.654856499983,None,441.37909780000336,None,441.37909780000336,441.8914921999676,,,,,,,,,,,,,,,,121,2022-05-09_09h21.06.383,FishGame,2022.1.1,59.940790482904234,
,29,넌 배려심있어,1,Orange,A,6.083333333333333,5.5,ScrollDown,ScrollUp,Orange.png,2,Positive,Congruent,0,0,0,0,,,,,,,,,,,,,,,,,0,28,28,28,,,,,,,,,,,,,,,,,,,,,,,,,,,,,,,,,,,,,,,,,,,,,,,,,,,,,,,,,,,,,,,,,,,,,,,,,,,,,,,,,1,0.8492243000073358,442.53272050002124,None,ScrollDown,정답입니다,442.53272050002124,None,442.53272050002124,None,442.53272050002124,None,442.53272050002124,None,443.2628671999555,None,443.2628671999555,443.774699499947,,,,,,,,,,,,,,,,121,2022-05-09_09h21.06.383,FishGame,2022.1.1,59.940790482904234,
,30,넌 숨김없어,3,Orange,A,4.5,4.933333333333334,ScrollDown,ScrollUp,Orange.png,2,Neutral,Neutral,0,0,0,0,,,,,,,,,,,,,,,,,0,29,29,29,,,,,,,,,,,,,,,,,,,,,,,,,,,,,,,,,,,,,,,,,,,,,,,,,,,,,,,,,,,,,,,,,,,,,,,,,,,,,,,,,1.0262345671653748,0.8580681999446824,444.4180201999843,None,ScrollDown,정답입니다,444.4180201999843,None,444.4180201999843,None,444.4180201999843,None,444.4180201999843,None,445.1572648999281,None,445.1572648999281,445.6581049999222,,,,,,,,,,,,,,,,121,2022-05-09_09h21.06.383,FishGame,2022.1.1,59.940790482904234,
,31,넌 훌륭해,2,Green,B,5.916666666666667,4.033333333333333,ScrollUp,ScrollDown,Green.png,2,Positive,Incongruent,0,0,0,0,,,,,,,,,,,,,,,,,0,30,30,30,,,,,,,,,,,,,,,,,,,,,,,,,,,,,,,,,,,,,,,,,,,,,,,,,,,,,,,,,,,,,,,,,,,,,,,,,,,,,,,,,1.8703703731298447,0.8687076000496745,446.29791179997846,None,ScrollUp,정답입니다,446.29791179997846,None,446.29791179997846,None,446.29791179997846,None,446.29791179997846,None,447.05461669992656,None,447.05461669992656,447.5580925999675,,,,,,,,,,,,,,,,121,2022-05-09_09h21.06.383,FishGame,2022.1.1,59.940790482904234,
,32,넌 슬기로워,2,Orange,A,6.166666666666667,4.1,ScrollDown,ScrollUp,Orange.png,2,Positive,Congruent,0,0,0,0,,,,,,,,,,,,,,,,,0,31,31,31,,,,,,,,,,,,,,,,,,,,,,,,,,,,,,,,,,,,,,,,,,,,,,,,,,,,,,,,,,,,,,,,,,,,,,,,,,,,,,,,,1.0725308855374653,0.8409960999852046,448.2102147999685,None,ScrollDown,정답입니다,448.2102147999685,None,448.2102147999685,None,448.2102147999685,None,448.2102147999685,None,448.92452569992747,None,448.92452569992747,449.42491830000654,,,,,,,,,,,,,,,,121,2022-05-09_09h21.06.383,FishGame,2022.1.1,59.940790482904234,
,33,넌 냉혹해,5,Orange,A,2.583333333333333,2.1,ScrollDown,ScrollUp,Orange.png,2,Negative,Incongruent,0,0,0,0,,,,,,,,,,,,,,,,,0,32,32,32,,,,,,,,,,,,,,,,,,,,,,,,,,,,,,,,,,,,,,,,,,,,,,,,,,,,,,,,,,,,,,,,,,,,,,,,,,,,,,,,,1.2314814726511638,0.8343523000366986,450.07008079998195,None,ScrollDown,정답입니다,450.07008079998195,None,450.07008079998195,None,450.07008079998195,None,450.07008079998195,None,450.7800866999896,None,450.7800866999896,451.2912066000281,,,,,,,,,,,,,,,,121,2022-05-09_09h21.06.383,FishGame,2022.1.1,59.940790482904234,
,34,나를 데려가줘,6,Green,B,0,0,ScrollDown,ScrollUp,Green.png,2,NonTarget,NonTarget,0,0,0,0,,,,,,,,,,,,,,,,,0,33,33,33,,,,,,,,,,,,,,,,,,,,,,,,,,,,,,,,,,,,,,,,,,,,,,,,,,,,,,,,,,,,,,,,,,,,,,,,,,,,,,,,,1,0.999276400078088,451.9230374000035,None,ScrollDown,정답입니다,451.9230374000035,None,451.9230374000035,None,451.9230374000035,None,451.9230374000035,None,452.8124683999922,None,452.8124683999922,453.3249588999897,,,,,,,,,,,,,,,,121,2022-05-09_09h21.06.383,FishGame,2022.1.1,59.940790482904234,
,35,넌 편파적이야,5,Green,B,2.125,2,ScrollUp,ScrollDown,Green.png,2,Negative,Congruent,0,0,0,0,,,,,,,,,,,,,,,,,0,34,34,34,,,,,,,,,,,,,,,,,,,,,,,,,,,,,,,,,,,,,,,,,,,,,,,,,,,,,,,,,,,,,,,,,,,,,,,,,,,,,,,,,1.9089506218830745,0.8500967998988926,453.96084920002613,None,ScrollUp,정답입니다,453.96084920002613,None,453.96084920002613,None,453.96084920002613,None,453.96084920002613,None,454.6960836999351,None,454.6960836999351,455.2079020999372,,,,,,,,,,,,,,,,121,2022-05-09_09h21.06.383,FishGame,2022.1.1,59.940790482904234,
,36,넌 슬퍼,4,Orange,A,2.583333333333333,3.066666666666667,ScrollDown,ScrollUp,Orange.png,2,Negative,Incongruent,0,0,0,0,,,,,,,,,,,,,,,,,0,35,35,35,,,,,,,,,,,,,,,,,,,,,,,,,,,,,,,,,,,,,,,,,,,,,,,,,,,,,,,,,,,,,,,,,,,,,,,,,,,,,,,,,1.2098765522241592,0.7669495999580249,455.8424100999255,None,ScrollDown,정답입니다,455.8424100999255,None,455.8424100999255,None,455.8424100999255,None,455.8424100999255,None,456.4961131999735,None,456.4961131999735,457.00834509998094,,,,,,,,,,,,,,,,121,2022-05-09_09h21.06.383,FishGame,2022.1.1,59.940790482904234,
,37,나를 데려가줘,6,Green,B,0,0,ScrollDown,ScrollUp,Green.png,2,NonTarget,NonTarget,0,0,0,0,,,,,,,,,,,,,,,,,0,36,36,36,,,,,,,,,,,,,,,,,,,,,,,,,,,,,,,,,,,,,,,,,,,,,,,,,,,,,,,,,,,,,,,,,,,,,,,,,,,,,,,,,1.253086417913437,0.9208989000180736,457.648391900002,None,ScrollDown,정답입니다,457.648391900002,None,457.648391900002,None,457.648391900002,None,457.648391900002,None,458.4577333999332,None,458.4577333999332,458.9577428000048,,,,,,,,,,,,,,,,121,2022-05-09_09h21.06.383,FishGame,2022.1.1,59.940790482904234,
,38,넌 친절해,1,Green,B,6.041666666666667,5.533333333333333,ScrollUp,ScrollDown,Green.png,2,Positive,Incongruent,0,0,0,0,,,,,,,,,,,,,,,,,0,37,37,37,,,,,,,,,,,,,,,,,,,,,,,,,,,,,,,,,,,,,,,,,,,,,,,,,,,,,,,,,,,,,,,,,,,,,,,,,,,,,,,,,1.7500000099341075,0.9662431000033394,459.6019078999525,None,ScrollUp,정답입니다,459.6019078999525,None,459.6019078999525,None,459.6019078999525,None,459.6019078999525,None,460.4461773999501,None,460.4461773999501,460.9581129999133,,,,,,,,,,,,,,,,121,2022-05-09_09h21.06.383,FishGame,2022.1.1,59.940790482904234,
,1,넌 엉성해,4,Orange,A,3,3.3,ScrollDown,ScrollUp,Orange.png,3,Negative,Incongruent,0,0,0,0,,,,,,,,,,,,,,,,,,,,,0,0,0,0,,,,,,,,,,,,,,,,,,,,,,,,,,,,,,,,,,,,492.3761495000217,493.8759938000003,493.9095003999537,494.85931670002174,494.90917919995263,495.8589152999921,495.8589152999921,None,,,,,,,,,,,,,,,,,,,,,,,,,,,,,,,,,,1.09413580596447,1.1135905000846833,497.0308256999124,None,ScrollDown,정답입니다,497.0308256999124,None,497.0308256999124,None,497.0308256999124,None,497.0308256999124,None,497.9639591999585,None,497.9639591999585,498.4758705999702,461.45906749996357,None,461.45906749996357,None,-0.32314816,-0.17037037,1,0,0,0.016220769961364567,None,491.458739799913,None,,,121,2022-05-09_09h21.06.383,FishGame,2022.1.1,59.940790482904234,
,2,나를 보내줘,6,Orange,A,0,0,ScrollUp,ScrollDown,Orange.png,3,NonTarget,NonTarget,0,0,0,0,,,,,,,,,,,,,,,,,,,,,0,1,1,1,,,,,,,,,,,,,,,,,,,,,,,,,,,,,,,,,,,,,,,,,,,,,,,,,,,,,,,,,,,,,,,,,,,,,,,,,,,,,1.6882716019948325,0.8850953999208286,499.11260629992466,None,ScrollUp,정답입니다,499.11260629992466,None,499.11260629992466,None,499.11260629992466,None,499.11260629992466,None,499.8885343999136,None,499.8885343999136,500.3922385999467,,,,,,,,,,,,,,,,121,2022-05-09_09h21.06.383,FishGame,2022.1.1,59.940790482904234,
,3,넌 활발해,1,Green,B,5.666666666666667,5.6,ScrollUp,ScrollDown,Green.png,3,Positive,Incongruent,0,0,0,0,,,,,,,,,,,,,,,,,,,,,0,2,2,2,,,,,,,,,,,,,,,,,,,,,,,,,,,,,,,,,,,,,,,,,,,,,,,,,,,,,,,,,,,,,,,,,,,,,,,,,,,,,1.9367283980051677,0.8555057999910787,501.0321811999893,None,ScrollUp,정답입니다,501.0321811999893,None,501.0321811999893,None,501.0321811999893,None,501.0321811999893,None,501.7756625999464,None,501.7756625999464,502.27557179995347,,,,,,,,,,,,,,,,121,2022-05-09_09h21.06.383,FishGame,2022.1.1,59.940790482904234,
,4,넌 논리적이야,2,Orange,A,5.666666666666666,4.633333333333334,ScrollDown,ScrollUp,Orange.png,3,Positive,Congruent,0,0,0,0,,,,,,,,,,,,,,,,,,,,,0,3,3,3,,,,,,,,,,,,,,,,,,,,,,,,,,,,,,,,,,,,,,,,,,,,,,,,,,,,,,,,,,,,,,,,,,,,,,,,,,,,,1.2577160596847534,0.8742434999439865,502.92223679996096,None,ScrollDown,정답입니다,502.92223679996096,None,502.92223679996096,None,502.92223679996096,None,502.92223679996096,None,503.6753634000197,None,503.6753634000197,504.17576249991544,,,,,,,,,,,,,,,,121,2022-05-09_09h21.06.383,FishGame,2022.1.1,59.940790482904234,
,5,넌 과묵해,3,Orange,A,3.875,4.4,ScrollDown,ScrollUp,Orange.png,3,Neutral,Neutral,0,0,0,0,,,,,,,,,,,,,,,,,,,,,0,4,4,4,,,,,,,,,,,,,,,,,,,,,,,,,,,,,,,,,,,,,,,,,,,,,,,,,,,,,,,,,,,,,,,,,,,,,,,,,,,,,1.2222222139437993,0.8510915000224486,504.81363360001706,None,ScrollDown,정답입니다,504.81363360001706,None,504.81363360001706,None,504.81363360001706,None,504.81363360001706,None,505.54730570001993,None,505.54730570001993,506.059485899983,,,,,,,,,,,,,,,,121,2022-05-09_09h21.06.383,FishGame,2022.1.1,59.940790482904234,
,6,나를 데려가줘,6,Green,B,0,0,ScrollDown,ScrollUp,Green.png,3,NonTarget,NonTarget,0,0,0,0,,,,,,,,,,,,,,,,,,,,,0,5,5,5,,,,,,,,,,,,,,,,,,,,,,,,,,,,,,,,,,,,,,,,,,,,,,,,,,,,,,,,,,,,,,,,,,,,,,,,,,,,,1.0061728358268738,0.9326854000100866,506.6903645999264,None,ScrollDown,정답입니다,506.6903645999264,None,506.6903645999264,None,506.6903645999264,None,506.6903645999264,None,507.51393379992805,None,507.51393379992805,508.0261098999763,,,,,,,,,,,,,,,,121,2022-05-09_09h21.06.383,FishGame,2022.1.1,59.940790482904234,
,7,넌 미숙해,4,Green,B,3,3,ScrollUp,ScrollDown,Green.png,3,Negative,Congruent,0,0,0,0,,,,,,,,,,,,,,,,,,,,,0,6,6,6,,,,,,,,,,,,,,,,,,,,,,,,,,,,,,,,,,,,,,,,,,,,,,,,,,,,,,,,,,,,,,,,,,,,,,,,,,,,,1.939814825852712,0.8825380000052974,508.6572426999919,None,ScrollUp,정답입니다,508.6572426999919,None,508.6572426999919,None,508.6572426999919,None,508.6572426999919,None,509.4305329999188,None,509.4305329999188,509.94255639996845,,,,,,,,,,,,,,,,121,2022-05-09_09h21.06.383,FishGame,2022.1.1,59.940790482904234,
,8,나를 보내줘,6,Orange,A,0,0,ScrollUp,ScrollDown,Orange.png,3,NonTarget,NonTarget,0,0,0,0,,,,,,,,,,,,,,,,,,,,,0,7,7,7,,,,,,,,,,,,,,,,,,,,,,,,,,,,,,,,,,,,,,,,,,,,,,,,,,,,,,,,,,,,,,,,,,,,,,,,,,,,,1.6959876591960588,0.9681993999984115,510.57894139993005,None,ScrollUp,정답입니다,510.57894139993005,None,510.57894139993005,None,510.57894139993005,None,510.57894139993005,None,511.43293359992094,None,511.43293359992094,511.9425430999836,,,,,,,,,,,,,,,,121,2022-05-09_09h21.06.383,FishGame,2022.1.1,59.940790482904234,
,9,넌 자신만만해,3,Green,B,4.833333333333334,4.333333333333333,ScrollUp,ScrollDown,Green.png,3,Neutral,Neutral,0,0,0,0,,,,,,,,,,,,,,,,,,,,,0,8,8,8,,,,,,,,,,,,,,,,,,,,,,,,,,,,,,,,,,,,,,,,,,,,,,,,,,,,,,,,,,,,,,,,,,,,,,,,,,,,,1.7932098756233852,0.9694106000242755,512.5811842000112,None,ScrollUp,정답입니다,512.5811842000112,None,512.5811842000112,None,512.5811842000112,None,512.5811842000112,None,513.4392188999336,None,513.4392188999336,513.9423906999873,,,,,,,,,,,,,,,,121,2022-05-09_09h21.06.383,FishGame,2022.1.1,59.940790482904234,
,10,넌 탐욕스러워,5,Orange,A,2.25,2.1,ScrollDown,ScrollUp,Orange.png,3,Negative,Incongruent,0,0,0,0,,,,,,,,,,,,,,,,,,,,,0,9,9,9,,,,,,,,,,,,,,,,,,,,,,,,,,,,,,,,,,,,,,,,,,,,,,,,,,,,,,,,,,,,,,,,,,,,,,,,,,,,,1.10030863682429,0.900648899958469,514.5912181999302,None,ScrollDown,정답입니다,514.5912181999302,None,514.5912181999302,None,514.5912181999302,None,514.5912181999302,None,515.3650661999127,None,515.3650661999127,515.8757909999695,,,,,,,,,,,,,,,,121,2022-05-09_09h21.06.383,FishGame,2022.1.1,59.940790482904234,
,11,넌 인기있어,2,Orange,A,5.458333333333333,4.5,ScrollDown,ScrollUp,Orange.png,3,Positive,Congruent,0,0,0,0,,,,,,,,,,,,,,,,,,,,,0,10,10,10,,,,,,,,,,,,,,,,,,,,,,,,,,,,,,,,,,,,,,,,,,,,,,,,,,,,,,,,,,,,,,,,,,,,,,,,,,,,,1.1959876517454784,0.893940299982205,516.5129778999835,None,ScrollDown,정답입니다,516.5129778999835,None,516.5129778999835,None,516.5129778999835,None,516.5129778999835,None,517.2922810999444,None,517.2922810999444,517.7931381999515,,,,,,,,,,,,,,,,121,2022-05-09_09h21.06.383,FishGame,2022.1.1,59.940790482904234,
,12,나를 데려가줘,6,Green,B,0,0,ScrollDown,ScrollUp,Green.png,3,NonTarget,NonTarget,0,0,0,0,,,,,,,,,,,,,,,,,,,,,0,11,11,11,,,,,,,,,,,,,,,,,,,,,,,,,,,,,,,,,,,,,,,,,,,,,,,,,,,,,,,,,,,,,,,,,,,,,,,,,,,,,1.180555562178294,0.9552685000235215,518.4371076999232,None,ScrollDown,정답입니다,518.4371076999232,None,518.4371076999232,None,518.4371076999232,None,518.4371076999232,None,519.2760079000145,None,519.2760079000145,519.7762884999393,,,,,,,,,,,,,,,,121,2022-05-09_09h21.06.383,FishGame,2022.1.1,59.940790482904234,
,13,넌 뛰어나,2,Green,B,6.166666666666667,4,ScrollUp,ScrollDown,Green.png,3,Positive,Incongruent,0,0,0,0,,,,,,,,,,,,,,,,,,,,,0,12,12,12,,,,,,,,,,,,,,,,,,,,,,,,,,,,,,,,,,,,,,,,,,,,,,,,,,,,,,,,,,,,,,,,,,,,,,,,,,,,,1.6651234552264214,0.9505152000347152,520.4216459000017,None,ScrollUp,정답입니다,520.4216459000017,None,520.4216459000017,None,520.4216459000017,None,520.4216459000017,None,521.2471902000252,None,521.2471902000252,521.7600081999553,,,,,,,,,,,,,,,,121,2022-05-09_09h21.06.383,FishGame,2022.1.1,59.940790482904234,
,14,넌 낙관적이야,1,Orange,A,5.75,5.8,ScrollDown,ScrollUp,Orange.png,3,Positive,Congruent,0,0,0,0,,,,,,,,,,,,,,,,,,,,,0,13,13,13,,,,,,,,,,,,,,,,,,,,,,,,,,,,,,,,,,,,,,,,,,,,,,,,,,,,,,,,,,,,,,,,,,,,,,,,,,,,,1.3842592537403107,0.7787386999698356,522.4013415999943,None,ScrollDown,정답입니다,522.4013415999943,None,522.4013415999943,None,522.4013415999943,None,522.4013415999943,None,523.0638237999519,None,523.0638237999519,523.5763029999798,,,,,,,,,,,,,,,,121,2022-05-09_09h21.06.383,FishGame,2022.1.1,59.940790482904234,
,15,넌 산만해,4,Green,B,2.695652173913043,3.033333333333333,ScrollUp,ScrollDown,Green.png,3,Negative,Congruent,0,0,0,0,,,,,,,,,,,,,,,,,,,,,0,14,14,14,,,,,,,,,,,,,,,,,,,,,,,,,,,,,,,,,,,,,,,,,,,,,,,,,,,,,,,,,,,,,,,,,,,,,,,,,,,,,1.8163580348094304,0.8352797999978065,524.2121066999389,None,ScrollUp,정답입니다,524.2121066999389,None,524.2121066999389,None,524.2121066999389,None,524.2121066999389,None,524.939434299944,None,524.939434299944,525.443166699959,,,,,,,,,,,,,,,,121,2022-05-09_09h21.06.383,FishGame,2022.1.1,59.940790482904234,
,16,나를 보내줘,6,Orange,A,0,0,ScrollUp,ScrollDown,Orange.png,3,NonTarget,NonTarget,0,0,0,0,,,,,,,,,,,,,,,,,,,,,0,15,15,15,,,,,,,,,,,,,,,,,,,,,,,,,,,,,,,,,,,,,,,,,,,,,,,,,,,,,,,,,,,,,,,,,,,,,,,,,,,,,1.8086419651905696,0.8766672000056133,526.0784508999204,None,ScrollUp,정답입니다,526.0784508999204,None,526.0784508999204,None,526.0784508999204,None,526.0784508999204,None,526.8429739999119,None,526.8429739999119,527.3432472000131,,,,,,,,,,,,,,,,121,2022-05-09_09h21.06.383,FishGame,2022.1.1,59.940790482904234,
,17,넌 교활해,5,Green,B,2.333333333333333,2.133333333333333,ScrollUp,ScrollDown,Green.png,3,Negative,Congruent,0,0,0,0,,,,,,,,,,,,,,,,,,,,,0,16,16,16,,,,,,,,,,,,,,,,,,,,,,,,,,,,,,,,,,,,,,,,,,,,,,,,,,,,,,,,,,,,,,,,,,,,,,,,,,,,,1.594135800997416,0.9234717000508681,527.9764739000238,None,ScrollUp,정답입니다,527.9764739000238,None,527.9764739000238,None,527.9764739000238,None,527.9764739000238,None,528.7932308999589,None,528.7932308999589,529.2926837999839,,,,,,,,,,,,,,,,121,2022-05-09_09h21.06.383,FishGame,2022.1.1,59.940790482904234,
,18,나를 보내줘,6,Orange,A,0,0,ScrollUp,ScrollDown,Orange.png,3,NonTarget,NonTarget,0,0,0,0,,,,,,,,,,,,,,,,,,,,,0,17,17,17,,,,,,,,,,,,,,,,,,,,,,,,,,,,,,,,,,,,,,,,,,,,,,,,,,,,,,,,,,,,,,,,,,,,,,,,,,,,,1.7824074029922485,0.8914520000107586,529.9298146999208,None,ScrollUp,정답입니다,529.9298146999208,None,529.9298146999208,None,529.9298146999208,None,529.9298146999208,None,530.7094314999413,None,530.7094314999413,531.209669600008,,,,,,,,,,,,,,,,121,2022-05-09_09h21.06.383,FishGame,2022.1.1,59.940790482904234,
,19,넌 불친절해,5,Green,B,2.208333333333333,2.033333333333333,ScrollUp,ScrollDown,Green.png,3,Negative,Congruent,0,0,0,0,,,,,,,,,,,,,,,,,,,,,0,18,18,18,,,,,,,,,,,,,,,,,,,,,,,,,,,,,,,,,,,,,,,,,,,,,,,,,,,,,,,,,,,,,,,,,,,,,,,,,,,,,2,1.5087484000250697,531.8499955999432,None,ScrollUp,정답입니다,531.8499955999432,None,531.8499955999432,None,531.8499955999432,None,531.8499955999432,None,533.2430340999272,None,533.2430340999272,533.7431696000276,,,,,,,,,,,,,,,,121,2022-05-09_09h21.06.383,FishGame,2022.1.1,59.940790482904234,
,20,넌 지적이야,2,Green,B,5.75,4.366666666666666,ScrollUp,ScrollDown,Green.png,3,Positive,Incongruent,0,0,0,0,,,,,,,,,,,,,,,,,,,,,0,19,19,19,,,,,,,,,,,,,,,,,,,,,,,,,,,,,,,,,,,,,,,,,,,,,,,,,,,,,,,,,,,,,,,,,,,,,,,,,,,,,1.8533950696388881,0.8257878000149503,534.3742520000087,None,ScrollUp,정답입니다,534.3742520000087,None,534.3742520000087,None,534.3742520000087,None,534.3742520000087,None,535.0932863999624,None,535.0932863999624,535.5935471999692,,,,,,,,,,,,,,,,121,2022-05-09_09h21.06.383,FishGame,2022.1.1,59.940790482904234,
,21,넌 우유부단해,4,Orange,A,2.666666666666667,3.166666666666667,ScrollDown,ScrollUp,Orange.png,3,Negative,Incongruent,0,0,0,0,,,,,,,,,,,,,,,,,,,,,0,20,20,20,,,,,,,,,,,,,,,,,,,,,,,,,,,,,,,,,,,,,,,,,,,,,,,,,,,,,,,,,,,,,,,,,,,,,,,,,,,,,1.0432098706563313,1.239565100055188,536.2401853000047,None,ScrollDown,정답입니다,536.2401853000047,None,536.2401853000047,None,536.2401853000047,None,536.2401853000047,None,537.3596768999705,None,537.3596768999705,537.8603344999719,,,,,,,,,,,,,,,,121,2022-05-09_09h21.06.383,FishGame,2022.1.1,59.940790482904234,
,22,나를 데려가줘,6,Green,B,0,0,ScrollDown,ScrollUp,Green.png,3,NonTarget,NonTarget,0,0,0,0,,,,,,,,,,,,,,,,,,,,,0,21,21,21,,,,,,,,,,,,,,,,,,,,,,,,,,,,,,,,,,,,,,,,,,,,,,,,,,,,,,,,,,,,,,,,,,,,,,,,,,,,,1.1682098756233852,1.0065931000281125,538.5053288999479,None,ScrollDown,정답입니다,538.5053288999479,None,538.5053288999479,None,538.5053288999479,None,538.5053288999479,None,539.3929192000069,None,539.3929192000069,539.8930856999941,,,,,,,,,,,,,,,,121,2022-05-09_09h21.06.383,FishGame,2022.1.1,59.940790482904234,
,23,넌 성실해,1,Green,B,6.041666666666666,5.7,ScrollUp,ScrollDown,Green.png,3,Positive,Incongruent,0,0,0,0,,,,,,,,,,,,,,,,,,,,,0,22,22,22,,,,,,,,,,,,,,,,,,,,,,,,,,,,,,,,,,,,,,,,,,,,,,,,,,,,,,,,,,,,,,,,,,,,,,,,,,,,,1.8472222139437993,0.9269886000547558,540.5287975999527,None,ScrollUp,정답입니다,540.5287975999527,None,540.5287975999527,None,540.5287975999527,None,540.5287975999527,None,541.3483836000087,None,541.3483836000087,541.8601208999753,,,,,,,,,,,,,,,,121,2022-05-09_09h21.06.383,FishGame,2022.1.1,59.940790482904234,
,24,넌 현실주의적이야,3,Orange,A,4.625,4.4,ScrollDown,ScrollUp,Orange.png,3,Neutral,Neutral,0,0,0,0,,,,,,,,,,,,,,,,,,,,,0,23,23,23,,,,,,,,,,,,,,,,,,,,,,,,,,,,,,,,,,,,,,,,,,,,,,,,,,,,,,,,,,,,,,,,,,,,,,,,,,,,,1.2268518557151158,0.8909476998960599,542.4993185999338,None,ScrollDown,정답입니다,542.4993185999338,None,542.4993185999338,None,542.4993185999338,None,542.4993185999338,None,543.2762726999354,None,543.2762726999354,543.776594899944,,,,,,,,,,,,,,,,121,2022-05-09_09h21.06.383,FishGame,2022.1.1,59.940790482904234,
,25,넌 진실돼,1,Orange,A,6.625,5.566666666666666,ScrollDown,ScrollUp,Orange.png,3,Positive,Congruent,0,0,0,0,,,,,,,,,,,,,,,,,,,,,0,24,24,24,,,,,,,,,,,,,,,,,,,,,,,,,,,,,,,,,,,,,,,,,,,,,,,,,,,,,,,,,,,,,,,,,,,,,,,,,,,,,1.1080246816078823,0.8551425999030471,544.4214381999336,None,ScrollDown,정답입니다,544.4214381999336,None,544.4214381999336,None,544.4214381999336,None,544.4214381999336,None,545.1595127999317,None,545.1595127999317,545.6601237999275,,,,,,,,,,,,,,,,121,2022-05-09_09h21.06.383,FishGame,2022.1.1,59.940790482904234,
,26,넌 천진난만해,3,Green,B,4.958333333333334,4.833333333333333,ScrollUp,ScrollDown,Green.png,3,Neutral,Neutral,0,0,0,0,,,,,,,,,,,,,,,,,,,,,0,25,25,25,,,,,,,,,,,,,,,,,,,,,,,,,,,,,,,,,,,,,,,,,,,,,,,,,,,,,,,,,,,,,,,,,,,,,,,,,,,,,1.6959876591960588,0.8581922999583185,546.2999400999397,None,ScrollUp,정답입니다,546.2999400999397,None,546.2999400999397,None,546.2999400999397,None,546.2999400999397,None,547.0434068000177,None,547.0434068000177,547.5437124000164,,,,,,,,,,,,,,,,121,2022-05-09_09h21.06.383,FishGame,2022.1.1,59.940790482904234,
,27,넌 교양없어,5,Orange,A,2.416666666666667,2.2,ScrollDown,ScrollUp,Orange.png,3,Negative,Incongruent,0,0,0,0,,,,,,,,,,,,,,,,,,,,,0,26,26,26,,,,,,,,,,,,,,,,,,,,,,,,,,,,,,,,,,,,,,,,,,,,,,,,,,,,,,,,,,,,,,,,,,,,,,,,,,,,,1.2638888905445733,0.9347019999986514,548.1869114999427,None,ScrollDown,정답입니다,548.1869114999427,None,548.1869114999427,None,548.1869114999427,None,548.1869114999427,None,549.0068958000047,None,549.0068958000047,549.510497399955,,,,,,,,,,,,,,,,121,2022-05-09_09h21.06.383,FishGame,2022.1.1,59.940790482904234,
,28,나를 보내줘,6,Orange,A,0,0,ScrollUp,ScrollDown,Orange.png,3,NonTarget,NonTarget,0,0,0,0,,,,,,,,,,,,,,,,,,,,,0,27,27,27,,,,,,,,,,,,,,,,,,,,,,,,,,,,,,,,,,,,,,,,,,,,,,,,,,,,,,,,,,,,,,,,,,,,,,,,,,,,,2,0.9692532999906689,550.1461830999469,None,ScrollUp,정답입니다,550.1461830999469,None,550.1461830999469,None,550.1461830999469,None,550.1461830999469,None,551.0065944999224,None,551.0065944999224,551.5102898000041,,,,,,,,,,,,,,,,121,2022-05-09_09h21.06.383,FishGame,2022.1.1,59.940790482904234,
,29,넌 엉뚱스러워,3,Orange,A,4.166666666666667,4.133333333333334,ScrollDown,ScrollUp,Orange.png,3,Neutral,Neutral,0,0,0,0,,,,,,,,,,,,,,,,,,,,,0,28,28,28,,,,,,,,,,,,,,,,,,,,,,,,,,,,,,,,,,,,,,,,,,,,,,,,,,,,,,,,,,,,,,,,,,,,,,,,,,,,,1.3518518482645354,1.0003946999786422,552.157068499946,None,ScrollDown,정답입니다,552.157068499946,None,552.157068499946,None,552.157068499946,None,552.157068499946,None,553.0314501000103,None,553.0314501000103,553.5434884999413,,,,,,,,,,,,,,,,121,2022-05-09_09h21.06.383,FishGame,2022.1.1,59.940790482904234,
,30,넌 무지해,4,Green,B,2.541666666666667,3.066666666666667,ScrollUp,ScrollDown,Green.png,3,Negative,Congruent,0,0,0,0,,,,,,,,,,,,,,,,,,,,,0,29,29,29,,,,,,,,,,,,,,,,,,,,,,,,,,,,,,,,,,,,,,,,,,,,,,,,,,,,,,,,,,,,,,,,,,,,,,,,,,,,,1.8240740795930226,0.8616455000592396,554.2083611999406,None,ScrollUp,정답입니다,554.2083611999406,None,554.2083611999406,None,554.2083611999406,None,554.2083611999406,None,554.9317092999117,None,554.9317092999117,555.4436097999569,,,,,,,,,,,,,,,,121,2022-05-09_09h21.06.383,FishGame,2022.1.1,59.940790482904234,
,31,넌 음울해,5,Green,B,2.25,2.233333333333333,ScrollUp,ScrollDown,Green.png,3,Negative,Congruent,0,0,0,0,,,,,,,,,,,,,,,,,,,,,0,30,30,30,,,,,,,,,,,,,,,,,,,,,,,,,,,,,,,,,,,,,,,,,,,,,,,,,,,,,,,,,,,,,,,,,,,,,,,,,,,,,2,0.8315549999242648,556.078178399941,None,ScrollUp,정답입니다,556.078178399941,None,556.078178399941,None,556.078178399941,None,556.078178399941,None,556.7982772999676,None,556.7982772999676,557.3104062000057,,,,,,,,,,,,,,,,121,2022-05-09_09h21.06.383,FishGame,2022.1.1,59.940790482904234,
,32,넌 냉소적이야,5,Orange,A,2.916666666666667,2.4,ScrollDown,ScrollUp,Orange.png,3,Negative,Incongruent,0,0,0,0,,,,,,,,,,,,,,,,,,,,,0,31,31,31,,,,,,,,,,,,,,,,,,,,,,,,,,,,,,,,,,,,,,,,,,,,,,,,,,,,,,,,,,,,,,,,,,,,,,,,,,,,,1.040123442808787,1.0431400999659672,557.9460285999812,None,ScrollDown,정답입니다,557.9460285999812,None,557.9460285999812,None,557.9460285999812,None,557.9460285999812,None,558.8766019999748,None,558.8766019999748,559.3774299999932,,,,,,,,,,,,,,,,121,2022-05-09_09h21.06.383,FishGame,2022.1.1,59.940790482904234,
,33,나를 데려가줘,6,Green,B,0,0,ScrollDown,ScrollUp,Green.png,3,NonTarget,NonTarget,0,0,0,0,,,,,,,,,,,,,,,,,,,,,0,32,32,32,,,,,,,,,,,,,,,,,,,,,,,,,,,,,,,,,,,,,,,,,,,,,,,,,,,,,,,,,,,,,,,,,,,,,,,,,,,,,1.3518518482645354,0.8675823999801651,560.0083021000028,None,ScrollDown,정답입니다,560.0083021000028,None,560.0083021000028,None,560.0083021000028,None,560.0083021000028,None,560.7734880999196,None,560.7734880999196,561.2771358999889,,,,,,,,,,,,,,,,121,2022-05-09_09h21.06.383,FishGame,2022.1.1,59.940790482904234,
,34,넌 쾌활해,1,Orange,A,5.541666666666666,5.733333333333333,ScrollDown,ScrollUp,Orange.png,3,Positive,Congruent,0,0,0,0,,,,,,,,,,,,,,,,,,,,,0,33,33,33,,,,,,,,,,,,,,,,,,,,,,,,,,,,,,,,,,,,,,,,,,,,,,,,,,,,,,,,,,,,,,,,,,,,,,,,,,,,,1.1836419651905696,0.7983409999869764,561.9156987000024,None,ScrollDown,정답입니다,561.9156987000024,None,561.9156987000024,None,561.9156987000024,None,561.9156987000024,None,562.5989674999146,None,562.5989674999146,563.1107797999866,,,,,,,,,,,,,,,,121,2022-05-09_09h21.06.383,FishGame,2022.1.1,59.940790482904234,
,35,나를 보내줘,6,Orange,A,0,0,ScrollUp,ScrollDown,Orange.png,3,NonTarget,NonTarget,0,0,0,0,,,,,,,,,,,,,,,,,,,,,0,34,34,34,,,,,,,,,,,,,,,,,,,,,,,,,,,,,,,,,,,,,,,,,,,,,,,,,,,,,,,,,,,,,,,,,,,,,,,,,,,,,1.6018518519898257,0.8605735000455752,563.7606225999771,None,ScrollUp,정답입니다,563.7606225999771,None,563.7606225999771,None,563.7606225999771,None,563.7606225999771,None,564.4984681999777,None,564.4984681999777,565.0111126999836,,,,,,,,,,,,,,,,121,2022-05-09_09h21.06.383,FishGame,2022.1.1,59.940790482904234,
,36,넌 명랑해,1,Green,B,5.739130434782609,5.666666666666667,ScrollUp,ScrollDown,Green.png,3,Positive,Incongruent,0,0,0,0,,,,,,,,,,,,,,,,,,,,,0,35,35,35,,,,,,,,,,,,,,,,,,,,,,,,,,,,,,,,,,,,,,,,,,,,,,,,,,,,,,,,,,,,,,,,,,,,,,,,,,,,,1.6805555572112403,0.9262366000330076,565.6524916000199,None,ScrollUp,정답입니다,565.6524916000199,None,565.6524916000199,None,565.6524916000199,None,565.6524916000199,None,566.460252800025,None,566.460252800025,566.9603974999627,,,,,,,,,,,,,,,,121,2022-05-09_09h21.06.383,FishGame,2022.1.1,59.940790482904234,
,37,넌 멍해,4,Orange,A,2.833333333333333,3.4,ScrollDown,ScrollUp,Orange.png,3,Negative,Incongruent,0,0,0,0,,,,,,,,,,,,,,,,,,,,,0,36,36,36,,,,,,,,,,,,,,,,,,,,,,,,,,,,,,,,,,,,,,,,,,,,,,,,,,,,,,,,,,,,,,,,,,,,,,,,,,,,,1.1959876517454784,0.8594814999960363,567.5993611000013,None,ScrollDown,정답입니다,567.5993611000013,None,567.5993611000013,None,567.5993611000013,None,567.5993611000013,None,568.3434225999517,None,568.3434225999517,568.8441710999468,,,,,,,,,,,,,,,,121,2022-05-09_09h21.06.383,FishGame,2022.1.1,59.940790482904234,
,38,나를 데려가줘,6,Green,B,0,0,ScrollDown,ScrollUp,Green.png,3,NonTarget,NonTarget,0,0,0,0,,,,,,,,,,,,,,,,,,,,,0,37,37,37,,,,,,,,,,,,,,,,,,,,,,,,,,,,,,,,,,,,,,,,,,,,,,,,,,,,,,,,,,,,,,,,,,,,,,,,,,,,,1.2160493830839794,0.8419951000250876,569.4770070000086,None,ScrollDown,정답입니다,569.4770070000086,None,569.4770070000086,None,569.4770070000086,None,569.4770070000086,None,570.2102362000151,None,570.2102362000151,570.7108880999731,,,,,,,,,,,,,,,,121,2022-05-09_09h21.06.383,FishGame,2022.1.1,59.940790482904234,
,39,넌 현명해,2,Orange,A,6.541666666666666,4.533333333333333,ScrollDown,ScrollUp,Orange.png,3,Positive,Congruent,0,0,0,0,,,,,,,,,,,,,,,,,,,,,0,38,38,38,,,,,,,,,,,,,,,,,,,,,,,,,,,,,,,,,,,,,,,,,,,,,,,,,,,,,,,,,,,,,,,,,,,,,,,,,,,,,1.2376543283462524,0.8151680999435484,571.3474751999602,None,ScrollDown,정답입니다,571.3474751999602,None,571.3474751999602,None,571.3474751999602,None,571.3474751999602,None,572.0494414999848,None,572.0494414999848,572.5609218999743,,,,,,,,,,,,,,,,121,2022-05-09_09h21.06.383,FishGame,2022.1.1,59.940790482904234,
,40,넌 수줍어,3,Green,B,3.541666666666666,4.366666666666666,ScrollUp,ScrollDown,Green.png,3,Neutral,Neutral,0,0,0,0,,,,,,,,,,,,,,,,,,,,,0,39,39,39,,,,,,,,,,,,,,,,,,,,,,,,,,,,,,,,,,,,,,,,,,,,,,,,,,,,,,,,,,,,,,,,,,,,,,,,,,,,,1.6820987711350122,0.8420740000437945,573.2006719999481,None,ScrollUp,정답입니다,573.2006719999481,None,573.2006719999481,None,573.2006719999481,None,573.2006719999481,None,573.927168599912,None,573.927168599912,574.4275417999597,,,,,,,,,,,,,,,,121,2022-05-09_09h21.06.383,FishGame,2022.1.1,59.940790482904234,
,41,나를 데려가줘,6,Green,B,0,0,ScrollDown,ScrollUp,Green.png,3,NonTarget,NonTarget,0,0,0,0,,,,,,,,,,,,,,,,,,,,,0,40,40,40,,,,,,,,,,,,,,,,,,,,,,,,,,,,,,,,,,,,,,,,,,,,,,,,,,,,,,,,,,,,,,,,,,,,,,,,,,,,,1.0586419602235158,0.8190845999633893,575.0590083999559,None,ScrollDown,정답입니다,575.0590083999559,None,575.0590083999559,None,575.0590083999559,None,575.0590083999559,None,575.7667880000081,None,575.7667880000081,576.2772262999788,,,,,,,,,,,,,,,,121,2022-05-09_09h21.06.383,FishGame,2022.1.1,59.940790482904234,
,42,넌 성숙해,2,Green,B,5.833333333333333,4.533333333333333,ScrollUp,ScrollDown,Green.png,3,Positive,Incongruent,0,0,0,0,,,,,,,,,,,,,,,,,,,,,0,41,41,41,,,,,,,,,,,,,,,,,,,,,,,,,,,,,,,,,,,,,,,,,,,,,,,,,,,,,,,,,,,,,,,,,,,,,,,,,,,,,1.9413580397764842,0.9024079999653623,576.9139246999985,None,ScrollUp,정답입니다,576.9139246999985,None,576.9139246999985,None,576.9139246999985,None,576.9139246999985,None,577.7074018999701,None,577.7074018999701,578.2108289999887,,,,,,,,,,,,,,,,121,2022-05-09_09h21.06.383,FishGame,2022.1.1,59.940790482904234,
,1,넌 매력적이야,2,Green,B,6.125,4.666666666666667,ScrollUp,ScrollDown,Green.png,4,Positive,Incongruent,0,0,0,0,,,,,,,,,,,,,,,,,,,,,,,,,0,0,0,0,,,,,,,,,,,,,,,,,,,,,,,,,,,,,,,,609.7283057000022,611.2283785999753,611.2621504999697,612.2118358999724,612.2617389999796,613.2117719999515,613.2117719999515,None,,,,,,,,,,,,,,,,,,,,,,,,,,,,,,,,,,1.7098765472571054,0.9856574999867007,614.3910769999493,None,ScrollUp,정답입니다,614.3910769999493,None,614.3910769999493,None,614.3910769999493,None,614.3910769999493,None,615.1945742999669,None,615.1945742999669,615.6952841000166,578.7107233999996,None,578.7107233999996,None,-0.37222221,-0.12962963,1,0,0,0.016231370042078197,None,608.711639599991,None,,,121,2022-05-09_09h21.06.383,FishGame,2022.1.1,59.940790482904234,
,2,나를 보내줘,6,Orange,A,0,0,ScrollUp,ScrollDown,Orange.png,4,NonTarget,NonTarget,0,0,0,0,,,,,,,,,,,,,,,,,,,,,,,,,0,1,1,1,,,,,,,,,,,,,,,,,,,,,,,,,,,,,,,,,,,,,,,,,,,,,,,,,,,,,,,,,,,,,,,,,,,,,,,,,1.6450617238879204,0.9158885999349877,616.331638899981,None,ScrollUp,정답입니다,616.331638899981,None,616.331638899981,None,616.331638899981,None,616.331638899981,None,617.133318200009,None,617.133318200009,617.6453028999968,,,,,,,,,,,,,,,,121,2022-05-09_09h21.06.383,FishGame,2022.1.1,59.940790482904234,
,3,넌 조심스러워,3,Orange,A,4.791666666666666,4.666666666666667,ScrollDown,ScrollUp,Orange.png,4,Neutral,Neutral,0,0,0,0,,,,,,,,,,,,,,,,,,,,,,,,,0,2,2,2,,,,,,,,,,,,,,,,,,,,,,,,,,,,,,,,,,,,,,,,,,,,,,,,,,,,,,,,,,,,,,,,,,,,,,,,,1.3117283980051675,0.7917954999720678,618.2855464000022,None,ScrollDown,정답입니다,618.2855464000022,None,618.2855464000022,None,618.2855464000022,None,618.2855464000022,None,618.961453899974,None,618.961453899974,619.4620785999577,,,,,,,,,,,,,,,,121,2022-05-09_09h21.06.383,FishGame,2022.1.1,59.940790482904234,
,4,넌 철학적이야,3,Green,B,4.5,4.266666666666667,ScrollUp,ScrollDown,Green.png,4,Neutral,Neutral,0,0,0,0,,,,,,,,,,,,,,,,,,,,,,,,,0,3,3,3,,,,,,,,,,,,,,,,,,,,,,,,,,,,,,,,,,,,,,,,,,,,,,,,,,,,,,,,,,,,,,,,,,,,,,,,,1.7608024577299755,0.9412926000077277,620.1062540999847,None,ScrollUp,정답입니다,620.1062540999847,None,620.1062540999847,None,620.1062540999847,None,620.1062540999847,None,620.9283976999577,None,620.9283976999577,621.4285663999617,,,,,,,,,,,,,,,,121,2022-05-09_09h21.06.383,FishGame,2022.1.1,59.940790482904234,
,5,넌 쩨쩨해,5,Orange,A,2.375,2.133333333333333,ScrollDown,ScrollUp,Orange.png,4,Negative,Incongruent,0,0,0,0,,,,,,,,,,,,,,,,,,,,,,,,,0,4,4,4,,,,,,,,,,,,,,,,,,,,,,,,,,,,,,,,,,,,,,,,,,,,,,,,,,,,,,,,,,,,,,,,,,,,,,,,,1.2685185074806213,0.8286132999928668,622.0709236999974,None,ScrollDown,정답입니다,622.0709236999974,None,622.0709236999974,None,622.0709236999974,None,622.0709236999974,None,622.7834146999521,None,622.7834146999521,623.2952709000092,,,,,,,,,,,,,,,,121,2022-05-09_09h21.06.383,FishGame,2022.1.1,59.940790482904234,
,6,나를 데려가줘,6,Green,B,0,0,ScrollDown,ScrollUp,Green.png,4,NonTarget,NonTarget,0,0,0,0,,,,,,,,,,,,,,,,,,,,,,,,,0,5,5,5,,,,,,,,,,,,,,,,,,,,,,,,,,,,,,,,,,,,,,,,,,,,,,,,,,,,,,,,,,,,,,,,,,,,,,,,,1.276234577099482,0.8768443000735715,623.9382760999724,None,ScrollDown,정답입니다,623.9382760999724,None,623.9382760999724,None,623.9382760999724,None,623.9382760999724,None,624.6984303999925,None,624.6984303999925,625.212203299976,,,,,,,,,,,,,,,,121,2022-05-09_09h21.06.383,FishGame,2022.1.1,59.940790482904234,
,7,넌 고집불통이야,5,Green,B,2.875,2,ScrollUp,ScrollDown,Green.png,4,Negative,Congruent,0,0,0,0,,,,,,,,,,,,,,,,,,,,,,,,,0,6,6,6,,,,,,,,,,,,,,,,,,,,,,,,,,,,,,,,,,,,,,,,,,,,,,,,,,,,,,,,,,,,,,,,,,,,,,,,,1.5709876542290053,0.8390797000611201,625.8602053999202,None,ScrollUp,정답입니다,625.8602053999202,None,625.8602053999202,None,625.8602053999202,None,625.8602053999202,None,626.5781700999942,None,626.5781700999942,627.078752100002,,,,,,,,,,,,,,,,121,2022-05-09_09h21.06.383,FishGame,2022.1.1,59.940790482904234,
,8,넌 무심해,4,Orange,A,2.875,3.2,ScrollDown,ScrollUp,Orange.png,4,Negative,Incongruent,0,0,0,0,,,,,,,,,,,,,,,,,,,,,,,,,0,7,7,7,,,,,,,,,,,,,,,,,,,,,,,,,,,,,,,,,,,,,,,,,,,,,,,,,,,,,,,,,,,,,,,,,,,,,,,,,1.1527777860562007,1.5080087999813259,627.7268400000175,None,ScrollDown,정답입니다,627.7268400000175,None,627.7268400000175,None,627.7268400000175,None,627.7268400000175,None,629.1115947000217,None,629.1115947000217,629.6118516999995,,,,,,,,,,,,,,,,121,2022-05-09_09h21.06.383,FishGame,2022.1.1,59.940790482904234,
,9,넌 정겨워,1,Orange,A,5.791666666666667,5.666666666666667,ScrollDown,ScrollUp,Orange.png,4,Positive,Congruent,0,0,0,0,,,,,,,,,,,,,,,,,,,,,,,,,0,8,8,8,,,,,,,,,,,,,,,,,,,,,,,,,,,,,,,,,,,,,,,,,,,,,,,,,,,,,,,,,,,,,,,,,,,,,,,,,1.2098765522241592,0.8330760999815539,630.2544383999193,None,ScrollDown,정답입니다,630.2544383999193,None,630.2544383999193,None,630.2544383999193,None,630.2544383999193,None,630.9667052999139,None,630.9667052999139,631.4788713000016,,,,,,,,,,,,,,,,121,2022-05-09_09h21.06.383,FishGame,2022.1.1,59.940790482904234,
,10,나를 데려가줘,6,Green,B,0,0,ScrollDown,ScrollUp,Green.png,4,NonTarget,NonTarget,0,0,0,0,,,,,,,,,,,,,,,,,,,,,,,,,0,9,9,9,,,,,,,,,,,,,,,,,,,,,,,,,,,,,,,,,,,,,,,,,,,,,,,,,,,,,,,,,,,,,,,,,,,,,,,,,1.2206790000200272,0.9368811999447644,632.112063299981,None,ScrollDown,정답입니다,632.112063299981,None,632.112063299981,None,632.112063299981,None,632.112063299981,None,632.9418669999577,None,632.9418669999577,633.445597999962,,,,,,,,,,,,,,,,121,2022-05-09_09h21.06.383,FishGame,2022.1.1,59.940790482904234,
,11,넌 체제순응적이야,4,Green,B,3,3.6,ScrollUp,ScrollDown,Green.png,4,Negative,Congruent,0,0,0,0,,,,,,,,,,,,,,,,,,,,,,,,,0,10,10,10,,,,,,,,,,,,,,,,,,,,,,,,,,,,,,,,,,,,,,,,,,,,,,,,,,,,,,,,,,,,,,,,,,,,,,,,,1.9212963084379833,0.8388870999915525,634.1015382999321,None,ScrollUp,정답입니다,634.1015382999321,None,634.1015382999321,None,634.1015382999321,None,634.1015382999321,None,634.8116990999551,None,634.8116990999551,635.3122476999415,,,,,,,,,,,,,,,,121,2022-05-09_09h21.06.383,FishGame,2022.1.1,59.940790482904234,
,12,나를 보내줘,6,Orange,A,0,0,ScrollUp,ScrollDown,Orange.png,4,NonTarget,NonTarget,0,0,0,0,,,,,,,,,,,,,,,,,,,,,,,,,0,11,11,11,,,,,,,,,,,,,,,,,,,,,,,,,,,,,,,,,,,,,,,,,,,,,,,,,,,,,,,,,,,,,,,,,,,,,,,,,1.6929012313485146,0.8354721999494359,635.9526032999856,None,ScrollUp,정답입니다,635.9526032999856,None,635.9526032999856,None,635.9526032999856,None,635.9526032999856,None,636.6678434999194,None,636.6678434999194,637.1788943000138,,,,,,,,,,,,,,,,121,2022-05-09_09h21.06.383,FishGame,2022.1.1,59.940790482904234,
,13,넌 박식해,2,Orange,A,5.625,3.933333333333333,ScrollDown,ScrollUp,Orange.png,4,Positive,Congruent,0,0,0,0,,,,,,,,,,,,,,,,,,,,,,,,,0,12,12,12,,,,,,,,,,,,,,,,,,,,,,,,,,,,,,,,,,,,,,,,,,,,,,,,,,,,,,,,,,,,,,,,,,,,,,,,,1.2932098805904388,0.7832336999708787,637.8288052999415,None,ScrollDown,정답입니다,637.8288052999415,None,637.8288052999415,None,637.8288052999415,None,637.8288052999415,None,638.4845317999134,None,638.4845317999134,638.995522400015,,,,,,,,,,,,,,,,121,2022-05-09_09h21.06.383,FishGame,2022.1.1,59.940790482904234,
,14,나를 보내줘,6,Orange,A,0,0,ScrollUp,ScrollDown,Orange.png,4,NonTarget,NonTarget,0,0,0,0,,,,,,,,,,,,,,,,,,,,,,,,,0,13,13,13,,,,,,,,,,,,,,,,,,,,,,,,,,,,,,,,,,,,,,,,,,,,,,,,,,,,,,,,,,,,,,,,,,,,,,,,,1.8425925970077515,0.9228536000009626,639.6292475999799,None,ScrollUp,정답입니다,639.6292475999799,None,639.6292475999799,None,639.6292475999799,None,639.6292475999799,None,640.4450770999538,None,640.4450770999538,640.9456604999723,,,,,,,,,,,,,,,,121,2022-05-09_09h21.06.383,FishGame,2022.1.1,59.940790482904234,
,15,넌 침착해,1,Green,B,5.458333333333333,5.566666666666666,ScrollUp,ScrollDown,Green.png,4,Positive,Incongruent,0,0,0,0,,,,,,,,,,,,,,,,,,,,,,,,,0,14,14,14,,,,,,,,,,,,,,,,,,,,,,,,,,,,,,,,,,,,,,,,,,,,,,,,,,,,,,,,,,,,,,,,,,,,,,,,,1.743827154239019,0.8914516000077128,641.5872334999731,None,ScrollUp,정답입니다,641.5872334999731,None,641.5872334999731,None,641.5872334999731,None,641.5872334999731,None,642.3620107999304,None,642.3620107999304,642.8622894999571,,,,,,,,,,,,,,,,121,2022-05-09_09h21.06.383,FishGame,2022.1.1,59.940790482904234,
,16,나를 데려가줘,6,Green,B,0,0,ScrollDown,ScrollUp,Green.png,4,NonTarget,NonTarget,0,0,0,0,,,,,,,,,,,,,,,,,,,,,,,,,0,15,15,15,,,,,,,,,,,,,,,,,,,,,,,,,,,,,,,,,,,,,,,,,,,,,,,,,,,,,,,,,,,,,,,,,,,,,,,,,1.2685185074806213,0.8760805000783876,643.4957991000265,None,ScrollDown,정답입니다,643.4957991000265,None,643.4957991000265,None,643.4957991000265,None,643.4957991000265,None,644.262498499942,None,644.262498499942,644.7621052999748,,,,,,,,,,,,,,,,121,2022-05-09_09h21.06.383,FishGame,2022.1.1,59.940790482904234,
,17,넌 행복해,1,Orange,A,6.416666666666666,6.166666666666667,ScrollDown,ScrollUp,Orange.png,4,Positive,Congruent,0,0,0,0,,,,,,,,,,,,,,,,,,,,,,,,,0,16,16,16,,,,,,,,,,,,,,,,,,,,,,,,,,,,,,,,,,,,,,,,,,,,,,,,,,,,,,,,,,,,,,,,,,,,,,,,,1.1759259204069774,0.8474566000513732,645.4091202999698,None,ScrollDown,정답입니다,645.4091202999698,None,645.4091202999698,None,645.4091202999698,None,645.4091202999698,None,646.1341132000089,None,646.1341132000089,646.6459896999877,,,,,,,,,,,,,,,,121,2022-05-09_09h21.06.383,FishGame,2022.1.1,59.940790482904234,
,18,넌 겸손해,2,Green,B,5.791666666666667,4.766666666666667,ScrollUp,ScrollDown,Green.png,4,Positive,Incongruent,0,0,0,0,,,,,,,,,,,,,,,,,,,,,,,,,0,17,17,17,,,,,,,,,,,,,,,,,,,,,,,,,,,,,,,,,,,,,,,,,,,,,,,,,,,,,,,,,,,,,,,,,,,,,,,,,1.7314814925193787,0.7856370999943465,647.2856820999878,None,ScrollUp,정답입니다,647.2856820999878,None,647.2856820999878,None,647.2856820999878,None,647.2856820999878,None,647.9588075999636,None,647.9588075999636,648.4621232999489,,,,,,,,,,,,,,,,121,2022-05-09_09h21.06.383,FishGame,2022.1.1,59.940790482904234,
,19,나를 보내줘,6,Orange,A,0,0,ScrollUp,ScrollDown,Orange.png,4,NonTarget,NonTarget,0,0,0,0,,,,,,,,,,,,,,,,,,,,,,,,,0,18,18,18,,,,,,,,,,,,,,,,,,,,,,,,,,,,,,,,,,,,,,,,,,,,,,,,,,,,,,,,,,,,,,,,,,,,,,,,,1.5787037052214146,0.8591629000147805,649.112030499964,None,ScrollUp,정답입니다,649.112030499964,None,649.112030499964,None,649.112030499964,None,649.112030499964,None,649.8455185999628,None,649.8455185999628,650.3461776999757,,,,,,,,,,,,,,,,121,2022-05-09_09h21.06.383,FishGame,2022.1.1,59.940790482904234,
,20,넌 의심없어,3,Orange,A,4.166666666666667,4.6,ScrollDown,ScrollUp,Orange.png,4,Neutral,Neutral,0,0,0,0,,,,,,,,,,,,,,,,,,,,,,,,,0,19,19,19,,,,,,,,,,,,,,,,,,,,,,,,,,,,,,,,,,,,,,,,,,,,,,,,,,,,,,,,,,,,,,,,,,,,,,,,,1.3595679054657617,0.8165966999949887,650.9900091999443,None,ScrollDown,정답입니다,650.9900091999443,None,650.9900091999443,None,650.9900091999443,None,650.9900091999443,None,651.6841910999501,None,651.6841910999501,652.1959308999358,,,,,,,,,,,,,,,,121,2022-05-09_09h21.06.383,FishGame,2022.1.1,59.940790482904234,
,21,넌 시시해,4,Orange,A,2.666666666666667,2.966666666666667,ScrollDown,ScrollUp,Orange.png,4,Negative,Incongruent,0,0,0,0,,,,,,,,,,,,,,,,,,,,,,,,,0,20,20,20,,,,,,,,,,,,,,,,,,,,,,,,,,,,,,,,,,,,,,,,,,,,,,,,,,,,,,,,,,,,,,,,,,,,,,,,,1.2746913631757102,0.7832483999663964,652.833252399927,None,ScrollDown,정답입니다,652.833252399927,None,652.833252399927,None,652.833252399927,None,652.833252399927,None,653.5003185999813,None,653.5003185999813,654.01205879997,,,,,,,,,,,,,,,,121,2022-05-09_09h21.06.383,FishGame,2022.1.1,59.940790482904234,
,22,나를 데려가줘,6,Green,B,0,0,ScrollDown,ScrollUp,Green.png,4,NonTarget,NonTarget,0,0,0,0,,,,,,,,,,,,,,,,,,,,,,,,,0,21,21,21,,,,,,,,,,,,,,,,,,,,,,,,,,,,,,,,,,,,,,,,,,,,,,,,,,,,,,,,,,,,,,,,,,,,,,,,,1.2253086417913437,0.8419171000132337,654.6435064999387,None,ScrollDown,정답입니다,654.6435064999387,None,654.6435064999387,None,654.6435064999387,None,654.6435064999387,None,655.3786575000267,None,655.3786575000267,655.8792309999699,,,,,,,,,,,,,,,,121,2022-05-09_09h21.06.383,FishGame,2022.1.1,59.940790482904234,
,23,넌 무정해,5,Orange,A,2.5,2.2,ScrollDown,ScrollUp,Orange.png,4,Negative,Incongruent,0,0,0,0,,,,,,,,,,,,,,,,,,,,,,,,,0,22,22,22,,,,,,,,,,,,,,,,,,,,,,,,,,,,,,,,,,,,,,,,,,,,,,,,,,,,,,,,,,,,,,,,,,,,,,,,,1.3086419701576233,0.862900200067088,656.5156613999279,None,ScrollDown,정답입니다,656.5156613999279,None,656.5156613999279,None,656.5156613999279,None,656.5156613999279,None,657.266985299997,None,657.266985299997,657.779387800023,,,,,,,,,,,,,,,,121,2022-05-09_09h21.06.383,FishGame,2022.1.1,59.940790482904234,
,24,넌 긍정적이야,1,Green,B,6.041666666666667,6.066666666666666,ScrollUp,ScrollDown,Green.png,4,Positive,Incongruent,0,0,0,0,,,,,,,,,,,,,,,,,,,,,,,,,0,23,23,23,,,,,,,,,,,,,,,,,,,,,,,,,,,,,,,,,,,,,,,,,,,,,,,,,,,,,,,,,,,,,,,,,,,,,,,,,1.5817901206513247,0.7492646999889985,658.4282011999749,None,ScrollUp,정답입니다,658.4282011999749,None,658.4282011999749,None,658.4282011999749,None,658.4282011999749,None,659.050327999983,None,659.050327999983,659.5624179999577,,,,,,,,,,,,,,,,121,2022-05-09_09h21.06.383,FishGame,2022.1.1,59.940790482904234,
,25,나를 보내줘,6,Orange,A,0,0,ScrollUp,ScrollDown,Orange.png,4,NonTarget,NonTarget,0,0,0,0,,,,,,,,,,,,,,,,,,,,,,,,,0,24,24,24,,,,,,,,,,,,,,,,,,,,,,,,,,,,,,,,,,,,,,,,,,,,,,,,,,,,,,,,,,,,,,,,,,,,,,,,,1.9012345770994823,0.8066009000176564,660.2017951000016,None,ScrollUp,정답입니다,660.2017951000016,None,660.2017951000016,None,660.2017951000016,None,660.2017951000016,None,660.8954728000099,None,660.8954728000099,661.3960423999233,,,,,,,,,,,,,,,,121,2022-05-09_09h21.06.383,FishGame,2022.1.1,59.940790482904234,
,26,넌 시기심이 많아,5,Green,B,2.458333333333333,2.233333333333333,ScrollUp,ScrollDown,Green.png,4,Negative,Congruent,0,0,0,0,,,,,,,,,,,,,,,,,,,,,,,,,0,25,25,25,,,,,,,,,,,,,,,,,,,,,,,,,,,,,,,,,,,,,,,,,,,,,,,,,,,,,,,,,,,,,,,,,,,,,,,,,1.7824074029922485,1.024576999945566,662.034213899984,None,ScrollUp,정답입니다,662.034213899984,None,662.034213899984,None,662.034213899984,None,662.034213899984,None,662.9461449999362,None,662.9461449999362,663.4459227999905,,,,,,,,,,,,,,,,121,2022-05-09_09h21.06.383,FishGame,2022.1.1,59.940790482904234,
,27,넌 탁월해,2,Orange,A,5.708333333333334,4.5,ScrollDown,ScrollUp,Orange.png,4,Positive,Congruent,0,0,0,0,,,,,,,,,,,,,,,,,,,,,,,,,0,26,26,26,,,,,,,,,,,,,,,,,,,,,,,,,,,,,,,,,,,,,,,,,,,,,,,,,,,,,,,,,,,,,,,,,,,,,,,,,1.336419758697351,0.8389716000529006,664.1011879999423,None,ScrollDown,정답입니다,664.1011879999423,None,664.1011879999423,None,664.1011879999423,None,664.1011879999423,None,664.8071895999601,None,664.8071895999601,665.312461799942,,,,,,,,,,,,,,,,121,2022-05-09_09h21.06.383,FishGame,2022.1.1,59.940790482904234,
,28,나를 데려가줘,6,Green,B,0,0,ScrollDown,ScrollUp,Green.png,4,NonTarget,NonTarget,0,0,0,0,,,,,,,,,,,,,,,,,,,,,,,,,0,27,27,27,,,,,,,,,,,,,,,,,,,,,,,,,,,,,,,,,,,,,,,,,,,,,,,,,,,,,,,,,,,,,,,,,,,,,,,,,1.3040123408039412,0.8734483000589535,665.9427391999634,None,ScrollDown,정답입니다,665.9427391999634,None,665.9427391999634,None,665.9427391999634,None,665.9427391999634,None,666.7123929000227,None,666.7123929000227,667.2130758999847,,,,,,,,,,,,,,,,121,2022-05-09_09h21.06.383,FishGame,2022.1.1,59.940790482904234,
,29,넌 조용해,3,Green,B,4.333333333333333,4.166666666666667,ScrollUp,ScrollDown,Green.png,4,Neutral,Neutral,0,0,0,0,,,,,,,,,,,,,,,,,,,,,,,,,0,28,28,28,,,,,,,,,,,,,,,,,,,,,,,,,,,,,,,,,,,,,,,,,,,,,,,,,,,,,,,,,,,,,,,,,,,,,,,,,1.9135802388191223,0.9742037000833079,667.8530425999779,None,ScrollUp,정답입니다,667.8530425999779,None,667.8530425999779,None,667.8530425999779,None,667.8530425999779,None,668.7127369999653,None,668.7127369999653,669.2127139000222,,,,,,,,,,,,,,,,121,2022-05-09_09h21.06.383,FishGame,2022.1.1,59.940790482904234,
,30,넌 다정해,1,Orange,A,5.833333333333334,5.7,ScrollDown,ScrollUp,Orange.png,4,Positive,Congruent,0,0,0,0,,,,,,,,,,,,,,,,,,,,,,,,,0,29,29,29,,,,,,,,,,,,,,,,,,,,,,,,,,,,,,,,,,,,,,,,,,,,,,,,,,,,,,,,,,,,,,,,,,,,,,,,,1.1882716069618862,1.3838105000322685,669.8501486999448,None,ScrollDown,정답입니다,669.8501486999448,None,669.8501486999448,None,669.8501486999448,None,669.8501486999448,None,671.1179975999985,None,671.1179975999985,671.629750699969,,,,,,,,,,,,,,,,121,2022-05-09_09h21.06.383,FishGame,2022.1.1,59.940790482904234,
,31,넌 능력있어,2,Green,B,6.166666666666666,4.6,ScrollUp,ScrollDown,Green.png,4,Positive,Incongruent,0,0,0,0,,,,,,,,,,,,,,,,,,,,,,,,,0,30,30,30,,,,,,,,,,,,,,,,,,,,,,,,,,,,,,,,,,,,,,,,,,,,,,,,,,,,,,,,,,,,,,,,,,,,,,,,,1.8672839452823002,1.0175902999471873,672.2640471999766,None,ScrollUp,정답입니다,672.2640471999766,None,672.2640471999766,None,672.2640471999766,None,672.2640471999766,None,673.1674821999623,None,673.1674821999623,673.6796660999535,,,,,,,,,,,,,,,,121,2022-05-09_09h21.06.383,FishGame,2022.1.1,59.940790482904234,
,32,넌 불쾌해,5,Orange,A,2.125,1.933333333333333,ScrollDown,ScrollUp,Orange.png,4,Negative,Incongruent,0,0,0,0,,,,,,,,,,,,,,,,,,,,,,,,,0,31,31,31,,,,,,,,,,,,,,,,,,,,,,,,,,,,,,,,,,,,,,,,,,,,,,,,,,,,,,,,,,,,,,,,,,,,,,,,,1.1342592686414719,0.8561061999062076,674.3390332999406,None,ScrollDown,정답입니다,674.3390332999406,None,674.3390332999406,None,674.3390332999406,None,674.3390332999406,None,675.0625950000249,None,675.0625950000249,675.5627930000192,,,,,,,,,,,,,,,,121,2022-05-09_09h21.06.383,FishGame,2022.1.1,59.940790482904234,
,33,나를 데려가줘,6,Green,B,0,0,ScrollDown,ScrollUp,Green.png,4,NonTarget,NonTarget,0,0,0,0,,,,,,,,,,,,,,,,,,,,,,,,,0,32,32,32,,,,,,,,,,,,,,,,,,,,,,,,,,,,,,,,,,,,,,,,,,,,,,,,,,,,,,,,,,,,,,,,,,,,,,,,,1.1450617164373398,0.8438281000126153,676.1986464000074,None,ScrollDown,정답입니다,676.1986464000074,None,676.1986464000074,None,676.1986464000074,None,676.1986464000074,None,676.9343185999896,None,676.9343185999896,677.4463229000103,,,,,,,,,,,,,,,,121,2022-05-09_09h21.06.383,FishGame,2022.1.1,59.940790482904234,
,34,넌 유순해,3,Orange,A,4.458333333333333,5,ScrollDown,ScrollUp,Orange.png,4,Neutral,Neutral,0,0,0,0,,,,,,,,,,,,,,,,,,,,,,,,,0,33,33,33,,,,,,,,,,,,,,,,,,,,,,,,,,,,,,,,,,,,,,,,,,,,,,,,,,,,,,,,,,,,,,,,,,,,,,,,,1.3287037014961243,0.866673200041987,678.0846484999638,None,ScrollDown,정답입니다,678.0846484999638,None,678.0846484999638,None,678.0846484999638,None,678.0846484999638,None,678.8344171999488,None,678.8344171999488,679.3463966000127,,,,,,,,,,,,,,,,121,2022-05-09_09h21.06.383,FishGame,2022.1.1,59.940790482904234,
,35,넌 근심스러워,4,Green,B,2.708333333333333,3.133333333333333,ScrollUp,ScrollDown,Green.png,4,Negative,Congruent,0,0,0,0,,,,,,,,,,,,,,,,,,,,,,,,,0,34,34,34,,,,,,,,,,,,,,,,,,,,,,,,,,,,,,,,,,,,,,,,,,,,,,,,,,,,,,,,,,,,,,,,,,,,,,,,,1.7083333333333335,0.8267507000127807,679.9860576000065,None,ScrollUp,정답입니다,679.9860576000065,None,679.9860576000065,None,679.9860576000065,None,679.9860576000065,None,680.6962028000271,None,680.6962028000271,681.1964552999707,,,,,,,,,,,,,,,,121,2022-05-09_09h21.06.383,FishGame,2022.1.1,59.940790482904234,
,36,넌 세련되었어,2,Orange,A,5.5,4.6,ScrollDown,ScrollUp,Orange.png,4,Positive,Congruent,0,0,0,0,,,,,,,,,,,,,,,,,,,,,,,,,0,35,35,35,,,,,,,,,,,,,,,,,,,,,,,,,,,,,,,,,,,,,,,,,,,,,,,,,,,,,,,,,,,,,,,,,,,,,,,,,1.234567900498708,0.8531212999951094,681.8832898000255,None,ScrollDown,정답입니다,681.8832898000255,None,681.8832898000255,None,681.8832898000255,None,681.8832898000255,None,682.5761665999889,None,682.5761665999889,683.0798129999312,,,,,,,,,,,,,,,,121,2022-05-09_09h21.06.383,FishGame,2022.1.1,59.940790482904234,
,37,나를 보내줘,6,Orange,A,0,0,ScrollUp,ScrollDown,Orange.png,4,NonTarget,NonTarget,0,0,0,0,,,,,,,,,,,,,,,,,,,,,,,,,0,36,36,36,,,,,,,,,,,,,,,,,,,,,,,,,,,,,,,,,,,,,,,,,,,,,,,,,,,,,,,,,,,,,,,,,,,,,,,,,1.7577160547176998,0.8600293000927195,683.7198336999863,None,ScrollUp,정답입니다,683.7198336999863,None,683.7198336999863,None,683.7198336999863,None,683.7198336999863,None,684.4628153999802,None,684.4628153999802,684.9633566000266,,,,,,,,,,,,,,,,121,2022-05-09_09h21.06.383,FishGame,2022.1.1,59.940790482904234,
,38,넌 확고해,3,Green,B,4.708333333333334,4.566666666666666,ScrollUp,ScrollDown,Green.png,4,Neutral,Neutral,0,0,0,0,,,,,,,,,,,,,,,,,,,,,,,,,0,37,37,37,,,,,,,,,,,,,,,,,,,,,,,,,,,,,,,,,,,,,,,,,,,,,,,,,,,,,,,,,,,,,,,,,,,,,,,,,1.663580241302649,0.854476600070484,685.5980047999183,None,ScrollUp,정답입니다,685.5980047999183,None,685.5980047999183,None,685.5980047999183,None,685.5980047999183,None,686.3428959000157,None,686.3428959000157,686.8463291999651,,,,,,,,,,,,,,,,121,2022-05-09_09h21.06.383,FishGame,2022.1.1,59.940790482904234,
,39,넌 이해심이 많아,1,Green,B,6.041666666666668,5.533333333333333,ScrollUp,ScrollDown,Green.png,4,Positive,Incongruent,0,0,0,0,,,,,,,,,,,,,,,,,,,,,,,,,0,38,38,38,,,,,,,,,,,,,,,,,,,,,,,,,,,,,,,,,,,,,,,,,,,,,,,,,,,,,,,,,,,,,,,,,,,,,,,,,1.6929012313485146,0.7677725999383256,687.4844341999851,None,ScrollUp,정답입니다,687.4844341999851,None,687.4844341999851,None,687.4844341999851,None,687.4844341999851,None,688.1432406000094,None,688.1432406000094,688.646962699946,,,,,,,,,,,,,,,,121,2022-05-09_09h21.06.383,FishGame,2022.1.1,59.940790482904234,
,40,나를 보내줘,6,Orange,A,0,0,ScrollUp,ScrollDown,Orange.png,4,NonTarget,NonTarget,0,0,0,0,,,,,,,,,,,,,,,,,,,,,,,,,0,39,39,39,,,,,,,,,,,,,,,,,,,,,,,,,,,,,,,,,,,,,,,,,,,,,,,,,,,,,,,,,,,,,,,,,,,,,,,,,1.7391975373029709,0.8750906999921426,689.2908847000217,None,ScrollUp,정답입니다,689.2908847000217,None,689.2908847000217,None,689.2908847000217,None,689.2908847000217,None,690.0474592000246,None,690.0474592000246,690.546306299977,,,,,,,,,,,,,,,,121,2022-05-09_09h21.06.383,FishGame,2022.1.1,59.940790482904234,
,41,넌 거칠어,4,Orange,A,2.625,3.033333333333333,ScrollDown,ScrollUp,Orange.png,4,Negative,Incongruent,0,0,0,0,,,,,,,,,,,,,,,,,,,,,,,,,0,40,40,40,,,,,,,,,,,,,,,,,,,,,,,,,,,,,,,,,,,,,,,,,,,,,,,,,,,,,,,,,,,,,,,,,,,,,,,,,1.2793209801117578,0.820144800003618,691.1936011000071,None,ScrollDown,정답입니다,691.1936011000071,None,691.1936011000071,None,691.1936011000071,None,691.1936011000071,None,691.8873730999185,None,691.8873730999185,692.3968265999574,,,,,,,,,,,,,,,,121,2022-05-09_09h21.06.383,FishGame,2022.1.1,59.940790482904234,
,42,넌 변덕맞아,5,Green,B,2.75,2.166666666666667,ScrollUp,ScrollDown,Green.png,4,Negative,Congruent,0,0,0,0,,,,,,,,,,,,,,,,,,,,,,,,,0,41,41,41,,,,,,,,,,,,,,,,,,,,,,,,,,,,,,,,,,,,,,,,,,,,,,,,,,,,,,,,,,,,,,,,,,,,,,,,,1.746913582086563,0.8088820999255404,693.0444921000162,None,ScrollUp,정답입니다,693.0444921000162,None,693.0444921000162,None,693.0444921000162,None,693.0444921000162,None,693.7294787999708,None,693.7294787999708,694.2295838999562,,,,,,,,,,,,,,,,121,2022-05-09_09h21.06.383,FishGame,2022.1.1,59.940790482904234,
,43,나를 데려가줘,6,Green,B,0,0,ScrollDown,ScrollUp,Green.png,4,NonTarget,NonTarget,0,0,0,0,,,,,,,,,,,,,,,,,,,,,,,,,0,42,42,42,,,,,,,,,,,,,,,,,,,,,,,,,,,,,,,,,,,,,,,,,,,,,,,,,,,,,,,,,,,,,,,,,,,,,,,,,1.2438271592060726,0.859009200008586,694.8734462999273,None,ScrollDown,정답입니다,694.8734462999273,None,694.8734462999273,None,694.8734462999273,None,694.8734462999273,None,695.612959299935,None,695.612959299935,696.1135164999869,,,,,,,,,,,,,,,,121,2022-05-09_09h21.06.383,FishGame,2022.1.1,59.940790482904234,
,44,넌 외로워,4,Green,B,2.833333333333333,3.3,ScrollUp,ScrollDown,Green.png,4,Negative,Congruent,0,0,0,0,,,,,,,,,,,,,,,,,,,,,,,,,0,43,43,43,,,,,,,,,,,,,,,,,,,,,,,,,,,,,,,,,,,,,,,,,,,,,,,,,,,,,,,,,,,,,,,,,,,,,,,,,1.9768518606821697,0.8249947000294924,696.7500637000194,None,ScrollUp,정답입니다,696.7500637000194,None,696.7500637000194,None,696.7500637000194,None,696.7500637000194,None,697.4633525999961,None,697.4633525999961,697.9635369000025,,,,,,,,,,,,,,,,121,2022-05-09_09h21.06.383,FishGame,2022.1.1,59.940790482904234,
,1,넌 불평스러워,5,Orange,A,2.25,2.066666666666667,ScrollDown,ScrollUp,Orange.png,5,Negative,Incongruent,0,0,0,0,,,,,,,,,,,,,,,,,,,,,,,,,,,,,0,0,0,0,,,,,,,,,,,,,,,,,,,,,,,,,,,,729.5304856000002,731.0308658999857,731.0644903000211,732.014550199965,732.064380900003,733.0143223999767,733.0143223999767,None,,,,,,,,,,,,,,,,,,,,,,,,,,,,,,,,,,1.0925925920406978,0.973132900078781,734.2436507999664,None,ScrollDown,정답입니다,734.2436507999664,None,734.2436507999664,None,734.2436507999664,None,734.2436507999664,None,735.0392313000048,None,735.0392313000048,735.5477798000211,698.463563599973,None,698.463563599973,None,-0.25462964,-0.10092592,1,0,0,0.015785469906404614,None,728.4639872999396,None,,,121,2022-05-09_09h21.06.383,FishGame,2022.1.1,59.940790482904234,
,2,나를 보내줘,6,Orange,A,0,0,ScrollUp,ScrollDown,Orange.png,5,NonTarget,NonTarget,0,0,0,0,,,,,,,,,,,,,,,,,,,,,,,,,,,,,0,1,1,1,,,,,,,,,,,,,,,,,,,,,,,,,,,,,,,,,,,,,,,,,,,,,,,,,,,,,,,,,,,,,,,,,,,,,1.8919753183921177,0.908480399986729,736.1820454000263,None,ScrollUp,정답입니다,736.1820454000263,None,736.1820454000263,None,736.1820454000263,None,736.1820454000263,None,736.9811082999222,None,736.9811082999222,737.4810373999644,,,,,,,,,,,,,,,,121,2022-05-09_09h21.06.383,FishGame,2022.1.1,59.940790482904234,
,3,넌 다재다능해,2,Green,B,6.208333333333333,4.5,ScrollUp,ScrollDown,Green.png,5,Positive,Incongruent,0,0,0,0,,,,,,,,,,,,,,,,,,,,,,,,,,,,,0,2,2,2,,,,,,,,,,,,,,,,,,,,,,,,,,,,,,,,,,,,,,,,,,,,,,,,,,,,,,,,,,,,,,,,,,,,,1.9459876318772633,0.8245777999982238,738.1135601999704,None,ScrollUp,정답입니다,738.1135601999704,None,738.1135601999704,None,738.1135601999704,None,738.1135601999704,None,738.8306338000111,None,738.8306338000111,739.3311806999845,,,,,,,,,,,,,,,,121,2022-05-09_09h21.06.383,FishGame,2022.1.1,59.940790482904234,
,4,넌 과감해,3,Orange,A,4.833333333333334,4.6,ScrollDown,ScrollUp,Orange.png,5,Neutral,Neutral,0,0,0,0,,,,,,,,,,,,,,,,,,,,,,,,,,,,,0,3,3,3,,,,,,,,,,,,,,,,,,,,,,,,,,,,,,,,,,,,,,,,,,,,,,,,,,,,,,,,,,,,,,,,,,,,,1.2052469104528427,0.8768948999932036,739.9662805999396,None,ScrollDown,정답입니다,739.9662805999396,None,739.9662805999396,None,739.9662805999396,None,739.9662805999396,None,740.7306892999914,None,740.7306892999914,741.2309182999888,,,,,,,,,,,,,,,,121,2022-05-09_09h21.06.383,FishGame,2022.1.1,59.940790482904234,
,5,넌 고분고분해,3,Green,B,3.75,4.033333333333333,ScrollUp,ScrollDown,Green.png,5,Neutral,Neutral,0,0,0,0,,,,,,,,,,,,,,,,,,,,,,,,,,,,,0,4,4,4,,,,,,,,,,,,,,,,,,,,,,,,,,,,,,,,,,,,,,,,,,,,,,,,,,,,,,,,,,,,,,,,,,,,,1.7808641890684764,0.7574162000091746,741.8702883999795,None,ScrollUp,정답입니다,741.8702883999795,None,741.8702883999795,None,741.8702883999795,None,741.8702883999795,None,742.5138132999418,None,742.5138132999418,743.0138636999764,,,,,,,,,,,,,,,,121,2022-05-09_09h21.06.383,FishGame,2022.1.1,59.940790482904234,
,6,나를 보내줘,6,Orange,A,0,0,ScrollUp,ScrollDown,Orange.png,5,NonTarget,NonTarget,0,0,0,0,,,,,,,,,,,,,,,,,,,,,,,,,,,,,0,5,5,5,,,,,,,,,,,,,,,,,,,,,,,,,,,,,,,,,,,,,,,,,,,,,,,,,,,,,,,,,,,,,,,,,,,,,1.8086419651905696,0.866517800022848,743.6584635999752,None,ScrollUp,정답입니다,743.6584635999752,None,743.6584635999752,None,743.6584635999752,None,743.6584635999752,None,744.4105517999269,None,744.4105517999269,744.9147647999926,,,,,,,,,,,,,,,,121,2022-05-09_09h21.06.383,FishGame,2022.1.1,59.940790482904234,
,7,넌 잘 잊어,4,Orange,A,3,3.7,ScrollDown,ScrollUp,Orange.png,5,Negative,Incongruent,0,0,0,0,,,,,,,,,,,,,,,,,,,,,,,,,,,,,0,6,6,6,,,,,,,,,,,,,,,,,,,,,,,,,,,,,,,,,,,,,,,,,,,,,,,,,,,,,,,,,,,,,,,,,,,,,1.1728395173947017,0.8089082000078633,745.5599659999134,None,ScrollDown,정답입니다,745.5599659999134,None,745.5599659999134,None,745.5599659999134,None,745.5599659999134,None,746.2476930000121,None,746.2476930000121,746.7481835000217,,,,,,,,,,,,,,,,121,2022-05-09_09h21.06.383,FishGame,2022.1.1,59.940790482904234,
,8,넌 탐구심이없어,4,Green,B,2.833333333333333,3.066666666666667,ScrollUp,ScrollDown,Green.png,5,Negative,Congruent,0,0,0,0,,,,,,,,,,,,,,,,,,,,,,,,,,,,,0,7,7,7,,,,,,,,,,,,,,,,,,,,,,,,,,,,,,,,,,,,,,,,,,,,,,,,,,,,,,,,,,,,,,,,,,,,,1.9212963084379833,0.9059022000292316,747.3885186000261,None,ScrollUp,정답입니다,747.3885186000261,None,747.3885186000261,None,747.3885186000261,None,747.3885186000261,None,748.1808424999472,None,748.1808424999472,748.681542999926,,,,,,,,,,,,,,,,121,2022-05-09_09h21.06.383,FishGame,2022.1.1,59.940790482904234,
,9,나를 데려가줘,6,Green,B,0,0,ScrollDown,ScrollUp,Green.png,5,NonTarget,NonTarget,0,0,0,0,,,,,,,,,,,,,,,,,,,,,,,,,,,,,0,8,8,8,,,,,,,,,,,,,,,,,,,,,,,,,,,,,,,,,,,,,,,,,,,,,,,,,,,,,,,,,,,,,,,,,,,,,1.3101851840813956,0.8443107000784948,749.3188854999607,None,ScrollDown,정답입니다,749.3188854999607,None,749.3188854999607,None,749.3188854999607,None,749.3188854999607,None,750.047576699988,None,750.047576699988,750.5482842000201,,,,,,,,,,,,,,,,121,2022-05-09_09h21.06.383,FishGame,2022.1.1,59.940790482904234,
,10,넌 참되어,2,Orange,A,6.041666666666664,4.733333333333333,ScrollDown,ScrollUp,Orange.png,5,Positive,Congruent,0,0,0,0,,,,,,,,,,,,,,,,,,,,,,,,,,,,,0,9,9,9,,,,,,,,,,,,,,,,,,,,,,,,,,,,,,,,,,,,,,,,,,,,,,,,,,,,,,,,,,,,,,,,,,,,,1.192901223897934,0.7841978999786079,751.1907377999742,None,ScrollDown,정답입니다,751.1907377999742,None,751.1907377999742,None,751.1907377999742,None,751.1907377999742,None,751.85517539992,None,751.85517539992,752.3647041999502,,,,,,,,,,,,,,,,121,2022-05-09_09h21.06.383,FishGame,2022.1.1,59.940790482904234,
,11,넌 생기있어,1,Green,B,5.875,5.633333333333334,ScrollUp,ScrollDown,Green.png,5,Positive,Incongruent,0,0,0,0,,,,,,,,,,,,,,,,,,,,,,,,,,,,,0,10,10,10,,,,,,,,,,,,,,,,,,,,,,,,,,,,,,,,,,,,,,,,,,,,,,,,,,,,,,,,,,,,,,,,,,,,,1.9567901293436687,0.7749444999499246,753.0062631999608,None,ScrollUp,정답입니다,753.0062631999608,None,753.0062631999608,None,753.0062631999608,None,753.0062631999608,None,753.6647209000075,None,753.6647209000075,754.1647832000162,,,,,,,,,,,,,,,,121,2022-05-09_09h21.06.383,FishGame,2022.1.1,59.940790482904234,
,12,넌 비사교적이야,4,Green,B,2.875,2.9,ScrollUp,ScrollDown,Green.png,5,Negative,Congruent,0,0,0,0,,,,,,,,,,,,,,,,,,,,,,,,,,,,,0,11,11,11,,,,,,,,,,,,,,,,,,,,,,,,,,,,,,,,,,,,,,,,,,,,,,,,,,,,,,,,,,,,,,,,,,,,,2,0.8396489000879228,754.8021123999497,None,ScrollUp,정답입니다,754.8021123999497,None,754.8021123999497,None,754.8021123999497,None,754.8021123999497,None,755.5315224999795,None,755.5315224999795,756.0312317999778,,,,,,,,,,,,,,,,121,2022-05-09_09h21.06.383,FishGame,2022.1.1,59.940790482904234,
,13,나를 데려가줘,6,Green,B,0,0,ScrollDown,ScrollUp,Green.png,5,NonTarget,NonTarget,0,0,0,0,,,,,,,,,,,,,,,,,,,,,,,,,,,,,0,12,12,12,,,,,,,,,,,,,,,,,,,,,,,,,,,,,,,,,,,,,,,,,,,,,,,,,,,,,,,,,,,,,,,,,,,,,1.345679017404715,0.8549953000620008,756.6695868999232,None,ScrollDown,정답입니다,756.6695868999232,None,756.6695868999232,None,756.6695868999232,None,756.6695868999232,None,757.4148177999305,None,757.4148177999305,757.914834999945,,,,,,,,,,,,,,,,121,2022-05-09_09h21.06.383,FishGame,2022.1.1,59.940790482904234,
,14,넌 고독해,4,Orange,A,2.916666666666667,3.233333333333333,ScrollDown,ScrollUp,Orange.png,5,Negative,Incongruent,0,0,0,0,,,,,,,,,,,,,,,,,,,,,,,,,,,,,0,13,13,13,,,,,,,,,,,,,,,,,,,,,,,,,,,,,,,,,,,,,,,,,,,,,,,,,,,,,,,,,,,,,,,,,,,,,1.3626543208956718,0.7875021999934688,758.5755352999549,None,ScrollDown,정답입니다,758.5755352999549,None,758.5755352999549,None,758.5755352999549,None,758.5755352999549,None,759.2316860000137,None,759.2316860000137,759.7313615999883,,,,,,,,,,,,,,,,121,2022-05-09_09h21.06.383,FishGame,2022.1.1,59.940790482904234,
,15,넌 신경질적이야,5,Green,B,2.375,2.233333333333333,ScrollUp,ScrollDown,Green.png,5,Negative,Congruent,0,0,0,0,,,,,,,,,,,,,,,,,,,,,,,,,,,,,0,14,14,14,,,,,,,,,,,,,,,,,,,,,,,,,,,,,,,,,,,,,,,,,,,,,,,,,,,,,,,,,,,,,,,,,,,,,1.859567900498708,0.8248976999893785,760.3827206999995,None,ScrollUp,정답입니다,760.3827206999995,None,760.3827206999995,None,760.3827206999995,None,760.3827206999995,None,761.0815331999911,None,761.0815331999911,761.5817882999545,,,,,,,,,,,,,,,,121,2022-05-09_09h21.06.383,FishGame,2022.1.1,59.940790482904234,
,16,넌 똑똑해,2,Green,B,5.666666666666667,3.966666666666667,ScrollUp,ScrollDown,Green.png,5,Positive,Incongruent,0,0,0,0,,,,,,,,,,,,,,,,,,,,,,,,,,,,,0,15,15,15,,,,,,,,,,,,,,,,,,,,,,,,,,,,,,,,,,,,,,,,,,,,,,,,,,,,,,,,,,,,,,,,,,,,,1.9552469154198964,0.7998934000497684,762.2195497999201,None,ScrollUp,정답입니다,762.2195497999201,None,762.2195497999201,None,762.2195497999201,None,762.2195497999201,None,762.902818899951,None,762.902818899951,763.4151048000203,,,,,,,,,,,,,,,,121,2022-05-09_09h21.06.383,FishGame,2022.1.1,59.940790482904234,
,17,나를 보내줘,6,Orange,A,0,0,ScrollUp,ScrollDown,Orange.png,5,NonTarget,NonTarget,0,0,0,0,,,,,,,,,,,,,,,,,,,,,,,,,,,,,0,16,16,16,,,,,,,,,,,,,,,,,,,,,,,,,,,,,,,,,,,,,,,,,,,,,,,,,,,,,,,,,,,,,,,,,,,,,1.6820987711350122,0.9441708000376821,764.0833176999586,None,ScrollUp,정답입니다,764.0833176999586,None,764.0833176999586,None,764.0833176999586,None,764.0833176999586,None,764.8860926999478,None,764.8860926999478,765.3986332999775,,,,,,,,,,,,,,,,121,2022-05-09_09h21.06.383,FishGame,2022.1.1,59.940790482904234,
