name,TrialNum,Word,WordCategory,FishType,WordList,WordValence,WordReputation,CorrectResp,IncorrectResp,FishTypeFile,Round,WordType,Condition,LoopforOrange.thisRepN,LoopforOrange.thisTrialN,LoopforOrange.thisN,LoopforOrange.thisIndex,LoopForGreen.thisRepN,LoopForGreen.thisTrialN,LoopForGreen.thisN,LoopForGreen.thisIndex,GreenInstLoop.thisRepN,GreenInstLoop.thisTrialN,GreenInstLoop.thisN,GreenInstLoop.thisIndex,GreenPrac.thisRepN,GreenPrac.thisTrialN,GreenPrac.thisN,GreenPrac.thisIndex,trials_2.thisRepN,trials_2.thisTrialN,trials_2.thisN,trials_2.thisIndex,GreenRound1.thisRepN,GreenRound1.thisTrialN,GreenRound1.thisN,GreenRound1.thisIndex,GreenRound2.thisRepN,GreenRound2.thisTrialN,GreenRound2.thisN,GreenRound2.thisIndex,GreenRound3.thisRepN,GreenRound3.thisTrialN,GreenRound3.thisN,GreenRound3.thisIndex,GreenRound4.thisRepN,GreenRound4.thisTrialN,GreenRound4.thisN,GreenRound4.thisIndex,GreenRound5.thisRepN,GreenRound5.thisTrialN,GreenRound5.thisN,GreenRound5.thisIndex,text_2.started,text_2.stopped,text_3.started,text_3.stopped,key_resp.keys,key_resp.rt,key_resp.started,key_resp.stopped,PassI.started,PassI.stopped,PassInst.keys,PassInst.rt,PassInst.started,PassInst.stopped,mouse_2.x,mouse_2.y,mouse_2.leftButton,mouse_2.midButton,mouse_2.rightButton,mouse_2.started,mouse_2.stopped,image.started,image.stopped,text_5.started,text_5.stopped,text_6.started,text_6.stopped,text_7.started,text_7.stopped,text_8.started,text_8.stopped,slider_3.response,slider_3.rt,slider_3.started,slider_3.stopped,Response_3,Feedback_3,BackGround_3.started,BackGround_3.stopped,Fish_3.started,Fish_3.stopped,WordBox_3.started,WordBox_3.stopped,Words_3.started,Words_3.stopped,BackGround_Feedback_3.started,BackGround_Feedback_3.stopped,Feedbacks_3.started,Feedbacks_3.stopped,Continue_or_not_2.keys,Continue_or_not_2.rt,Continue_or_not_2.started,Continue_or_not_2.stopped,image_4.started,image_4.stopped,mouse_3.x,mouse_3.y,mouse_3.leftButton,mouse_3.midButton,mouse_3.rightButton,mouse_3.started,mouse_3.stopped,startmain.started,startmain.stopped,slider_4.response,slider_4.rt,slider_4.started,slider_4.stopped,Response_4,Feedback_4,BackGround_4.started,BackGround_4.stopped,Fish_4.started,Fish_4.stopped,WordBox_4.started,WordBox_4.stopped,Words_4.started,Words_4.stopped,BackGround_Feedback_4.started,BackGround_Feedback_4.stopped,Feedbacks_4.started,Feedbacks_4.stopped,text.started,text.stopped,break_interval.started,break_interval.stopped,mouse.x,mouse.y,mouse.leftButton,mouse.midButton,mouse.rightButton,mouse.started,mouse.stopped,stratnextround.started,stratnextround.stopped,endgame.started,endgame.stopped,participant,date,expName,psychopyVersion,frameRate,
,,,,,,,,,,,,,,,,,,,,,,,,,,,,,,,,,,,,,,,,,,,,,,,,,,,,,,23.463282600045204,None,23.463282600045204,None,space,1.3685104000614956,23.920682900003158,None,,,,,,,,,,,,,,,,,,,,,,,,,,,,,,,,,,,,,,,,,,,,,,,,,,,,,,,,,,,,,,,,,,,,,,,,,,,,,,,,,,,,,,,,,,122,2022-05-09_15h37.04.773,FishGame,2022.1.1,59.9444554493874,
물고기과제_instruction(참가자용)GreenVersion.mp4,,,,,,,,,,,,,,,,,,0,0,0,0,0,0,0,0,,,,,,,,,,,,,,,,,,,,,,,,,,,,,,,,,,,,,92.13811310008168,None,n,11.732277100090869,92.13811310008168,None,,,,,,,,,,,,,,,,,,,,,,,,,,,,,,,,,,,,,,,,,,,,,,,,,,,,,,,,,,,,,,,,,,,,,,,,,,,,,,,,,,,,122,2022-05-09_15h37.04.773,FishGame,2022.1.1,59.9444554493874,
,1,넌 교활해,5,Orange,B,2.333333333333333,2.133333333333333,ScrollUp,ScrollDown,Orange.png,practice,,,,,,,0,0,0,0,,,,,0,0,0,0,0,0,0,0,,,,,,,,,,,,,,,,,,,,,,,,,,,,,,,,,,,-0.08981481,-0.23518519,1,0,0,0.5134427100419998,None,103.88953570008744,None,108.13995470001828,109.64002450008411,109.67305840004701,110.62338390003424,110.67267800006084,111.62377399997786,111.62377399997786,None,1,1.9247910999692976,112.78960810007993,None,ScrollDown,오답입니다,112.78960810007993,None,112.78960810007993,None,112.78960810007993,None,112.78960810007993,None,114.54522470000666,None,114.54522470000666,115.05659530009143,,,,,,,,,,,,,,,,,,,,,,,,,,,,,,,,,,,,,,,,,,,,,,,,,122,2022-05-09_15h37.04.773,FishGame,2022.1.1,59.9444554493874,
,2,넌 슬기로워,2,Green,A,6.166666666666667,4.1,ScrollDown,ScrollUp,Green.png,practice,,,,,,,0,0,0,0,,,,,0,0,0,0,0,1,1,1,,,,,,,,,,,,,,,,,,,,,,,,,,,,,,,,,,,,,,,,,,,,,,,,,,,,1,1.5184896000428125,115.69079840008635,None,ScrollDown,정답입니다,115.69079840008635,None,115.69079840008635,None,115.69079840008635,None,115.69079840008635,None,117.09857969998848,None,117.09857969998848,117.60644090001006,,,,,,,,,,,,,,,,,,,,,,,,,,,,,,,,,,,,,,,,,,,,,,,,,122,2022-05-09_15h37.04.773,FishGame,2022.1.1,59.9444554493874,
,3,나를 보내줘,6,Green,A,0,0,ScrollUp,ScrollDown,Green.png,practice,,,,,,,0,0,0,0,,,,,0,0,0,0,0,2,2,2,,,,,,,,,,,,,,,,,,,,,,,,,,,,,,,,,,,,,,,,,,,,,,,,,,,,2,1.4916022999677807,118.24700059997849,None,ScrollUp,정답입니다,118.24700059997849,None,118.24700059997849,None,118.24700059997849,None,118.24700059997849,None,119.62313229998108,None,119.62313229998108,120.12310269998852,,,,,,,,,,,,,,,,,,,,,,,,,,,,,,,,,,,,,,,,,,,,,,,,,122,2022-05-09_15h37.04.773,FishGame,2022.1.1,59.9444554493874,
,4,나를 데려가줘,6,Orange,B,0,0,ScrollDown,ScrollUp,Orange.png,practice,,,,,,,0,0,0,0,,,,,0,0,0,0,0,3,3,3,,,,,,,,,,,,,,,,,,,,,,,,,,,,,,,,,,,,,,,,,,,,,,,,,,,,2,1.226123399916105,120.7646103000734,None,ScrollUp,오답입니다,120.7646103000734,None,120.7646103000734,None,120.7646103000734,None,120.7646103000734,None,121.87536080006976,None,121.87536080006976,122.38984740001615,,,,,,,,,,,,,,,,,,,,,,,,,,,,,,,,,,,,,,,,,,,,,,,,,122,2022-05-09_15h37.04.773,FishGame,2022.1.1,59.9444554493874,
,1,넌 교활해,5,Orange,B,2.333333333333333,2.133333333333333,ScrollUp,ScrollDown,Orange.png,practice,,,,,,,0,0,0,0,,,,,0,0,0,0,,,,,,,,,,,,,,,,,,,,,,,,,,,,,,,,,,,,,,,,,,,,,,,,,,,,,,,,,,,,,,,,,,,,,,,,,,y,2.711328999954276,122.88993459998164,None,122.88993459998164,None,,,,,,,,,,,,,,,,,,,,,,,,,,,,,,,,,,,,,,,,,,,122,2022-05-09_15h37.04.773,FishGame,2022.1.1,59.9444554493874,
,1,넌 교활해,5,Orange,B,2.333333333333333,2.133333333333333,ScrollUp,ScrollDown,Orange.png,practice,,,,,,,0,0,0,0,,,,,0,1,1,1,0,0,0,0,,,,,,,,,,,,,,,,,,,,,,,,,,,,,,,,,,,,,,,,,,,,,,,,,,,,2,1.844914999906905,125.78396400006022,None,ScrollUp,정답입니다,125.78396400006022,None,125.78396400006022,None,125.78396400006022,None,125.78396400006022,None,127.50095460005105,None,127.50095460005105,128.0069916000357,,,,,,,,,,,,,,,,,,,,,,,,,,,,,,,,,,,,,,,,,,,,,,,,,122,2022-05-09_15h37.04.773,FishGame,2022.1.1,59.9444554493874,
,2,넌 슬기로워,2,Green,A,6.166666666666667,4.1,ScrollDown,ScrollUp,Green.png,practice,,,,,,,0,0,0,0,,,,,0,1,1,1,0,1,1,1,,,,,,,,,,,,,,,,,,,,,,,,,,,,,,,,,,,,,,,,,,,,,,,,,,,,1,1.1893504000036046,128.64383950002957,None,ScrollDown,정답입니다,128.64383950002957,None,128.64383950002957,None,128.64383950002957,None,128.64383950002957,None,129.72374070005026,None,129.72374070005026,130.22349180001765,,,,,,,,,,,,,,,,,,,,,,,,,,,,,,,,,,,,,,,,,,,,,,,,,122,2022-05-09_15h37.04.773,FishGame,2022.1.1,59.9444554493874,
,3,나를 보내줘,6,Green,A,0,0,ScrollUp,ScrollDown,Green.png,practice,,,,,,,0,0,0,0,,,,,0,1,1,1,0,2,2,2,,,,,,,,,,,,,,,,,,,,,,,,,,,,,,,,,,,,,,,,,,,,,,,,,,,,2,1.4457038999535143,130.8623822000809,None,ScrollUp,정답입니다,130.8623822000809,None,130.8623822000809,None,130.8623822000809,None,130.8623822000809,None,132.19498480006587,None,132.19498480006587,132.70662439998705,,,,,,,,,,,,,,,,,,,,,,,,,,,,,,,,,,,,,,,,,,,,,,,,,122,2022-05-09_15h37.04.773,FishGame,2022.1.1,59.9444554493874,
,4,나를 데려가줘,6,Orange,B,0,0,ScrollDown,ScrollUp,Orange.png,practice,,,,,,,0,0,0,0,,,,,0,1,1,1,0,3,3,3,,,,,,,,,,,,,,,,,,,,,,,,,,,,,,,,,,,,,,,,,,,,,,,,,,,,1,1.4009376999456435,133.3470873000333,None,ScrollDown,정답입니다,133.3470873000333,None,133.3470873000333,None,133.3470873000333,None,133.3470873000333,None,134.63691510003991,None,134.63691510003991,135.14034660009202,,,,,,,,,,,,,,,,,,,,,,,,,,,,,,,,,,,,,,,,,,,,,,,,,122,2022-05-09_15h37.04.773,FishGame,2022.1.1,59.9444554493874,
,2,넌 슬기로워,2,Green,A,6.166666666666667,4.1,ScrollDown,ScrollUp,Green.png,practice,,,,,,,0,0,0,0,,,,,0,1,1,1,,,,,,,,,,,,,,,,,,,,,,,,,,,,,,,,,,,,,,,,,,,,,,,,,,,,,,,,,,,,,,,,,,,,,,,,,,n,19.447229100042023,135.64019850001205,None,135.64019850001205,None,,,,,,,,,,,,,,,,,,,,,,,,,,,,,,,,,,,,,,,,,,,122,2022-05-09_15h37.04.773,FishGame,2022.1.1,59.9444554493874,
,1,넌 따뜻해,1,Orange,B,6.083333333333333,5.6,ScrollUp,ScrollDown,Orange.png,1,Positive,Incongruent,,,,,0,0,0,0,,,,,,,,,,,,,0,0,0,0,,,,,,,,,,,,,,,,,,,,,,,,,,,,,,,,,,,,,,,,158.6576779000461,160.15695299999788,160.1907346000662,161.14052890008315,161.19096400006674,162.14062900003046,162.14062900003046,None,,,,,,,,,,,,,,,,,,,,,,,,,-0.15462963,-0.21481481,1,0,0,0.31444691005162895,None,155.10735170007683,None,1,1.961857600021176,163.32505580002908,None,ScrollDown,오답입니다,163.32505580002908,None,163.32505580002908,None,163.32505580002908,None,163.32505580002908,None,165.10706730000675,None,165.10706730000675,165.60765070002526,,,,,,,,,,,,,,,,122,2022-05-09_15h37.04.773,FishGame,2022.1.1,59.9444554493874,
,2,넌 기품있어,2,Orange,B,5.791666666666668,4.5,ScrollUp,ScrollDown,Orange.png,1,Positive,Incongruent,,,,,0,0,0,0,,,,,,,,,,,,,0,1,1,1,,,,,,,,,,,,,,,,,,,,,,,,,,,,,,,,,,,,,,,,,,,,,,,,,,,,,,,,,,,,,,,,,,,,,,,,,,,,,,,,,2,1.4778954000212252,166.2762069000164,None,ScrollUp,정답입니다,166.2762069000164,None,166.2762069000164,None,166.2762069000164,None,166.2762069000164,None,167.61178340006154,None,167.61178340006154,168.12471350003034,,,,,,,,,,,,,,,,122,2022-05-09_15h37.04.773,FishGame,2022.1.1,59.9444554493874,
,3,나를 보내줘,6,Green,A,0,0,ScrollUp,ScrollDown,Green.png,1,NonTarget,NonTarget,,,,,0,0,0,0,,,,,,,,,,,,,0,2,2,2,,,,,,,,,,,,,,,,,,,,,,,,,,,,,,,,,,,,,,,,,,,,,,,,,,,,,,,,,,,,,,,,,,,,,,,,,,,,,,,,,2,1.4896624000975862,168.78239970002323,None,ScrollUp,정답입니다,168.78239970002323,None,168.78239970002323,None,168.78239970002323,None,168.78239970002323,None,170.1410681999987,None,170.1410681999987,170.64125380001497,,,,,,,,,,,,,,,,122,2022-05-09_15h37.04.773,FishGame,2022.1.1,59.9444554493874,
,4,넌 수동적이야,4,Green,A,2.833333333333333,2.933333333333333,ScrollDown,ScrollUp,Green.png,1,Negative,Incongruent,,,,,0,0,0,0,,,,,,,,,,,,,0,3,3,3,,,,,,,,,,,,,,,,,,,,,,,,,,,,,,,,,,,,,,,,,,,,,,,,,,,,,,,,,,,,,,,,,,,,,,,,,,,,,,,,,1,1.6741488999687135,171.30625400005374,None,ScrollDown,정답입니다,171.30625400005374,None,171.30625400005374,None,171.30625400005374,None,171.30625400005374,None,172.84115200000815,None,172.84115200000815,173.34091110003646,,,,,,,,,,,,,,,,122,2022-05-09_15h37.04.773,FishGame,2022.1.1,59.9444554493874,
,5,넌 사심이 없어,3,Orange,B,4.916666666666666,4.333333333333333,ScrollUp,ScrollDown,Orange.png,1,Neutral,Neutral,,,,,0,0,0,0,,,,,,,,,,,,,0,4,4,4,,,,,,,,,,,,,,,,,,,,,,,,,,,,,,,,,,,,,,,,,,,,,,,,,,,,,,,,,,,,,,,,,,,,,,,,,,,,,,,,,2,1.6459923000074923,173.99357829999644,None,ScrollUp,정답입니다,173.99357829999644,None,173.99357829999644,None,173.99357829999644,None,173.99357829999644,None,175.51251210004557,None,175.51251210004557,176.02421790000517,,,,,,,,,,,,,,,,122,2022-05-09_15h37.04.773,FishGame,2022.1.1,59.9444554493874,
,6,넌 헤퍼,5,Green,A,2.458333333333334,2.233333333333333,ScrollDown,ScrollUp,Green.png,1,Negative,Incongruent,,,,,0,0,0,0,,,,,,,,,,,,,0,5,5,5,,,,,,,,,,,,,,,,,,,,,,,,,,,,,,,,,,,,,,,,,,,,,,,,,,,,,,,,,,,,,,,,,,,,,,,,,,,,,,,,,1,1.323328899918124,176.66652660002,None,ScrollDown,정답입니다,176.66652660002,None,176.66652660002,None,176.66652660002,None,176.66652660002,None,177.87445270002354,None,177.87445270002354,178.37458390009124,,,,,,,,,,,,,,,,122,2022-05-09_15h37.04.773,FishGame,2022.1.1,59.9444554493874,
,7,넌 말쑥해,3,Green,A,4.833333333333334,4.333333333333333,ScrollDown,ScrollUp,Green.png,1,Neutral,Neutral,,,,,0,0,0,0,,,,,,,,,,,,,0,6,6,6,,,,,,,,,,,,,,,,,,,,,,,,,,,,,,,,,,,,,,,,,,,,,,,,,,,,,,,,,,,,,,,,,,,,,,,,,,,,,,,,,1,1.5326332000549883,179.01443089998793,None,ScrollDown,정답입니다,179.01443089998793,None,179.01443089998793,None,179.01443089998793,None,179.01443089998793,None,180.42919280007482,None,180.42919280007482,180.94159830000717,,,,,,,,,,,,,,,,122,2022-05-09_15h37.04.773,FishGame,2022.1.1,59.9444554493874,
,8,넌 투덜거려,5,Orange,B,2.541666666666667,2.266666666666667,ScrollUp,ScrollDown,Orange.png,1,Negative,Congruent,,,,,0,0,0,0,,,,,,,,,,,,,0,7,7,7,,,,,,,,,,,,,,,,,,,,,,,,,,,,,,,,,,,,,,,,,,,,,,,,,,,,,,,,,,,,,,,,,,,,,,,,,,,,,,,,,2,1.3000305000459775,181.60049460001756,None,ScrollUp,정답입니다,181.60049460001756,None,181.60049460001756,None,181.60049460001756,None,181.60049460001756,None,182.76242899999488,None,182.76242899999488,183.27456669998355,,,,,,,,,,,,,,,,122,2022-05-09_15h37.04.773,FishGame,2022.1.1,59.9444554493874,
,9,넌 적극적이야,1,Green,A,5.708333333333333,5.533333333333333,ScrollDown,ScrollUp,Green.png,1,Positive,Congruent,,,,,0,0,0,0,,,,,,,,,,,,,0,8,8,8,,,,,,,,,,,,,,,,,,,,,,,,,,,,,,,,,,,,,,,,,,,,,,,,,,,,,,,,,,,,,,,,,,,,,,,,,,,,,,,,,1,1.3721208999631926,183.92195310001262,None,ScrollDown,정답입니다,183.92195310001262,None,183.92195310001262,None,183.92195310001262,None,183.92195310001262,None,185.17446760006715,None,185.17446760006715,185.6745161000872,,,,,,,,,,,,,,,,122,2022-05-09_15h37.04.773,FishGame,2022.1.1,59.9444554493874,
,10,넌 재미없어,4,Orange,B,2.625,2.966666666666667,ScrollUp,ScrollDown,Orange.png,1,Negative,Congruent,,,,,0,0,0,0,,,,,,,,,,,,,0,9,9,9,,,,,,,,,,,,,,,,,,,,,,,,,,,,,,,,,,,,,,,,,,,,,,,,,,,,,,,,,,,,,,,,,,,,,,,,,,,,,,,,,2,1.4277425999753177,186.3393598999828,None,ScrollUp,정답입니다,186.3393598999828,None,186.3393598999828,None,186.3393598999828,None,186.3393598999828,None,187.62902930006385,None,187.62902930006385,188.14142270002048,,,,,,,,,,,,,,,,122,2022-05-09_15h37.04.773,FishGame,2022.1.1,59.9444554493874,
,11,넌 명석해,2,Green,A,5.875,4.033333333333333,ScrollDown,ScrollUp,Green.png,1,Positive,Congruent,,,,,0,0,0,0,,,,,,,,,,,,,0,10,10,10,,,,,,,,,,,,,,,,,,,,,,,,,,,,,,,,,,,,,,,,,,,,,,,,,,,,,,,,,,,,,,,,,,,,,,,,,,,,,,,,,1,1.361308499937877,188.78853300004266,None,ScrollDown,정답입니다,188.78853300004266,None,188.78853300004266,None,188.78853300004266,None,188.78853300004266,None,190.02795650006738,None,190.02795650006738,190.5413763000397,,,,,,,,,,,,,,,,122,2022-05-09_15h37.04.773,FishGame,2022.1.1,59.9444554493874,
,12,나를 데려가줘,6,Orange,B,0,0,ScrollDown,ScrollUp,Orange.png,1,NonTarget,NonTarget,,,,,0,0,0,0,,,,,,,,,,,,,0,11,11,11,,,,,,,,,,,,,,,,,,,,,,,,,,,,,,,,,,,,,,,,,,,,,,,,,,,,,,,,,,,,,,,,,,,,,,,,,,,,,,,,,1,1.40751759998966,191.19516490004025,None,ScrollDown,정답입니다,191.19516490004025,None,191.19516490004025,None,191.19516490004025,None,191.19516490004025,None,192.4745750000002,None,192.4745750000002,192.97476970008574,,,,,,,,,,,,,,,,122,2022-05-09_15h37.04.773,FishGame,2022.1.1,59.9444554493874,
,13,넌 소심해,4,Green,A,3,3.1,ScrollDown,ScrollUp,Green.png,1,Negative,Incongruent,,,,,0,0,0,0,,,,,,,,,,,,,0,12,12,12,,,,,,,,,,,,,,,,,,,,,,,,,,,,,,,,,,,,,,,,,,,,,,,,,,,,,,,,,,,,,,,,,,,,,,,,,,,,,,,,,1,1.338851600070484,193.62811260006856,None,ScrollDown,정답입니다,193.62811260006856,None,193.62811260006856,None,193.62811260006856,None,193.62811260006856,None,194.84152540005744,None,194.84152540005744,195.34109010000248,,,,,,,,,,,,,,,,122,2022-05-09_15h37.04.773,FishGame,2022.1.1,59.9444554493874,
,14,넌 합리적이야,2,Green,A,5.583333333333333,4.733333333333333,ScrollDown,ScrollUp,Green.png,1,Positive,Congruent,,,,,0,0,0,0,,,,,,,,,,,,,0,13,13,13,,,,,,,,,,,,,,,,,,,,,,,,,,,,,,,,,,,,,,,,,,,,,,,,,,,,,,,,,,,,,,,,,,,,,,,,,,,,,,,,,1,1.2497564000077546,195.98312390001956,None,ScrollDown,정답입니다,195.98312390001956,None,195.98312390001956,None,195.98312390001956,None,195.98312390001956,None,197.12186060007662,None,197.12186060007662,197.62485010002274,,,,,,,,,,,,,,,,122,2022-05-09_15h37.04.773,FishGame,2022.1.1,59.9444554493874,
,15,넌 무자비해,5,Orange,B,2.333333333333333,2.1,ScrollUp,ScrollDown,Orange.png,1,Negative,Congruent,,,,,0,0,0,0,,,,,,,,,,,,,0,14,14,14,,,,,,,,,,,,,,,,,,,,,,,,,,,,,,,,,,,,,,,,,,,,,,,,,,,,,,,,,,,,,,,,,,,,,,,,,,,,,,,,,2,1.2661196000408381,198.279207100044,None,ScrollUp,정답입니다,198.279207100044,None,198.279207100044,None,198.279207100044,None,198.279207100044,None,199.41291810001712,None,199.41291810001712,199.92479780002031,,,,,,,,,,,,,,,,122,2022-05-09_15h37.04.773,FishGame,2022.1.1,59.9444554493874,
,16,나를 보내줘,6,Green,A,0,0,ScrollUp,ScrollDown,Green.png,1,NonTarget,NonTarget,,,,,0,0,0,0,,,,,,,,,,,,,0,15,15,15,,,,,,,,,,,,,,,,,,,,,,,,,,,,,,,,,,,,,,,,,,,,,,,,,,,,,,,,,,,,,,,,,,,,,,,,,,,,,,,,,2,1.5184419999131933,200.5605360000627,None,ScrollUp,정답입니다,200.5605360000627,None,200.5605360000627,None,200.5605360000627,None,200.5605360000627,None,201.9714809000725,None,201.9714809000725,202.47490849997848,,,,,,,,,,,,,,,,122,2022-05-09_15h37.04.773,FishGame,2022.1.1,59.9444554493874,
,17,넌 현실적이야,3,Orange,B,4.608695652173913,4.766666666666667,ScrollUp,ScrollDown,Orange.png,1,Neutral,Neutral,,,,,0,0,0,0,,,,,,,,,,,,,0,16,16,16,,,,,,,,,,,,,,,,,,,,,,,,,,,,,,,,,,,,,,,,,,,,,,,,,,,,,,,,,,,,,,,,,,,,,,,,,,,,,,,,,2,2.698459399980493,203.12170210003387,None,ScrollUp,정답입니다,203.12170210003387,None,203.12170210003387,None,203.12170210003387,None,203.12170210003387,None,205.69635660003405,None,205.69635660003405,206.20835199998692,,,,,,,,,,,,,,,,122,2022-05-09_15h37.04.773,FishGame,2022.1.1,59.9444554493874,
,18,넌 의리있어,1,Orange,B,5.833333333333334,5.633333333333334,ScrollUp,ScrollDown,Orange.png,1,Positive,Incongruent,,,,,0,0,0,0,,,,,,,,,,,,,0,17,17,17,,,,,,,,,,,,,,,,,,,,,,,,,,,,,,,,,,,,,,,,,,,,,,,,,,,,,,,,,,,,,,,,,,,,,,,,,,,,,,,,,2,1.3451273000100628,206.85418410005514,None,ScrollUp,정답입니다,206.85418410005514,None,206.85418410005514,None,206.85418410005514,None,206.85418410005514,None,208.07485169998836,None,208.07485169998836,208.57486030005384,,,,,,,,,,,,,,,,122,2022-05-09_15h37.04.773,FishGame,2022.1.1,59.9444554493874,
,19,넌 신경과민이야,5,Green,A,2.541666666666667,2.166666666666667,ScrollDown,ScrollUp,Green.png,1,Negative,Incongruent,,,,,0,0,0,0,,,,,,,,,,,,,0,18,18,18,,,,,,,,,,,,,,,,,,,,,,,,,,,,,,,,,,,,,,,,,,,,,,,,,,,,,,,,,,,,,,,,,,,,,,,,,,,,,,,,,1,1.2664103999268264,209.22757740004454,None,ScrollDown,정답입니다,209.22757740004454,None,209.22757740004454,None,209.22757740004454,None,209.22757740004454,None,210.37152450007852,None,210.37152450007852,210.8749065999873,,,,,,,,,,,,,,,,122,2022-05-09_15h37.04.773,FishGame,2022.1.1,59.9444554493874,
,20,넌 편안해,1,Green,A,5.916666666666666,5.866666666666666,ScrollDown,ScrollUp,Green.png,1,Positive,Congruent,,,,,0,0,0,0,,,,,,,,,,,,,0,19,19,19,,,,,,,,,,,,,,,,,,,,,,,,,,,,,,,,,,,,,,,,,,,,,,,,,,,,,,,,,,,,,,,,,,,,,,,,,,,,,,,,,1,1.3723991001024842,211.52827410004102,None,ScrollDown,정답입니다,211.52827410004102,None,211.52827410004102,None,211.52827410004102,None,211.52827410004102,None,212.77542379999068,None,212.77542379999068,213.27497520006727,,,,,,,,,,,,,,,,122,2022-05-09_15h37.04.773,FishGame,2022.1.1,59.9444554493874,
,21,넌 품위있어,2,Orange,B,5.291666666666666,4.466666666666667,ScrollUp,ScrollDown,Orange.png,1,Positive,Incongruent,,,,,0,0,0,0,,,,,,,,,,,,,0,20,20,20,,,,,,,,,,,,,,,,,,,,,,,,,,,,,,,,,,,,,,,,,,,,,,,,,,,,,,,,,,,,,,,,,,,,,,,,,,,,,,,,,2,1.2959827999584377,213.92672730004415,None,ScrollUp,정답입니다,213.92672730004415,None,213.92672730004415,None,213.92672730004415,None,213.92672730004415,None,215.09663630009163,None,215.09663630009163,215.6085065000225,,,,,,,,,,,,,,,,122,2022-05-09_15h37.04.773,FishGame,2022.1.1,59.9444554493874,
,22,넌 빈틈없어,3,Green,A,4.833333333333333,3.966666666666667,ScrollDown,ScrollUp,Green.png,1,Neutral,Neutral,,,,,0,0,0,0,,,,,,,,,,,,,0,21,21,21,,,,,,,,,,,,,,,,,,,,,,,,,,,,,,,,,,,,,,,,,,,,,,,,,,,,,,,,,,,,,,,,,,,,,,,,,,,,,,,,,1,1.3975054000038654,216.2558833999792,None,ScrollDown,정답입니다,216.2558833999792,None,216.2558833999792,None,216.2558833999792,None,216.2558833999792,None,217.5297217000043,None,217.5297217000043,218.04225729999598,,,,,,,,,,,,,,,,122,2022-05-09_15h37.04.773,FishGame,2022.1.1,59.9444554493874,
,23,넌 상상력없어,4,Orange,B,2.833333333333333,3.133333333333333,ScrollUp,ScrollDown,Orange.png,1,Negative,Congruent,,,,,0,0,0,0,,,,,,,,,,,,,0,22,22,22,,,,,,,,,,,,,,,,,,,,,,,,,,,,,,,,,,,,,,,,,,,,,,,,,,,,,,,,,,,,,,,,,,,,,,,,,,,,,,,,,2,1.414538799901493,218.699317599996,None,ScrollUp,정답입니다,218.699317599996,None,218.699317599996,None,218.699317599996,None,218.699317599996,None,219.98101740004495,None,219.98101740004495,220.49154140008613,,,,,,,,,,,,,,,,122,2022-05-09_15h37.04.773,FishGame,2022.1.1,59.9444554493874,
,24,넌 지혜로워,2,Orange,B,6.333333333333334,4.633333333333334,ScrollUp,ScrollDown,Orange.png,1,Positive,Incongruent,,,,,0,0,0,0,,,,,,,,,,,,,0,23,23,23,,,,,,,,,,,,,,,,,,,,,,,,,,,,,,,,,,,,,,,,,,,,,,,,,,,,,,,,,,,,,,,,,,,,,,,,,,,,,,,,,2,1.2012912000063807,221.15265619999263,None,ScrollUp,정답입니다,221.15265619999263,None,221.15265619999263,None,221.15265619999263,None,221.15265619999263,None,222.22212829999626,None,222.22212829999626,222.7256592999911,,,,,,,,,,,,,,,,122,2022-05-09_15h37.04.773,FishGame,2022.1.1,59.9444554493874,
,25,넌 시끄러워,4,Green,A,2.833333333333333,3.033333333333333,ScrollDown,ScrollUp,Green.png,1,Negative,Incongruent,,,,,0,0,0,0,,,,,,,,,,,,,0,24,24,24,,,,,,,,,,,,,,,,,,,,,,,,,,,,,,,,,,,,,,,,,,,,,,,,,,,,,,,,,,,,,,,,,,,,,,,,,,,,,,,,,1,1.223736900021322,223.37449810002,None,ScrollDown,정답입니다,223.37449810002,None,223.37449810002,None,223.37449810002,None,223.37449810002,None,224.4749131000135,None,224.4749131000135,224.97565470007248,,,,,,,,,,,,,,,,122,2022-05-09_15h37.04.773,FishGame,2022.1.1,59.9444554493874,
,26,넌 만사태평이야,3,Orange,B,4,4.333333333333333,ScrollUp,ScrollDown,Orange.png,1,Neutral,Neutral,,,,,0,0,0,0,,,,,,,,,,,,,0,25,25,25,,,,,,,,,,,,,,,,,,,,,,,,,,,,,,,,,,,,,,,,,,,,,,,,,,,,,,,,,,,,,,,,,,,,,,,,,,,,,,,,,2,1.253811200032942,225.63437440001871,None,ScrollUp,정답입니다,225.63437440001871,None,225.63437440001871,None,225.63437440001871,None,225.63437440001871,None,226.75886609998997,None,226.75886609998997,227.2591107999906,,,,,,,,,,,,,,,,122,2022-05-09_15h37.04.773,FishGame,2022.1.1,59.9444554493874,
,27,넌 붙임성있어,1,Green,A,5.708333333333333,5.633333333333334,ScrollDown,ScrollUp,Green.png,1,Positive,Congruent,,,,,0,0,0,0,,,,,,,,,,,,,0,26,26,26,,,,,,,,,,,,,,,,,,,,,,,,,,,,,,,,,,,,,,,,,,,,,,,,,,,,,,,,,,,,,,,,,,,,,,,,,,,,,,,,,1,1.1653129999758676,227.92184409999754,None,ScrollDown,정답입니다,227.92184409999754,None,227.92184409999754,None,227.92184409999754,None,227.92184409999754,None,228.9469086000463,None,228.9469086000463,229.45865330006927,,,,,,,,,,,,,,,,122,2022-05-09_15h37.04.773,FishGame,2022.1.1,59.9444554493874,
,28,넌 영리해,2,Green,A,6,4.033333333333333,ScrollDown,ScrollUp,Green.png,1,Positive,Congruent,,,,,0,0,0,0,,,,,,,,,,,,,0,27,27,27,,,,,,,,,,,,,,,,,,,,,,,,,,,,,,,,,,,,,,,,,,,,,,,,,,,,,,,,,,,,,,,,,,,,,,,,,,,,,,,,,1,1.3057555999839678,230.10224340006243,None,ScrollDown,정답입니다,230.10224340006243,None,230.10224340006243,None,230.10224340006243,None,230.10224340006243,None,231.2918650000356,None,231.2918650000356,231.79271130007692,,,,,,,,,,,,,,,,122,2022-05-09_15h37.04.773,FishGame,2022.1.1,59.9444554493874,
,29,넌 열심이야,1,Orange,B,6.041666666666667,5.833333333333333,ScrollUp,ScrollDown,Orange.png,1,Positive,Incongruent,,,,,0,0,0,0,,,,,,,,,,,,,0,28,28,28,,,,,,,,,,,,,,,,,,,,,,,,,,,,,,,,,,,,,,,,,,,,,,,,,,,,,,,,,,,,,,,,,,,,,,,,,,,,,,,,,2,1.2607626999961212,232.43951250007376,None,ScrollUp,정답입니다,232.43951250007376,None,232.43951250007376,None,232.43951250007376,None,232.43951250007376,None,233.57549860002473,None,233.57549860002473,234.07555270008743,,,,,,,,,,,,,,,,122,2022-05-09_15h37.04.773,FishGame,2022.1.1,59.9444554493874,
,30,넌 인기없어,4,Orange,B,3,3.3,ScrollUp,ScrollDown,Orange.png,1,Negative,Congruent,,,,,0,0,0,0,,,,,,,,,,,,,0,29,29,29,,,,,,,,,,,,,,,,,,,,,,,,,,,,,,,,,,,,,,,,,,,,,,,,,,,,,,,,,,,,,,,,,,,,,,,,,,,,,,,,,2,1.2395931000355631,234.73462740005925,None,ScrollUp,정답입니다,234.73462740005925,None,234.73462740005925,None,234.73462740005925,None,234.73462740005925,None,235.8419953000266,None,235.8419953000266,236.34209839999676,,,,,,,,,,,,,,,,122,2022-05-09_15h37.04.773,FishGame,2022.1.1,59.9444554493874,
,31,넌 익살스러워,3,Green,A,4.708333333333334,4.833333333333333,ScrollDown,ScrollUp,Green.png,1,Neutral,Neutral,,,,,0,0,0,0,,,,,,,,,,,,,0,30,30,30,,,,,,,,,,,,,,,,,,,,,,,,,,,,,,,,,,,,,,,,,,,,,,,,,,,,,,,,,,,,,,,,,,,,,,,,,,,,,,,,,1,1.2005298000294715,236.99456900008954,None,ScrollDown,정답입니다,236.99456900008954,None,236.99456900008954,None,236.99456900008954,None,236.99456900008954,None,238.06462399999145,None,238.06462399999145,238.57614930009004,,,,,,,,,,,,,,,,122,2022-05-09_15h37.04.773,FishGame,2022.1.1,59.9444554493874,
,32,넌 이기적이야,5,Orange,B,2.291666666666667,2.333333333333333,ScrollUp,ScrollDown,Orange.png,1,Negative,Congruent,,,,,0,0,0,0,,,,,,,,,,,,,0,31,31,31,,,,,,,,,,,,,,,,,,,,,,,,,,,,,,,,,,,,,,,,,,,,,,,,,,,,,,,,,,,,,,,,,,,,,,,,,,,,,,,,,2,1.1546504000434652,239.22805340006016,None,ScrollUp,정답입니다,239.22805340006016,None,239.22805340006016,None,239.22805340006016,None,239.22805340006016,None,240.25894349999726,None,240.25894349999726,240.75870350003242,,,,,,,,,,,,,,,,122,2022-05-09_15h37.04.773,FishGame,2022.1.1,59.9444554493874,
,33,나를 데려가줘,6,Orange,B,0,0,ScrollDown,ScrollUp,Orange.png,1,NonTarget,NonTarget,,,,,0,0,0,0,,,,,,,,,,,,,0,32,32,32,,,,,,,,,,,,,,,,,,,,,,,,,,,,,,,,,,,,,,,,,,,,,,,,,,,,,,,,,,,,,,,,,,,,,,,,,,,,,,,,,2,1.2763810999458656,241.3984924000688,None,ScrollUp,오답입니다,241.3984924000688,None,241.3984924000688,None,241.3984924000688,None,241.3984924000688,None,242.5626092000166,None,242.5626092000166,243.07586690003518,,,,,,,,,,,,,,,,122,2022-05-09_15h37.04.773,FishGame,2022.1.1,59.9444554493874,
,34,넌 기회주의자야,5,Green,A,2.875,2.133333333333333,ScrollDown,ScrollUp,Green.png,1,Negative,Incongruent,,,,,0,0,0,0,,,,,,,,,,,,,0,33,33,33,,,,,,,,,,,,,,,,,,,,,,,,,,,,,,,,,,,,,,,,,,,,,,,,,,,,,,,,,,,,,,,,,,,,,,,,,,,,,,,,,1,1.1939291999442503,243.72141530003864,None,ScrollDown,정답입니다,243.72141530003864,None,243.72141530003864,None,243.72141530003864,None,243.72141530003864,None,244.79614970006514,None,244.79614970006514,245.3090812000446,,,,,,,,,,,,,,,,122,2022-05-09_15h37.04.773,FishGame,2022.1.1,59.9444554493874,
,1,넌 미성숙해,4,Green,A,3,3.2,ScrollDown,ScrollUp,Green.png,2,Negative,Incongruent,,,,,0,0,0,0,,,,,,,,,,,,,,,,,0,0,0,0,,,,,,,,,,,,,,,,,,,,,,,,,,,,,,,,,,,,277.54318440007046,279.04335100005846,279.07705500000156,280.0269733000314,280.07675750006456,281.02694390004035,281.02694390004035,None,,,,,,,,,,,,,,,,,,,,,,,,,,,,,,,,,,1,1.6036114000016823,282.20629220001865,None,ScrollDown,정답입니다,282.20629220001865,None,282.20629220001865,None,282.20629220001865,None,282.20629220001865,None,283.62672070006374,None,283.62672070006374,284.1271138000302,245.80938109999988,None,245.80938109999988,None,-0.18240741,-0.13055556,1,0,0,0.01608090999070555,None,275.810052899993,None,,,122,2022-05-09_15h37.04.773,FishGame,2022.1.1,59.9444554493874,
,2,넌 반사회적이야,5,Orange,B,2.416666666666667,2.033333333333333,ScrollUp,ScrollDown,Orange.png,2,Negative,Congruent,,,,,0,0,0,0,,,,,,,,,,,,,,,,,0,1,1,1,,,,,,,,,,,,,,,,,,,,,,,,,,,,,,,,,,,,,,,,,,,,,,,,,,,,,,,,,,,,,,,,,,,,,,,,,,,,,2,1.2056162999942899,284.7819119000342,None,ScrollUp,정답입니다,284.7819119000342,None,284.7819119000342,None,284.7819119000342,None,284.7819119000342,None,285.86015359999146,None,285.86015359999146,286.36027699999977,,,,,,,,,,,,,,,,122,2022-05-09_15h37.04.773,FishGame,2022.1.1,59.9444554493874,
,3,넌 유능해,2,Green,A,6.208333333333333,4.433333333333334,ScrollDown,ScrollUp,Green.png,2,Positive,Congruent,,,,,0,0,0,0,,,,,,,,,,,,,,,,,0,2,2,2,,,,,,,,,,,,,,,,,,,,,,,,,,,,,,,,,,,,,,,,,,,,,,,,,,,,,,,,,,,,,,,,,,,,,,,,,,,,,1,1.2171419000951573,287.0100626000203,None,ScrollDown,정답입니다,287.0100626000203,None,287.0100626000203,None,287.0100626000203,None,287.0100626000203,None,288.1068732000422,None,288.1068732000422,288.61047700000927,,,,,,,,,,,,,,,,122,2022-05-09_15h37.04.773,FishGame,2022.1.1,59.9444554493874,
,4,넌 능숙해,2,Orange,B,5.666666666666667,4.733333333333333,ScrollUp,ScrollDown,Orange.png,2,Positive,Incongruent,,,,,0,0,0,0,,,,,,,,,,,,,,,,,0,3,3,3,,,,,,,,,,,,,,,,,,,,,,,,,,,,,,,,,,,,,,,,,,,,,,,,,,,,,,,,,,,,,,,,,,,,,,,,,,,,,2,1.1840702999616042,289.2544436000753,None,ScrollUp,정답입니다,289.2544436000753,None,289.2544436000753,None,289.2544436000753,None,289.2544436000753,None,290.3235216999892,None,290.3235216999892,290.826490300009,,,,,,,,,,,,,,,,122,2022-05-09_15h37.04.773,FishGame,2022.1.1,59.9444554493874,
,5,넌 진부해,4,Orange,B,2.458333333333333,3.166666666666667,ScrollUp,ScrollDown,Orange.png,2,Negative,Congruent,,,,,0,0,0,0,,,,,,,,,,,,,,,,,0,4,4,4,,,,,,,,,,,,,,,,,,,,,,,,,,,,,,,,,,,,,,,,,,,,,,,,,,,,,,,,,,,,,,,,,,,,,,,,,,,,,2,1.1030008000088856,291.47988700005226,None,ScrollUp,정답입니다,291.47988700005226,None,291.47988700005226,None,291.47988700005226,None,291.47988700005226,None,292.4566973000765,None,292.4566973000765,292.9603352000704,,,,,,,,,,,,,,,,122,2022-05-09_15h37.04.773,FishGame,2022.1.1,59.9444554493874,
,6,나를 보내줘,6,Green,A,0,0,ScrollUp,ScrollDown,Green.png,2,NonTarget,NonTarget,,,,,0,0,0,0,,,,,,,,,,,,,,,,,0,5,5,5,,,,,,,,,,,,,,,,,,,,,,,,,,,,,,,,,,,,,,,,,,,,,,,,,,,,,,,,,,,,,,,,,,,,,,,,,,,,,1,0.9320087999803945,293.59154480008874,None,ScrollDown,오답입니다,293.59154480008874,None,293.59154480008874,None,293.59154480008874,None,293.59154480008874,None,294.4172716999892,None,294.4172716999892,294.92710790003184,,,,,,,,,,,,,,,,122,2022-05-09_15h37.04.773,FishGame,2022.1.1,59.9444554493874,
,7,넌 엄격해,3,Green,A,4.166666666666666,4.1,ScrollDown,ScrollUp,Green.png,2,Neutral,Neutral,,,,,0,0,0,0,,,,,,,,,,,,,,,,,0,6,6,6,,,,,,,,,,,,,,,,,,,,,,,,,,,,,,,,,,,,,,,,,,,,,,,,,,,,,,,,,,,,,,,,,,,,,,,,,,,,,1,1.174837699974887,295.576284400071,None,ScrollDown,정답입니다,295.576284400071,None,295.576284400071,None,295.576284400071,None,295.576284400071,None,296.6267805000534,None,296.6267805000534,297.12733330007177,,,,,,,,,,,,,,,,122,2022-05-09_15h37.04.773,FishGame,2022.1.1,59.9444554493874,
,8,나를 보내줘,6,Green,A,0,0,ScrollUp,ScrollDown,Green.png,2,NonTarget,NonTarget,,,,,0,0,0,0,,,,,,,,,,,,,,,,,0,7,7,7,,,,,,,,,,,,,,,,,,,,,,,,,,,,,,,,,,,,,,,,,,,,,,,,,,,,,,,,,,,,,,,,,,,,,,,,,,,,,2,1.203884500078857,297.7632126000244,None,ScrollUp,정답입니다,297.7632126000244,None,297.7632126000244,None,297.7632126000244,None,297.7632126000244,None,298.85729760001414,None,298.85729760001414,299.36038960004225,,,,,,,,,,,,,,,,122,2022-05-09_15h37.04.773,FishGame,2022.1.1,59.9444554493874,
,9,넌 대담해,3,Orange,B,4.875,4.866666666666666,ScrollUp,ScrollDown,Orange.png,2,Neutral,Neutral,,,,,0,0,0,0,,,,,,,,,,,,,,,,,0,8,8,8,,,,,,,,,,,,,,,,,,,,,,,,,,,,,,,,,,,,,,,,,,,,,,,,,,,,,,,,,,,,,,,,,,,,,,,,,,,,,2,1.1907917000353336,300.0151518000057,None,ScrollUp,정답입니다,300.0151518000057,None,300.0151518000057,None,300.0151518000057,None,300.0151518000057,None,301.076851000078,None,301.076851000078,301.57724750007037,,,,,,,,,,,,,,,,122,2022-05-09_15h37.04.773,FishGame,2022.1.1,59.9444554493874,
,10,넌 꾸준해,1,Green,A,5.916666666666668,5.8,ScrollDown,ScrollUp,Green.png,2,Positive,Congruent,,,,,0,0,0,0,,,,,,,,,,,,,,,,,0,9,9,9,,,,,,,,,,,,,,,,,,,,,,,,,,,,,,,,,,,,,,,,,,,,,,,,,,,,,,,,,,,,,,,,,,,,,,,,,,,,,1.120370368162791,1.1009299999568611,302.2253771000542,None,ScrollDown,정답입니다,302.2253771000542,None,302.2253771000542,None,302.2253771000542,None,302.2253771000542,None,303.2075042000506,None,303.2075042000506,303.71046800003387,,,,,,,,,,,,,,,,122,2022-05-09_15h37.04.773,FishGame,2022.1.1,59.9444554493874,
,11,나를 데려가줘,6,Orange,B,0,0,ScrollDown,ScrollUp,Orange.png,2,NonTarget,NonTarget,,,,,0,0,0,0,,,,,,,,,,,,,,,,,0,10,10,10,,,,,,,,,,,,,,,,,,,,,,,,,,,,,,,,,,,,,,,,,,,,,,,,,,,,,,,,,,,,,,,,,,,,,,,,,,,,,1.0123456915219624,1.4912524999817833,304.3640298000537,None,ScrollDown,정답입니다,304.3640298000537,None,304.3640298000537,None,304.3640298000537,None,304.3640298000537,None,305.7272085000295,None,305.7272085000295,306.2269545000745,,,,,,,,,,,,,,,,122,2022-05-09_15h37.04.773,FishGame,2022.1.1,59.9444554493874,
,12,넌 독선적이야,5,Green,A,2.458333333333333,1.933333333333333,ScrollDown,ScrollUp,Green.png,2,Negative,Incongruent,,,,,0,0,0,0,,,,,,,,,,,,,,,,,0,11,11,11,,,,,,,,,,,,,,,,,,,,,,,,,,,,,,,,,,,,,,,,,,,,,,,,,,,,,,,,,,,,,,,,,,,,,,,,,,,,,1,1.1725936000002548,306.8804790000431,None,ScrollDown,정답입니다,306.8804790000431,None,306.8804790000431,None,306.8804790000431,None,306.8804790000431,None,307.92704650003,None,307.92704650003,308.4272674000822,,,,,,,,,,,,,,,,122,2022-05-09_15h37.04.773,FishGame,2022.1.1,59.9444554493874,
,13,나를 보내줘,6,Green,A,0,0,ScrollUp,ScrollDown,Green.png,2,NonTarget,NonTarget,,,,,0,0,0,0,,,,,,,,,,,,,,,,,0,12,12,12,,,,,,,,,,,,,,,,,,,,,,,,,,,,,,,,,,,,,,,,,,,,,,,,,,,,,,,,,,,,,,,,,,,,,,,,,,,,,2,1.2911732000065967,309.0615417000372,None,ScrollUp,정답입니다,309.0615417000372,None,309.0615417000372,None,309.0615417000372,None,309.0615417000372,None,310.2435991000384,None,310.2435991000384,310.7443710999796,,,,,,,,,,,,,,,,122,2022-05-09_15h37.04.773,FishGame,2022.1.1,59.9444554493874,
,14,넌 책임감있어,1,Orange,B,6.347826086956522,6,ScrollUp,ScrollDown,Orange.png,2,Positive,Incongruent,,,,,0,0,0,0,,,,,,,,,,,,,,,,,0,13,13,13,,,,,,,,,,,,,,,,,,,,,,,,,,,,,,,,,,,,,,,,,,,,,,,,,,,,,,,,,,,,,,,,,,,,,,,,,,,,,2,1.2849455999676138,311.4036649999907,None,ScrollUp,정답입니다,311.4036649999907,None,311.4036649999907,None,311.4036649999907,None,311.4036649999907,None,312.55722289998084,None,312.55722289998084,313.0610311999917,,,,,,,,,,,,,,,,122,2022-05-09_15h37.04.773,FishGame,2022.1.1,59.9444554493874,
,15,넌 문학적이야,3,Green,A,4.708333333333334,4.333333333333333,ScrollDown,ScrollUp,Green.png,2,Neutral,Neutral,,,,,0,0,0,0,,,,,,,,,,,,,,,,,0,14,14,14,,,,,,,,,,,,,,,,,,,,,,,,,,,,,,,,,,,,,,,,,,,,,,,,,,,,,,,,,,,,,,,,,,,,,,,,,,,,,1,1.2803928999928758,313.70587409997825,None,ScrollDown,정답입니다,313.70587409997825,None,313.70587409997825,None,313.70587409997825,None,313.70587409997825,None,314.86559830000624,None,314.86559830000624,315.37751550006215,,,,,,,,,,,,,,,,122,2022-05-09_15h37.04.773,FishGame,2022.1.1,59.9444554493874,
,16,넌 재미있어,1,Orange,B,5.875,5.7,ScrollUp,ScrollDown,Orange.png,2,Positive,Incongruent,,,,,0,0,0,0,,,,,,,,,,,,,,,,,0,15,15,15,,,,,,,,,,,,,,,,,,,,,,,,,,,,,,,,,,,,,,,,,,,,,,,,,,,,,,,,,,,,,,,,,,,,,,,,,,,,,2,1.2048635000828654,316.0212634000927,None,ScrollUp,정답입니다,316.0212634000927,None,316.0212634000927,None,316.0212634000927,None,316.0212634000927,None,317.1107237000251,None,317.1107237000251,317.6110253999941,,,,,,,,,,,,,,,,122,2022-05-09_15h37.04.773,FishGame,2022.1.1,59.9444554493874,
,17,나를 데려가줘,6,Orange,B,0,0,ScrollDown,ScrollUp,Orange.png,2,NonTarget,NonTarget,,,,,0,0,0,0,,,,,,,,,,,,,,,,,0,16,16,16,,,,,,,,,,,,,,,,,,,,,,,,,,,,,,,,,,,,,,,,,,,,,,,,,,,,,,,,,,,,,,,,,,,,,,,,,,,,,1,1.5661336000775918,318.25710480008274,None,ScrollDown,정답입니다,318.25710480008274,None,318.25710480008274,None,318.25710480008274,None,318.25710480008274,None,319.6988239000784,None,319.6988239000784,320.2109651999781,,,,,,,,,,,,,,,,122,2022-05-09_15h37.04.773,FishGame,2022.1.1,59.9444554493874,
,18,넌 협력적이야,1,Green,A,5.625,5.633333333333334,ScrollDown,ScrollUp,Green.png,2,Positive,Congruent,,,,,0,0,0,0,,,,,,,,,,,,,,,,,0,17,17,17,,,,,,,,,,,,,,,,,,,,,,,,,,,,,,,,,,,,,,,,,,,,,,,,,,,,,,,,,,,,,,,,,,,,,,,,,,,,,1,1.1234682999784127,320.8494743000483,None,ScrollDown,정답입니다,320.8494743000483,None,320.8494743000483,None,320.8494743000483,None,320.8494743000483,None,321.8610586000141,None,321.8610586000141,322.36117839999497,,,,,,,,,,,,,,,,122,2022-05-09_15h37.04.773,FishGame,2022.1.1,59.9444554493874,
,19,넌 평범해,3,Orange,B,4.333333333333332,4.233333333333333,ScrollUp,ScrollDown,Orange.png,2,Neutral,Neutral,,,,,0,0,0,0,,,,,,,,,,,,,,,,,0,18,18,18,,,,,,,,,,,,,,,,,,,,,,,,,,,,,,,,,,,,,,,,,,,,,,,,,,,,,,,,,,,,,,,,,,,,,,,,,,,,,2,1.8944947000127286,323.0077592000598,None,ScrollUp,정답입니다,323.0077592000598,None,323.0077592000598,None,323.0077592000598,None,323.0077592000598,None,324.7813783000456,None,324.7813783000456,325.29412850004155,,,,,,,,,,,,,,,,122,2022-05-09_15h37.04.773,FishGame,2022.1.1,59.9444554493874,
,20,넌 오만해,5,Green,A,2.333333333333333,2,ScrollDown,ScrollUp,Green.png,2,Negative,Incongruent,,,,,0,0,0,0,,,,,,,,,,,,,,,,,0,19,19,19,,,,,,,,,,,,,,,,,,,,,,,,,,,,,,,,,,,,,,,,,,,,,,,,,,,,,,,,,,,,,,,,,,,,,,,,,,,,,1,1.3036030000075698,325.9383321000496,None,ScrollDown,정답입니다,325.9383321000496,None,325.9383321000496,None,325.9383321000496,None,325.9383321000496,None,327.1273617000552,None,327.1273617000552,327.6280628000386,,,,,,,,,,,,,,,,122,2022-05-09_15h37.04.773,FishGame,2022.1.1,59.9444554493874,
,21,넌 운이없어,4,Orange,B,3,3.466666666666667,ScrollUp,ScrollDown,Orange.png,2,Negative,Congruent,,,,,0,0,0,0,,,,,,,,,,,,,,,,,0,20,20,20,,,,,,,,,,,,,,,,,,,,,,,,,,,,,,,,,,,,,,,,,,,,,,,,,,,,,,,,,,,,,,,,,,,,,,,,,,,,,1.9783950746059418,1.335732499952428,328.27474160003476,None,ScrollUp,정답입니다,328.27474160003476,None,328.27474160003476,None,328.27474160003476,None,328.27474160003476,None,329.49084980005864,None,329.49084980005864,329.9946005999809,,,,,,,,,,,,,,,,122,2022-05-09_15h37.04.773,FishGame,2022.1.1,59.9444554493874,
,22,넌 창조적이야,2,Orange,B,6.125,4.633333333333334,ScrollUp,ScrollDown,Orange.png,2,Positive,Incongruent,,,,,0,0,0,0,,,,,,,,,,,,,,,,,0,21,21,21,,,,,,,,,,,,,,,,,,,,,,,,,,,,,,,,,,,,,,,,,,,,,,,,,,,,,,,,,,,,,,,,,,,,,,,,,,,,,2,1.1885166000574827,330.66370510007255,None,ScrollUp,정답입니다,330.66370510007255,None,330.66370510007255,None,330.66370510007255,None,330.66370510007255,None,331.707703400054,None,331.707703400054,332.21135420002975,,,,,,,,,,,,,,,,122,2022-05-09_15h37.04.773,FishGame,2022.1.1,59.9444554493874,
,23,나를 보내줘,6,Green,A,0,0,ScrollUp,ScrollDown,Green.png,2,NonTarget,NonTarget,,,,,0,0,0,0,,,,,,,,,,,,,,,,,0,22,22,22,,,,,,,,,,,,,,,,,,,,,,,,,,,,,,,,,,,,,,,,,,,,,,,,,,,,,,,,,,,,,,,,,,,,,,,,,,,,,2,1.2309783000964671,332.8513889000751,None,ScrollUp,정답입니다,332.8513889000751,None,332.8513889000751,None,332.8513889000751,None,332.8513889000751,None,333.96592170000076,None,333.96592170000076,334.47793699998874,,,,,,,,,,,,,,,,122,2022-05-09_15h37.04.773,FishGame,2022.1.1,59.9444554493874,
,24,넌 통찰력있어,2,Green,A,6.5,4.8,ScrollDown,ScrollUp,Green.png,2,Positive,Congruent,,,,,0,0,0,0,,,,,,,,,,,,,,,,,0,23,23,23,,,,,,,,,,,,,,,,,,,,,,,,,,,,,,,,,,,,,,,,,,,,,,,,,,,,,,,,,,,,,,,,,,,,,,,,,,,,,1,1.0751900000032037,335.1278706000885,None,ScrollDown,정답입니다,335.1278706000885,None,335.1278706000885,None,335.1278706000885,None,335.1278706000885,None,336.07782370003406,None,336.07782370003406,336.5779654000653,,,,,,,,,,,,,,,,122,2022-05-09_15h37.04.773,FishGame,2022.1.1,59.9444554493874,
,25,넌 경솔해,5,Orange,B,2.458333333333333,2.266666666666667,ScrollUp,ScrollDown,Orange.png,2,Negative,Congruent,,,,,0,0,0,0,,,,,,,,,,,,,,,,,0,24,24,24,,,,,,,,,,,,,,,,,,,,,,,,,,,,,,,,,,,,,,,,,,,,,,,,,,,,,,,,,,,,,,,,,,,,,,,,,,,,,2,1.1403660000069067,337.22641570004635,None,ScrollUp,정답입니다,337.22641570004635,None,337.22641570004635,None,337.22641570004635,None,337.22641570004635,None,338.24454049998894,None,338.24454049998894,338.7445143000223,,,,,,,,,,,,,,,,122,2022-05-09_15h37.04.773,FishGame,2022.1.1,59.9444554493874,
,26,넌 초조해,4,Green,A,2.916666666666667,3.133333333333333,ScrollDown,ScrollUp,Green.png,2,Negative,Incongruent,,,,,0,0,0,0,,,,,,,,,,,,,,,,,0,25,25,25,,,,,,,,,,,,,,,,,,,,,,,,,,,,,,,,,,,,,,,,,,,,,,,,,,,,,,,,,,,,,,,,,,,,,,,,,,,,,1,2.449932200019248,339.39388039999176,None,ScrollDown,정답입니다,339.39388039999176,None,339.39388039999176,None,339.39388039999176,None,339.39388039999176,None,341.71591680007987,None,341.71591680007987,342.22817500005476,,,,,,,,,,,,,,,,122,2022-05-09_15h37.04.773,FishGame,2022.1.1,59.9444554493874,
,27,넌 무관심해,4,Orange,B,2.833333333333333,2.9,ScrollUp,ScrollDown,Orange.png,2,Negative,Congruent,,,,,0,0,0,0,,,,,,,,,,,,,,,,,0,26,26,26,,,,,,,,,,,,,,,,,,,,,,,,,,,,,,,,,,,,,,,,,,,,,,,,,,,,,,,,,,,,,,,,,,,,,,,,,,,,,2,1.2211951999925077,342.8720559000503,None,ScrollUp,정답입니다,342.8720559000503,None,342.8720559000503,None,342.8720559000503,None,342.8720559000503,None,343.97479240002576,None,343.97479240002576,344.4783263000427,,,,,,,,,,,,,,,,122,2022-05-09_15h37.04.773,FishGame,2022.1.1,59.9444554493874,
,28,넌 감성적이야,3,Orange,B,4.125,4.166666666666667,ScrollUp,ScrollDown,Orange.png,2,Neutral,Neutral,,,,,0,0,0,0,,,,,,,,,,,,,,,,,0,27,27,27,,,,,,,,,,,,,,,,,,,,,,,,,,,,,,,,,,,,,,,,,,,,,,,,,,,,,,,,,,,,,,,,,,,,,,,,,,,,,2,1.2172097000293434,345.1359258000739,None,ScrollUp,정답입니다,345.1359258000739,None,345.1359258000739,None,345.1359258000739,None,345.1359258000739,None,346.22469589998946,None,346.22469589998946,346.7285015999805,,,,,,,,,,,,,,,,122,2022-05-09_15h37.04.773,FishGame,2022.1.1,59.9444554493874,
,29,넌 배려심있어,1,Green,A,6.083333333333333,5.5,ScrollDown,ScrollUp,Green.png,2,Positive,Congruent,,,,,0,0,0,0,,,,,,,,,,,,,,,,,0,28,28,28,,,,,,,,,,,,,,,,,,,,,,,,,,,,,,,,,,,,,,,,,,,,,,,,,,,,,,,,,,,,,,,,,,,,,,,,,,,,,1,1.105990199954249,347.393354000058,None,ScrollDown,정답입니다,347.393354000058,None,347.393354000058,None,347.393354000058,None,347.393354000058,None,348.3615661000367,None,348.3615661000367,348.8617277999874,,,,,,,,,,,,,,,,122,2022-05-09_15h37.04.773,FishGame,2022.1.1,59.9444554493874,
,30,넌 숨김없어,3,Green,A,4.5,4.933333333333334,ScrollDown,ScrollUp,Green.png,2,Neutral,Neutral,,,,,0,0,0,0,,,,,,,,,,,,,,,,,0,29,29,29,,,,,,,,,,,,,,,,,,,,,,,,,,,,,,,,,,,,,,,,,,,,,,,,,,,,,,,,,,,,,,,,,,,,,,,,,,,,,1.0262345671653748,1.144529299926944,349.5067007000325,None,ScrollDown,정답입니다,349.5067007000325,None,349.5067007000325,None,349.5067007000325,None,349.5067007000325,None,350.52789550006855,None,350.52789550006855,351.0280468000565,,,,,,,,,,,,,,,,122,2022-05-09_15h37.04.773,FishGame,2022.1.1,59.9444554493874,
,31,넌 훌륭해,2,Orange,B,5.916666666666667,4.033333333333333,ScrollUp,ScrollDown,Orange.png,2,Positive,Incongruent,,,,,0,0,0,0,,,,,,,,,,,,,,,,,0,30,30,30,,,,,,,,,,,,,,,,,,,,,,,,,,,,,,,,,,,,,,,,,,,,,,,,,,,,,,,,,,,,,,,,,,,,,,,,,,,,,2,1.0886739999987185,351.6765755000524,None,ScrollUp,정답입니다,351.6765755000524,None,351.6765755000524,None,351.6765755000524,None,351.6765755000524,None,352.645191000076,None,352.645191000076,353.1448405000847,,,,,,,,,,,,,,,,122,2022-05-09_15h37.04.773,FishGame,2022.1.1,59.9444554493874,
,32,넌 슬기로워,2,Green,A,6.166666666666667,4.1,ScrollDown,ScrollUp,Green.png,2,Positive,Congruent,,,,,0,0,0,0,,,,,,,,,,,,,,,,,0,31,31,31,,,,,,,,,,,,,,,,,,,,,,,,,,,,,,,,,,,,,,,,,,,,,,,,,,,,,,,,,,,,,,,,,,,,,,,,,,,,,1,1.1913975999923423,353.78637109999545,None,ScrollDown,정답입니다,353.78637109999545,None,353.78637109999545,None,353.78637109999545,None,353.78637109999545,None,354.8617985000601,None,354.8617985000601,355.3620572000509,,,,,,,,,,,,,,,,122,2022-05-09_15h37.04.773,FishGame,2022.1.1,59.9444554493874,
,33,넌 냉혹해,5,Green,A,2.583333333333333,2.1,ScrollDown,ScrollUp,Green.png,2,Negative,Incongruent,,,,,0,0,0,0,,,,,,,,,,,,,,,,,0,32,32,32,,,,,,,,,,,,,,,,,,,,,,,,,,,,,,,,,,,,,,,,,,,,,,,,,,,,,,,,,,,,,,,,,,,,,,,,,,,,,1.0123456915219624,1.2686833000043407,356.0155404000543,None,ScrollDown,정답입니다,356.0155404000543,None,356.0155404000543,None,356.0155404000543,None,356.0155404000543,None,357.1582401000196,None,357.1582401000196,357.66209040000103,,,,,,,,,,,,,,,,122,2022-05-09_15h37.04.773,FishGame,2022.1.1,59.9444554493874,
,34,나를 데려가줘,6,Orange,B,0,0,ScrollDown,ScrollUp,Orange.png,2,NonTarget,NonTarget,,,,,0,0,0,0,,,,,,,,,,,,,,,,,0,33,33,33,,,,,,,,,,,,,,,,,,,,,,,,,,,,,,,,,,,,,,,,,,,,,,,,,,,,,,,,,,,,,,,,,,,,,,,,,,,,,2,1.2743483000667766,358.3040068000555,None,ScrollUp,오답입니다,358.3040068000555,None,358.3040068000555,None,358.3040068000555,None,358.3040068000555,None,359.45688780001365,None,359.45688780001365,359.96237100008875,,,,,,,,,,,,,,,,122,2022-05-09_15h37.04.773,FishGame,2022.1.1,59.9444554493874,
,35,넌 편파적이야,5,Orange,B,2.125,2,ScrollUp,ScrollDown,Orange.png,2,Negative,Congruent,,,,,0,0,0,0,,,,,,,,,,,,,,,,,0,34,34,34,,,,,,,,,,,,,,,,,,,,,,,,,,,,,,,,,,,,,,,,,,,,,,,,,,,,,,,,,,,,,,,,,,,,,,,,,,,,,2,1.3384937999071553,360.60826370003633,None,ScrollUp,정답입니다,360.60826370003633,None,360.60826370003633,None,360.60826370003633,None,360.60826370003633,None,361.8284584999783,None,361.8284584999783,362.3284908999922,,,,,,,,,,,,,,,,122,2022-05-09_15h37.04.773,FishGame,2022.1.1,59.9444554493874,
,36,넌 슬퍼,4,Green,A,2.583333333333333,3.066666666666667,ScrollDown,ScrollUp,Green.png,2,Negative,Incongruent,,,,,0,0,0,0,,,,,,,,,,,,,,,,,0,35,35,35,,,,,,,,,,,,,,,,,,,,,,,,,,,,,,,,,,,,,,,,,,,,,,,,,,,,,,,,,,,,,,,,,,,,,,,,,,,,,1,1.2996001000283286,362.9562044000486,None,ScrollDown,정답입니다,362.9562044000486,None,362.9562044000486,None,362.9562044000486,None,362.9562044000486,None,364.1497940000845,None,364.1497940000845,364.6614162999904,,,,,,,,,,,,,,,,122,2022-05-09_15h37.04.773,FishGame,2022.1.1,59.9444554493874,
,37,나를 데려가줘,6,Orange,B,0,0,ScrollDown,ScrollUp,Orange.png,2,NonTarget,NonTarget,,,,,0,0,0,0,,,,,,,,,,,,,,,,,0,36,36,36,,,,,,,,,,,,,,,,,,,,,,,,,,,,,,,,,,,,,,,,,,,,,,,,,,,,,,,,,,,,,,,,,,,,,,,,,,,,,1,1.3096901000244543,365.311627499992,None,ScrollDown,정답입니다,365.311627499992,None,365.311627499992,None,365.311627499992,None,365.311627499992,None,366.4949709000066,None,366.4949709000066,366.9952582999831,,,,,,,,,,,,,,,,122,2022-05-09_15h37.04.773,FishGame,2022.1.1,59.9444554493874,
,38,넌 친절해,1,Orange,B,6.041666666666667,5.533333333333333,ScrollUp,ScrollDown,Orange.png,2,Positive,Incongruent,,,,,0,0,0,0,,,,,,,,,,,,,,,,,0,37,37,37,,,,,,,,,,,,,,,,,,,,,,,,,,,,,,,,,,,,,,,,,,,,,,,,,,,,,,,,,,,,,,,,,,,,,,,,,,,,,2,1.2812614999711514,367.6483508000383,None,ScrollUp,정답입니다,367.6483508000383,None,367.6483508000383,None,367.6483508000383,None,367.6483508000383,None,368.8085757000372,None,368.8085757000372,369.3122996999882,,,,,,,,,,,,,,,,122,2022-05-09_15h37.04.773,FishGame,2022.1.1,59.9444554493874,
,1,넌 엉성해,4,Green,A,3,3.3,ScrollDown,ScrollUp,Green.png,3,Negative,Incongruent,,,,,0,0,0,0,,,,,,,,,,,,,,,,,,,,,0,0,0,0,,,,,,,,,,,,,,,,,,,,,,,,,,,,,,,,401.8299279999919,403.32975100004114,403.3623586000176,404.3134087000508,404.36333730001934,405.31240539997816,405.31240539997816,None,,,,,,,,,,,,,,,,,,,,,,,,,,,,,,,,,,1,1.5302732000127435,406.4816173000727,None,ScrollDown,정답입니다,406.4816173000727,None,406.4816173000727,None,406.4816173000727,None,406.4816173000727,None,407.8358552000718,None,407.8358552000718,408.34651340008713,369.8121386000421,None,369.8121386000421,None,0.06111111,-0.22222222,1,0,0,0.01629321009386331,None,399.8124073999934,None,,,122,2022-05-09_15h37.04.773,FishGame,2022.1.1,59.9444554493874,
,2,나를 보내줘,6,Green,A,0,0,ScrollUp,ScrollDown,Green.png,3,NonTarget,NonTarget,,,,,0,0,0,0,,,,,,,,,,,,,,,,,,,,,0,1,1,1,,,,,,,,,,,,,,,,,,,,,,,,,,,,,,,,,,,,,,,,,,,,,,,,,,,,,,,,,,,,,,,,,,,,,,,,,1.9861110945542653,1.1085322999861091,408.98473610007204,None,ScrollUp,정답입니다,408.98473610007204,None,408.98473610007204,None,408.98473610007204,None,408.98473610007204,None,409.97912720008753,None,409.97912720008753,410.4797655000584,,,,,,,,,,,,,,,,122,2022-05-09_15h37.04.773,FishGame,2022.1.1,59.9444554493874,
,3,넌 활발해,1,Orange,B,5.666666666666667,5.6,ScrollUp,ScrollDown,Orange.png,3,Positive,Incongruent,,,,,0,0,0,0,,,,,,,,,,,,,,,,,,,,,0,2,2,2,,,,,,,,,,,,,,,,,,,,,,,,,,,,,,,,,,,,,,,,,,,,,,,,,,,,,,,,,,,,,,,,,,,,,,,,,1.9907407363255818,1.089676299947314,411.1366008000914,None,ScrollUp,정답입니다,411.1366008000914,None,411.1366008000914,None,411.1366008000914,None,411.1366008000914,None,412.09594860009383,None,412.09594860009383,412.5962465000339,,,,,,,,,,,,,,,,122,2022-05-09_15h37.04.773,FishGame,2022.1.1,59.9444554493874,
,4,넌 논리적이야,2,Green,A,5.666666666666666,4.633333333333334,ScrollDown,ScrollUp,Green.png,3,Positive,Congruent,,,,,0,0,0,0,,,,,,,,,,,,,,,,,,,,,0,3,3,3,,,,,,,,,,,,,,,,,,,,,,,,,,,,,,,,,,,,,,,,,,,,,,,,,,,,,,,,,,,,,,,,,,,,,,,,,1,1.1349699000129476,413.23253280005883,None,ScrollDown,정답입니다,413.23253280005883,None,413.23253280005883,None,413.23253280005883,None,413.23253280005883,None,414.25948870007414,None,414.25948870007414,414.76280740008224,,,,,,,,,,,,,,,,122,2022-05-09_15h37.04.773,FishGame,2022.1.1,59.9444554493874,
,5,넌 과묵해,3,Green,A,3.875,4.4,ScrollDown,ScrollUp,Green.png,3,Neutral,Neutral,,,,,0,0,0,0,,,,,,,,,,,,,,,,,,,,,0,4,4,4,,,,,,,,,,,,,,,,,,,,,,,,,,,,,,,,,,,,,,,,,,,,,,,,,,,,,,,,,,,,,,,,,,,,,,,,,1.0138889054457347,1.085407399921678,415.40294539998285,None,ScrollDown,정답입니다,415.40294539998285,None,415.40294539998285,None,415.40294539998285,None,415.40294539998285,None,416.36948100000154,None,416.36948100000154,416.8798195000272,,,,,,,,,,,,,,,,122,2022-05-09_15h37.04.773,FishGame,2022.1.1,59.9444554493874,
,6,나를 데려가줘,6,Orange,B,0,0,ScrollDown,ScrollUp,Orange.png,3,NonTarget,NonTarget,,,,,0,0,0,0,,,,,,,,,,,,,,,,,,,,,0,5,5,5,,,,,,,,,,,,,,,,,,,,,,,,,,,,,,,,,,,,,,,,,,,,,,,,,,,,,,,,,,,,,,,,,,,,,,,,,1.0138889054457347,1.3016895999899134,417.51935180008877,None,ScrollDown,정답입니다,417.51935180008877,None,417.51935180008877,None,417.51935180008877,None,417.51935180008877,None,418.7096678999951,None,418.7096678999951,419.2136309000198,,,,,,,,,,,,,,,,122,2022-05-09_15h37.04.773,FishGame,2022.1.1,59.9444554493874,
,7,넌 미숙해,4,Orange,B,3,3,ScrollUp,ScrollDown,Orange.png,3,Negative,Congruent,,,,,0,0,0,0,,,,,,,,,,,,,,,,,,,,,0,6,6,6,,,,,,,,,,,,,,,,,,,,,,,,,,,,,,,,,,,,,,,,,,,,,,,,,,,,,,,,,,,,,,,,,,,,,,,,,2,1.3044283000053838,419.87889160006307,None,ScrollUp,정답입니다,419.87889160006307,None,419.87889160006307,None,419.87889160006307,None,419.87889160006307,None,421.0433356000576,None,421.0433356000576,421.54671190003864,,,,,,,,,,,,,,,,122,2022-05-09_15h37.04.773,FishGame,2022.1.1,59.9444554493874,
,8,나를 보내줘,6,Green,A,0,0,ScrollUp,ScrollDown,Green.png,3,NonTarget,NonTarget,,,,,0,0,0,0,,,,,,,,,,,,,,,,,,,,,0,7,7,7,,,,,,,,,,,,,,,,,,,,,,,,,,,,,,,,,,,,,,,,,,,,,,,,,,,,,,,,,,,,,,,,,,,,,,,,,1.9737654328346252,1.1978759000776336,422.1751449999865,None,ScrollUp,정답입니다,422.1751449999865,None,422.1751449999865,None,422.1751449999865,None,422.1751449999865,None,423.267992899986,None,423.267992899986,423.7801743000746,,,,,,,,,,,,,,,,122,2022-05-09_15h37.04.773,FishGame,2022.1.1,59.9444554493874,
,9,넌 자신만만해,3,Orange,B,4.833333333333334,4.333333333333333,ScrollUp,ScrollDown,Orange.png,3,Neutral,Neutral,,,,,0,0,0,0,,,,,,,,,,,,,,,,,,,,,0,8,8,8,,,,,,,,,,,,,,,,,,,,,,,,,,,,,,,,,,,,,,,,,,,,,,,,,,,,,,,,,,,,,,,,,,,,,,,,,2,1.1539705999894068,424.4176872000098,None,ScrollUp,정답입니다,424.4176872000098,None,424.4176872000098,None,424.4176872000098,None,424.4176872000098,None,425.4600553000346,None,425.4600553000346,425.9632726000855,,,,,,,,,,,,,,,,122,2022-05-09_15h37.04.773,FishGame,2022.1.1,59.9444554493874,
,10,넌 탐욕스러워,5,Green,A,2.25,2.1,ScrollDown,ScrollUp,Green.png,3,Negative,Incongruent,,,,,0,0,0,0,,,,,,,,,,,,,,,,,,,,,0,9,9,9,,,,,,,,,,,,,,,,,,,,,,,,,,,,,,,,,,,,,,,,,,,,,,,,,,,,,,,,,,,,,,,,,,,,,,,,,1.0061728358268738,1.1161861999426037,426.6176835000515,None,ScrollDown,정답입니다,426.6176835000515,None,426.6176835000515,None,426.6176835000515,None,426.6176835000515,None,427.6011782999849,None,427.6011782999849,428.11364900006447,,,,,,,,,,,,,,,,122,2022-05-09_15h37.04.773,FishGame,2022.1.1,59.9444554493874,
,11,넌 인기있어,2,Green,A,5.458333333333333,4.5,ScrollDown,ScrollUp,Green.png,3,Positive,Congruent,,,,,0,0,0,0,,,,,,,,,,,,,,,,,,,,,0,10,10,10,,,,,,,,,,,,,,,,,,,,,,,,,,,,,,,,,,,,,,,,,,,,,,,,,,,,,,,,,,,,,,,,,,,,,,,,,1,1.0682867000577971,428.75319800002035,None,ScrollDown,정답입니다,428.75319800002035,None,428.75319800002035,None,428.75319800002035,None,428.75319800002035,None,429.70985560002737,None,429.70985560002737,430.21368380007334,,,,,,,,,,,,,,,,122,2022-05-09_15h37.04.773,FishGame,2022.1.1,59.9444554493874,
,12,나를 데려가줘,6,Orange,B,0,0,ScrollDown,ScrollUp,Orange.png,3,NonTarget,NonTarget,,,,,0,0,0,0,,,,,,,,,,,,,,,,,,,,,0,11,11,11,,,,,,,,,,,,,,,,,,,,,,,,,,,,,,,,,,,,,,,,,,,,,,,,,,,,,,,,,,,,,,,,,,,,,,,,,1.1033950646718342,1.1999322000192478,430.8554401000729,None,ScrollDown,정답입니다,430.8554401000729,None,430.8554401000729,None,430.8554401000729,None,430.8554401000729,None,431.93511160009075,None,431.93511160009075,432.44678170001134,,,,,,,,,,,,,,,,122,2022-05-09_15h37.04.773,FishGame,2022.1.1,59.9444554493874,
,13,넌 뛰어나,2,Orange,B,6.166666666666667,4,ScrollUp,ScrollDown,Orange.png,3,Positive,Incongruent,,,,,0,0,0,0,,,,,,,,,,,,,,,,,,,,,0,12,12,12,,,,,,,,,,,,,,,,,,,,,,,,,,,,,,,,,,,,,,,,,,,,,,,,,,,,,,,,,,,,,,,,,,,,,,,,,2,1.1948887000326067,433.093520800001,None,ScrollUp,정답입니다,433.093520800001,None,433.093520800001,None,433.093520800001,None,433.093520800001,None,434.16338480007835,None,434.16338480007835,434.6636895000702,,,,,,,,,,,,,,,,122,2022-05-09_15h37.04.773,FishGame,2022.1.1,59.9444554493874,
,14,넌 낙관적이야,1,Green,A,5.75,5.8,ScrollDown,ScrollUp,Green.png,3,Positive,Congruent,,,,,0,0,0,0,,,,,,,,,,,,,,,,,,,,,0,13,13,13,,,,,,,,,,,,,,,,,,,,,,,,,,,,,,,,,,,,,,,,,,,,,,,,,,,,,,,,,,,,,,,,,,,,,,,,,1,1.208626199979335,435.31571610004175,None,ScrollDown,정답입니다,435.31571610004175,None,435.31571610004175,None,435.31571610004175,None,435.31571610004175,None,436.39892659999896,None,436.39892659999896,436.9131445999956,,,,,,,,,,,,,,,,122,2022-05-09_15h37.04.773,FishGame,2022.1.1,59.9444554493874,
,15,넌 산만해,4,Orange,B,2.695652173913043,3.033333333333333,ScrollUp,ScrollDown,Orange.png,3,Negative,Congruent,,,,,0,0,0,0,,,,,,,,,,,,,,,,,,,,,0,14,14,14,,,,,,,,,,,,,,,,,,,,,,,,,,,,,,,,,,,,,,,,,,,,,,,,,,,,,,,,,,,,,,,,,,,,,,,,,2,1.1590675000334159,437.55910640000366,None,ScrollUp,정답입니다,437.55910640000366,None,437.55910640000366,None,437.55910640000366,None,437.55910640000366,None,438.5968436000403,None,438.5968436000403,439.09684840007685,,,,,,,,,,,,,,,,122,2022-05-09_15h37.04.773,FishGame,2022.1.1,59.9444554493874,
,16,나를 보내줘,6,Green,A,0,0,ScrollUp,ScrollDown,Green.png,3,NonTarget,NonTarget,,,,,0,0,0,0,,,,,,,,,,,,,,,,,,,,,0,15,15,15,,,,,,,,,,,,,,,,,,,,,,,,,,,,,,,,,,,,,,,,,,,,,,,,,,,,,,,,,,,,,,,,,,,,,,,,,1.8518518557151158,1.1646632999181747,439.7284410999855,None,ScrollUp,정답입니다,439.7284410999855,None,439.7284410999855,None,439.7284410999855,None,439.7284410999855,None,440.78503320005257,None,440.78503320005257,441.29687510000076,,,,,,,,,,,,,,,,122,2022-05-09_15h37.04.773,FishGame,2022.1.1,59.9444554493874,
,17,넌 교활해,5,Orange,B,2.333333333333333,2.133333333333333,ScrollUp,ScrollDown,Orange.png,3,Negative,Congruent,,,,,0,0,0,0,,,,,,,,,,,,,,,,,,,,,0,16,16,16,,,,,,,,,,,,,,,,,,,,,,,,,,,,,,,,,,,,,,,,,,,,,,,,,,,,,,,,,,,,,,,,,,,,,,,,,2,1.6182615000288934,441.94997620000504,None,ScrollUp,정답입니다,441.94997620000504,None,441.94997620000504,None,441.94997620000504,None,441.94997620000504,None,443.4435910000466,None,443.4435910000466,443.9471552000614,,,,,,,,,,,,,,,,122,2022-05-09_15h37.04.773,FishGame,2022.1.1,59.9444554493874,
,18,나를 보내줘,6,Green,A,0,0,ScrollUp,ScrollDown,Green.png,3,NonTarget,NonTarget,,,,,0,0,0,0,,,,,,,,,,,,,,,,,,,,,0,17,17,17,,,,,,,,,,,,,,,,,,,,,,,,,,,,,,,,,,,,,,,,,,,,,,,,,,,,,,,,,,,,,,,,,,,,,,,,,2,1.3164101999718696,444.5839754000772,None,ScrollUp,정답입니다,444.5839754000772,None,444.5839754000772,None,444.5839754000772,None,444.5839754000772,None,445.78473600000143,None,445.78473600000143,446.2972786000464,,,,,,,,,,,,,,,,122,2022-05-09_15h37.04.773,FishGame,2022.1.1,59.9444554493874,
,19,넌 불친절해,5,Orange,B,2.208333333333333,2.033333333333333,ScrollUp,ScrollDown,Orange.png,3,Negative,Congruent,,,,,0,0,0,0,,,,,,,,,,,,,,,,,,,,,0,18,18,18,,,,,,,,,,,,,,,,,,,,,,,,,,,,,,,,,,,,,,,,,,,,,,,,,,,,,,,,,,,,,,,,,,,,,,,,,2,1.3205871999962255,446.95186100003775,None,ScrollUp,정답입니다,446.95186100003775,None,446.95186100003775,None,446.95186100003775,None,446.95186100003775,None,448.14394019998144,None,448.14394019998144,448.64740970009007,,,,,,,,,,,,,,,,122,2022-05-09_15h37.04.773,FishGame,2022.1.1,59.9444554493874,
,20,넌 지적이야,2,Orange,B,5.75,4.366666666666666,ScrollUp,ScrollDown,Orange.png,3,Positive,Incongruent,,,,,0,0,0,0,,,,,,,,,,,,,,,,,,,,,0,19,19,19,,,,,,,,,,,,,,,,,,,,,,,,,,,,,,,,,,,,,,,,,,,,,,,,,,,,,,,,,,,,,,,,,,,,,,,,,2,1.2381653999909759,449.28360090008937,None,ScrollUp,정답입니다,449.28360090008937,None,449.28360090008937,None,449.28360090008937,None,449.28360090008937,None,450.4105458999984,None,450.4105458999984,450.9136620000936,,,,,,,,,,,,,,,,122,2022-05-09_15h37.04.773,FishGame,2022.1.1,59.9444554493874,
,21,넌 우유부단해,4,Green,A,2.666666666666667,3.166666666666667,ScrollDown,ScrollUp,Green.png,3,Negative,Incongruent,,,,,0,0,0,0,,,,,,,,,,,,,,,,,,,,,0,20,20,20,,,,,,,,,,,,,,,,,,,,,,,,,,,,,,,,,,,,,,,,,,,,,,,,,,,,,,,,,,,,,,,,,,,,,,,,,1,1.402358700055629,451.56673209997825,None,ScrollDown,정답입니다,451.56673209997825,None,451.56673209997825,None,451.56673209997825,None,451.56673209997825,None,452.8380679000402,None,452.8380679000402,453.3474465000909,,,,,,,,,,,,,,,,122,2022-05-09_15h37.04.773,FishGame,2022.1.1,59.9444554493874,
,22,나를 데려가줘,6,Orange,B,0,0,ScrollDown,ScrollUp,Orange.png,3,NonTarget,NonTarget,,,,,0,0,0,0,,,,,,,,,,,,,,,,,,,,,0,21,21,21,,,,,,,,,,,,,,,,,,,,,,,,,,,,,,,,,,,,,,,,,,,,,,,,,,,,,,,,,,,,,,,,,,,,,,,,,1,1.408589500002563,453.99026380002033,None,ScrollDown,정답입니다,453.99026380002033,None,453.99026380002033,None,453.99026380002033,None,453.99026380002033,None,455.2805528000463,None,455.2805528000463,455.7807757999981,,,,,,,,,,,,,,,,122,2022-05-09_15h37.04.773,FishGame,2022.1.1,59.9444554493874,
,23,넌 성실해,1,Orange,B,6.041666666666666,5.7,ScrollUp,ScrollDown,Orange.png,3,Positive,Incongruent,,,,,0,0,0,0,,,,,,,,,,,,,,,,,,,,,0,22,22,22,,,,,,,,,,,,,,,,,,,,,,,,,,,,,,,,,,,,,,,,,,,,,,,,,,,,,,,,,,,,,,,,,,,,,,,,,2,1.3335558000253513,456.4286943000043,None,ScrollUp,정답입니다,456.4286943000043,None,456.4286943000043,None,456.4286943000043,None,456.4286943000043,None,457.6440328999888,None,457.6440328999888,458.14761520002503,,,,,,,,,,,,,,,,122,2022-05-09_15h37.04.773,FishGame,2022.1.1,59.9444554493874,
,24,넌 현실주의적이야,3,Green,A,4.625,4.4,ScrollDown,ScrollUp,Green.png,3,Neutral,Neutral,,,,,0,0,0,0,,,,,,,,,,,,,,,,,,,,,0,23,23,23,,,,,,,,,,,,,,,,,,,,,,,,,,,,,,,,,,,,,,,,,,,,,,,,,,,,,,,,,,,,,,,,,,,,,,,,,1,1.2064162000315264,458.78330290003214,None,ScrollDown,정답입니다,458.78330290003214,None,458.78330290003214,None,458.78330290003214,None,458.78330290003214,None,459.88084170001093,None,459.88084170001093,460.3809791000094,,,,,,,,,,,,,,,,122,2022-05-09_15h37.04.773,FishGame,2022.1.1,59.9444554493874,
,25,넌 진실돼,1,Green,A,6.625,5.566666666666666,ScrollDown,ScrollUp,Green.png,3,Positive,Congruent,,,,,0,0,0,0,,,,,,,,,,,,,,,,,,,,,0,24,24,24,,,,,,,,,,,,,,,,,,,,,,,,,,,,,,,,,,,,,,,,,,,,,,,,,,,,,,,,,,,,,,,,,,,,,,,,,1,1.1118314999621361,461.02740310004447,None,ScrollDown,정답입니다,461.02740310004447,None,461.02740310004447,None,461.02740310004447,None,461.02740310004447,None,462.01932130008936,None,462.01932130008936,462.53078390005976,,,,,,,,,,,,,,,,122,2022-05-09_15h37.04.773,FishGame,2022.1.1,59.9444554493874,
,26,넌 천진난만해,3,Orange,B,4.958333333333334,4.833333333333333,ScrollUp,ScrollDown,Orange.png,3,Neutral,Neutral,,,,,0,0,0,0,,,,,,,,,,,,,,,,,,,,,0,25,25,25,,,,,,,,,,,,,,,,,,,,,,,,,,,,,,,,,,,,,,,,,,,,,,,,,,,,,,,,,,,,,,,,,,,,,,,,,2,1.2507230999181047,463.1883104000008,None,ScrollUp,정답입니다,463.1883104000008,None,463.1883104000008,None,463.1883104000008,None,463.1883104000008,None,464.311014899984,None,464.311014899984,464.8146974000847,,,,,,,,,,,,,,,,122,2022-05-09_15h37.04.773,FishGame,2022.1.1,59.9444554493874,
,27,넌 교양없어,5,Green,A,2.416666666666667,2.2,ScrollDown,ScrollUp,Green.png,3,Negative,Incongruent,,,,,0,0,0,0,,,,,,,,,,,,,,,,,,,,,0,26,26,26,,,,,,,,,,,,,,,,,,,,,,,,,,,,,,,,,,,,,,,,,,,,,,,,,,,,,,,,,,,,,,,,,,,,,,,,,1.0030864079793294,1.148488000035286,465.45501390006393,None,ScrollDown,정답입니다,465.45501390006393,None,465.45501390006393,None,465.45501390006393,None,465.45501390006393,None,466.48591950000264,None,466.48591950000264,466.99718130007386,,,,,,,,,,,,,,,,122,2022-05-09_15h37.04.773,FishGame,2022.1.1,59.9444554493874,
,28,나를 보내줘,6,Green,A,0,0,ScrollUp,ScrollDown,Green.png,3,NonTarget,NonTarget,,,,,0,0,0,0,,,,,,,,,,,,,,,,,,,,,0,27,27,27,,,,,,,,,,,,,,,,,,,,,,,,,,,,,,,,,,,,,,,,,,,,,,,,,,,,,,,,,,,,,,,,,,,,,,,,,2,1.4516824000747874,467.6306394999847,None,ScrollUp,정답입니다,467.6306394999847,None,467.6306394999847,None,467.6306394999847,None,467.6306394999847,None,468.97742000001017,None,468.97742000001017,469.4812441000249,,,,,,,,,,,,,,,,122,2022-05-09_15h37.04.773,FishGame,2022.1.1,59.9444554493874,
,29,넌 엉뚱스러워,3,Green,A,4.166666666666667,4.133333333333334,ScrollDown,ScrollUp,Green.png,3,Neutral,Neutral,,,,,0,0,0,0,,,,,,,,,,,,,,,,,,,,,0,28,28,28,,,,,,,,,,,,,,,,,,,,,,,,,,,,,,,,,,,,,,,,,,,,,,,,,,,,,,,,,,,,,,,,,,,,,,,,,1,1.7392769999569282,470.1228208000539,None,ScrollDown,정답입니다,470.1228208000539,None,470.1228208000539,None,470.1228208000539,None,470.1228208000539,None,471.74780980008654,None,471.74780980008654,472.247586100013,,,,,,,,,,,,,,,,122,2022-05-09_15h37.04.773,FishGame,2022.1.1,59.9444554493874,
,30,넌 무지해,4,Orange,B,2.541666666666667,3.066666666666667,ScrollUp,ScrollDown,Orange.png,3,Negative,Congruent,,,,,0,0,0,0,,,,,,,,,,,,,,,,,,,,,0,29,29,29,,,,,,,,,,,,,,,,,,,,,,,,,,,,,,,,,,,,,,,,,,,,,,,,,,,,,,,,,,,,,,,,,,,,,,,,,2,1.112320699961856,472.88901070004795,None,ScrollUp,정답입니다,472.88901070004795,None,472.88901070004795,None,472.88901070004795,None,472.88901070004795,None,473.8858145000413,None,473.8858145000413,474.397598200012,,,,,,,,,,,,,,,,122,2022-05-09_15h37.04.773,FishGame,2022.1.1,59.9444554493874,
,31,넌 음울해,5,Orange,B,2.25,2.233333333333333,ScrollUp,ScrollDown,Orange.png,3,Negative,Congruent,,,,,0,0,0,0,,,,,,,,,,,,,,,,,,,,,0,30,30,30,,,,,,,,,,,,,,,,,,,,,,,,,,,,,,,,,,,,,,,,,,,,,,,,,,,,,,,,,,,,,,,,,,,,,,,,,2,1.1665523999836296,475.0439560000086,None,ScrollUp,정답입니다,475.0439560000086,None,475.0439560000086,None,475.0439560000086,None,475.0439560000086,None,476.08583290001843,None,476.08583290001843,476.5972390000243,,,,,,,,,,,,,,,,122,2022-05-09_15h37.04.773,FishGame,2022.1.1,59.9444554493874,
,32,넌 냉소적이야,5,Green,A,2.916666666666667,2.4,ScrollDown,ScrollUp,Green.png,3,Negative,Incongruent,,,,,0,0,0,0,,,,,,,,,,,,,,,,,,,,,0,31,31,31,,,,,,,,,,,,,,,,,,,,,,,,,,,,,,,,,,,,,,,,,,,,,,,,,,,,,,,,,,,,,,,,,,,,,,,,,1,1.0673804000252858,477.24195170006715,None,ScrollDown,정답입니다,477.24195170006715,None,477.24195170006715,None,477.24195170006715,None,477.24195170006715,None,478.19427540001925,None,478.19427540001925,478.6973129999824,,,,,,,,,,,,,,,,122,2022-05-09_15h37.04.773,FishGame,2022.1.1,59.9444554493874,
,33,나를 데려가줘,6,Orange,B,0,0,ScrollDown,ScrollUp,Orange.png,3,NonTarget,NonTarget,,,,,0,0,0,0,,,,,,,,,,,,,,,,,,,,,0,32,32,32,,,,,,,,,,,,,,,,,,,,,,,,,,,,,,,,,,,,,,,,,,,,,,,,,,,,,,,,,,,,,,,,,,,,,,,,,1.0509259402751923,1.4758460000157356,479.3315311000915,None,ScrollDown,정답입니다,479.3315311000915,None,479.3315311000915,None,479.3315311000915,None,479.3315311000915,None,480.6975621000165,None,480.6975621000165,481.197863599984,,,,,,,,,,,,,,,,122,2022-05-09_15h37.04.773,FishGame,2022.1.1,59.9444554493874,
,34,넌 쾌활해,1,Green,A,5.541666666666666,5.733333333333333,ScrollDown,ScrollUp,Green.png,3,Positive,Congruent,,,,,0,0,0,0,,,,,,,,,,,,,,,,,,,,,0,33,33,33,,,,,,,,,,,,,,,,,,,,,,,,,,,,,,,,,,,,,,,,,,,,,,,,,,,,,,,,,,,,,,,,,,,,,,,,,1.1141975373029709,1.3240244999760762,481.83925680001266,None,ScrollDown,정답입니다,481.83925680001266,None,481.83925680001266,None,481.83925680001266,None,481.83925680001266,None,483.04787020001095,None,483.04787020001095,483.5481749000028,,,,,,,,,,,,,,,,122,2022-05-09_15h37.04.773,FishGame,2022.1.1,59.9444554493874,
,35,나를 보내줘,6,Green,A,0,0,ScrollUp,ScrollDown,Green.png,3,NonTarget,NonTarget,,,,,0,0,0,0,,,,,,,,,,,,,,,,,,,,,0,34,34,34,,,,,,,,,,,,,,,,,,,,,,,,,,,,,,,,,,,,,,,,,,,,,,,,,,,,,,,,,,,,,,,,,,,,,,,,,2,1.1635702999774367,484.1784834000282,None,ScrollUp,정답입니다,484.1784834000282,None,484.1784834000282,None,484.1784834000282,None,484.1784834000282,None,485.2355616000714,None,485.2355616000714,485.7482082999777,,,,,,,,,,,,,,,,122,2022-05-09_15h37.04.773,FishGame,2022.1.1,59.9444554493874,
,36,넌 명랑해,1,Orange,B,5.739130434782609,5.666666666666667,ScrollUp,ScrollDown,Orange.png,3,Positive,Incongruent,,,,,0,0,0,0,,,,,,,,,,,,,,,,,,,,,0,35,35,35,,,,,,,,,,,,,,,,,,,,,,,,,,,,,,,,,,,,,,,,,,,,,,,,,,,,,,,,,,,,,,,,,,,,,,,,,2,1.1666380999376997,486.39782650000416,None,ScrollUp,정답입니다,486.39782650000416,None,486.39782650000416,None,486.39782650000416,None,486.39782650000416,None,487.44462860003114,None,487.44462860003114,487.9481138000265,,,,,,,,,,,,,,,,122,2022-05-09_15h37.04.773,FishGame,2022.1.1,59.9444554493874,
,37,넌 멍해,4,Green,A,2.833333333333333,3.4,ScrollDown,ScrollUp,Green.png,3,Negative,Incongruent,,,,,0,0,0,0,,,,,,,,,,,,,,,,,,,,,0,36,36,36,,,,,,,,,,,,,,,,,,,,,,,,,,,,,,,,,,,,,,,,,,,,,,,,,,,,,,,,,,,,,,,,,,,,,,,,,1.0848765472571056,0.9762418000027537,488.58455740008503,None,ScrollDown,정답입니다,488.58455740008503,None,488.58455740008503,None,488.58455740008503,None,488.58455740008503,None,489.44756330002565,None,489.44756330002565,489.9479553999845,,,,,,,,,,,,,,,,122,2022-05-09_15h37.04.773,FishGame,2022.1.1,59.9444554493874,
,38,나를 데려가줘,6,Orange,B,0,0,ScrollDown,ScrollUp,Orange.png,3,NonTarget,NonTarget,,,,,0,0,0,0,,,,,,,,,,,,,,,,,,,,,0,37,37,37,,,,,,,,,,,,,,,,,,,,,,,,,,,,,,,,,,,,,,,,,,,,,,,,,,,,,,,,,,,,,,,,,,,,,,,,,1.0123456915219624,1.0491713000228629,490.5869686000515,None,ScrollDown,정답입니다,490.5869686000515,None,490.5869686000515,None,490.5869686000515,None,490.5869686000515,None,491.5192776999902,None,491.5192776999902,492.0315089999931,,,,,,,,,,,,,,,,122,2022-05-09_15h37.04.773,FishGame,2022.1.1,59.9444554493874,
,39,넌 현명해,2,Green,A,6.541666666666666,4.533333333333333,ScrollDown,ScrollUp,Green.png,3,Positive,Congruent,,,,,0,0,0,0,,,,,,,,,,,,,,,,,,,,,0,38,38,38,,,,,,,,,,,,,,,,,,,,,,,,,,,,,,,,,,,,,,,,,,,,,,,,,,,,,,,,,,,,,,,,,,,,,,,,,1,1.1337968000443652,492.66239620000124,None,ScrollDown,정답입니다,492.66239620000124,None,492.66239620000124,None,492.66239620000124,None,492.66239620000124,None,493.68611830007285,None,493.68611830007285,494.1984131000936,,,,,,,,,,,,,,,,122,2022-05-09_15h37.04.773,FishGame,2022.1.1,59.9444554493874,
,40,넌 수줍어,3,Orange,B,3.541666666666666,4.366666666666666,ScrollUp,ScrollDown,Orange.png,3,Neutral,Neutral,,,,,0,0,0,0,,,,,,,,,,,,,,,,,,,,,0,39,39,39,,,,,,,,,,,,,,,,,,,,,,,,,,,,,,,,,,,,,,,,,,,,,,,,,,,,,,,,,,,,,,,,,,,,,,,,,2,1.2085913999471813,494.8466373999836,None,ScrollUp,정답입니다,494.8466373999836,None,494.8466373999836,None,494.8466373999836,None,494.8466373999836,None,495.9311923000496,None,495.9311923000496,496.4317497999873,,,,,,,,,,,,,,,,122,2022-05-09_15h37.04.773,FishGame,2022.1.1,59.9444554493874,
,41,나를 데려가줘,6,Orange,B,0,0,ScrollDown,ScrollUp,Orange.png,3,NonTarget,NonTarget,,,,,0,0,0,0,,,,,,,,,,,,,,,,,,,,,0,40,40,40,,,,,,,,,,,,,,,,,,,,,,,,,,,,,,,,,,,,,,,,,,,,,,,,,,,,,,,,,,,,,,,,,,,,,,,,,1,1.2646677000448108,497.0682657000143,None,ScrollDown,정답입니다,497.0682657000143,None,497.0682657000143,None,497.0682657000143,None,497.0682657000143,None,498.21980680001434,None,498.21980680001434,498.73170690005645,,,,,,,,,,,,,,,,122,2022-05-09_15h37.04.773,FishGame,2022.1.1,59.9444554493874,
,42,넌 성숙해,2,Orange,B,5.833333333333333,4.533333333333333,ScrollUp,ScrollDown,Orange.png,3,Positive,Incongruent,,,,,0,0,0,0,,,,,,,,,,,,,,,,,,,,,0,41,41,41,,,,,,,,,,,,,,,,,,,,,,,,,,,,,,,,,,,,,,,,,,,,,,,,,,,,,,,,,,,,,,,,,,,,,,,,,1.9459876318772633,1.2830037999665365,499.3705103000393,None,ScrollUp,정답입니다,499.3705103000393,None,499.3705103000393,None,499.3705103000393,None,499.3705103000393,None,500.5362777999835,None,500.5362777999835,501.0481906000059,,,,,,,,,,,,,,,,122,2022-05-09_15h37.04.773,FishGame,2022.1.1,59.9444554493874,
,1,넌 매력적이야,2,Orange,B,6.125,4.666666666666667,ScrollUp,ScrollDown,Orange.png,4,Positive,Incongruent,,,,,0,0,0,0,,,,,,,,,,,,,,,,,,,,,,,,,0,0,0,0,,,,,,,,,,,,,,,,,,,,,,,,,,,,532.6658501999918,534.1653808000265,534.1992669000756,535.1492674000328,535.1990864999825,536.1495415000245,536.1495415000245,None,,,,,,,,,,,,,,,,,,,,,,,,,,,,,,,,,,2,1.5815690999152139,537.3163481000811,None,ScrollUp,정답입니다,537.3163481000811,None,537.3163481000811,None,537.3163481000811,None,537.3163481000811,None,538.7288659000769,None,538.7288659000769,539.2325599000324,501.548254000023,None,501.548254000023,None,-0.17777778,-0.20185184,1,0,0,0.01628840994089842,None,531.5483921000268,None,,,122,2022-05-09_15h37.04.773,FishGame,2022.1.1,59.9444554493874,
,2,나를 보내줘,6,Green,A,0,0,ScrollUp,ScrollDown,Green.png,4,NonTarget,NonTarget,,,,,0,0,0,0,,,,,,,,,,,,,,,,,,,,,,,,,0,1,1,1,,,,,,,,,,,,,,,,,,,,,,,,,,,,,,,,,,,,,,,,,,,,,,,,,,,,,,,,,,,,,,,,,,,,,2,1.1224533999338746,539.8595421999926,None,ScrollUp,정답입니다,539.8595421999926,None,539.8595421999926,None,539.8595421999926,None,539.8595421999926,None,540.8826653000433,None,540.8826653000433,541.3820635000011,,,,,,,,,,,,,,,,122,2022-05-09_15h37.04.773,FishGame,2022.1.1,59.9444554493874,
,3,넌 조심스러워,3,Green,A,4.791666666666666,4.666666666666667,ScrollDown,ScrollUp,Green.png,4,Neutral,Neutral,,,,,0,0,0,0,,,,,,,,,,,,,,,,,,,,,,,,,0,2,2,2,,,,,,,,,,,,,,,,,,,,,,,,,,,,,,,,,,,,,,,,,,,,,,,,,,,,,,,,,,,,,,,,,,,,,1.0972222338120143,1.0582162999780849,542.0194558000658,None,ScrollDown,정답입니다,542.0194558000658,None,542.0194558000658,None,542.0194558000658,None,542.0194558000658,None,542.9654440000886,None,542.9654440000886,543.4657786000753,,,,,,,,,,,,,,,,122,2022-05-09_15h37.04.773,FishGame,2022.1.1,59.9444554493874,
,4,넌 철학적이야,3,Orange,B,4.5,4.266666666666667,ScrollUp,ScrollDown,Orange.png,4,Neutral,Neutral,,,,,0,0,0,0,,,,,,,,,,,,,,,,,,,,,,,,,0,3,3,3,,,,,,,,,,,,,,,,,,,,,,,,,,,,,,,,,,,,,,,,,,,,,,,,,,,,,,,,,,,,,,,,,,,,,1.9475308458010356,0.9388732000952587,544.1104213000508,None,ScrollUp,정답입니다,544.1104213000508,None,544.1104213000508,None,544.1104213000508,None,544.1104213000508,None,544.93252640008,None,544.93252640008,545.4327068000566,,,,,,,,,,,,,,,,122,2022-05-09_15h37.04.773,FishGame,2022.1.1,59.9444554493874,
,5,넌 쩨쩨해,5,Green,A,2.375,2.133333333333333,ScrollDown,ScrollUp,Green.png,4,Negative,Incongruent,,,,,0,0,0,0,,,,,,,,,,,,,,,,,,,,,,,,,0,4,4,4,,,,,,,,,,,,,,,,,,,,,,,,,,,,,,,,,,,,,,,,,,,,,,,,,,,,,,,,,,,,,,,,,,,,,1.080246905485789,1.2599763000616804,546.0706906000851,None,ScrollDown,정답입니다,546.0706906000851,None,546.0706906000851,None,546.0706906000851,None,546.0706906000851,None,547.215670100064,None,547.215670100064,547.7158676000545,,,,,,,,,,,,,,,,122,2022-05-09_15h37.04.773,FishGame,2022.1.1,59.9444554493874,
,6,나를 데려가줘,6,Orange,B,0,0,ScrollDown,ScrollUp,Orange.png,4,NonTarget,NonTarget,,,,,0,0,0,0,,,,,,,,,,,,,,,,,,,,,,,,,0,5,5,5,,,,,,,,,,,,,,,,,,,,,,,,,,,,,,,,,,,,,,,,,,,,,,,,,,,,,,,,,,,,,,,,,,,,,1.0709876716136932,1.1437288000015542,548.3712420000229,None,ScrollDown,정답입니다,548.3712420000229,None,548.3712420000229,None,548.3712420000229,None,548.3712420000229,None,549.3836297000526,None,549.3836297000526,549.8993843999924,,,,,,,,,,,,,,,,122,2022-05-09_15h37.04.773,FishGame,2022.1.1,59.9444554493874,
,7,넌 고집불통이야,5,Orange,B,2.875,2,ScrollUp,ScrollDown,Orange.png,4,Negative,Congruent,,,,,0,0,0,0,,,,,,,,,,,,,,,,,,,,,,,,,0,6,6,6,,,,,,,,,,,,,,,,,,,,,,,,,,,,,,,,,,,,,,,,,,,,,,,,,,,,,,,,,,,,,,,,,,,,,2,1.1022121999412775,550.5434602000751,None,ScrollUp,정답입니다,550.5434602000751,None,550.5434602000751,None,550.5434602000751,None,550.5434602000751,None,551.5290162999881,None,551.5290162999881,552.0328667000867,,,,,,,,,,,,,,,,122,2022-05-09_15h37.04.773,FishGame,2022.1.1,59.9444554493874,
,8,넌 무심해,4,Green,A,2.875,3.2,ScrollDown,ScrollUp,Green.png,4,Negative,Incongruent,,,,,0,0,0,0,,,,,,,,,,,,,,,,,,,,,,,,,0,7,7,7,,,,,,,,,,,,,,,,,,,,,,,,,,,,,,,,,,,,,,,,,,,,,,,,,,,,,,,,,,,,,,,,,,,,,1,1.0677698000799865,552.668689000071,None,ScrollDown,정답입니다,552.668689000071,None,552.668689000071,None,552.668689000071,None,552.668689000071,None,553.6295074999798,None,553.6295074999798,554.1330547999823,,,,,,,,,,,,,,,,122,2022-05-09_15h37.04.773,FishGame,2022.1.1,59.9444554493874,
,9,넌 정겨워,1,Green,A,5.791666666666667,5.666666666666667,ScrollDown,ScrollUp,Green.png,4,Positive,Congruent,,,,,0,0,0,0,,,,,,,,,,,,,,,,,,,,,,,,,0,8,8,8,,,,,,,,,,,,,,,,,,,,,,,,,,,,,,,,,,,,,,,,,,,,,,,,,,,,,,,,,,,,,,,,,,,,,1,1.0656962000066414,554.7776366000762,None,ScrollDown,정답입니다,554.7776366000762,None,554.7776366000762,None,554.7776366000762,None,554.7776366000762,None,555.7207041999791,None,555.7207041999791,556.232688600081,,,,,,,,,,,,,,,,122,2022-05-09_15h37.04.773,FishGame,2022.1.1,59.9444554493874,
,10,나를 데려가줘,6,Orange,B,0,0,ScrollDown,ScrollUp,Orange.png,4,NonTarget,NonTarget,,,,,0,0,0,0,,,,,,,,,,,,,,,,,,,,,,,,,0,9,9,9,,,,,,,,,,,,,,,,,,,,,,,,,,,,,,,,,,,,,,,,,,,,,,,,,,,,,,,,,,,,,,,,,,,,,1,1.0496403999859467,556.8750684000552,None,ScrollDown,정답입니다,556.8750684000552,None,556.8750684000552,None,556.8750684000552,None,556.8750684000552,None,557.804275100003,None,557.804275100003,558.3164430999896,,,,,,,,,,,,,,,,122,2022-05-09_15h37.04.773,FishGame,2022.1.1,59.9444554493874,
,11,넌 체제순응적이야,4,Orange,B,3,3.6,ScrollUp,ScrollDown,Orange.png,4,Negative,Congruent,,,,,0,0,0,0,,,,,,,,,,,,,,,,,,,,,,,,,0,10,10,10,,,,,,,,,,,,,,,,,,,,,,,,,,,,,,,,,,,,,,,,,,,,,,,,,,,,,,,,,,,,,,,,,,,,,2,1.1300914000021294,558.9718852000078,None,ScrollUp,정답입니다,558.9718852000078,None,558.9718852000078,None,558.9718852000078,None,558.9718852000078,None,559.970934699988,None,559.970934699988,560.482817400014,,,,,,,,,,,,,,,,122,2022-05-09_15h37.04.773,FishGame,2022.1.1,59.9444554493874,
,12,나를 보내줘,6,Green,A,0,0,ScrollUp,ScrollDown,Green.png,4,NonTarget,NonTarget,,,,,0,0,0,0,,,,,,,,,,,,,,,,,,,,,,,,,0,11,11,11,,,,,,,,,,,,,,,,,,,,,,,,,,,,,,,,,,,,,,,,,,,,,,,,,,,,,,,,,,,,,,,,,,,,,1.0910493781169255,1.2909162000287324,561.1162550000008,None,ScrollDown,오답입니다,561.1162550000008,None,561.1162550000008,None,561.1162550000008,None,561.1162550000008,None,562.298889100086,None,562.298889100086,562.8000277000247,,,,,,,,,,,,,,,,122,2022-05-09_15h37.04.773,FishGame,2022.1.1,59.9444554493874,
,13,넌 박식해,2,Green,A,5.625,3.933333333333333,ScrollDown,ScrollUp,Green.png,4,Positive,Congruent,,,,,0,0,0,0,,,,,,,,,,,,,,,,,,,,,,,,,0,12,12,12,,,,,,,,,,,,,,,,,,,,,,,,,,,,,,,,,,,,,,,,,,,,,,,,,,,,,,,,,,,,,,,,,,,,,1.0632716019948323,0.9280594999436289,563.4485396000091,None,ScrollDown,정답입니다,563.4485396000091,None,563.4485396000091,None,563.4485396000091,None,563.4485396000091,None,564.2555952999974,None,564.2555952999974,564.7665302000241,,,,,,,,,,,,,,,,122,2022-05-09_15h37.04.773,FishGame,2022.1.1,59.9444554493874,
,14,나를 보내줘,6,Green,A,0,0,ScrollUp,ScrollDown,Green.png,4,NonTarget,NonTarget,,,,,0,0,0,0,,,,,,,,,,,,,,,,,,,,,,,,,0,13,13,13,,,,,,,,,,,,,,,,,,,,,,,,,,,,,,,,,,,,,,,,,,,,,,,,,,,,,,,,,,,,,,,,,,,,,2,1.0773570000892505,565.3994279000908,None,ScrollUp,정답입니다,565.3994279000908,None,565.3994279000908,None,565.3994279000908,None,565.3994279000908,None,566.3661442000885,None,566.3661442000885,566.8665159000084,,,,,,,,,,,,,,,,122,2022-05-09_15h37.04.773,FishGame,2022.1.1,59.9444554493874,
,15,넌 침착해,1,Orange,B,5.458333333333333,5.566666666666666,ScrollUp,ScrollDown,Orange.png,4,Positive,Incongruent,,,,,0,0,0,0,,,,,,,,,,,,,,,,,,,,,,,,,0,14,14,14,,,,,,,,,,,,,,,,,,,,,,,,,,,,,,,,,,,,,,,,,,,,,,,,,,,,,,,,,,,,,,,,,,,,,1.9351851840813954,1.0660370999248698,567.5200885999948,None,ScrollUp,정답입니다,567.5200885999948,None,567.5200885999948,None,567.5200885999948,None,567.5200885999948,None,568.4629396999953,None,568.4629396999953,568.9666844999883,,,,,,,,,,,,,,,,122,2022-05-09_15h37.04.773,FishGame,2022.1.1,59.9444554493874,
,16,나를 데려가줘,6,Orange,B,0,0,ScrollDown,ScrollUp,Orange.png,4,NonTarget,NonTarget,,,,,0,0,0,0,,,,,,,,,,,,,,,,,,,,,,,,,0,15,15,15,,,,,,,,,,,,,,,,,,,,,,,,,,,,,,,,,,,,,,,,,,,,,,,,,,,,,,,,,,,,,,,,,,,,,1,1.3256235000444576,569.6004217000445,None,ScrollDown,정답입니다,569.6004217000445,None,569.6004217000445,None,569.6004217000445,None,569.6004217000445,None,570.816378400079,None,570.816378400079,571.3167951999931,,,,,,,,,,,,,,,,122,2022-05-09_15h37.04.773,FishGame,2022.1.1,59.9444554493874,
,17,넌 행복해,1,Green,A,6.416666666666666,6.166666666666667,ScrollDown,ScrollUp,Green.png,4,Positive,Congruent,,,,,0,0,0,0,,,,,,,,,,,,,,,,,,,,,,,,,0,16,16,16,,,,,,,,,,,,,,,,,,,,,,,,,,,,,,,,,,,,,,,,,,,,,,,,,,,,,,,,,,,,,,,,,,,,,1.0293209950129192,1.0759172000689432,571.9644580000313,None,ScrollDown,정답입니다,571.9644580000313,None,571.9644580000313,None,571.9644580000313,None,571.9644580000313,None,572.9165374999866,None,572.9165374999866,573.4166940000141,,,,,,,,,,,,,,,,122,2022-05-09_15h37.04.773,FishGame,2022.1.1,59.9444554493874,
,18,넌 겸손해,2,Orange,B,5.791666666666667,4.766666666666667,ScrollUp,ScrollDown,Orange.png,4,Positive,Incongruent,,,,,0,0,0,0,,,,,,,,,,,,,,,,,,,,,,,,,0,17,17,17,,,,,,,,,,,,,,,,,,,,,,,,,,,,,,,,,,,,,,,,,,,,,,,,,,,,,,,,,,,,,,,,,,,,,2,1.2009412000188604,574.0574149000458,None,ScrollUp,정답입니다,574.0574149000458,None,574.0574149000458,None,574.0574149000458,None,574.0574149000458,None,575.1464064000174,None,575.1464064000174,575.6498685000697,,,,,,,,,,,,,,,,122,2022-05-09_15h37.04.773,FishGame,2022.1.1,59.9444554493874,
,19,나를 보내줘,6,Green,A,0,0,ScrollUp,ScrollDown,Green.png,4,NonTarget,NonTarget,,,,,0,0,0,0,,,,,,,,,,,,,,,,,,,,,,,,,0,18,18,18,,,,,,,,,,,,,,,,,,,,,,,,,,,,,,,,,,,,,,,,,,,,,,,,,,,,,,,,,,,,,,,,,,,,,1.884259248773257,1.4082113999174908,576.2798570999876,None,ScrollUp,정답입니다,576.2798570999876,None,576.2798570999876,None,576.2798570999876,None,576.2798570999876,None,577.58272210008,None,577.58272210008,578.0828858000459,,,,,,,,,,,,,,,,122,2022-05-09_15h37.04.773,FishGame,2022.1.1,59.9444554493874,
,20,넌 의심없어,3,Green,A,4.166666666666667,4.6,ScrollDown,ScrollUp,Green.png,4,Neutral,Neutral,,,,,0,0,0,0,,,,,,,,,,,,,,,,,,,,,,,,,0,19,19,19,,,,,,,,,,,,,,,,,,,,,,,,,,,,,,,,,,,,,,,,,,,,,,,,,,,,,,,,,,,,,,,,,,,,,1.1080246816078823,1.300579599919729,578.7226106000599,None,ScrollDown,정답입니다,578.7226106000599,None,578.7226106000599,None,578.7226106000599,None,578.7226106000599,None,579.9045933000743,None,579.9045933000743,580.4167291000485,,,,,,,,,,,,,,,,122,2022-05-09_15h37.04.773,FishGame,2022.1.1,59.9444554493874,
,21,넌 시시해,4,Green,A,2.666666666666667,2.966666666666667,ScrollDown,ScrollUp,Green.png,4,Negative,Incongruent,,,,,0,0,0,0,,,,,,,,,,,,,,,,,,,,,,,,,0,20,20,20,,,,,,,,,,,,,,,,,,,,,,,,,,,,,,,,,,,,,,,,,,,,,,,,,,,,,,,,,,,,,,,,,,,,,1.0339506367842357,1.1316382000222802,581.0461996999802,None,ScrollDown,정답입니다,581.0461996999802,None,581.0461996999802,None,581.0461996999802,None,581.0461996999802,None,582.0713816999923,None,582.0713816999923,582.5832079000538,,,,,,,,,,,,,,,,122,2022-05-09_15h37.04.773,FishGame,2022.1.1,59.9444554493874,
,22,나를 데려가줘,6,Orange,B,0,0,ScrollDown,ScrollUp,Orange.png,4,NonTarget,NonTarget,,,,,0,0,0,0,,,,,,,,,,,,,,,,,,,,,,,,,0,21,21,21,,,,,,,,,,,,,,,,,,,,,,,,,,,,,,,,,,,,,,,,,,,,,,,,,,,,,,,,,,,,,,,,,,,,,1.0385802288850148,1.2492547000292689,583.2429527000058,None,ScrollDown,정답입니다,583.2429527000058,None,583.2429527000058,None,583.2429527000058,None,583.2429527000058,None,584.3547809000593,None,584.3547809000593,584.8670947999926,,,,,,,,,,,,,,,,122,2022-05-09_15h37.04.773,FishGame,2022.1.1,59.9444554493874,
,23,넌 무정해,5,Green,A,2.5,2.2,ScrollDown,ScrollUp,Green.png,4,Negative,Incongruent,,,,,0,0,0,0,,,,,,,,,,,,,,,,,,,,,,,,,0,22,22,22,,,,,,,,,,,,,,,,,,,,,,,,,,,,,,,,,,,,,,,,,,,,,,,,,,,,,,,,,,,,,,,,,,,,,1.0416666567325592,1.6165975000476465,585.4985872000689,None,ScrollDown,정답입니다,585.4985872000689,None,585.4985872000689,None,585.4985872000689,None,585.4985872000689,None,587.0047493000748,None,587.0047493000748,587.5168469999917,,,,,,,,,,,,,,,,122,2022-05-09_15h37.04.773,FishGame,2022.1.1,59.9444554493874,
,24,넌 긍정적이야,1,Orange,B,6.041666666666667,6.066666666666666,ScrollUp,ScrollDown,Orange.png,4,Positive,Incongruent,,,,,0,0,0,0,,,,,,,,,,,,,,,,,,,,,,,,,0,23,23,23,,,,,,,,,,,,,,,,,,,,,,,,,,,,,,,,,,,,,,,,,,,,,,,,,,,,,,,,,,,,,,,,,,,,,2,1.1915876000421122,588.1800284000346,None,ScrollUp,정답입니다,588.1800284000346,None,588.1800284000346,None,588.1800284000346,None,588.1800284000346,None,589.2336370000849,None,589.2336370000849,589.7338319000555,,,,,,,,,,,,,,,,122,2022-05-09_15h37.04.773,FishGame,2022.1.1,59.9444554493874,
,25,나를 보내줘,6,Green,A,0,0,ScrollUp,ScrollDown,Green.png,4,NonTarget,NonTarget,,,,,0,0,0,0,,,,,,,,,,,,,,,,,,,,,,,,,0,24,24,24,,,,,,,,,,,,,,,,,,,,,,,,,,,,,,,,,,,,,,,,,,,,,,,,,,,,,,,,,,,,,,,,,,,,,2,1.3390363999642432,590.3675929000601,None,ScrollUp,정답입니다,590.3675929000601,None,590.3675929000601,None,590.3675929000601,None,590.3675929000601,None,591.6004538000561,None,591.6004538000561,592.1002781999996,,,,,,,,,,,,,,,,122,2022-05-09_15h37.04.773,FishGame,2022.1.1,59.9444554493874,
,26,넌 시기심이 많아,5,Orange,B,2.458333333333333,2.233333333333333,ScrollUp,ScrollDown,Orange.png,4,Negative,Congruent,,,,,0,0,0,0,,,,,,,,,,,,,,,,,,,,,,,,,0,25,25,25,,,,,,,,,,,,,,,,,,,,,,,,,,,,,,,,,,,,,,,,,,,,,,,,,,,,,,,,,,,,,,,,,,,,,1.8317901243766148,1.1813791000749916,592.7541832000716,None,ScrollUp,정답입니다,592.7541832000716,None,592.7541832000716,None,592.7541832000716,None,592.7541832000716,None,593.8063330000732,None,593.8063330000732,594.3174913000548,,,,,,,,,,,,,,,,122,2022-05-09_15h37.04.773,FishGame,2022.1.1,59.9444554493874,
,27,넌 탁월해,2,Green,A,5.708333333333334,4.5,ScrollDown,ScrollUp,Green.png,4,Positive,Congruent,,,,,0,0,0,0,,,,,,,,,,,,,,,,,,,,,,,,,0,26,26,26,,,,,,,,,,,,,,,,,,,,,,,,,,,,,,,,,,,,,,,,,,,,,,,,,,,,,,,,,,,,,,,,,,,,,1.200617293516795,1.104888999951072,594.9543604000937,None,ScrollDown,정답입니다,594.9543604000937,None,594.9543604000937,None,594.9543604000937,None,594.9543604000937,None,595.9501248000888,None,595.9501248000888,596.4504658000078,,,,,,,,,,,,,,,,122,2022-05-09_15h37.04.773,FishGame,2022.1.1,59.9444554493874,
,28,나를 데려가줘,6,Orange,B,0,0,ScrollDown,ScrollUp,Orange.png,4,NonTarget,NonTarget,,,,,0,0,0,0,,,,,,,,,,,,,,,,,,,,,,,,,0,27,27,27,,,,,,,,,,,,,,,,,,,,,,,,,,,,,,,,,,,,,,,,,,,,,,,,,,,,,,,,,,,,,,,,,,,,,1.2299382835626602,1.584404999972321,597.0992687999969,None,ScrollDown,정답입니다,597.0992687999969,None,597.0992687999969,None,597.0992687999969,None,597.0992687999969,None,598.5559100999963,None,598.5559100999963,599.0674488000805,,,,,,,,,,,,,,,,122,2022-05-09_15h37.04.773,FishGame,2022.1.1,59.9444554493874,
,29,넌 조용해,3,Orange,B,4.333333333333333,4.166666666666667,ScrollUp,ScrollDown,Orange.png,4,Neutral,Neutral,,,,,0,0,0,0,,,,,,,,,,,,,,,,,,,,,,,,,0,28,28,28,,,,,,,,,,,,,,,,,,,,,,,,,,,,,,,,,,,,,,,,,,,,,,,,,,,,,,,,,,,,,,,,,,,,,1.9629629850387573,1.3465106000658125,599.7066021000501,None,ScrollUp,정답입니다,599.7066021000501,None,599.7066021000501,None,599.7066021000501,None,599.7066021000501,None,600.9385236999951,None,600.9385236999951,601.4507961000782,,,,,,,,,,,,,,,,122,2022-05-09_15h37.04.773,FishGame,2022.1.1,59.9444554493874,
,30,넌 다정해,1,Green,A,5.833333333333334,5.7,ScrollDown,ScrollUp,Green.png,4,Positive,Congruent,,,,,0,0,0,0,,,,,,,,,,,,,,,,,,,,,,,,,0,29,29,29,,,,,,,,,,,,,,,,,,,,,,,,,,,,,,,,,,,,,,,,,,,,,,,,,,,,,,,,,,,,,,,,,,,,,1.0185184975465138,1.2934914999641478,602.0834045000374,None,ScrollDown,정답입니다,602.0834045000374,None,602.0834045000374,None,602.0834045000374,None,602.0834045000374,None,603.2709011000115,None,603.2709011000115,603.7840840000426,,,,,,,,,,,,,,,,122,2022-05-09_15h37.04.773,FishGame,2022.1.1,59.9444554493874,
,31,넌 능력있어,2,Orange,B,6.166666666666666,4.6,ScrollUp,ScrollDown,Orange.png,4,Positive,Incongruent,,,,,0,0,0,0,,,,,,,,,,,,,,,,,,,,,,,,,0,30,30,30,,,,,,,,,,,,,,,,,,,,,,,,,,,,,,,,,,,,,,,,,,,,,,,,,,,,,,,,,,,,,,,,,,,,,2,1.1693715999135748,604.417158300057,None,ScrollUp,정답입니다,604.417158300057,None,604.417158300057,None,604.417158300057,None,604.417158300057,None,605.4805921000661,None,605.4805921000661,605.9834422999993,,,,,,,,,,,,,,,,122,2022-05-09_15h37.04.773,FishGame,2022.1.1,59.9444554493874,
,32,넌 불쾌해,5,Green,A,2.125,1.933333333333333,ScrollDown,ScrollUp,Green.png,4,Negative,Incongruent,,,,,0,0,0,0,,,,,,,,,,,,,,,,,,,,,,,,,0,31,31,31,,,,,,,,,,,,,,,,,,,,,,,,,,,,,,,,,,,,,,,,,,,,,,,,,,,,,,,,,,,,,,,,,,,,,1.0879629751046498,1.0293834999902174,606.623756700079,None,ScrollDown,정답입니다,606.623756700079,None,606.623756700079,None,606.623756700079,None,606.623756700079,None,607.5383217000635,None,607.5383217000635,608.0501591999782,,,,,,,,,,,,,,,,122,2022-05-09_15h37.04.773,FishGame,2022.1.1,59.9444554493874,
,33,나를 데려가줘,6,Orange,B,0,0,ScrollDown,ScrollUp,Orange.png,4,NonTarget,NonTarget,,,,,0,0,0,0,,,,,,,,,,,,,,,,,,,,,,,,,0,32,32,32,,,,,,,,,,,,,,,,,,,,,,,,,,,,,,,,,,,,,,,,,,,,,,,,,,,,,,,,,,,,,,,,,,,,,1.0216049253940582,1.6510775999631733,608.6926087000174,None,ScrollDown,정답입니다,608.6926087000174,None,608.6926087000174,None,608.6926087000174,None,608.6926087000174,None,610.2306359000504,None,610.2306359000504,610.7342868000269,,,,,,,,,,,,,,,,122,2022-05-09_15h37.04.773,FishGame,2022.1.1,59.9444554493874,
,34,넌 유순해,3,Green,A,4.458333333333333,5,ScrollDown,ScrollUp,Green.png,4,Neutral,Neutral,,,,,0,0,0,0,,,,,,,,,,,,,,,,,,,,,,,,,0,33,33,33,,,,,,,,,,,,,,,,,,,,,,,,,,,,,,,,,,,,,,,,,,,,,,,,,,,,,,,,,,,,,,,,,,,,,1.0524691541989644,1.7016312000341713,611.3641608000034,None,ScrollDown,정답입니다,611.3641608000034,None,611.3641608000034,None,611.3641608000034,None,611.3641608000034,None,612.9640787000535,None,612.9640787000535,613.4675405999878,,,,,,,,,,,,,,,,122,2022-05-09_15h37.04.773,FishGame,2022.1.1,59.9444554493874,
,35,넌 근심스러워,4,Orange,B,2.708333333333333,3.133333333333333,ScrollUp,ScrollDown,Orange.png,4,Negative,Congruent,,,,,0,0,0,0,,,,,,,,,,,,,,,,,,,,,,,,,0,34,34,34,,,,,,,,,,,,,,,,,,,,,,,,,,,,,,,,,,,,,,,,,,,,,,,,,,,,,,,,,,,,,,,,,,,,,1.9938271641731262,1.1912614000029862,614.113628000021,None,ScrollUp,정답입니다,614.113628000021,None,614.113628000021,None,614.113628000021,None,614.113628000021,None,615.1839096000185,None,615.1839096000185,615.684692800045,,,,,,,,,,,,,,,,122,2022-05-09_15h37.04.773,FishGame,2022.1.1,59.9444554493874,
,36,넌 세련되었어,2,Green,A,5.5,4.6,ScrollDown,ScrollUp,Green.png,4,Positive,Congruent,,,,,0,0,0,0,,,,,,,,,,,,,,,,,,,,,,,,,0,35,35,35,,,,,,,,,,,,,,,,,,,,,,,,,,,,,,,,,,,,,,,,,,,,,,,,,,,,,,,,,,,,,,,,,,,,,1,1.214613200048916,616.34041360009,None,ScrollDown,정답입니다,616.34041360009,None,616.34041360009,None,616.34041360009,None,616.34041360009,None,617.4220989000751,None,617.4220989000751,617.9342883999925,,,,,,,,,,,,,,,,122,2022-05-09_15h37.04.773,FishGame,2022.1.1,59.9444554493874,
,37,나를 보내줘,6,Green,A,0,0,ScrollUp,ScrollDown,Green.png,4,NonTarget,NonTarget,,,,,0,0,0,0,,,,,,,,,,,,,,,,,,,,,,,,,0,36,36,36,,,,,,,,,,,,,,,,,,,,,,,,,,,,,,,,,,,,,,,,,,,,,,,,,,,,,,,,,,,,,,,,,,,,,1.9243827362855275,1.2715771000366658,618.5697166000027,None,ScrollUp,정답입니다,618.5697166000027,None,618.5697166000027,None,618.5697166000027,None,618.5697166000027,None,619.734176900005,None,619.734176900005,620.2344671000028,,,,,,,,,,,,,,,,122,2022-05-09_15h37.04.773,FishGame,2022.1.1,59.9444554493874,
,38,넌 확고해,3,Orange,B,4.708333333333334,4.566666666666666,ScrollUp,ScrollDown,Orange.png,4,Neutral,Neutral,,,,,0,0,0,0,,,,,,,,,,,,,,,,,,,,,,,,,0,37,37,37,,,,,,,,,,,,,,,,,,,,,,,,,,,,,,,,,,,,,,,,,,,,,,,,,,,,,,,,,,,,,,,,,,,,,1.8287036965290706,1.0882913999957964,620.882515400066,None,ScrollUp,정답입니다,620.882515400066,None,620.882515400066,None,620.882515400066,None,620.882515400066,None,621.8508188000415,None,621.8508188000415,622.3511779999826,,,,,,,,,,,,,,,,122,2022-05-09_15h37.04.773,FishGame,2022.1.1,59.9444554493874,
,39,넌 이해심이 많아,1,Orange,B,6.041666666666668,5.533333333333333,ScrollUp,ScrollDown,Orange.png,4,Positive,Incongruent,,,,,0,0,0,0,,,,,,,,,,,,,,,,,,,,,,,,,0,38,38,38,,,,,,,,,,,,,,,,,,,,,,,,,,,,,,,,,,,,,,,,,,,,,,,,,,,,,,,,,,,,,,,,,,,,,2,1.1647762000793591,623.0106520000845,None,ScrollUp,정답입니다,623.0106520000845,None,623.0106520000845,None,623.0106520000845,None,623.0106520000845,None,624.0389091999969,None,624.0389091999969,624.5511771000456,,,,,,,,,,,,,,,,122,2022-05-09_15h37.04.773,FishGame,2022.1.1,59.9444554493874,
,40,나를 보내줘,6,Green,A,0,0,ScrollUp,ScrollDown,Green.png,4,NonTarget,NonTarget,,,,,0,0,0,0,,,,,,,,,,,,,,,,,,,,,,,,,0,39,39,39,,,,,,,,,,,,,,,,,,,,,,,,,,,,,,,,,,,,,,,,,,,,,,,,,,,,,,,,,,,,,,,,,,,,,1.819444437821706,1.3892929001012817,625.183316300041,None,ScrollUp,정답입니다,625.183316300041,None,625.183316300041,None,625.183316300041,None,625.183316300041,None,626.4672456000699,None,626.4672456000699,626.9672135000583,,,,,,,,,,,,,,,,122,2022-05-09_15h37.04.773,FishGame,2022.1.1,59.9444554493874,
,41,넌 거칠어,4,Green,A,2.625,3.033333333333333,ScrollDown,ScrollUp,Green.png,4,Negative,Incongruent,,,,,0,0,0,0,,,,,,,,,,,,,,,,,,,,,,,,,0,40,40,40,,,,,,,,,,,,,,,,,,,,,,,,,,,,,,,,,,,,,,,,,,,,,,,,,,,,,,,,,,,,,,,,,,,,,1.121913582086563,0.9907316999742761,627.6220161999809,None,ScrollDown,정답입니다,627.6220161999809,None,627.6220161999809,None,627.6220161999809,None,627.6220161999809,None,628.4838921000483,None,628.4838921000483,628.9844513999997,,,,,,,,,,,,,,,,122,2022-05-09_15h37.04.773,FishGame,2022.1.1,59.9444554493874,
,42,넌 변덕맞아,5,Orange,B,2.75,2.166666666666667,ScrollUp,ScrollDown,Orange.png,4,Negative,Congruent,,,,,0,0,0,0,,,,,,,,,,,,,,,,,,,,,,,,,0,41,41,41,,,,,,,,,,,,,,,,,,,,,,,,,,,,,,,,,,,,,,,,,,,,,,,,,,,,,,,,,,,,,,,,,,,,,1.983024666706721,1.0666762000182644,629.6365853000898,None,ScrollUp,정답입니다,629.6365853000898,None,629.6365853000898,None,629.6365853000898,None,629.6365853000898,None,630.5810203000437,None,630.5810203000437,631.084325700067,,,,,,,,,,,,,,,,122,2022-05-09_15h37.04.773,FishGame,2022.1.1,59.9444554493874,
,43,나를 데려가줘,6,Orange,B,0,0,ScrollDown,ScrollUp,Orange.png,4,NonTarget,NonTarget,,,,,0,0,0,0,,,,,,,,,,,,,,,,,,,,,,,,,0,42,42,42,,,,,,,,,,,,,,,,,,,,,,,,,,,,,,,,,,,,,,,,,,,,,,,,,,,,,,,,,,,,,,,,,,,,,1.2746913631757102,1.2128120999550447,631.7205413000192,None,ScrollDown,정답입니다,631.7205413000192,None,631.7205413000192,None,631.7205413000192,None,631.7205413000192,None,632.8222682999913,None,632.8222682999913,633.3345446999883,,,,,,,,,,,,,,,,122,2022-05-09_15h37.04.773,FishGame,2022.1.1,59.9444554493874,
,44,넌 외로워,4,Orange,B,2.833333333333333,3.3,ScrollUp,ScrollDown,Orange.png,4,Negative,Congruent,,,,,0,0,0,0,,,,,,,,,,,,,,,,,,,,,,,,,0,43,43,43,,,,,,,,,,,,,,,,,,,,,,,,,,,,,,,,,,,,,,,,,,,,,,,,,,,,,,,,,,,,,,,,,,,,,2,1.3679172999691218,633.9845534000779,None,ScrollUp,정답입니다,633.9845534000779,None,633.9845534000779,None,633.9845534000779,None,633.9845534000779,None,635.2310861999867,None,635.2310861999867,635.7345255999826,,,,,,,,,,,,,,,,122,2022-05-09_15h37.04.773,FishGame,2022.1.1,59.9444554493874,
,1,넌 불평스러워,5,Green,A,2.25,2.066666666666667,ScrollDown,ScrollUp,Green.png,5,Negative,Incongruent,,,,,0,0,0,0,,,,,,,,,,,,,,,,,,,,,,,,,,,,,0,0,0,0,,,,,,,,,,,,,,,,,,,,,,,,667.9020461000036,669.4024055000627,669.4353048000485,670.3857290000888,670.4354104000377,671.3855383000337,671.3855383000337,None,,,,,,,,,,,,,,,,,,,,,,,,,,,,,,,,,,1,1.6297319000586867,672.549978199997,None,ScrollDown,정답입니다,672.549978199997,None,672.549978199997,None,672.549978199997,None,672.549978199997,None,674.0082011000486,None,674.0082011000486,674.5188326999778,636.234461300075,None,636.234461300075,None,-0.16944444,-0.23796296,1,0,0,0.016216809977777302,None,666.2353198000928,None,,,122,2022-05-09_15h37.04.773,FishGame,2022.1.1,59.9444554493874,
,2,나를 보내줘,6,Green,A,0,0,ScrollUp,ScrollDown,Green.png,5,NonTarget,NonTarget,,,,,0,0,0,0,,,,,,,,,,,,,,,,,,,,,,,,,,,,,0,1,1,1,,,,,,,,,,,,,,,,,,,,,,,,,,,,,,,,,,,,,,,,,,,,,,,,,,,,,,,,,,,,,,,,,1.9861110945542653,1.1250804000301287,675.1460041999817,None,ScrollUp,정답입니다,675.1460041999817,None,675.1460041999817,None,675.1460041999817,None,675.1460041999817,None,676.1683122999966,None,676.1683122999966,676.6689668000909,,,,,,,,,,,,,,,,122,2022-05-09_15h37.04.773,FishGame,2022.1.1,59.9444554493874,
,3,넌 다재다능해,2,Orange,B,6.208333333333333,4.5,ScrollUp,ScrollDown,Orange.png,5,Positive,Incongruent,,,,,0,0,0,0,,,,,,,,,,,,,,,,,,,,,,,,,,,,,0,2,2,2,,,,,,,,,,,,,,,,,,,,,,,,,,,,,,,,,,,,,,,,,,,,,,,,,,,,,,,,,,,,,,,,,2,1.6732652999926358,677.3188183000311,None,ScrollUp,정답입니다,677.3188183000311,None,677.3188183000311,None,677.3188183000311,None,677.3188183000311,None,678.868725300068,None,678.868725300068,679.3691393000772,,,,,,,,,,,,,,,,122,2022-05-09_15h37.04.773,FishGame,2022.1.1,59.9444554493874,
,4,넌 과감해,3,Green,A,4.833333333333334,4.6,ScrollDown,ScrollUp,Green.png,5,Neutral,Neutral,,,,,0,0,0,0,,,,,,,,,,,,,,,,,,,,,,,,,,,,,0,3,3,3,,,,,,,,,,,,,,,,,,,,,,,,,,,,,,,,,,,,,,,,,,,,,,,,,,,,,,,,,,,,,,,,,1.0632716019948323,1.0250259999884292,679.9981746000703,None,ScrollDown,정답입니다,679.9981746000703,None,679.9981746000703,None,679.9981746000703,None,679.9981746000703,None,680.9187572000083,None,680.9187572000083,681.4187524000881,,,,,,,,,,,,,,,,122,2022-05-09_15h37.04.773,FishGame,2022.1.1,59.9444554493874,
,5,넌 고분고분해,3,Orange,B,3.75,4.033333333333333,ScrollUp,ScrollDown,Orange.png,5,Neutral,Neutral,,,,,0,0,0,0,,,,,,,,,,,,,,,,,,,,,,,,,,,,,0,4,4,4,,,,,,,,,,,,,,,,,,,,,,,,,,,,,,,,,,,,,,,,,,,,,,,,,,,,,,,,,,,,,,,,,2,1.0079669000115246,682.0649859000696,None,ScrollUp,정답입니다,682.0649859000696,None,682.0649859000696,None,682.0649859000696,None,682.0649859000696,None,682.9523708000779,None,682.9523708000779,683.4519470999949,,,,,,,,,,,,,,,,122,2022-05-09_15h37.04.773,FishGame,2022.1.1,59.9444554493874,
,6,나를 보내줘,6,Green,A,0,0,ScrollUp,ScrollDown,Green.png,5,NonTarget,NonTarget,,,,,0,0,0,0,,,,,,,,,,,,,,,,,,,,,,,,,,,,,0,5,5,5,,,,,,,,,,,,,,,,,,,,,,,,,,,,,,,,,,,,,,,,,,,,,,,,,,,,,,,,,,,,,,,,,2,1.1643658999819309,684.0886086000828,None,ScrollUp,정답입니다,684.0886086000828,None,684.0886086000828,None,684.0886086000828,None,684.0886086000828,None,685.1402143000159,None,685.1402143000159,685.6524351000553,,,,,,,,,,,,,,,,122,2022-05-09_15h37.04.773,FishGame,2022.1.1,59.9444554493874,
,7,넌 잘 잊어,4,Green,A,3,3.7,ScrollDown,ScrollUp,Green.png,5,Negative,Incongruent,,,,,0,0,0,0,,,,,,,,,,,,,,,,,,,,,,,,,,,,,0,6,6,6,,,,,,,,,,,,,,,,,,,,,,,,,,,,,,,,,,,,,,,,,,,,,,,,,,,,,,,,,,,,,,,,,1,1.039252399932593,686.2912458999781,None,ScrollDown,정답입니다,686.2912458999781,None,686.2912458999781,None,686.2912458999781,None,686.2912458999781,None,687.2186096999794,None,687.2186096999794,687.7188786000479,,,,,,,,,,,,,,,,122,2022-05-09_15h37.04.773,FishGame,2022.1.1,59.9444554493874,
,8,넌 탐구심이없어,4,Orange,B,2.833333333333333,3.066666666666667,ScrollUp,ScrollDown,Orange.png,5,Negative,Congruent,,,,,0,0,0,0,,,,,,,,,,,,,,,,,,,,,,,,,,,,,0,7,7,7,,,,,,,,,,,,,,,,,,,,,,,,,,,,,,,,,,,,,,,,,,,,,,,,,,,,,,,,,,,,,,,,,2,1.1146795999957249,688.3876166000264,None,ScrollUp,정답입니다,688.3876166000264,None,688.3876166000264,None,688.3876166000264,None,688.3876166000264,None,689.3570284000598,None,689.3570284000598,689.8689284999855,,,,,,,,,,,,,,,,122,2022-05-09_15h37.04.773,FishGame,2022.1.1,59.9444554493874,
,9,나를 데려가줘,6,Orange,B,0,0,ScrollDown,ScrollUp,Orange.png,5,NonTarget,NonTarget,,,,,0,0,0,0,,,,,,,,,,,,,,,,,,,,,,,,,,,,,0,8,8,8,,,,,,,,,,,,,,,,,,,,,,,,,,,,,,,,,,,,,,,,,,,,,,,,,,,,,,,,,,,,,,,,,1,1.1150101000675932,690.5122597999871,None,ScrollDown,정답입니다,690.5122597999871,None,690.5122597999871,None,690.5122597999871,None,690.5122597999871,None,691.5070833000354,None,691.5070833000354,692.0192221000325,,,,,,,,,,,,,,,,122,2022-05-09_15h37.04.773,FishGame,2022.1.1,59.9444554493874,
,10,넌 참되어,2,Green,A,6.041666666666664,4.733333333333333,ScrollDown,ScrollUp,Green.png,5,Positive,Congruent,,,,,0,0,0,0,,,,,,,,,,,,,,,,,,,,,,,,,,,,,0,9,9,9,,,,,,,,,,,,,,,,,,,,,,,,,,,,,,,,,,,,,,,,,,,,,,,,,,,,,,,,,,,,,,,,,1.080246905485789,1.1010078999679536,692.6593144000508,None,ScrollDown,정답입니다,692.6593144000508,None,692.6593144000508,None,692.6593144000508,None,692.6593144000508,None,693.6489203000674,None,693.6489203000674,694.1525462000864,,,,,,,,,,,,,,,,122,2022-05-09_15h37.04.773,FishGame,2022.1.1,59.9444554493874,
,11,넌 생기있어,1,Orange,B,5.875,5.633333333333334,ScrollUp,ScrollDown,Orange.png,5,Positive,Incongruent,,,,,0,0,0,0,,,,,,,,,,,,,,,,,,,,,,,,,,,,,0,10,10,10,,,,,,,,,,,,,,,,,,,,,,,,,,,,,,,,,,,,,,,,,,,,,,,,,,,,,,,,,,,,,,,,,2,1.111754500074312,694.7985480000498,None,ScrollUp,정답입니다,694.7985480000498,None,694.7985480000498,None,694.7985480000498,None,694.7985480000498,None,695.7898948000511,None,695.7898948000511,696.3027924000053,,,,,,,,,,,,,,,,122,2022-05-09_15h37.04.773,FishGame,2022.1.1,59.9444554493874,
,12,넌 비사교적이야,4,Orange,B,2.875,2.9,ScrollUp,ScrollDown,Orange.png,5,Negative,Congruent,,,,,0,0,0,0,,,,,,,,,,,,,,,,,,,,,,,,,,,,,0,11,11,11,,,,,,,,,,,,,,,,,,,,,,,,,,,,,,,,,,,,,,,,,,,,,,,,,,,,,,,,,,,,,,,,,1.8950617214043934,1.024040599935688,696.9443189000012,None,ScrollUp,정답입니다,696.9443189000012,None,696.9443189000012,None,696.9443189000012,None,696.9443189000012,None,697.8522600000724,None,697.8522600000724,698.3521889999975,,,,,,,,,,,,,,,,122,2022-05-09_15h37.04.773,FishGame,2022.1.1,59.9444554493874,
,13,나를 데려가줘,6,Orange,B,0,0,ScrollDown,ScrollUp,Orange.png,5,NonTarget,NonTarget,,,,,0,0,0,0,,,,,,,,,,,,,,,,,,,,,,,,,,,,,0,12,12,12,,,,,,,,,,,,,,,,,,,,,,,,,,,,,,,,,,,,,,,,,,,,,,,,,,,,,,,,,,,,,,,,,1,1.0661375999916345,698.9918248000322,None,ScrollDown,정답입니다,698.9918248000322,None,698.9918248000322,None,698.9918248000322,None,698.9918248000322,None,699.940491000074,None,699.940491000074,700.4526472000871,,,,,,,,,,,,,,,,122,2022-05-09_15h37.04.773,FishGame,2022.1.1,59.9444554493874,
,14,넌 고독해,4,Green,A,2.916666666666667,3.233333333333333,ScrollDown,ScrollUp,Green.png,5,Negative,Incongruent,,,,,0,0,0,0,,,,,,,,,,,,,,,,,,,,,,,,,,,,,0,13,13,13,,,,,,,,,,,,,,,,,,,,,,,,,,,,,,,,,,,,,,,,,,,,,,,,,,,,,,,,,,,,,,,,,1,0.9820323000894859,701.083846500027,None,ScrollDown,정답입니다,701.083846500027,None,701.083846500027,None,701.083846500027,None,701.083846500027,None,701.9575357000576,None,701.9575357000576,702.4690706999972,,,,,,,,,,,,,,,,122,2022-05-09_15h37.04.773,FishGame,2022.1.1,59.9444554493874,
,15,넌 신경질적이야,5,Orange,B,2.375,2.233333333333333,ScrollUp,ScrollDown,Orange.png,5,Negative,Congruent,,,,,0,0,0,0,,,,,,,,,,,,,,,,,,,,,,,,,,,,,0,14,14,14,,,,,,,,,,,,,,,,,,,,,,,,,,,,,,,,,,,,,,,,,,,,,,,,,,,,,,,,,,,,,,,,,2,1.0972673000069335,703.121884000022,None,ScrollUp,정답입니다,703.121884000022,None,703.121884000022,None,703.121884000022,None,703.121884000022,None,704.090443000081,None,704.090443000081,704.603096100036,,,,,,,,,,,,,,,,122,2022-05-09_15h37.04.773,FishGame,2022.1.1,59.9444554493874,
,16,넌 똑똑해,2,Orange,B,5.666666666666667,3.966666666666667,ScrollUp,ScrollDown,Orange.png,5,Positive,Incongruent,,,,,0,0,0,0,,,,,,,,,,,,,,,,,,,,,,,,,,,,,0,15,15,15,,,,,,,,,,,,,,,,,,,,,,,,,,,,,,,,,,,,,,,,,,,,,,,,,,,,,,,,,,,,,,,,,2,1.5173208999913186,705.2458218000829,None,ScrollUp,정답입니다,705.2458218000829,None,705.2458218000829,None,705.2458218000829,None,705.2458218000829,None,706.6497045999859,None,706.6497045999859,707.1522777000209,,,,,,,,,,,,,,,,122,2022-05-09_15h37.04.773,FishGame,2022.1.1,59.9444554493874,
,17,나를 보내줘,6,Green,A,0,0,ScrollUp,ScrollDown,Green.png,5,NonTarget,NonTarget,,,,,0,0,0,0,,,,,,,,,,,,,,,,,,,,,,,,,,,,,0,16,16,16,,,,,,,,,,,,,,,,,,,,,,,,,,,,,,,,,,,,,,,,,,,,,,,,,,,,,,,,,,,,,,,,,2,1.2778249999973923,707.7986877000658,None,ScrollUp,정답입니다,707.7986877000658,None,707.7986877000658,None,707.7986877000658,None,707.7986877000658,None,708.9574791000923,None,708.9574791000923,709.4693226000527,,,,,,,,,,,,,,,,122,2022-05-09_15h37.04.773,FishGame,2022.1.1,59.9444554493874,
,18,넌 협조적이야,1,Green,A,5.625,5.666666666666667,ScrollDown,ScrollUp,Green.png,5,Positive,Congruent,,,,,0,0,0,0,,,,,,,,,,,,,,,,,,,,,,,,,,,,,0,17,17,17,,,,,,,,,,,,,,,,,,,,,,,,,,,,,,,,,,,,,,,,,,,,,,,,,,,,,,,,,,,,,,,,,1,0.9586743999971077,710.1017628000118,None,ScrollDown,정답입니다,710.1017628000118,None,710.1017628000118,None,710.1017628000118,None,710.1017628000118,None,710.9530125000747,None,710.9530125000747,711.4524228000082,,,,,,,,,,,,,,,,122,2022-05-09_15h37.04.773,FishGame,2022.1.1,59.9444554493874,
,19,나를 데려가줘,6,Orange,B,0,0,ScrollDown,ScrollUp,Orange.png,5,NonTarget,NonTarget,,,,,0,0,0,0,,,,,,,,,,,,,,,,,,,,,,,,,,,,,0,18,18,18,,,,,,,,,,,,,,,,,,,,,,,,,,,,,,,,,,,,,,,,,,,,,,,,,,,,,,,,,,,,,,,,,1.0478395124276478,1.3722078999271616,712.0916500000749,None,ScrollDown,정답입니다,712.0916500000749,None,712.0916500000749,None,712.0916500000749,None,712.0916500000749,None,713.3526895000832,None,713.3526895000832,713.8532302000094,,,,,,,,,,,,,,,,122,2022-05-09_15h37.04.773,FishGame,2022.1.1,59.9444554493874,
,20,넌 몰인정해,5,Orange,B,2.541666666666667,2.066666666666667,ScrollUp,ScrollDown,Orange.png,5,Negative,Congruent,,,,,0,0,0,0,,,,,,,,,,,,,,,,,,,,,,,,,,,,,0,19,19,19,,,,,,,,,,,,,,,,,,,,,,,,,,,,,,,,,,,,,,,,,,,,,,,,,,,,,,,,,,,,,,,,,2,1.2561393999494612,714.4992019000929,None,ScrollUp,정답입니다,714.4992019000929,None,714.4992019000929,None,714.4992019000929,None,714.4992019000929,None,715.6362669999944,None,715.6362669999944,716.1363674000604,,,,,,,,,,,,,,,,122,2022-05-09_15h37.04.773,FishGame,2022.1.1,59.9444554493874,
,21,나를 데려가줘,6,Orange,B,0,0,ScrollDown,ScrollUp,Orange.png,5,NonTarget,NonTarget,,,,,0,0,0,0,,,,,,,,,,,,,,,,,,,,,,,,,,,,,0,20,20,20,,,,,,,,,,,,,,,,,,,,,,,,,,,,,,,,,,,,,,,,,,,,,,,,,,,,,,,,,,,,,,,,,2,1.0808406999567524,716.776763800066,None,ScrollUp,오답입니다,716.776763800066,None,716.776763800066,None,716.776763800066,None,716.776763800066,None,717.742339599994,None,717.742339599994,718.2530132000102,,,,,,,,,,,,,,,,122,2022-05-09_15h37.04.773,FishGame,2022.1.1,59.9444554493874,
