name,TrialNum,Word,WordCategory,FishType,WordList,WordValence,WordReputation,CorrectResp,IncorrectResp,FishTypeFile,Round,WordType,Condition,LoopforOrange.thisRepN,LoopforOrange.thisTrialN,LoopforOrange.thisN,LoopforOrange.thisIndex,OrangeInstLoop.thisRepN,OrangeInstLoop.thisTrialN,OrangeInstLoop.thisN,OrangeInstLoop.thisIndex,OrangePrac.thisRepN,OrangePrac.thisTrialN,OrangePrac.thisN,OrangePrac.thisIndex,temp1.thisRepN,temp1.thisTrialN,temp1.thisN,temp1.thisIndex,OrangeRound1.thisRepN,OrangeRound1.thisTrialN,OrangeRound1.thisN,OrangeRound1.thisIndex,OrangeRound2.thisRepN,OrangeRound2.thisTrialN,OrangeRound2.thisN,OrangeRound2.thisIndex,OrangeRound3.thisRepN,OrangeRound3.thisTrialN,OrangeRound3.thisN,OrangeRound3.thisIndex,OrangeRound4.thisRepN,OrangeRound4.thisTrialN,OrangeRound4.thisN,OrangeRound4.thisIndex,OrangeRound5.thisRepN,OrangeRound5.thisTrialN,OrangeRound5.thisN,OrangeRound5.thisIndex,LoopForGreen.thisRepN,LoopForGreen.thisTrialN,LoopForGreen.thisN,LoopForGreen.thisIndex,text_2.started,text_2.stopped,text_3.started,text_3.stopped,key_resp.keys,key_resp.rt,key_resp.started,key_resp.stopped,PassI_2.started,PassI_2.stopped,PassInst_2.keys,PassInst_2.rt,PassInst_2.started,PassInst_2.stopped,mouse_2.x,mouse_2.y,mouse_2.leftButton,mouse_2.midButton,mouse_2.rightButton,mouse_2.started,mouse_2.stopped,image.started,image.stopped,text_5.started,text_5.stopped,text_6.started,text_6.stopped,text_7.started,text_7.stopped,text_8.started,text_8.stopped,slider_2.response,slider_2.rt,slider_2.started,slider_2.stopped,Response_2,Feedback_2,BackGround_2.started,BackGround_2.stopped,Fish_2.started,Fish_2.stopped,WordBox_2.started,WordBox_2.stopped,Words_2.started,Words_2.stopped,BackGround_Feedback_2.started,BackGround_Feedback_2.stopped,Feedbacks_2.started,Feedbacks_2.stopped,Continue_or_not.keys,Continue_or_not.rt,Continue_or_not.started,Continue_or_not.stopped,image_3.started,image_3.stopped,mouse_3.x,mouse_3.y,mouse_3.leftButton,mouse_3.midButton,mouse_3.rightButton,mouse_3.started,mouse_3.stopped,startmain.started,startmain.stopped,slider.response,slider.rt,slider.started,slider.stopped,Response,Feedback,BackGround.started,BackGround.stopped,Fish.started,Fish.stopped,WordBox.started,WordBox.stopped,Words.started,Words.stopped,BackGround_Feedback.started,BackGround_Feedback.stopped,Feedbacks.started,Feedbacks.stopped,text.started,text.stopped,break_interval.started,break_interval.stopped,mouse.x,mouse.y,mouse.leftButton,mouse.midButton,mouse.rightButton,mouse.started,mouse.stopped,stratnextround.started,stratnextround.stopped,endgame.started,endgame.stopped,participant,date,expName,psychopyVersion,frameRate,
,,,,,,,,,,,,,,,,,,,,,,,,,,,,,,,,,,,,,,,,,,,,,,,,,,,,,,23.274734599981457,None,23.274734599981457,None,space,2.034620700054802,23.74768409994431,None,,,,,,,,,,,,,,,,,,,,,,,,,,,,,,,,,,,,,,,,,,,,,,,,,,,,,,,,,,,,,,,,,,,,,,,,,,,,,,,,,,,,,,,,,,123,2022-05-09_20h00.51.810,FishGame,2022.1.1,59.96246353311211,
물고기과제_instruction(참가자용)OrangeVersion.mp4,,,,,,,,,,,,,,0,0,0,0,0,0,0,0,,,,,,,,,,,,,,,,,,,,,,,,,,,,,,,,,,,,,,,,,92.08137679996435,None,n,8.916670799953863,92.08137679996435,None,,,,,,,,,,,,,,,,,,,,,,,,,,,,,,,,,,,,,,,,,,,,,,,,,,,,,,,,,,,,,,,,,,,,,,,,,,,,,,,,,,,,123,2022-05-09_20h00.51.810,FishGame,2022.1.1,59.96246353311211,
,1,넌 교활해,5,Green,B,2.333333333333333,2.133333333333333,ScrollUp,ScrollDown,Green.png,practice,,,0,0,0,0,,,,,0,0,0,0,0,0,0,0,,,,,,,,,,,,,,,,,,,,,,,,,,,,,,,,,,,,,,,0.03425926,-0.23888889,1,0,0,0.5133678499842063,None,101.01621039991733,None,104.83269680000376,106.33307609998155,106.36612529994454,107.31614869995974,107.36619479989167,108.31630929990206,108.31630929990206,None,1.9228395223617554,2.041207499918528,109.47907069989014,None,ScrollUp,정답입니다,109.47907069989014,None,109.47907069989014,None,109.47907069989014,None,109.47907069989014,None,111.35787249996793,None,111.35787249996793,111.86603339994326,,,,,,,,,,,,,,,,,,,,,,,,,,,,,,,,,,,,,,,,,,,,,,,,,123,2022-05-09_20h00.51.810,FishGame,2022.1.1,59.96246353311211,
,2,넌 슬기로워,2,Orange,A,6.166666666666667,4.1,ScrollDown,ScrollUp,Orange.png,practice,,,0,0,0,0,,,,,0,0,0,0,0,1,1,1,,,,,,,,,,,,,,,,,,,,,,,,,,,,,,,,,,,,,,,,,,,,,,,,,,,,,,,,1,1.5391467000590637,112.5150597000029,None,ScrollDown,정답입니다,112.5150597000029,None,112.5150597000029,None,112.5150597000029,None,112.5150597000029,None,113.9329106999794,None,113.9329106999794,114.43328749993816,,,,,,,,,,,,,,,,,,,,,,,,,,,,,,,,,,,,,,,,,,,,,,,,,123,2022-05-09_20h00.51.810,FishGame,2022.1.1,59.96246353311211,
,3,나를 보내줘,6,Orange,A,0,0,ScrollUp,ScrollDown,Orange.png,practice,,,0,0,0,0,,,,,0,0,0,0,0,2,2,2,,,,,,,,,,,,,,,,,,,,,,,,,,,,,,,,,,,,,,,,,,,,,,,,,,,,,,,,2,1.6082939999178052,115.07956649991684,None,ScrollUp,정답입니다,115.07956649991684,None,115.07956649991684,None,115.07956649991684,None,115.07956649991684,None,116.56580149999354,None,116.56580149999354,117.06620010000188,,,,,,,,,,,,,,,,,,,,,,,,,,,,,,,,,,,,,,,,,,,,,,,,,123,2022-05-09_20h00.51.810,FishGame,2022.1.1,59.96246353311211,
,4,나를 데려가줘,6,Green,B,0,0,ScrollDown,ScrollUp,Green.png,practice,,,0,0,0,0,,,,,0,0,0,0,0,3,3,3,,,,,,,,,,,,,,,,,,,,,,,,,,,,,,,,,,,,,,,,,,,,,,,,,,,,,,,,1,1.1638414999470115,117.70375659991987,None,ScrollDown,정답입니다,117.70375659991987,None,117.70375659991987,None,117.70375659991987,None,117.70375659991987,None,118.75454069999978,None,118.75454069999978,119.26616070000455,,,,,,,,,,,,,,,,,,,,,,,,,,,,,,,,,,,,,,,,,,,,,,,,,123,2022-05-09_20h00.51.810,FishGame,2022.1.1,59.96246353311211,
,1,넌 교활해,5,Green,B,2.333333333333333,2.133333333333333,ScrollUp,ScrollDown,Green.png,practice,,,0,0,0,0,,,,,0,0,0,0,,,,,,,,,,,,,,,,,,,,,,,,,,,,,,,,,,,,,,,,,,,,,,,,,,,,,,,,,,,,,,,,,,,,,,,,,,,,,,n,40.68615520000458,119.76620389998425,None,119.76620389998425,None,,,,,,,,,,,,,,,,,,,,,,,,,,,,,,,,,,,,,,,,,,,123,2022-05-09_20h00.51.810,FishGame,2022.1.1,59.96246353311211,
,1,넌 따뜻해,1,Green,B,6.083333333333333,5.6,ScrollUp,ScrollDown,Green.png,1,Positive,Incongruent,0,0,0,0,,,,,,,,,,,,,0,0,0,0,,,,,,,,,,,,,,,,,,,,,,,,,,,,,,,,,,,,,,,,,,,,163.1671353999991,164.66767189989332,164.7011552999029,165.65067319991067,165.70081389998086,166.6509204999311,166.6509204999311,None,,,,,,,,,,,,,,,,,,,,,,,,,-0.016666668,-0.121296294,1,0,0,0.3138181499671191,None,160.48446749988943,None,1.9104938358068466,1.6461270999861881,167.8409088999033,None,ScrollUp,정답입니다,167.8409088999033,None,167.8409088999033,None,167.8409088999033,None,167.8409088999033,None,169.29911749996245,None,169.29911749996245,169.80085139989387,,,,,,,,,,,,,,,,123,2022-05-09_20h00.51.810,FishGame,2022.1.1,59.96246353311211,
,2,넌 기품있어,2,Green,B,5.791666666666668,4.5,ScrollUp,ScrollDown,Green.png,1,Positive,Incongruent,0,0,0,0,,,,,,,,,,,,,0,1,1,1,,,,,,,,,,,,,,,,,,,,,,,,,,,,,,,,,,,,,,,,,,,,,,,,,,,,,,,,,,,,,,,,,,,,,,,,,,,,,,,,,,,,,2,1.3478005999932066,170.45189649995882,None,ScrollUp,정답입니다,170.45189649995882,None,170.45189649995882,None,170.45189649995882,None,170.45189649995882,None,171.67268179997336,None,171.67268179997336,172.1841540999012,,,,,,,,,,,,,,,,123,2022-05-09_20h00.51.810,FishGame,2022.1.1,59.96246353311211,
,3,나를 보내줘,6,Orange,A,0,0,ScrollUp,ScrollDown,Orange.png,1,NonTarget,NonTarget,0,0,0,0,,,,,,,,,,,,,0,2,2,2,,,,,,,,,,,,,,,,,,,,,,,,,,,,,,,,,,,,,,,,,,,,,,,,,,,,,,,,,,,,,,,,,,,,,,,,,,,,,,,,,,,,,2,1.4987076000543311,172.84673869994003,None,ScrollUp,정답입니다,172.84673869994003,None,172.84673869994003,None,172.84673869994003,None,172.84673869994003,None,174.20632689993363,None,174.20632689993363,174.71763430000283,,,,,,,,,,,,,,,,123,2022-05-09_20h00.51.810,FishGame,2022.1.1,59.96246353311211,
,4,넌 수동적이야,4,Orange,A,2.833333333333333,2.933333333333333,ScrollDown,ScrollUp,Orange.png,1,Negative,Incongruent,0,0,0,0,,,,,,,,,,,,,0,3,3,3,,,,,,,,,,,,,,,,,,,,,,,,,,,,,,,,,,,,,,,,,,,,,,,,,,,,,,,,,,,,,,,,,,,,,,,,,,,,,,,,,,,,,1,1.6175816000904888,175.37490979989525,None,ScrollDown,정답입니다,175.37490979989525,None,175.37490979989525,None,175.37490979989525,None,175.37490979989525,None,176.85624889994506,None,176.85624889994506,177.36801699991338,,,,,,,,,,,,,,,,123,2022-05-09_20h00.51.810,FishGame,2022.1.1,59.96246353311211,
,5,넌 사심이 없어,3,Green,B,4.916666666666666,4.333333333333333,ScrollUp,ScrollDown,Green.png,1,Neutral,Neutral,0,0,0,0,,,,,,,,,,,,,0,4,4,4,,,,,,,,,,,,,,,,,,,,,,,,,,,,,,,,,,,,,,,,,,,,,,,,,,,,,,,,,,,,,,,,,,,,,,,,,,,,,,,,,,,,,1.9768518606821697,1.6394984000362456,178.0175780999707,None,ScrollUp,정답입니다,178.0175780999707,None,178.0175780999707,None,178.0175780999707,None,178.0175780999707,None,179.53436359995976,None,179.53436359995976,180.0344105999684,,,,,,,,,,,,,,,,123,2022-05-09_20h00.51.810,FishGame,2022.1.1,59.96246353311211,
,6,넌 헤퍼,5,Orange,A,2.458333333333334,2.233333333333333,ScrollDown,ScrollUp,Orange.png,1,Negative,Incongruent,0,0,0,0,,,,,,,,,,,,,0,5,5,5,,,,,,,,,,,,,,,,,,,,,,,,,,,,,,,,,,,,,,,,,,,,,,,,,,,,,,,,,,,,,,,,,,,,,,,,,,,,,,,,,,,,,1,1.7209999000187963,180.6834340998903,None,ScrollDown,정답입니다,180.6834340998903,None,180.6834340998903,None,180.6834340998903,None,180.6834340998903,None,182.28439549996983,None,182.28439549996983,182.78406360000372,,,,,,,,,,,,,,,,123,2022-05-09_20h00.51.810,FishGame,2022.1.1,59.96246353311211,
,7,넌 말쑥해,3,Orange,A,4.833333333333334,4.333333333333333,ScrollDown,ScrollUp,Orange.png,1,Neutral,Neutral,0,0,0,0,,,,,,,,,,,,,0,6,6,6,,,,,,,,,,,,,,,,,,,,,,,,,,,,,,,,,,,,,,,,,,,,,,,,,,,,,,,,,,,,,,,,,,,,,,,,,,,,,,,,,,,,,1,1.6569578000344336,183.434315099963,None,ScrollDown,정답입니다,183.434315099963,None,183.434315099963,None,183.434315099963,None,183.434315099963,None,184.96759859996382,None,184.96759859996382,185.46813929989003,,,,,,,,,,,,,,,,123,2022-05-09_20h00.51.810,FishGame,2022.1.1,59.96246353311211,
,8,넌 투덜거려,5,Green,B,2.541666666666667,2.266666666666667,ScrollUp,ScrollDown,Green.png,1,Negative,Congruent,0,0,0,0,,,,,,,,,,,,,0,7,7,7,,,,,,,,,,,,,,,,,,,,,,,,,,,,,,,,,,,,,,,,,,,,,,,,,,,,,,,,,,,,,,,,,,,,,,,,,,,,,,,,,,,,,1.9074074079593022,1.567206200095825,186.11714029998984,None,ScrollUp,정답입니다,186.11714029998984,None,186.11714029998984,None,186.11714029998984,None,186.11714029998984,None,187.5646649999544,None,187.5646649999544,188.0678920999635,,,,,,,,,,,,,,,,123,2022-05-09_20h00.51.810,FishGame,2022.1.1,59.96246353311211,
,9,넌 적극적이야,1,Orange,A,5.708333333333333,5.533333333333333,ScrollDown,ScrollUp,Orange.png,1,Positive,Congruent,0,0,0,0,,,,,,,,,,,,,0,8,8,8,,,,,,,,,,,,,,,,,,,,,,,,,,,,,,,,,,,,,,,,,,,,,,,,,,,,,,,,,,,,,,,,,,,,,,,,,,,,,,,,,,,,,1,1.7015894999494776,188.71137929998804,None,ScrollDown,정답입니다,188.71137929998804,None,188.71137929998804,None,188.71137929998804,None,188.71137929998804,None,190.29096189991105,None,190.29096189991105,190.80081859999336,,,,,,,,,,,,,,,,123,2022-05-09_20h00.51.810,FishGame,2022.1.1,59.96246353311211,
,10,넌 재미없어,4,Green,B,2.625,2.966666666666667,ScrollUp,ScrollDown,Green.png,1,Negative,Congruent,0,0,0,0,,,,,,,,,,,,,0,9,9,9,,,,,,,,,,,,,,,,,,,,,,,,,,,,,,,,,,,,,,,,,,,,,,,,,,,,,,,,,,,,,,,,,,,,,,,,,,,,,,,,,,,,,2,1.7092912000371143,191.44042579992674,None,ScrollUp,정답입니다,191.44042579992674,None,191.44042579992674,None,191.44042579992674,None,191.44042579992674,None,193.03435299999546,None,193.03435299999546,193.5344576999778,,,,,,,,,,,,,,,,123,2022-05-09_20h00.51.810,FishGame,2022.1.1,59.96246353311211,
,11,넌 명석해,2,Orange,A,5.875,4.033333333333333,ScrollDown,ScrollUp,Orange.png,1,Positive,Congruent,0,0,0,0,,,,,,,,,,,,,0,10,10,10,,,,,,,,,,,,,,,,,,,,,,,,,,,,,,,,,,,,,,,,,,,,,,,,,,,,,,,,,,,,,,,,,,,,,,,,,,,,,,,,,,,,,1,1.7402019000146538,194.19147229997907,None,ScrollDown,정답입니다,194.19147229997907,None,194.19147229997907,None,194.19147229997907,None,194.19147229997907,None,195.80154929996934,None,195.80154929996934,196.30134349991567,,,,,,,,,,,,,,,,123,2022-05-09_20h00.51.810,FishGame,2022.1.1,59.96246353311211,
,12,나를 데려가줘,6,Green,B,0,0,ScrollDown,ScrollUp,Green.png,1,NonTarget,NonTarget,0,0,0,0,,,,,,,,,,,,,0,11,11,11,,,,,,,,,,,,,,,,,,,,,,,,,,,,,,,,,,,,,,,,,,,,,,,,,,,,,,,,,,,,,,,,,,,,,,,,,,,,,,,,,,,,,1,2.013760000001639,196.9458399999421,None,ScrollDown,정답입니다,196.9458399999421,None,196.9458399999421,None,196.9458399999421,None,196.9458399999421,None,198.8395601999946,None,198.8395601999946,199.3515991999302,,,,,,,,,,,,,,,,123,2022-05-09_20h00.51.810,FishGame,2022.1.1,59.96246353311211,
,13,넌 소심해,4,Orange,A,3,3.1,ScrollDown,ScrollUp,Orange.png,1,Negative,Incongruent,0,0,0,0,,,,,,,,,,,,,0,12,12,12,,,,,,,,,,,,,,,,,,,,,,,,,,,,,,,,,,,,,,,,,,,,,,,,,,,,,,,,,,,,,,,,,,,,,,,,,,,,,,,,,,,,,1,1.8659574000630528,199.99405919993296,None,ScrollDown,정답입니다,199.99405919993296,None,199.99405919993296,None,199.99405919993296,None,199.99405919993296,None,201.74015849991702,None,201.74015849991702,202.25180529989302,,,,,,,,,,,,,,,,123,2022-05-09_20h00.51.810,FishGame,2022.1.1,59.96246353311211,
,14,넌 합리적이야,2,Orange,A,5.583333333333333,4.733333333333333,ScrollDown,ScrollUp,Orange.png,1,Positive,Congruent,0,0,0,0,,,,,,,,,,,,,0,13,13,13,,,,,,,,,,,,,,,,,,,,,,,,,,,,,,,,,,,,,,,,,,,,,,,,,,,,,,,,,,,,,,,,,,,,,,,,,,,,,,,,,,,,,1,1.9115146999247372,202.9088682999136,None,ScrollDown,정답입니다,202.9088682999136,None,202.9088682999136,None,202.9088682999136,None,202.9088682999136,None,204.69056209991686,None,204.69056209991686,205.20194739999715,,,,,,,,,,,,,,,,123,2022-05-09_20h00.51.810,FishGame,2022.1.1,59.96246353311211,
,15,넌 무자비해,5,Green,B,2.333333333333333,2.1,ScrollUp,ScrollDown,Green.png,1,Negative,Congruent,0,0,0,0,,,,,,,,,,,,,0,14,14,14,,,,,,,,,,,,,,,,,,,,,,,,,,,,,,,,,,,,,,,,,,,,,,,,,,,,,,,,,,,,,,,,,,,,,,,,,,,,,,,,,,,,,2,1.7543086999794468,205.85203660000116,None,ScrollUp,정답입니다,205.85203660000116,None,205.85203660000116,None,205.85203660000116,None,205.85203660000116,None,207.48156329989433,None,207.48156329989433,207.98526489990763,,,,,,,,,,,,,,,,123,2022-05-09_20h00.51.810,FishGame,2022.1.1,59.96246353311211,
,16,나를 보내줘,6,Orange,A,0,0,ScrollUp,ScrollDown,Orange.png,1,NonTarget,NonTarget,0,0,0,0,,,,,,,,,,,,,0,15,15,15,,,,,,,,,,,,,,,,,,,,,,,,,,,,,,,,,,,,,,,,,,,,,,,,,,,,,,,,,,,,,,,,,,,,,,,,,,,,,,,,,,,,,2,1.8266364000737667,208.63034829997923,None,ScrollUp,정답입니다,208.63034829997923,None,208.63034829997923,None,208.63034829997923,None,208.63034829997923,None,210.33507839997765,None,210.33507839997765,210.83471299998928,,,,,,,,,,,,,,,,123,2022-05-09_20h00.51.810,FishGame,2022.1.1,59.96246353311211,
,17,넌 현실적이야,3,Green,B,4.608695652173913,4.766666666666667,ScrollUp,ScrollDown,Green.png,1,Neutral,Neutral,0,0,0,0,,,,,,,,,,,,,0,16,16,16,,,,,,,,,,,,,,,,,,,,,,,,,,,,,,,,,,,,,,,,,,,,,,,,,,,,,,,,,,,,,,,,,,,,,,,,,,,,,,,,,,,,,2,1.7583769999910146,211.47859059995972,None,ScrollUp,정답입니다,211.47859059995972,None,211.47859059995972,None,211.47859059995972,None,211.47859059995972,None,213.11794849997386,None,213.11794849997386,213.6188026999589,,,,,,,,,,,,,,,,123,2022-05-09_20h00.51.810,FishGame,2022.1.1,59.96246353311211,
,18,넌 의리있어,1,Green,B,5.833333333333334,5.633333333333334,ScrollUp,ScrollDown,Green.png,1,Positive,Incongruent,0,0,0,0,,,,,,,,,,,,,0,17,17,17,,,,,,,,,,,,,,,,,,,,,,,,,,,,,,,,,,,,,,,,,,,,,,,,,,,,,,,,,,,,,,,,,,,,,,,,,,,,,,,,,,,,,2,1.9013796000508592,214.26886249997187,None,ScrollUp,정답입니다,214.26886249997187,None,214.26886249997187,None,214.26886249997187,None,214.26886249997187,None,216.04849529999774,None,216.04849529999774,216.55219379998744,,,,,,,,,,,,,,,,123,2022-05-09_20h00.51.810,FishGame,2022.1.1,59.96246353311211,
,19,넌 신경과민이야,5,Orange,A,2.541666666666667,2.166666666666667,ScrollDown,ScrollUp,Orange.png,1,Negative,Incongruent,0,0,0,0,,,,,,,,,,,,,0,18,18,18,,,,,,,,,,,,,,,,,,,,,,,,,,,,,,,,,,,,,,,,,,,,,,,,,,,,,,,,,,,,,,,,,,,,,,,,,,,,,,,,,,,,,1,1.753828400047496,217.2121560999658,None,ScrollDown,정답입니다,217.2121560999658,None,217.2121560999658,None,217.2121560999658,None,217.2121560999658,None,218.8317217999138,None,218.8317217999138,219.33537779992912,,,,,,,,,,,,,,,,123,2022-05-09_20h00.51.810,FishGame,2022.1.1,59.96246353311211,
,20,넌 편안해,1,Orange,A,5.916666666666666,5.866666666666666,ScrollDown,ScrollUp,Orange.png,1,Positive,Congruent,0,0,0,0,,,,,,,,,,,,,0,19,19,19,,,,,,,,,,,,,,,,,,,,,,,,,,,,,,,,,,,,,,,,,,,,,,,,,,,,,,,,,,,,,,,,,,,,,,,,,,,,,,,,,,,,,1,2.018443900044076,219.98497949994635,None,ScrollDown,정답입니다,219.98497949994635,None,219.98497949994635,None,219.98497949994635,None,219.98497949994635,None,221.875,None,221.875,222.3857171999989,,,,,,,,,,,,,,,,123,2022-05-09_20h00.51.810,FishGame,2022.1.1,59.96246353311211,
,21,넌 품위있어,2,Green,B,5.291666666666666,4.466666666666667,ScrollUp,ScrollDown,Green.png,1,Positive,Incongruent,0,0,0,0,,,,,,,,,,,,,0,20,20,20,,,,,,,,,,,,,,,,,,,,,,,,,,,,,,,,,,,,,,,,,,,,,,,,,,,,,,,,,,,,,,,,,,,,,,,,,,,,,,,,,,,,,2,1.8063218999886885,223.0280880999053,None,ScrollUp,정답입니다,223.0280880999053,None,223.0280880999053,None,223.0280880999053,None,223.0280880999053,None,224.71884519991,None,224.71884519991,225.21915089990944,,,,,,,,,,,,,,,,123,2022-05-09_20h00.51.810,FishGame,2022.1.1,59.96246353311211,
,22,넌 빈틈없어,3,Orange,A,4.833333333333333,3.966666666666667,ScrollDown,ScrollUp,Orange.png,1,Neutral,Neutral,0,0,0,0,,,,,,,,,,,,,0,21,21,21,,,,,,,,,,,,,,,,,,,,,,,,,,,,,,,,,,,,,,,,,,,,,,,,,,,,,,,,,,,,,,,,,,,,,,,,,,,,,,,,,,,,,1,1.8745024999370798,225.86973249993753,None,ScrollDown,정답입니다,225.86973249993753,None,225.86973249993753,None,225.86973249993753,None,225.86973249993753,None,227.61899719992653,None,227.61899719992653,228.11897539999336,,,,,,,,,,,,,,,,123,2022-05-09_20h00.51.810,FishGame,2022.1.1,59.96246353311211,
,23,넌 상상력없어,4,Green,B,2.833333333333333,3.133333333333333,ScrollUp,ScrollDown,Green.png,1,Negative,Congruent,0,0,0,0,,,,,,,,,,,,,0,22,22,22,,,,,,,,,,,,,,,,,,,,,,,,,,,,,,,,,,,,,,,,,,,,,,,,,,,,,,,,,,,,,,,,,,,,,,,,,,,,,,,,,,,,,2,1.8545958999311551,228.75898019992746,None,ScrollUp,정답입니다,228.75898019992746,None,228.75898019992746,None,228.75898019992746,None,228.75898019992746,None,230.4986504999688,None,230.4986504999688,231.00218419998419,,,,,,,,,,,,,,,,123,2022-05-09_20h00.51.810,FishGame,2022.1.1,59.96246353311211,
,24,넌 지혜로워,2,Green,B,6.333333333333334,4.633333333333334,ScrollUp,ScrollDown,Green.png,1,Positive,Incongruent,0,0,0,0,,,,,,,,,,,,,0,23,23,23,,,,,,,,,,,,,,,,,,,,,,,,,,,,,,,,,,,,,,,,,,,,,,,,,,,,,,,,,,,,,,,,,,,,,,,,,,,,,,,,,,,,,2,1.783339099958539,231.6495253999019,None,ScrollUp,정답입니다,231.6495253999019,None,231.6495253999019,None,231.6495253999019,None,231.6495253999019,None,233.31549089995679,None,233.31549089995679,233.8190074999584,,,,,,,,,,,,,,,,123,2022-05-09_20h00.51.810,FishGame,2022.1.1,59.96246353311211,
,25,넌 시끄러워,4,Orange,A,2.833333333333333,3.033333333333333,ScrollDown,ScrollUp,Orange.png,1,Negative,Incongruent,0,0,0,0,,,,,,,,,,,,,0,24,24,24,,,,,,,,,,,,,,,,,,,,,,,,,,,,,,,,,,,,,,,,,,,,,,,,,,,,,,,,,,,,,,,,,,,,,,,,,,,,,,,,,,,,,1,1.9243644000962377,234.473427799996,None,ScrollDown,정답입니다,234.473427799996,None,234.473427799996,None,234.473427799996,None,234.473427799996,None,236.26894819992594,None,236.26894819992594,236.76899679994676,,,,,,,,,,,,,,,,123,2022-05-09_20h00.51.810,FishGame,2022.1.1,59.96246353311211,
,26,넌 만사태평이야,3,Green,B,4,4.333333333333333,ScrollUp,ScrollDown,Green.png,1,Neutral,Neutral,0,0,0,0,,,,,,,,,,,,,0,25,25,25,,,,,,,,,,,,,,,,,,,,,,,,,,,,,,,,,,,,,,,,,,,,,,,,,,,,,,,,,,,,,,,,,,,,,,,,,,,,,,,,,,,,,2,2.005098999943584,237.4194162999047,None,ScrollUp,정답입니다,237.4194162999047,None,237.4194162999047,None,237.4194162999047,None,237.4194162999047,None,239.30261669994798,None,239.30261669994798,239.8026103999,,,,,,,,,,,,,,,,123,2022-05-09_20h00.51.810,FishGame,2022.1.1,59.96246353311211,
,27,넌 붙임성있어,1,Orange,A,5.708333333333333,5.633333333333334,ScrollDown,ScrollUp,Orange.png,1,Positive,Congruent,0,0,0,0,,,,,,,,,,,,,0,26,26,26,,,,,,,,,,,,,,,,,,,,,,,,,,,,,,,,,,,,,,,,,,,,,,,,,,,,,,,,,,,,,,,,,,,,,,,,,,,,,,,,,,,,,1,1.7686469000764191,240.45546819991432,None,ScrollDown,정답입니다,240.45546819991432,None,240.45546819991432,None,240.45546819991432,None,240.45546819991432,None,242.09899959992617,None,242.09899959992617,242.60265269991942,,,,,,,,,,,,,,,,123,2022-05-09_20h00.51.810,FishGame,2022.1.1,59.96246353311211,
,28,넌 영리해,2,Orange,A,6,4.033333333333333,ScrollDown,ScrollUp,Orange.png,1,Positive,Congruent,0,0,0,0,,,,,,,,,,,,,0,27,27,27,,,,,,,,,,,,,,,,,,,,,,,,,,,,,,,,,,,,,,,,,,,,,,,,,,,,,,,,,,,,,,,,,,,,,,,,,,,,,,,,,,,,,1,1.9174531999742612,243.25632599997334,None,ScrollDown,정답입니다,243.25632599997334,None,243.25632599997334,None,243.25632599997334,None,243.25632599997334,None,245.0408577999333,None,245.0408577999333,245.553127399995,,,,,,,,,,,,,,,,123,2022-05-09_20h00.51.810,FishGame,2022.1.1,59.96246353311211,
,29,넌 열심이야,1,Green,B,6.041666666666667,5.833333333333333,ScrollUp,ScrollDown,Green.png,1,Positive,Incongruent,0,0,0,0,,,,,,,,,,,,,0,28,28,28,,,,,,,,,,,,,,,,,,,,,,,,,,,,,,,,,,,,,,,,,,,,,,,,,,,,,,,,,,,,,,,,,,,,,,,,,,,,,,,,,,,,,2,1.9267553000245243,246.1983418999007,None,ScrollUp,정답입니다,246.1983418999007,None,246.1983418999007,None,246.1983418999007,None,246.1983418999007,None,248.00238219997846,None,248.00238219997846,248.50229159998707,,,,,,,,,,,,,,,,123,2022-05-09_20h00.51.810,FishGame,2022.1.1,59.96246353311211,
,30,넌 인기없어,4,Green,B,3,3.3,ScrollUp,ScrollDown,Green.png,1,Negative,Congruent,0,0,0,0,,,,,,,,,,,,,0,29,29,29,,,,,,,,,,,,,,,,,,,,,,,,,,,,,,,,,,,,,,,,,,,,,,,,,,,,,,,,,,,,,,,,,,,,,,,,,,,,,,,,,,,,,2,1.7745780000695959,249.14127039990854,None,ScrollUp,정답입니다,249.14127039990854,None,249.14127039990854,None,249.14127039990854,None,249.14127039990854,None,250.80250029999297,None,250.80250029999297,251.3024028999498,,,,,,,,,,,,,,,,123,2022-05-09_20h00.51.810,FishGame,2022.1.1,59.96246353311211,
,31,넌 익살스러워,3,Orange,A,4.708333333333334,4.833333333333333,ScrollDown,ScrollUp,Orange.png,1,Neutral,Neutral,0,0,0,0,,,,,,,,,,,,,0,30,30,30,,,,,,,,,,,,,,,,,,,,,,,,,,,,,,,,,,,,,,,,,,,,,,,,,,,,,,,,,,,,,,,,,,,,,,,,,,,,,,,,,,,,,1,1.5704093999229372,251.95408989989664,None,ScrollDown,정답입니다,251.95408989989664,None,251.95408989989664,None,251.95408989989664,None,251.95408989989664,None,253.4027100999374,None,253.4027100999374,253.90294879989233,,,,,,,,,,,,,,,,123,2022-05-09_20h00.51.810,FishGame,2022.1.1,59.96246353311211,
,32,넌 이기적이야,5,Green,B,2.291666666666667,2.333333333333333,ScrollUp,ScrollDown,Green.png,1,Negative,Congruent,0,0,0,0,,,,,,,,,,,,,0,31,31,31,,,,,,,,,,,,,,,,,,,,,,,,,,,,,,,,,,,,,,,,,,,,,,,,,,,,,,,,,,,,,,,,,,,,,,,,,,,,,,,,,,,,,2,1.6010280000045896,254.54268159996718,None,ScrollUp,정답입니다,254.54268159996718,None,254.54268159996718,None,254.54268159996718,None,254.54268159996718,None,256.0325851999223,None,256.0325851999223,256.5363248999929,,,,,,,,,,,,,,,,123,2022-05-09_20h00.51.810,FishGame,2022.1.1,59.96246353311211,
,33,나를 데려가줘,6,Green,B,0,0,ScrollDown,ScrollUp,Green.png,1,NonTarget,NonTarget,0,0,0,0,,,,,,,,,,,,,0,32,32,32,,,,,,,,,,,,,,,,,,,,,,,,,,,,,,,,,,,,,,,,,,,,,,,,,,,,,,,,,,,,,,,,,,,,,,,,,,,,,,,,,,,,,1,1.9328551000216976,257.1790753999958,None,ScrollDown,정답입니다,257.1790753999958,None,257.1790753999958,None,257.1790753999958,None,257.1790753999958,None,258.9905528998934,None,258.9905528998934,259.50282439996954,,,,,,,,,,,,,,,,123,2022-05-09_20h00.51.810,FishGame,2022.1.1,59.96246353311211,
,34,넌 기회주의자야,5,Orange,A,2.875,2.133333333333333,ScrollDown,ScrollUp,Orange.png,1,Negative,Incongruent,0,0,0,0,,,,,,,,,,,,,0,33,33,33,,,,,,,,,,,,,,,,,,,,,,,,,,,,,,,,,,,,,,,,,,,,,,,,,,,,,,,,,,,,,,,,,,,,,,,,,,,,,,,,,,,,,1,1.889435000019148,260.161242299946,None,ScrollDown,정답입니다,260.161242299946,None,260.161242299946,None,260.161242299946,None,260.161242299946,None,261.91902889998164,None,261.91902889998164,262.4197976998985,,,,,,,,,,,,,,,,123,2022-05-09_20h00.51.810,FishGame,2022.1.1,59.96246353311211,
,1,넌 미성숙해,4,Orange,A,3,3.2,ScrollDown,ScrollUp,Orange.png,2,Negative,Incongruent,0,0,0,0,,,,,,,,,,,,,,,,,0,0,0,0,,,,,,,,,,,,,,,,,,,,,,,,,,,,,,,,,,,,,,,,295.32041589997243,296.820349699934,296.85371079994366,297.8037868998945,297.8541390999453,298.80425009992905,298.80425009992905,None,,,,,,,,,,,,,,,,,,,,,,,,,,,,,,,,,,1,1.7472024000016972,299.96854419994634,None,ScrollDown,정답입니다,299.96854419994634,None,299.96854419994634,None,299.96854419994634,None,299.96854419994634,None,301.5423479999881,None,301.5423479999881,302.0541381998919,262.91958409990184,None,262.91958409990184,None,0.24907407,-0.108333334,1,0,0,0.01623904996085912,None,292.9204865999054,None,,,123,2022-05-09_20h00.51.810,FishGame,2022.1.1,59.96246353311211,
,2,넌 반사회적이야,5,Green,B,2.416666666666667,2.033333333333333,ScrollUp,ScrollDown,Green.png,2,Negative,Congruent,0,0,0,0,,,,,,,,,,,,,,,,,0,1,1,1,,,,,,,,,,,,,,,,,,,,,,,,,,,,,,,,,,,,,,,,,,,,,,,,,,,,,,,,,,,,,,,,,,,,,,,,,,,,,,,,,1.9336419701576233,1.4411601999308914,302.6986689999467,None,ScrollUp,정답입니다,302.6986689999467,None,302.6986689999467,None,302.6986689999467,None,302.6986689999467,None,304.0202830999624,None,304.0202830999624,304.5202876999974,,,,,,,,,,,,,,,,123,2022-05-09_20h00.51.810,FishGame,2022.1.1,59.96246353311211,
,3,넌 유능해,2,Orange,A,6.208333333333333,4.433333333333334,ScrollDown,ScrollUp,Orange.png,2,Positive,Congruent,0,0,0,0,,,,,,,,,,,,,,,,,0,2,2,2,,,,,,,,,,,,,,,,,,,,,,,,,,,,,,,,,,,,,,,,,,,,,,,,,,,,,,,,,,,,,,,,,,,,,,,,,,,,,,,,,1,1.34101269999519,305.1701989999274,None,ScrollDown,정답입니다,305.1701989999274,None,305.1701989999274,None,305.1701989999274,None,305.1701989999274,None,306.38671109999996,None,306.38671109999996,306.88679279992357,,,,,,,,,,,,,,,,123,2022-05-09_20h00.51.810,FishGame,2022.1.1,59.96246353311211,
,4,넌 능숙해,2,Green,B,5.666666666666667,4.733333333333333,ScrollUp,ScrollDown,Green.png,2,Positive,Incongruent,0,0,0,0,,,,,,,,,,,,,,,,,0,3,3,3,,,,,,,,,,,,,,,,,,,,,,,,,,,,,,,,,,,,,,,,,,,,,,,,,,,,,,,,,,,,,,,,,,,,,,,,,,,,,,,,,1.9490740597248077,1.3566375999944285,307.5335684999591,None,ScrollUp,정답입니다,307.5335684999591,None,307.5335684999591,None,307.5335684999591,None,307.5335684999591,None,308.7705370999174,None,308.7705370999174,309.2707384999376,,,,,,,,,,,,,,,,123,2022-05-09_20h00.51.810,FishGame,2022.1.1,59.96246353311211,
,5,넌 진부해,4,Green,B,2.458333333333333,3.166666666666667,ScrollUp,ScrollDown,Green.png,2,Negative,Congruent,0,0,0,0,,,,,,,,,,,,,,,,,0,4,4,4,,,,,,,,,,,,,,,,,,,,,,,,,,,,,,,,,,,,,,,,,,,,,,,,,,,,,,,,,,,,,,,,,,,,,,,,,,,,,,,,,2,1.3707648999989033,309.9090004999889,None,ScrollUp,정답입니다,309.9090004999889,None,309.9090004999889,None,309.9090004999889,None,309.9090004999889,None,311.1671570999315,None,311.1671570999315,311.6705375999445,,,,,,,,,,,,,,,,123,2022-05-09_20h00.51.810,FishGame,2022.1.1,59.96246353311211,
,6,나를 보내줘,6,Orange,A,0,0,ScrollUp,ScrollDown,Orange.png,2,NonTarget,NonTarget,0,0,0,0,,,,,,,,,,,,,,,,,0,5,5,5,,,,,,,,,,,,,,,,,,,,,,,,,,,,,,,,,,,,,,,,,,,,,,,,,,,,,,,,,,,,,,,,,,,,,,,,,,,,,,,,,2,2.143104499904439,312.3158462999854,None,ScrollUp,정답입니다,312.3158462999854,None,312.3158462999854,None,312.3158462999854,None,312.3158462999854,None,314.3372753999429,None,314.3372753999429,314.83762679994106,,,,,,,,,,,,,,,,123,2022-05-09_20h00.51.810,FishGame,2022.1.1,59.96246353311211,
,7,넌 엄격해,3,Orange,A,4.166666666666666,4.1,ScrollDown,ScrollUp,Orange.png,2,Neutral,Neutral,0,0,0,0,,,,,,,,,,,,,,,,,0,6,6,6,,,,,,,,,,,,,,,,,,,,,,,,,,,,,,,,,,,,,,,,,,,,,,,,,,,,,,,,,,,,,,,,,,,,,,,,,,,,,,,,,1,1.3394079999998212,315.48498209996615,None,ScrollDown,정답입니다,315.48498209996615,None,315.48498209996615,None,315.48498209996615,None,315.48498209996615,None,316.70359159994405,None,316.70359159994405,317.20446379994974,,,,,,,,,,,,,,,,123,2022-05-09_20h00.51.810,FishGame,2022.1.1,59.96246353311211,
,8,나를 보내줘,6,Orange,A,0,0,ScrollUp,ScrollDown,Orange.png,2,NonTarget,NonTarget,0,0,0,0,,,,,,,,,,,,,,,,,0,7,7,7,,,,,,,,,,,,,,,,,,,,,,,,,,,,,,,,,,,,,,,,,,,,,,,,,,,,,,,,,,,,,,,,,,,,,,,,,,,,,,,,,2,1.6762839000439271,317.84340629994404,None,ScrollUp,정답입니다,317.84340629994404,None,317.84340629994404,None,317.84340629994404,None,317.84340629994404,None,319.4041131999111,None,319.4041131999111,319.9043840999948,,,,,,,,,,,,,,,,123,2022-05-09_20h00.51.810,FishGame,2022.1.1,59.96246353311211,
,9,넌 대담해,3,Green,B,4.875,4.866666666666666,ScrollUp,ScrollDown,Green.png,2,Neutral,Neutral,0,0,0,0,,,,,,,,,,,,,,,,,0,8,8,8,,,,,,,,,,,,,,,,,,,,,,,,,,,,,,,,,,,,,,,,,,,,,,,,,,,,,,,,,,,,,,,,,,,,,,,,,,,,,,,,,2,1.273964999942109,320.547387199942,None,ScrollUp,정답입니다,320.547387199942,None,320.547387199942,None,320.547387199942,None,320.547387199942,None,321.7039337999886,None,321.7039337999886,322.20398199988995,,,,,,,,,,,,,,,,123,2022-05-09_20h00.51.810,FishGame,2022.1.1,59.96246353311211,
,10,넌 꾸준해,1,Orange,A,5.916666666666668,5.8,ScrollDown,ScrollUp,Orange.png,2,Positive,Congruent,0,0,0,0,,,,,,,,,,,,,,,,,0,9,9,9,,,,,,,,,,,,,,,,,,,,,,,,,,,,,,,,,,,,,,,,,,,,,,,,,,,,,,,,,,,,,,,,,,,,,,,,,,,,,,,,,1,1.294383900007233,322.86050719989,None,ScrollDown,정답입니다,322.86050719989,None,322.86050719989,None,322.86050719989,None,322.86050719989,None,324.02501999994274,None,324.02501999994274,324.53762519999873,,,,,,,,,,,,,,,,123,2022-05-09_20h00.51.810,FishGame,2022.1.1,59.96246353311211,
,11,나를 데려가줘,6,Green,B,0,0,ScrollDown,ScrollUp,Green.png,2,NonTarget,NonTarget,0,0,0,0,,,,,,,,,,,,,,,,,0,10,10,10,,,,,,,,,,,,,,,,,,,,,,,,,,,,,,,,,,,,,,,,,,,,,,,,,,,,,,,,,,,,,,,,,,,,,,,,,,,,,,,,,1,1.3917097999947146,325.1719776999671,None,ScrollDown,정답입니다,325.1719776999671,None,325.1719776999671,None,325.1719776999671,None,325.1719776999671,None,326.4542788999388,None,326.4542788999388,326.9544759999262,,,,,,,,,,,,,,,,123,2022-05-09_20h00.51.810,FishGame,2022.1.1,59.96246353311211,
,12,넌 독선적이야,5,Orange,A,2.458333333333333,1.933333333333333,ScrollDown,ScrollUp,Orange.png,2,Negative,Incongruent,0,0,0,0,,,,,,,,,,,,,,,,,0,11,11,11,,,,,,,,,,,,,,,,,,,,,,,,,,,,,,,,,,,,,,,,,,,,,,,,,,,,,,,,,,,,,,,,,,,,,,,,,,,,,,,,,1,1.30692799994722,327.60871149995364,None,ScrollDown,정답입니다,327.60871149995364,None,327.60871149995364,None,327.60871149995364,None,327.60871149995364,None,328.78746649995446,None,328.78746649995446,329.2878518999787,,,,,,,,,,,,,,,,123,2022-05-09_20h00.51.810,FishGame,2022.1.1,59.96246353311211,
,13,나를 보내줘,6,Orange,A,0,0,ScrollUp,ScrollDown,Orange.png,2,NonTarget,NonTarget,0,0,0,0,,,,,,,,,,,,,,,,,0,12,12,12,,,,,,,,,,,,,,,,,,,,,,,,,,,,,,,,,,,,,,,,,,,,,,,,,,,,,,,,,,,,,,,,,,,,,,,,,,,,,,,,,2,1.1889407000271603,329.93936039996333,None,ScrollUp,정답입니다,329.93936039996333,None,329.93936039996333,None,329.93936039996333,None,329.93936039996333,None,331.00458269997034,None,331.00458269997034,331.5040538999019,,,,,,,,,,,,,,,,123,2022-05-09_20h00.51.810,FishGame,2022.1.1,59.96246353311211,
,14,넌 책임감있어,1,Green,B,6.347826086956522,6,ScrollUp,ScrollDown,Green.png,2,Positive,Incongruent,0,0,0,0,,,,,,,,,,,,,,,,,0,13,13,13,,,,,,,,,,,,,,,,,,,,,,,,,,,,,,,,,,,,,,,,,,,,,,,,,,,,,,,,,,,,,,,,,,,,,,,,,,,,,,,,,2,1.1189650000305846,332.1438761999598,None,ScrollUp,정답입니다,332.1438761999598,None,332.1438761999598,None,332.1438761999598,None,332.1438761999598,None,333.15120779990684,None,333.15120779990684,333.6547640999779,,,,,,,,,,,,,,,,123,2022-05-09_20h00.51.810,FishGame,2022.1.1,59.96246353311211,
,15,넌 문학적이야,3,Orange,A,4.708333333333334,4.333333333333333,ScrollDown,ScrollUp,Orange.png,2,Neutral,Neutral,0,0,0,0,,,,,,,,,,,,,,,,,0,14,14,14,,,,,,,,,,,,,,,,,,,,,,,,,,,,,,,,,,,,,,,,,,,,,,,,,,,,,,,,,,,,,,,,,,,,,,,,,,,,,,,,,1,1.317239800002426,334.29848929995205,None,ScrollDown,정답입니다,334.29848929995205,None,334.29848929995205,None,334.29848929995205,None,334.29848929995205,None,335.4924720999552,None,335.4924720999552,336.0046909999801,,,,,,,,,,,,,,,,123,2022-05-09_20h00.51.810,FishGame,2022.1.1,59.96246353311211,
,16,넌 재미있어,1,Green,B,5.875,5.7,ScrollUp,ScrollDown,Green.png,2,Positive,Incongruent,0,0,0,0,,,,,,,,,,,,,,,,,0,15,15,15,,,,,,,,,,,,,,,,,,,,,,,,,,,,,,,,,,,,,,,,,,,,,,,,,,,,,,,,,,,,,,,,,,,,,,,,,,,,,,,,,2,1.341341899940744,336.6561415999895,None,ScrollUp,정답입니다,336.6561415999895,None,336.6561415999895,None,336.6561415999895,None,336.6561415999895,None,337.8712549000047,None,337.8712549000047,338.371273299912,,,,,,,,,,,,,,,,123,2022-05-09_20h00.51.810,FishGame,2022.1.1,59.96246353311211,
,17,나를 데려가줘,6,Green,B,0,0,ScrollDown,ScrollUp,Green.png,2,NonTarget,NonTarget,0,0,0,0,,,,,,,,,,,,,,,,,0,16,16,16,,,,,,,,,,,,,,,,,,,,,,,,,,,,,,,,,,,,,,,,,,,,,,,,,,,,,,,,,,,,,,,,,,,,,,,,,,,,,,,,,1,1.25628199998755,339.00746199989226,None,ScrollDown,정답입니다,339.00746199989226,None,339.00746199989226,None,339.00746199989226,None,339.00746199989226,None,340.1545832999982,None,340.1545832999982,340.65432339999825,,,,,,,,,,,,,,,,123,2022-05-09_20h00.51.810,FishGame,2022.1.1,59.96246353311211,
,18,넌 협력적이야,1,Orange,A,5.625,5.633333333333334,ScrollDown,ScrollUp,Orange.png,2,Positive,Congruent,0,0,0,0,,,,,,,,,,,,,,,,,0,17,17,17,,,,,,,,,,,,,,,,,,,,,,,,,,,,,,,,,,,,,,,,,,,,,,,,,,,,,,,,,,,,,,,,,,,,,,,,,,,,,,,,,1,1.2182442999910563,341.30741249991115,None,ScrollDown,정답입니다,341.30741249991115,None,341.30741249991115,None,341.30741249991115,None,341.30741249991115,None,342.393107199925,None,342.393107199925,342.90495029999875,,,,,,,,,,,,,,,,123,2022-05-09_20h00.51.810,FishGame,2022.1.1,59.96246353311211,
,19,넌 평범해,3,Green,B,4.333333333333332,4.233333333333333,ScrollUp,ScrollDown,Green.png,2,Neutral,Neutral,0,0,0,0,,,,,,,,,,,,,,,,,0,18,18,18,,,,,,,,,,,,,,,,,,,,,,,,,,,,,,,,,,,,,,,,,,,,,,,,,,,,,,,,,,,,,,,,,,,,,,,,,,,,,,,,,2,1.3276053000008687,343.5409284000052,None,ScrollUp,정답입니다,343.5409284000052,None,343.5409284000052,None,343.5409284000052,None,343.5409284000052,None,344.759597199969,None,344.759597199969,345.2722772998968,,,,,,,,,,,,,,,,123,2022-05-09_20h00.51.810,FishGame,2022.1.1,59.96246353311211,
,20,넌 오만해,5,Orange,A,2.333333333333333,2,ScrollDown,ScrollUp,Orange.png,2,Negative,Incongruent,0,0,0,0,,,,,,,,,,,,,,,,,0,19,19,19,,,,,,,,,,,,,,,,,,,,,,,,,,,,,,,,,,,,,,,,,,,,,,,,,,,,,,,,,,,,,,,,,,,,,,,,,,,,,,,,,1,1.133651899988763,345.91321269993205,None,ScrollDown,정답입니다,345.91321269993205,None,345.91321269993205,None,345.91321269993205,None,345.91321269993205,None,346.92612859990913,None,346.92612859990913,347.4384311999893,,,,,,,,,,,,,,,,123,2022-05-09_20h00.51.810,FishGame,2022.1.1,59.96246353311211,
,21,넌 운이없어,4,Green,B,3,3.466666666666667,ScrollUp,ScrollDown,Green.png,2,Negative,Congruent,0,0,0,0,,,,,,,,,,,,,,,,,0,20,20,20,,,,,,,,,,,,,,,,,,,,,,,,,,,,,,,,,,,,,,,,,,,,,,,,,,,,,,,,,,,,,,,,,,,,,,,,,,,,,,,,,2,1.2331716999178752,348.0781435999088,None,ScrollUp,정답입니다,348.0781435999088,None,348.0781435999088,None,348.0781435999088,None,348.0781435999088,None,349.1924265999114,None,349.1924265999114,349.7043477999978,,,,,,,,,,,,,,,,123,2022-05-09_20h00.51.810,FishGame,2022.1.1,59.96246353311211,
,22,넌 창조적이야,2,Green,B,6.125,4.633333333333334,ScrollUp,ScrollDown,Green.png,2,Positive,Incongruent,0,0,0,0,,,,,,,,,,,,,,,,,0,21,21,21,,,,,,,,,,,,,,,,,,,,,,,,,,,,,,,,,,,,,,,,,,,,,,,,,,,,,,,,,,,,,,,,,,,,,,,,,,,,,,,,,2,1.3802887999918312,350.35218849999364,None,ScrollUp,정답입니다,350.35218849999364,None,350.35218849999364,None,350.35218849999364,None,350.35218849999364,None,351.61007569998037,None,351.61007569998037,352.12212819990236,,,,,,,,,,,,,,,,123,2022-05-09_20h00.51.810,FishGame,2022.1.1,59.96246353311211,
,23,나를 보내줘,6,Orange,A,0,0,ScrollUp,ScrollDown,Orange.png,2,NonTarget,NonTarget,0,0,0,0,,,,,,,,,,,,,,,,,0,22,22,22,,,,,,,,,,,,,,,,,,,,,,,,,,,,,,,,,,,,,,,,,,,,,,,,,,,,,,,,,,,,,,,,,,,,,,,,,,,,,,,,,2,1.2537133999867365,352.76514029991813,None,ScrollUp,정답입니다,352.76514029991813,None,352.76514029991813,None,352.76514029991813,None,352.76514029991813,None,353.9049594999524,None,353.9049594999524,354.405222899979,,,,,,,,,,,,,,,,123,2022-05-09_20h00.51.810,FishGame,2022.1.1,59.96246353311211,
,24,넌 통찰력있어,2,Orange,A,6.5,4.8,ScrollDown,ScrollUp,Orange.png,2,Positive,Congruent,0,0,0,0,,,,,,,,,,,,,,,,,0,23,23,23,,,,,,,,,,,,,,,,,,,,,,,,,,,,,,,,,,,,,,,,,,,,,,,,,,,,,,,,,,,,,,,,,,,,,,,,,,,,,,,,,1,1.2068853999953717,355.0614243999589,None,ScrollDown,정답입니다,355.0614243999589,None,355.0614243999589,None,355.0614243999589,None,355.0614243999589,None,356.1379209998995,None,356.1379209998995,356.63809679995757,,,,,,,,,,,,,,,,123,2022-05-09_20h00.51.810,FishGame,2022.1.1,59.96246353311211,
,25,넌 경솔해,5,Green,B,2.458333333333333,2.266666666666667,ScrollUp,ScrollDown,Green.png,2,Negative,Congruent,0,0,0,0,,,,,,,,,,,,,,,,,0,24,24,24,,,,,,,,,,,,,,,,,,,,,,,,,,,,,,,,,,,,,,,,,,,,,,,,,,,,,,,,,,,,,,,,,,,,,,,,,,,,,,,,,2,1.1826163000660017,357.27349949989,None,ScrollUp,정답입니다,357.27349949989,None,357.27349949989,None,357.27349949989,None,357.27349949989,None,358.34292139997706,None,358.34292139997706,358.85489729989786,,,,,,,,,,,,,,,,123,2022-05-09_20h00.51.810,FishGame,2022.1.1,59.96246353311211,
,26,넌 초조해,4,Orange,A,2.916666666666667,3.133333333333333,ScrollDown,ScrollUp,Orange.png,2,Negative,Incongruent,0,0,0,0,,,,,,,,,,,,,,,,,0,25,25,25,,,,,,,,,,,,,,,,,,,,,,,,,,,,,,,,,,,,,,,,,,,,,,,,,,,,,,,,,,,,,,,,,,,,,,,,,,,,,,,,,1,1.2918649000348523,359.4899370999774,None,ScrollDown,정답입니다,359.4899370999774,None,359.4899370999774,None,359.4899370999774,None,359.4899370999774,None,360.6712984999176,None,360.6712984999176,361.1722656999482,,,,,,,,,,,,,,,,123,2022-05-09_20h00.51.810,FishGame,2022.1.1,59.96246353311211,
,27,넌 무관심해,4,Green,B,2.833333333333333,2.9,ScrollUp,ScrollDown,Green.png,2,Negative,Congruent,0,0,0,0,,,,,,,,,,,,,,,,,0,26,26,26,,,,,,,,,,,,,,,,,,,,,,,,,,,,,,,,,,,,,,,,,,,,,,,,,,,,,,,,,,,,,,,,,,,,,,,,,,,,,,,,,2,1.2624623000156134,361.8110469999956,None,ScrollUp,정답입니다,361.8110469999956,None,361.8110469999956,None,361.8110469999956,None,361.8110469999956,None,362.95977849990595,None,362.95977849990595,363.4719087999547,,,,,,,,,,,,,,,,123,2022-05-09_20h00.51.810,FishGame,2022.1.1,59.96246353311211,
,28,넌 감성적이야,3,Green,B,4.125,4.166666666666667,ScrollUp,ScrollDown,Green.png,2,Neutral,Neutral,0,0,0,0,,,,,,,,,,,,,,,,,0,27,27,27,,,,,,,,,,,,,,,,,,,,,,,,,,,,,,,,,,,,,,,,,,,,,,,,,,,,,,,,,,,,,,,,,,,,,,,,,,,,,,,,,2,1.2094415000174195,364.10759869997855,None,ScrollUp,정답입니다,364.10759869997855,None,364.10759869997855,None,364.10759869997855,None,364.10759869997855,None,365.2048317999579,None,365.2048317999579,365.70560259988997,,,,,,,,,,,,,,,,123,2022-05-09_20h00.51.810,FishGame,2022.1.1,59.96246353311211,
,29,넌 배려심있어,1,Orange,A,6.083333333333333,5.5,ScrollDown,ScrollUp,Orange.png,2,Positive,Congruent,0,0,0,0,,,,,,,,,,,,,,,,,0,28,28,28,,,,,,,,,,,,,,,,,,,,,,,,,,,,,,,,,,,,,,,,,,,,,,,,,,,,,,,,,,,,,,,,,,,,,,,,,,,,,,,,,1,1.216043599997647,366.34695569996256,None,ScrollDown,정답입니다,366.34695569996256,None,366.34695569996256,None,366.34695569996256,None,366.34695569996256,None,367.45221669995226,None,367.45221669995226,367.95546319999266,,,,,,,,,,,,,,,,123,2022-05-09_20h00.51.810,FishGame,2022.1.1,59.96246353311211,
,30,넌 숨김없어,3,Orange,A,4.5,4.933333333333334,ScrollDown,ScrollUp,Orange.png,2,Neutral,Neutral,0,0,0,0,,,,,,,,,,,,,,,,,0,29,29,29,,,,,,,,,,,,,,,,,,,,,,,,,,,,,,,,,,,,,,,,,,,,,,,,,,,,,,,,,,,,,,,,,,,,,,,,,,,,,,,,,1,1.2248639999888837,368.60133079998195,None,ScrollDown,정답입니다,368.60133079998195,None,368.60133079998195,None,368.60133079998195,None,368.60133079998195,None,369.7053615999175,None,369.7053615999175,370.20572249998804,,,,,,,,,,,,,,,,123,2022-05-09_20h00.51.810,FishGame,2022.1.1,59.96246353311211,
,31,넌 훌륭해,2,Green,B,5.916666666666667,4.033333333333333,ScrollUp,ScrollDown,Green.png,2,Positive,Incongruent,0,0,0,0,,,,,,,,,,,,,,,,,0,30,30,30,,,,,,,,,,,,,,,,,,,,,,,,,,,,,,,,,,,,,,,,,,,,,,,,,,,,,,,,,,,,,,,,,,,,,,,,,,,,,,,,,2,1.133524699951522,370.8455472999485,None,ScrollUp,정답입니다,370.8455472999485,None,370.8455472999485,None,370.8455472999485,None,370.8455472999485,None,371.86837959999684,None,371.86837959999684,372.3721392999869,,,,,,,,,,,,,,,,123,2022-05-09_20h00.51.810,FishGame,2022.1.1,59.96246353311211,
,32,넌 슬기로워,2,Orange,A,6.166666666666667,4.1,ScrollDown,ScrollUp,Orange.png,2,Positive,Congruent,0,0,0,0,,,,,,,,,,,,,,,,,0,31,31,31,,,,,,,,,,,,,,,,,,,,,,,,,,,,,,,,,,,,,,,,,,,,,,,,,,,,,,,,,,,,,,,,,,,,,,,,,,,,,,,,,1,1.1457885999698192,373.0251569999382,None,ScrollDown,정답입니다,373.0251569999382,None,373.0251569999382,None,373.0251569999382,None,373.0251569999382,None,374.04395389999263,None,374.04395389999263,374.5551410999615,,,,,,,,,,,,,,,,123,2022-05-09_20h00.51.810,FishGame,2022.1.1,59.96246353311211,
,33,넌 냉혹해,5,Orange,A,2.583333333333333,2.1,ScrollDown,ScrollUp,Orange.png,2,Negative,Incongruent,0,0,0,0,,,,,,,,,,,,,,,,,0,32,32,32,,,,,,,,,,,,,,,,,,,,,,,,,,,,,,,,,,,,,,,,,,,,,,,,,,,,,,,,,,,,,,,,,,,,,,,,,,,,,,,,,1,1.1508282999275252,375.2095434999792,None,ScrollDown,정답입니다,375.2095434999792,None,375.2095434999792,None,375.2095434999792,None,375.2095434999792,None,376.23543249990325,None,376.23543249990325,376.7386902999133,,,,,,,,,,,,,,,,123,2022-05-09_20h00.51.810,FishGame,2022.1.1,59.96246353311211,
,34,나를 데려가줘,6,Green,B,0,0,ScrollDown,ScrollUp,Green.png,2,NonTarget,NonTarget,0,0,0,0,,,,,,,,,,,,,,,,,0,33,33,33,,,,,,,,,,,,,,,,,,,,,,,,,,,,,,,,,,,,,,,,,,,,,,,,,,,,,,,,,,,,,,,,,,,,,,,,,,,,,,,,,1,1.2752887000096962,377.37228349992074,None,ScrollDown,정답입니다,377.37228349992074,None,377.37228349992074,None,377.37228349992074,None,377.37228349992074,None,378.53869029995985,None,378.53869029995985,379.039012299967,,,,,,,,,,,,,,,,123,2022-05-09_20h00.51.810,FishGame,2022.1.1,59.96246353311211,
,35,넌 편파적이야,5,Green,B,2.125,2,ScrollUp,ScrollDown,Green.png,2,Negative,Congruent,0,0,0,0,,,,,,,,,,,,,,,,,0,34,34,34,,,,,,,,,,,,,,,,,,,,,,,,,,,,,,,,,,,,,,,,,,,,,,,,,,,,,,,,,,,,,,,,,,,,,,,,,,,,,,,,,2,1.2331147999502718,379.6759046999505,None,ScrollUp,정답입니다,379.6759046999505,None,379.6759046999505,None,379.6759046999505,None,379.6759046999505,None,380.7934749999549,None,380.7934749999549,381.30596679996233,,,,,,,,,,,,,,,,123,2022-05-09_20h00.51.810,FishGame,2022.1.1,59.96246353311211,
,36,넌 슬퍼,4,Orange,A,2.583333333333333,3.066666666666667,ScrollDown,ScrollUp,Orange.png,2,Negative,Incongruent,0,0,0,0,,,,,,,,,,,,,,,,,0,35,35,35,,,,,,,,,,,,,,,,,,,,,,,,,,,,,,,,,,,,,,,,,,,,,,,,,,,,,,,,,,,,,,,,,,,,,,,,,,,,,,,,,1,1.0505707000847906,381.97152209992055,None,ScrollDown,정답입니다,381.97152209992055,None,381.97152209992055,None,381.97152209992055,None,381.97152209992055,None,382.87850150000304,None,382.87850150000304,383.3889941999223,,,,,,,,,,,,,,,,123,2022-05-09_20h00.51.810,FishGame,2022.1.1,59.96246353311211,
,37,나를 데려가줘,6,Green,B,0,0,ScrollDown,ScrollUp,Green.png,2,NonTarget,NonTarget,0,0,0,0,,,,,,,,,,,,,,,,,0,36,36,36,,,,,,,,,,,,,,,,,,,,,,,,,,,,,,,,,,,,,,,,,,,,,,,,,,,,,,,,,,,,,,,,,,,,,,,,,,,,,,,,,1,1.7692945000017062,384.02917329990305,None,ScrollDown,정답입니다,384.02917329990305,None,384.02917329990305,None,384.02917329990305,None,384.02917329990305,None,385.68569650000427,None,385.68569650000427,386.1894002999179,,,,,,,,,,,,,,,,123,2022-05-09_20h00.51.810,FishGame,2022.1.1,59.96246353311211,
,38,넌 친절해,1,Green,B,6.041666666666667,5.533333333333333,ScrollUp,ScrollDown,Green.png,2,Positive,Incongruent,0,0,0,0,,,,,,,,,,,,,,,,,0,37,37,37,,,,,,,,,,,,,,,,,,,,,,,,,,,,,,,,,,,,,,,,,,,,,,,,,,,,,,,,,,,,,,,,,,,,,,,,,,,,,,,,,2,1.1888013000134379,386.8395313998917,None,ScrollUp,정답입니다,386.8395313998917,None,386.8395313998917,None,386.8395313998917,None,386.8395313998917,None,387.9052292999113,None,387.9052292999113,388.40609899989795,,,,,,,,,,,,,,,,123,2022-05-09_20h00.51.810,FishGame,2022.1.1,59.96246353311211,
,1,넌 엉성해,4,Orange,A,3,3.3,ScrollDown,ScrollUp,Orange.png,3,Negative,Incongruent,0,0,0,0,,,,,,,,,,,,,,,,,,,,,0,0,0,0,,,,,,,,,,,,,,,,,,,,,,,,,,,,,,,,,,,,421.60634959989693,423.1063700999366,423.13994489994366,424.0895735999802,424.1397397998953,425.0897239999613,425.0897239999613,None,,,,,,,,,,,,,,,,,,,,,,,,,,,,,,,,,,1,1.6624156000325456,426.25965029990766,None,ScrollDown,정답입니다,426.25965029990766,None,426.25965029990766,None,426.25965029990766,None,426.25965029990766,None,427.74624489992857,None,427.74624489992857,428.2564453999512,388.90526129992213,None,388.90526129992213,None,0.25,-0.09351852,1,0,0,0.016299349954351783,None,418.9060799999861,None,,,123,2022-05-09_20h00.51.810,FishGame,2022.1.1,59.96246353311211,
,2,나를 보내줘,6,Orange,A,0,0,ScrollUp,ScrollDown,Orange.png,3,NonTarget,NonTarget,0,0,0,0,,,,,,,,,,,,,,,,,,,,,0,1,1,1,,,,,,,,,,,,,,,,,,,,,,,,,,,,,,,,,,,,,,,,,,,,,,,,,,,,,,,,,,,,,,,,,,,,,,,,,,,,,1.8333333383003871,1.1588816998992115,428.8936171999667,None,ScrollUp,정답입니다,428.8936171999667,None,428.8936171999667,None,428.8936171999667,None,428.8936171999667,None,429.9397739999695,None,429.9397739999695,430.43977949989494,,,,,,,,,,,,,,,,123,2022-05-09_20h00.51.810,FishGame,2022.1.1,59.96246353311211,
,3,넌 활발해,1,Green,B,5.666666666666667,5.6,ScrollUp,ScrollDown,Green.png,3,Positive,Incongruent,0,0,0,0,,,,,,,,,,,,,,,,,,,,,0,2,2,2,,,,,,,,,,,,,,,,,,,,,,,,,,,,,,,,,,,,,,,,,,,,,,,,,,,,,,,,,,,,,,,,,,,,,,,,,,,,,2,1.0320770000107586,431.07803949993104,None,ScrollUp,정답입니다,431.07803949993104,None,431.07803949993104,None,431.07803949993104,None,431.07803949993104,None,431.99473659996875,None,431.99473659996875,432.50661729997955,,,,,,,,,,,,,,,,123,2022-05-09_20h00.51.810,FishGame,2022.1.1,59.96246353311211,
,4,넌 논리적이야,2,Orange,A,5.666666666666666,4.633333333333334,ScrollDown,ScrollUp,Orange.png,3,Positive,Congruent,0,0,0,0,,,,,,,,,,,,,,,,,,,,,0,3,3,3,,,,,,,,,,,,,,,,,,,,,,,,,,,,,,,,,,,,,,,,,,,,,,,,,,,,,,,,,,,,,,,,,,,,,,,,,,,,,1.1033950646718342,1.0722319000633433,433.15451949997805,None,ScrollDown,정답입니다,433.15451949997805,None,433.15451949997805,None,433.15451949997805,None,433.15451949997805,None,434.1063913999824,None,434.1063913999824,434.6069803999271,,,,,,,,,,,,,,,,123,2022-05-09_20h00.51.810,FishGame,2022.1.1,59.96246353311211,
,5,넌 과묵해,3,Orange,A,3.875,4.4,ScrollDown,ScrollUp,Orange.png,3,Neutral,Neutral,0,0,0,0,,,,,,,,,,,,,,,,,,,,,0,4,4,4,,,,,,,,,,,,,,,,,,,,,,,,,,,,,,,,,,,,,,,,,,,,,,,,,,,,,,,,,,,,,,,,,,,,,,,,,,,,,1,1.100922800018452,435.24413809995167,None,ScrollDown,정답입니다,435.24413809995167,None,435.24413809995167,None,435.24413809995167,None,435.24413809995167,None,436.22939359990414,None,436.22939359990414,436.74019389995374,,,,,,,,,,,,,,,,123,2022-05-09_20h00.51.810,FishGame,2022.1.1,59.96246353311211,
,6,나를 데려가줘,6,Green,B,0,0,ScrollDown,ScrollUp,Green.png,3,NonTarget,NonTarget,0,0,0,0,,,,,,,,,,,,,,,,,,,,,0,5,5,5,,,,,,,,,,,,,,,,,,,,,,,,,,,,,,,,,,,,,,,,,,,,,,,,,,,,,,,,,,,,,,,,,,,,,,,,,,,,,1,1.253787099965848,437.3730141998967,None,ScrollDown,정답입니다,437.3730141998967,None,437.3730141998967,None,437.3730141998967,None,437.3730141998967,None,438.5201073999051,None,438.5201073999051,439.0235240999609,,,,,,,,,,,,,,,,123,2022-05-09_20h00.51.810,FishGame,2022.1.1,59.96246353311211,
,7,넌 미숙해,4,Green,B,3,3,ScrollUp,ScrollDown,Green.png,3,Negative,Congruent,0,0,0,0,,,,,,,,,,,,,,,,,,,,,0,6,6,6,,,,,,,,,,,,,,,,,,,,,,,,,,,,,,,,,,,,,,,,,,,,,,,,,,,,,,,,,,,,,,,,,,,,,,,,,,,,,1.939814825852712,1.0416501000290737,439.66355779999867,None,ScrollUp,정답입니다,439.66355779999867,None,439.66355779999867,None,439.66355779999867,None,439.66355779999867,None,440.59010539995506,None,440.59010539995506,441.09034989995416,,,,,,,,,,,,,,,,123,2022-05-09_20h00.51.810,FishGame,2022.1.1,59.96246353311211,
,8,나를 보내줘,6,Orange,A,0,0,ScrollUp,ScrollDown,Orange.png,3,NonTarget,NonTarget,0,0,0,0,,,,,,,,,,,,,,,,,,,,,0,7,7,7,,,,,,,,,,,,,,,,,,,,,,,,,,,,,,,,,,,,,,,,,,,,,,,,,,,,,,,,,,,,,,,,,,,,,,,,,,,,,1.9521604875723522,1.0117036000592634,441.72360689996276,None,ScrollUp,정답입니다,441.72360689996276,None,441.72360689996276,None,441.72360689996276,None,441.72360689996276,None,442.62811649998184,None,442.62811649998184,443.1403658000054,,,,,,,,,,,,,,,,123,2022-05-09_20h00.51.810,FishGame,2022.1.1,59.96246353311211,
,9,넌 자신만만해,3,Green,B,4.833333333333334,4.333333333333333,ScrollUp,ScrollDown,Green.png,3,Neutral,Neutral,0,0,0,0,,,,,,,,,,,,,,,,,,,,,0,8,8,8,,,,,,,,,,,,,,,,,,,,,,,,,,,,,,,,,,,,,,,,,,,,,,,,,,,,,,,,,,,,,,,,,,,,,,,,,,,,,1.9845678806304932,0.9808183999266475,443.77176129992586,None,ScrollUp,정답입니다,443.77176129992586,None,443.77176129992586,None,443.77176129992586,None,443.77176129992586,None,444.6448013999034,None,444.6448013999034,445.15707489999477,,,,,,,,,,,,,,,,123,2022-05-09_20h00.51.810,FishGame,2022.1.1,59.96246353311211,
,10,넌 탐욕스러워,5,Orange,A,2.25,2.1,ScrollDown,ScrollUp,Orange.png,3,Negative,Incongruent,0,0,0,0,,,,,,,,,,,,,,,,,,,,,0,9,9,9,,,,,,,,,,,,,,,,,,,,,,,,,,,,,,,,,,,,,,,,,,,,,,,,,,,,,,,,,,,,,,,,,,,,,,,,,,,,,1.1064814925193787,0.984037599992007,445.809558799956,None,ScrollDown,정답입니다,445.809558799956,None,445.809558799956,None,445.809558799956,None,445.809558799956,None,446.6613403999945,None,446.6613403999945,447.17367719998583,,,,,,,,,,,,,,,,123,2022-05-09_20h00.51.810,FishGame,2022.1.1,59.96246353311211,
,11,넌 인기있어,2,Orange,A,5.458333333333333,4.5,ScrollDown,ScrollUp,Orange.png,3,Positive,Congruent,0,0,0,0,,,,,,,,,,,,,,,,,,,,,0,10,10,10,,,,,,,,,,,,,,,,,,,,,,,,,,,,,,,,,,,,,,,,,,,,,,,,,,,,,,,,,,,,,,,,,,,,,,,,,,,,,1,1.0853622000431642,447.80480069993064,None,ScrollDown,정답입니다,447.80480069993064,None,447.80480069993064,None,447.80480069993064,None,447.80480069993064,None,448.787062499905,None,448.787062499905,449.2903508999152,,,,,,,,,,,,,,,,123,2022-05-09_20h00.51.810,FishGame,2022.1.1,59.96246353311211,
,12,나를 데려가줘,6,Green,B,0,0,ScrollDown,ScrollUp,Green.png,3,NonTarget,NonTarget,0,0,0,0,,,,,,,,,,,,,,,,,,,,,0,11,11,11,,,,,,,,,,,,,,,,,,,,,,,,,,,,,,,,,,,,,,,,,,,,,,,,,,,,,,,,,,,,,,,,,,,,,,,,,,,,,1,1.139037200016901,449.92151419993024,None,ScrollDown,정답입니다,449.92151419993024,None,449.92151419993024,None,449.92151419993024,None,449.92151419993024,None,450.95715319993906,None,450.95715319993906,451.45740799990017,,,,,,,,,,,,,,,,123,2022-05-09_20h00.51.810,FishGame,2022.1.1,59.96246353311211,
,13,넌 뛰어나,2,Green,B,6.166666666666667,4,ScrollUp,ScrollDown,Green.png,3,Positive,Incongruent,0,0,0,0,,,,,,,,,,,,,,,,,,,,,0,12,12,12,,,,,,,,,,,,,,,,,,,,,,,,,,,,,,,,,,,,,,,,,,,,,,,,,,,,,,,,,,,,,,,,,,,,,,,,,,,,,1.9645061492919922,1.0546547999838367,452.09462379990146,None,ScrollUp,정답입니다,452.09462379990146,None,452.09462379990146,None,452.09462379990146,None,452.09462379990146,None,453.03669389989227,None,453.03669389989227,453.5406513999915,,,,,,,,,,,,,,,,123,2022-05-09_20h00.51.810,FishGame,2022.1.1,59.96246353311211,
,14,넌 낙관적이야,1,Orange,A,5.75,5.8,ScrollDown,ScrollUp,Orange.png,3,Positive,Congruent,0,0,0,0,,,,,,,,,,,,,,,,,,,,,0,13,13,13,,,,,,,,,,,,,,,,,,,,,,,,,,,,,,,,,,,,,,,,,,,,,,,,,,,,,,,,,,,,,,,,,,,,,,,,,,,,,1.0509259402751923,0.9725040999474004,454.18678369990084,None,ScrollDown,정답입니다,454.18678369990084,None,454.18678369990084,None,454.18678369990084,None,454.18678369990084,None,455.04051609989256,None,455.04051609989256,455.5403928000014,,,,,,,,,,,,,,,,123,2022-05-09_20h00.51.810,FishGame,2022.1.1,59.96246353311211,
,15,넌 산만해,4,Green,B,2.695652173913043,3.033333333333333,ScrollUp,ScrollDown,Green.png,3,Negative,Congruent,0,0,0,0,,,,,,,,,,,,,,,,,,,,,0,14,14,14,,,,,,,,,,,,,,,,,,,,,,,,,,,,,,,,,,,,,,,,,,,,,,,,,,,,,,,,,,,,,,,,,,,,,,,,,,,,,2,1.1637699999846518,456.17606619989965,None,ScrollUp,정답입니다,456.17606619989965,None,456.17606619989965,None,456.17606619989965,None,456.17606619989965,None,457.2292043999769,None,457.2292043999769,457.7407949999906,,,,,,,,,,,,,,,,123,2022-05-09_20h00.51.810,FishGame,2022.1.1,59.96246353311211,
,16,나를 보내줘,6,Orange,A,0,0,ScrollUp,ScrollDown,Orange.png,3,NonTarget,NonTarget,0,0,0,0,,,,,,,,,,,,,,,,,,,,,0,15,15,15,,,,,,,,,,,,,,,,,,,,,,,,,,,,,,,,,,,,,,,,,,,,,,,,,,,,,,,,,,,,,,,,,,,,,,,,,,,,,2,1.053191200015135,458.37800289993174,None,ScrollUp,정답입니다,458.37800289993174,None,458.37800289993174,None,458.37800289993174,None,458.37800289993174,None,459.320680399891,None,459.320680399891,459.8241588999517,,,,,,,,,,,,,,,,123,2022-05-09_20h00.51.810,FishGame,2022.1.1,59.96246353311211,
,17,넌 교활해,5,Green,B,2.333333333333333,2.133333333333333,ScrollUp,ScrollDown,Green.png,3,Negative,Congruent,0,0,0,0,,,,,,,,,,,,,,,,,,,,,0,16,16,16,,,,,,,,,,,,,,,,,,,,,,,,,,,,,,,,,,,,,,,,,,,,,,,,,,,,,,,,,,,,,,,,,,,,,,,,,,,,,2,1.0268177000107244,460.46888959989883,None,ScrollUp,정답입니다,460.46888959989883,None,460.46888959989883,None,460.46888959989883,None,460.46888959989883,None,461.37407129991334,None,461.37407129991334,461.87427489995025,,,,,,,,,,,,,,,,123,2022-05-09_20h00.51.810,FishGame,2022.1.1,59.96246353311211,
,18,나를 보내줘,6,Orange,A,0,0,ScrollUp,ScrollDown,Orange.png,3,NonTarget,NonTarget,0,0,0,0,,,,,,,,,,,,,,,,,,,,,0,17,17,17,,,,,,,,,,,,,,,,,,,,,,,,,,,,,,,,,,,,,,,,,,,,,,,,,,,,,,,,,,,,,,,,,,,,,,,,,,,,,2,1.0578124000458047,462.52649530000053,None,ScrollUp,정답입니다,462.52649530000053,None,462.52649530000053,None,462.52649530000053,None,462.52649530000053,None,463.4572580999229,None,463.4572580999229,463.95751849992666,,,,,,,,,,,,,,,,123,2022-05-09_20h00.51.810,FishGame,2022.1.1,59.96246353311211,
,19,넌 불친절해,5,Green,B,2.208333333333333,2.033333333333333,ScrollUp,ScrollDown,Green.png,3,Negative,Congruent,0,0,0,0,,,,,,,,,,,,,,,,,,,,,0,18,18,18,,,,,,,,,,,,,,,,,,,,,,,,,,,,,,,,,,,,,,,,,,,,,,,,,,,,,,,,,,,,,,,,,,,,,,,,,,,,,1.9922839502493541,0.9513774000806734,464.60155929997563,None,ScrollUp,정답입니다,464.60155929997563,None,464.60155929997563,None,464.60155929997563,None,464.60155929997563,None,465.4370481999358,None,465.4370481999358,465.94051499990746,,,,,,,,,,,,,,,,123,2022-05-09_20h00.51.810,FishGame,2022.1.1,59.96246353311211,
,20,넌 지적이야,2,Green,B,5.75,4.366666666666666,ScrollUp,ScrollDown,Green.png,3,Positive,Incongruent,0,0,0,0,,,,,,,,,,,,,,,,,,,,,0,19,19,19,,,,,,,,,,,,,,,,,,,,,,,,,,,,,,,,,,,,,,,,,,,,,,,,,,,,,,,,,,,,,,,,,,,,,,,,,,,,,2,0.9851813999703154,466.5710190999089,None,ScrollUp,정답입니다,466.5710190999089,None,466.5710190999089,None,466.5710190999089,None,466.5710190999089,None,467.4538488999242,None,467.4538488999242,467.9574568999233,,,,,,,,,,,,,,,,123,2022-05-09_20h00.51.810,FishGame,2022.1.1,59.96246353311211,
,21,넌 우유부단해,4,Orange,A,2.666666666666667,3.166666666666667,ScrollDown,ScrollUp,Orange.png,3,Negative,Incongruent,0,0,0,0,,,,,,,,,,,,,,,,,,,,,0,20,20,20,,,,,,,,,,,,,,,,,,,,,,,,,,,,,,,,,,,,,,,,,,,,,,,,,,,,,,,,,,,,,,,,,,,,,,,,,,,,,1,1.1104602999985218,468.6094525998924,None,ScrollDown,정답입니다,468.6094525998924,None,468.6094525998924,None,468.6094525998924,None,468.6094525998924,None,469.59077139990404,None,469.59077139990404,470.09071859996766,,,,,,,,,,,,,,,,123,2022-05-09_20h00.51.810,FishGame,2022.1.1,59.96246353311211,
,22,나를 데려가줘,6,Green,B,0,0,ScrollDown,ScrollUp,Green.png,3,NonTarget,NonTarget,0,0,0,0,,,,,,,,,,,,,,,,,,,,,0,21,21,21,,,,,,,,,,,,,,,,,,,,,,,,,,,,,,,,,,,,,,,,,,,,,,,,,,,,,,,,,,,,,,,,,,,,,,,,,,,,,1,1.1049490000586957,470.7293277999852,None,ScrollDown,정답입니다,470.7293277999852,None,470.7293277999852,None,470.7293277999852,None,470.7293277999852,None,471.72458099992946,None,471.72458099992946,472.2241961999098,,,,,,,,,,,,,,,,123,2022-05-09_20h00.51.810,FishGame,2022.1.1,59.96246353311211,
,23,넌 성실해,1,Green,B,6.041666666666666,5.7,ScrollUp,ScrollDown,Green.png,3,Positive,Incongruent,0,0,0,0,,,,,,,,,,,,,,,,,,,,,0,22,22,22,,,,,,,,,,,,,,,,,,,,,,,,,,,,,,,,,,,,,,,,,,,,,,,,,,,,,,,,,,,,,,,,,,,,,,,,,,,,,1.9351851840813954,1.024891399894841,472.86134009994566,None,ScrollUp,정답입니다,472.86134009994566,None,472.86134009994566,None,472.86134009994566,None,472.86134009994566,None,473.7739145999076,None,473.7739145999076,474.27459929999895,,,,,,,,,,,,,,,,123,2022-05-09_20h00.51.810,FishGame,2022.1.1,59.96246353311211,
,24,넌 현실주의적이야,3,Orange,A,4.625,4.4,ScrollDown,ScrollUp,Orange.png,3,Neutral,Neutral,0,0,0,0,,,,,,,,,,,,,,,,,,,,,0,23,23,23,,,,,,,,,,,,,,,,,,,,,,,,,,,,,,,,,,,,,,,,,,,,,,,,,,,,,,,,,,,,,,,,,,,,,,,,,,,,,1,0.9736388999735937,474.9122202999424,None,ScrollDown,정답입니다,474.9122202999424,None,474.9122202999424,None,474.9122202999424,None,474.9122202999424,None,475.7743699999992,None,475.7743699999992,476.27494239993393,,,,,,,,,,,,,,,,123,2022-05-09_20h00.51.810,FishGame,2022.1.1,59.96246353311211,
,25,넌 진실돼,1,Orange,A,6.625,5.566666666666666,ScrollDown,ScrollUp,Orange.png,3,Positive,Congruent,0,0,0,0,,,,,,,,,,,,,,,,,,,,,0,24,24,24,,,,,,,,,,,,,,,,,,,,,,,,,,,,,,,,,,,,,,,,,,,,,,,,,,,,,,,,,,,,,,,,,,,,,,,,,,,,,1.0030864079793294,0.918659699964337,476.91780099994503,None,ScrollDown,정답입니다,476.91780099994503,None,476.91780099994503,None,476.91780099994503,None,476.91780099994503,None,477.721144799958,None,477.721144799958,478.224470899906,,,,,,,,,,,,,,,,123,2022-05-09_20h00.51.810,FishGame,2022.1.1,59.96246353311211,
,26,넌 천진난만해,3,Green,B,4.958333333333334,4.833333333333333,ScrollUp,ScrollDown,Green.png,3,Neutral,Neutral,0,0,0,0,,,,,,,,,,,,,,,,,,,,,0,25,25,25,,,,,,,,,,,,,,,,,,,,,,,,,,,,,,,,,,,,,,,,,,,,,,,,,,,,,,,,,,,,,,,,,,,,,,,,,,,,,1.9027777661879857,0.9352776000741869,478.86172699998133,None,ScrollUp,정답입니다,478.86172699998133,None,478.86172699998133,None,478.86172699998133,None,478.86172699998133,None,479.6876440999331,None,479.6876440999331,480.1906015999848,,,,,,,,,,,,,,,,123,2022-05-09_20h00.51.810,FishGame,2022.1.1,59.96246353311211,
,27,넌 교양없어,5,Orange,A,2.416666666666667,2.2,ScrollDown,ScrollUp,Orange.png,3,Negative,Incongruent,0,0,0,0,,,,,,,,,,,,,,,,,,,,,0,26,26,26,,,,,,,,,,,,,,,,,,,,,,,,,,,,,,,,,,,,,,,,,,,,,,,,,,,,,,,,,,,,,,,,,,,,,,,,,,,,,1,1.0128954000538215,480.83025259990245,None,ScrollDown,정답입니다,480.83025259990245,None,480.83025259990245,None,480.83025259990245,None,480.83025259990245,None,481.7293175999075,None,481.7293175999075,482.2413230999373,,,,,,,,,,,,,,,,123,2022-05-09_20h00.51.810,FishGame,2022.1.1,59.96246353311211,
,28,나를 보내줘,6,Orange,A,0,0,ScrollUp,ScrollDown,Orange.png,3,NonTarget,NonTarget,0,0,0,0,,,,,,,,,,,,,,,,,,,,,0,27,27,27,,,,,,,,,,,,,,,,,,,,,,,,,,,,,,,,,,,,,,,,,,,,,,,,,,,,,,,,,,,,,,,,,,,,,,,,,,,,,1.9907407363255818,1.205599099979736,482.87761689990293,None,ScrollUp,정답입니다,482.87761689990293,None,482.87761689990293,None,482.87761689990293,None,482.87761689990293,None,483.9745026999153,None,483.9745026999153,484.4746801999863,,,,,,,,,,,,,,,,123,2022-05-09_20h00.51.810,FishGame,2022.1.1,59.96246353311211,
,29,넌 엉뚱스러워,3,Orange,A,4.166666666666667,4.133333333333334,ScrollDown,ScrollUp,Orange.png,3,Neutral,Neutral,0,0,0,0,,,,,,,,,,,,,,,,,,,,,0,28,28,28,,,,,,,,,,,,,,,,,,,,,,,,,,,,,,,,,,,,,,,,,,,,,,,,,,,,,,,,,,,,,,,,,,,,,,,,,,,,,1,1.0068882000632584,485.11341729993,None,ScrollDown,정답입니다,485.11341729993,None,485.11341729993,None,485.11341729993,None,485.11341729993,None,486.0073097998975,None,486.0073097998975,486.5079665998928,,,,,,,,,,,,,,,,123,2022-05-09_20h00.51.810,FishGame,2022.1.1,59.96246353311211,
,30,넌 무지해,4,Green,B,2.541666666666667,3.066666666666667,ScrollUp,ScrollDown,Green.png,3,Negative,Congruent,0,0,0,0,,,,,,,,,,,,,,,,,,,,,0,29,29,29,,,,,,,,,,,,,,,,,,,,,,,,,,,,,,,,,,,,,,,,,,,,,,,,,,,,,,,,,,,,,,,,,,,,,,,,,,,,,2,1.1411754000000656,487.13911029999144,None,ScrollUp,정답입니다,487.13911029999144,None,487.13911029999144,None,487.13911029999144,None,487.13911029999144,None,488.1747514999006,None,488.1747514999006,488.6746585998917,,,,,,,,,,,,,,,,123,2022-05-09_20h00.51.810,FishGame,2022.1.1,59.96246353311211,
,31,넌 음울해,5,Green,B,2.25,2.233333333333333,ScrollUp,ScrollDown,Green.png,3,Negative,Congruent,0,0,0,0,,,,,,,,,,,,,,,,,,,,,0,30,30,30,,,,,,,,,,,,,,,,,,,,,,,,,,,,,,,,,,,,,,,,,,,,,,,,,,,,,,,,,,,,,,,,,,,,,,,,,,,,,2,0.9496118000242859,489.32462579989806,None,ScrollUp,정답입니다,489.32462579989806,None,489.32462579989806,None,489.32462579989806,None,489.32462579989806,None,490.1455697999336,None,490.1455697999336,490.65747439989354,,,,,,,,,,,,,,,,123,2022-05-09_20h00.51.810,FishGame,2022.1.1,59.96246353311211,
,32,넌 냉소적이야,5,Orange,A,2.916666666666667,2.4,ScrollDown,ScrollUp,Orange.png,3,Negative,Incongruent,0,0,0,0,,,,,,,,,,,,,,,,,,,,,0,31,31,31,,,,,,,,,,,,,,,,,,,,,,,,,,,,,,,,,,,,,,,,,,,,,,,,,,,,,,,,,,,,,,,,,,,,,,,,,,,,,1,0.97697259997949,491.29034899990074,None,ScrollDown,정답입니다,491.29034899990074,None,491.29034899990074,None,491.29034899990074,None,491.29034899990074,None,492.15787539992016,None,492.15787539992016,492.6578180999495,,,,,,,,,,,,,,,,123,2022-05-09_20h00.51.810,FishGame,2022.1.1,59.96246353311211,
,33,나를 데려가줘,6,Green,B,0,0,ScrollDown,ScrollUp,Green.png,3,NonTarget,NonTarget,0,0,0,0,,,,,,,,,,,,,,,,,,,,,0,32,32,32,,,,,,,,,,,,,,,,,,,,,,,,,,,,,,,,,,,,,,,,,,,,,,,,,,,,,,,,,,,,,,,,,,,,,,,,,,,,,1,1.2720622000051662,493.2909368999535,None,ScrollDown,정답입니다,493.2909368999535,None,493.2909368999535,None,493.2909368999535,None,493.2909368999535,None,494.4576383999083,None,494.4576383999083,494.9579967999598,,,,,,,,,,,,,,,,123,2022-05-09_20h00.51.810,FishGame,2022.1.1,59.96246353311211,
,34,넌 쾌활해,1,Orange,A,5.541666666666666,5.733333333333333,ScrollDown,ScrollUp,Orange.png,3,Positive,Congruent,0,0,0,0,,,,,,,,,,,,,,,,,,,,,0,33,33,33,,,,,,,,,,,,,,,,,,,,,,,,,,,,,,,,,,,,,,,,,,,,,,,,,,,,,,,,,,,,,,,,,,,,,,,,,,,,,1,0.9737449999665841,495.61470619996544,None,ScrollDown,정답입니다,495.61470619996544,None,495.61470619996544,None,495.61470619996544,None,495.61470619996544,None,496.4580314999912,None,496.4580314999912,496.95824119995814,,,,,,,,,,,,,,,,123,2022-05-09_20h00.51.810,FishGame,2022.1.1,59.96246353311211,
,35,나를 보내줘,6,Orange,A,0,0,ScrollUp,ScrollDown,Orange.png,3,NonTarget,NonTarget,0,0,0,0,,,,,,,,,,,,,,,,,,,,,0,34,34,34,,,,,,,,,,,,,,,,,,,,,,,,,,,,,,,,,,,,,,,,,,,,,,,,,,,,,,,,,,,,,,,,,,,,,,,,,,,,,2,1.087967999977991,497.60833610000554,None,ScrollUp,정답입니다,497.60833610000554,None,497.60833610000554,None,497.60833610000554,None,497.60833610000554,None,498.57432929996867,None,498.57432929996867,499.0754662998952,,,,,,,,,,,,,,,,123,2022-05-09_20h00.51.810,FishGame,2022.1.1,59.96246353311211,
,36,넌 명랑해,1,Green,B,5.739130434782609,5.666666666666667,ScrollUp,ScrollDown,Green.png,3,Positive,Incongruent,0,0,0,0,,,,,,,,,,,,,,,,,,,,,0,35,35,35,,,,,,,,,,,,,,,,,,,,,,,,,,,,,,,,,,,,,,,,,,,,,,,,,,,,,,,,,,,,,,,,,,,,,,,,,,,,,2,1.5219004999380559,499.71970639994834,None,ScrollUp,정답입니다,499.71970639994834,None,499.71970639994834,None,499.71970639994834,None,499.71970639994834,None,501.12499909999315,None,501.12499909999315,501.6245712999953,,,,,,,,,,,,,,,,123,2022-05-09_20h00.51.810,FishGame,2022.1.1,59.96246353311211,
,37,넌 멍해,4,Orange,A,2.833333333333333,3.4,ScrollDown,ScrollUp,Orange.png,3,Negative,Incongruent,0,0,0,0,,,,,,,,,,,,,,,,,,,,,0,36,36,36,,,,,,,,,,,,,,,,,,,,,,,,,,,,,,,,,,,,,,,,,,,,,,,,,,,,,,,,,,,,,,,,,,,,,,,,,,,,,1,1.0718509999569505,502.26208889996633,None,ScrollDown,정답입니다,502.26208889996633,None,502.26208889996633,None,502.26208889996633,None,502.26208889996633,None,503.2247495999327,None,503.2247495999327,503.724991499912,,,,,,,,,,,,,,,,123,2022-05-09_20h00.51.810,FishGame,2022.1.1,59.96246353311211,
,38,나를 데려가줘,6,Green,B,0,0,ScrollDown,ScrollUp,Green.png,3,NonTarget,NonTarget,0,0,0,0,,,,,,,,,,,,,,,,,,,,,0,37,37,37,,,,,,,,,,,,,,,,,,,,,,,,,,,,,,,,,,,,,,,,,,,,,,,,,,,,,,,,,,,,,,,,,,,,,,,,,,,,,1,1.1188790000742301,504.35917279997375,None,ScrollDown,정답입니다,504.35917279997375,None,504.35917279997375,None,504.35917279997375,None,504.35917279997375,None,505.3646270999452,None,505.3646270999452,505.8749905999284,,,,,,,,,,,,,,,,123,2022-05-09_20h00.51.810,FishGame,2022.1.1,59.96246353311211,
,39,넌 현명해,2,Orange,A,6.541666666666666,4.533333333333333,ScrollDown,ScrollUp,Orange.png,3,Positive,Congruent,0,0,0,0,,,,,,,,,,,,,,,,,,,,,0,38,38,38,,,,,,,,,,,,,,,,,,,,,,,,,,,,,,,,,,,,,,,,,,,,,,,,,,,,,,,,,,,,,,,,,,,,,,,,,,,,,1,1.1227408000268042,506.5159630998969,None,ScrollDown,정답입니다,506.5159630998969,None,506.5159630998969,None,506.5159630998969,None,506.5159630998969,None,507.52520439994987,None,507.52520439994987,508.02527429990005,,,,,,,,,,,,,,,,123,2022-05-09_20h00.51.810,FishGame,2022.1.1,59.96246353311211,
,40,넌 수줍어,3,Green,B,3.541666666666666,4.366666666666666,ScrollUp,ScrollDown,Green.png,3,Neutral,Neutral,0,0,0,0,,,,,,,,,,,,,,,,,,,,,0,39,39,39,,,,,,,,,,,,,,,,,,,,,,,,,,,,,,,,,,,,,,,,,,,,,,,,,,,,,,,,,,,,,,,,,,,,,,,,,,,,,1.9969135920206706,0.8948564000893384,508.66844309994485,None,ScrollUp,정답입니다,508.66844309994485,None,508.66844309994485,None,508.66844309994485,None,508.66844309994485,None,509.44168369995896,None,509.44168369995896,509.9418913999107,,,,,,,,,,,,,,,,123,2022-05-09_20h00.51.810,FishGame,2022.1.1,59.96246353311211,
,41,나를 데려가줘,6,Green,B,0,0,ScrollDown,ScrollUp,Green.png,3,NonTarget,NonTarget,0,0,0,0,,,,,,,,,,,,,,,,,,,,,0,40,40,40,,,,,,,,,,,,,,,,,,,,,,,,,,,,,,,,,,,,,,,,,,,,,,,,,,,,,,,,,,,,,,,,,,,,,,,,,,,,,1,1.0752153999637812,510.579447099939,None,ScrollDown,정답입니다,510.579447099939,None,510.579447099939,None,510.579447099939,None,510.579447099939,None,511.5414279999677,None,511.5414279999677,512.041927699931,,,,,,,,,,,,,,,,123,2022-05-09_20h00.51.810,FishGame,2022.1.1,59.96246353311211,
,42,넌 성숙해,2,Green,B,5.833333333333333,4.533333333333333,ScrollUp,ScrollDown,Green.png,3,Positive,Incongruent,0,0,0,0,,,,,,,,,,,,,,,,,,,,,0,41,41,41,,,,,,,,,,,,,,,,,,,,,,,,,,,,,,,,,,,,,,,,,,,,,,,,,,,,,,,,,,,,,,,,,,,,,,,,,,,,,2,1.0998849000316113,512.6763552000048,None,ScrollUp,정답입니다,512.6763552000048,None,512.6763552000048,None,512.6763552000048,None,512.6763552000048,None,513.6720122999977,None,513.6720122999977,514.175092499936,,,,,,,,,,,,,,,,123,2022-05-09_20h00.51.810,FishGame,2022.1.1,59.96246353311211,
,1,넌 매력적이야,2,Green,B,6.125,4.666666666666667,ScrollUp,ScrollDown,Green.png,4,Positive,Incongruent,0,0,0,0,,,,,,,,,,,,,,,,,,,,,,,,,0,0,0,0,,,,,,,,,,,,,,,,,,,,,,,,,,,,,,,,546.4758404999739,547.9760013999185,548.0093009999255,548.9595045999158,549.0090631999774,549.9595676999306,549.9595676999306,None,,,,,,,,,,,,,,,,,,,,,,,,,,,,,,,,,,1.8148148208856583,1.6143213999457657,551.1315888999961,None,ScrollUp,정답입니다,551.1315888999961,None,551.1315888999961,None,551.1315888999961,None,551.1315888999961,None,552.566838699975,None,552.566838699975,553.0762145000044,514.6751972999191,None,514.6751972999191,None,0.24166666,-0.11296296,1,0,0,0.016330449958331883,None,544.6757931999164,None,,,123,2022-05-09_20h00.51.810,FishGame,2022.1.1,59.96246353311211,
,2,나를 보내줘,6,Orange,A,0,0,ScrollUp,ScrollDown,Orange.png,4,NonTarget,NonTarget,0,0,0,0,,,,,,,,,,,,,,,,,,,,,,,,,0,1,1,1,,,,,,,,,,,,,,,,,,,,,,,,,,,,,,,,,,,,,,,,,,,,,,,,,,,,,,,,,,,,,,,,,,,,,,,,,2,1.117565599968657,553.7170752999373,None,ScrollUp,정답입니다,553.7170752999373,None,553.7170752999373,None,553.7170752999373,None,553.7170752999373,None,554.7226547999308,None,554.7226547999308,555.2260777999181,,,,,,,,,,,,,,,,123,2022-05-09_20h00.51.810,FishGame,2022.1.1,59.96246353311211,
,3,넌 조심스러워,3,Orange,A,4.791666666666666,4.666666666666667,ScrollDown,ScrollUp,Orange.png,4,Neutral,Neutral,0,0,0,0,,,,,,,,,,,,,,,,,,,,,,,,,0,2,2,2,,,,,,,,,,,,,,,,,,,,,,,,,,,,,,,,,,,,,,,,,,,,,,,,,,,,,,,,,,,,,,,,,,,,,,,,,1,1.13886129995808,555.8721242999891,None,ScrollDown,정답입니다,555.8721242999891,None,555.8721242999891,None,555.8721242999891,None,555.8721242999891,None,556.8927544999169,None,556.8927544999169,557.3927418999374,,,,,,,,,,,,,,,,123,2022-05-09_20h00.51.810,FishGame,2022.1.1,59.96246353311211,
,4,넌 철학적이야,3,Green,B,4.5,4.266666666666667,ScrollUp,ScrollDown,Green.png,4,Neutral,Neutral,0,0,0,0,,,,,,,,,,,,,,,,,,,,,,,,,0,3,3,3,,,,,,,,,,,,,,,,,,,,,,,,,,,,,,,,,,,,,,,,,,,,,,,,,,,,,,,,,,,,,,,,,,,,,,,,,1.8703703731298447,1.0384457000764087,558.040497799986,None,ScrollUp,정답입니다,558.040497799986,None,558.040497799986,None,558.040497799986,None,558.040497799986,None,558.9596256999066,None,558.9596256999066,559.4597319999011,,,,,,,,,,,,,,,,123,2022-05-09_20h00.51.810,FishGame,2022.1.1,59.96246353311211,
,5,넌 쩨쩨해,5,Orange,A,2.375,2.133333333333333,ScrollDown,ScrollUp,Orange.png,4,Negative,Incongruent,0,0,0,0,,,,,,,,,,,,,,,,,,,,,,,,,0,4,4,4,,,,,,,,,,,,,,,,,,,,,,,,,,,,,,,,,,,,,,,,,,,,,,,,,,,,,,,,,,,,,,,,,,,,,,,,,1,1.3237350000999868,560.1114238000009,None,ScrollDown,정답입니다,560.1114238000009,None,560.1114238000009,None,560.1114238000009,None,560.1114238000009,None,561.3096309999237,None,561.3096309999237,561.8096467999276,,,,,,,,,,,,,,,,123,2022-05-09_20h00.51.810,FishGame,2022.1.1,59.96246353311211,
,6,나를 데려가줘,6,Green,B,0,0,ScrollDown,ScrollUp,Green.png,4,NonTarget,NonTarget,0,0,0,0,,,,,,,,,,,,,,,,,,,,,,,,,0,5,5,5,,,,,,,,,,,,,,,,,,,,,,,,,,,,,,,,,,,,,,,,,,,,,,,,,,,,,,,,,,,,,,,,,,,,,,,,,1,1.238014500006102,562.4439006999601,None,ScrollDown,정답입니다,562.4439006999601,None,562.4439006999601,None,562.4439006999601,None,562.4439006999601,None,563.5761955999769,None,563.5761955999769,564.075741199893,,,,,,,,,,,,,,,,123,2022-05-09_20h00.51.810,FishGame,2022.1.1,59.96246353311211,
,7,넌 고집불통이야,5,Green,B,2.875,2,ScrollUp,ScrollDown,Green.png,4,Negative,Congruent,0,0,0,0,,,,,,,,,,,,,,,,,,,,,,,,,0,6,6,6,,,,,,,,,,,,,,,,,,,,,,,,,,,,,,,,,,,,,,,,,,,,,,,,,,,,,,,,,,,,,,,,,,,,,,,,,2,1.424862700048834,564.7189648998901,None,ScrollUp,정답입니다,564.7189648998901,None,564.7189648998901,None,564.7189648998901,None,564.7189648998901,None,566.0261293998919,None,566.0261293998919,566.5261751998914,,,,,,,,,,,,,,,,123,2022-05-09_20h00.51.810,FishGame,2022.1.1,59.96246353311211,
,8,넌 무심해,4,Orange,A,2.875,3.2,ScrollDown,ScrollUp,Orange.png,4,Negative,Incongruent,0,0,0,0,,,,,,,,,,,,,,,,,,,,,,,,,0,7,7,7,,,,,,,,,,,,,,,,,,,,,,,,,,,,,,,,,,,,,,,,,,,,,,,,,,,,,,,,,,,,,,,,,,,,,,,,,1,1.141819900018163,567.163406199892,None,ScrollDown,정답입니다,567.163406199892,None,567.163406199892,None,567.163406199892,None,567.163406199892,None,568.1928961999947,None,568.1928961999947,568.6930424999446,,,,,,,,,,,,,,,,123,2022-05-09_20h00.51.810,FishGame,2022.1.1,59.96246353311211,
,9,넌 정겨워,1,Orange,A,5.791666666666667,5.666666666666667,ScrollDown,ScrollUp,Orange.png,4,Positive,Congruent,0,0,0,0,,,,,,,,,,,,,,,,,,,,,,,,,0,8,8,8,,,,,,,,,,,,,,,,,,,,,,,,,,,,,,,,,,,,,,,,,,,,,,,,,,,,,,,,,,,,,,,,,,,,,,,,,1,1.2090049999533221,569.3371630999027,None,ScrollDown,정답입니다,569.3371630999027,None,569.3371630999027,None,569.3371630999027,None,569.3371630999027,None,570.4260701999301,None,570.4260701999301,570.926124199992,,,,,,,,,,,,,,,,123,2022-05-09_20h00.51.810,FishGame,2022.1.1,59.96246353311211,
,10,나를 데려가줘,6,Green,B,0,0,ScrollDown,ScrollUp,Green.png,4,NonTarget,NonTarget,0,0,0,0,,,,,,,,,,,,,,,,,,,,,,,,,0,9,9,9,,,,,,,,,,,,,,,,,,,,,,,,,,,,,,,,,,,,,,,,,,,,,,,,,,,,,,,,,,,,,,,,,,,,,,,,,1,1.7646655000280589,571.5762342999224,None,ScrollDown,정답입니다,571.5762342999224,None,571.5762342999224,None,571.5762342999224,None,571.5762342999224,None,573.214326199959,None,573.214326199959,573.7262197999517,,,,,,,,,,,,,,,,123,2022-05-09_20h00.51.810,FishGame,2022.1.1,59.96246353311211,
,11,넌 체제순응적이야,4,Green,B,3,3.6,ScrollUp,ScrollDown,Green.png,4,Negative,Congruent,0,0,0,0,,,,,,,,,,,,,,,,,,,,,,,,,0,10,10,10,,,,,,,,,,,,,,,,,,,,,,,,,,,,,,,,,,,,,,,,,,,,,,,,,,,,,,,,,,,,,,,,,,,,,,,,,1.785493830839793,1.1188500999705866,574.3735724999569,None,ScrollUp,정답입니다,574.3735724999569,None,574.3735724999569,None,574.3735724999569,None,574.3735724999569,None,575.3731812000042,None,575.3731812000042,575.8763608000008,,,,,,,,,,,,,,,,123,2022-05-09_20h00.51.810,FishGame,2022.1.1,59.96246353311211,
,12,나를 보내줘,6,Orange,A,0,0,ScrollUp,ScrollDown,Orange.png,4,NonTarget,NonTarget,0,0,0,0,,,,,,,,,,,,,,,,,,,,,,,,,0,11,11,11,,,,,,,,,,,,,,,,,,,,,,,,,,,,,,,,,,,,,,,,,,,,,,,,,,,,,,,,,,,,,,,,,,,,,,,,,1.9629629850387573,1.1663885000161827,576.5172631999012,None,ScrollUp,정답입니다,576.5172631999012,None,576.5172631999012,None,576.5172631999012,None,576.5172631999012,None,577.564243300003,None,577.564243300003,578.0769482000032,,,,,,,,,,,,,,,,123,2022-05-09_20h00.51.810,FishGame,2022.1.1,59.96246353311211,
,13,넌 박식해,2,Orange,A,5.625,3.933333333333333,ScrollDown,ScrollUp,Orange.png,4,Positive,Congruent,0,0,0,0,,,,,,,,,,,,,,,,,,,,,,,,,0,12,12,12,,,,,,,,,,,,,,,,,,,,,,,,,,,,,,,,,,,,,,,,,,,,,,,,,,,,,,,,,,,,,,,,,,,,,,,,,1,1.1726280000293627,578.7248466999736,None,ScrollDown,정답입니다,578.7248466999736,None,578.7248466999736,None,578.7248466999736,None,578.7248466999736,None,579.7768037999049,None,579.7768037999049,580.2764528999105,,,,,,,,,,,,,,,,123,2022-05-09_20h00.51.810,FishGame,2022.1.1,59.96246353311211,
,14,나를 보내줘,6,Orange,A,0,0,ScrollUp,ScrollDown,Orange.png,4,NonTarget,NonTarget,0,0,0,0,,,,,,,,,,,,,,,,,,,,,,,,,0,13,13,13,,,,,,,,,,,,,,,,,,,,,,,,,,,,,,,,,,,,,,,,,,,,,,,,,,,,,,,,,,,,,,,,,,,,,,,,,2,1.1483258999651298,580.9159173999215,None,ScrollUp,정답입니다,580.9159173999215,None,580.9159173999215,None,580.9159173999215,None,580.9159173999215,None,581.9480725999456,None,581.9480725999456,582.4598369000014,,,,,,,,,,,,,,,,123,2022-05-09_20h00.51.810,FishGame,2022.1.1,59.96246353311211,
,15,넌 침착해,1,Green,B,5.458333333333333,5.566666666666666,ScrollUp,ScrollDown,Green.png,4,Positive,Incongruent,0,0,0,0,,,,,,,,,,,,,,,,,,,,,,,,,0,14,14,14,,,,,,,,,,,,,,,,,,,,,,,,,,,,,,,,,,,,,,,,,,,,,,,,,,,,,,,,,,,,,,,,,,,,,,,,,1.8641975422700245,1.1835964999627322,583.1059365998954,None,ScrollUp,정답입니다,583.1059365998954,None,583.1059365998954,None,583.1059365998954,None,583.1059365998954,None,584.1730418999214,None,584.1730418999214,584.6766561999684,,,,,,,,,,,,,,,,123,2022-05-09_20h00.51.810,FishGame,2022.1.1,59.96246353311211,
,16,나를 데려가줘,6,Green,B,0,0,ScrollDown,ScrollUp,Green.png,4,NonTarget,NonTarget,0,0,0,0,,,,,,,,,,,,,,,,,,,,,,,,,0,15,15,15,,,,,,,,,,,,,,,,,,,,,,,,,,,,,,,,,,,,,,,,,,,,,,,,,,,,,,,,,,,,,,,,,,,,,,,,,1,1.1583848999580368,585.3133376999758,None,ScrollDown,정답입니다,585.3133376999758,None,585.3133376999758,None,585.3133376999758,None,585.3133376999758,None,586.360122299986,None,586.360122299986,586.8601627999451,,,,,,,,,,,,,,,,123,2022-05-09_20h00.51.810,FishGame,2022.1.1,59.96246353311211,
,17,넌 행복해,1,Orange,A,6.416666666666666,6.166666666666667,ScrollDown,ScrollUp,Orange.png,4,Positive,Congruent,0,0,0,0,,,,,,,,,,,,,,,,,,,,,,,,,0,16,16,16,,,,,,,,,,,,,,,,,,,,,,,,,,,,,,,,,,,,,,,,,,,,,,,,,,,,,,,,,,,,,,,,,,,,,,,,,1,1.239825899945572,587.5184393998934,None,ScrollDown,정답입니다,587.5184393998934,None,587.5184393998934,None,587.5184393998934,None,587.5184393998934,None,588.626896899892,None,588.626896899892,589.1269974999595,,,,,,,,,,,,,,,,123,2022-05-09_20h00.51.810,FishGame,2022.1.1,59.96246353311211,
,18,넌 겸손해,2,Green,B,5.791666666666667,4.766666666666667,ScrollUp,ScrollDown,Green.png,4,Positive,Incongruent,0,0,0,0,,,,,,,,,,,,,,,,,,,,,,,,,0,17,17,17,,,,,,,,,,,,,,,,,,,,,,,,,,,,,,,,,,,,,,,,,,,,,,,,,,,,,,,,,,,,,,,,,,,,,,,,,1.9320987562338512,1.1346848000539467,589.7677189999959,None,ScrollUp,정답입니다,589.7677189999959,None,589.7677189999959,None,589.7677189999959,None,589.7677189999959,None,590.7902974999743,None,590.7902974999743,591.2934804999968,,,,,,,,,,,,,,,,123,2022-05-09_20h00.51.810,FishGame,2022.1.1,59.96246353311211,
,19,나를 보내줘,6,Orange,A,0,0,ScrollUp,ScrollDown,Orange.png,4,NonTarget,NonTarget,0,0,0,0,,,,,,,,,,,,,,,,,,,,,,,,,0,18,18,18,,,,,,,,,,,,,,,,,,,,,,,,,,,,,,,,,,,,,,,,,,,,,,,,,,,,,,,,,,,,,,,,,,,,,,,,,2,1.1550512000685558,591.9338953999104,None,ScrollUp,정답입니다,591.9338953999104,None,591.9338953999104,None,591.9338953999104,None,591.9338953999104,None,592.976728699985,None,592.976728699985,593.477144699893,,,,,,,,,,,,,,,,123,2022-05-09_20h00.51.810,FishGame,2022.1.1,59.96246353311211,
,20,넌 의심없어,3,Orange,A,4.166666666666667,4.6,ScrollDown,ScrollUp,Orange.png,4,Neutral,Neutral,0,0,0,0,,,,,,,,,,,,,,,,,,,,,,,,,0,19,19,19,,,,,,,,,,,,,,,,,,,,,,,,,,,,,,,,,,,,,,,,,,,,,,,,,,,,,,,,,,,,,,,,,,,,,,,,,1,1.0834316000109538,594.1229351999937,None,ScrollDown,정답입니다,594.1229351999937,None,594.1229351999937,None,594.1229351999937,None,594.1229351999937,None,595.0820423999103,None,595.0820423999103,595.593691399903,,,,,,,,,,,,,,,,123,2022-05-09_20h00.51.810,FishGame,2022.1.1,59.96246353311211,
,21,넌 시시해,4,Orange,A,2.666666666666667,2.966666666666667,ScrollDown,ScrollUp,Orange.png,4,Negative,Incongruent,0,0,0,0,,,,,,,,,,,,,,,,,,,,,,,,,0,20,20,20,,,,,,,,,,,,,,,,,,,,,,,,,,,,,,,,,,,,,,,,,,,,,,,,,,,,,,,,,,,,,,,,,,,,,,,,,1,1.1488005999708548,596.2307395999087,None,ScrollDown,정답입니다,596.2307395999087,None,596.2307395999087,None,596.2307395999087,None,596.2307395999087,None,597.2654843999771,None,597.2654843999771,597.7772999999579,,,,,,,,,,,,,,,,123,2022-05-09_20h00.51.810,FishGame,2022.1.1,59.96246353311211,
,22,나를 데려가줘,6,Green,B,0,0,ScrollDown,ScrollUp,Green.png,4,NonTarget,NonTarget,0,0,0,0,,,,,,,,,,,,,,,,,,,,,,,,,0,21,21,21,,,,,,,,,,,,,,,,,,,,,,,,,,,,,,,,,,,,,,,,,,,,,,,,,,,,,,,,,,,,,,,,,,,,,,,,,1.040123442808787,1.219460800057277,598.4109341999283,None,ScrollDown,정답입니다,598.4109341999283,None,598.4109341999283,None,598.4109341999283,None,598.4109341999283,None,599.523762299912,None,599.523762299912,600.0272155998973,,,,,,,,,,,,,,,,123,2022-05-09_20h00.51.810,FishGame,2022.1.1,59.96246353311211,
,23,넌 무정해,5,Orange,A,2.5,2.2,ScrollDown,ScrollUp,Orange.png,4,Negative,Incongruent,0,0,0,0,,,,,,,,,,,,,,,,,,,,,,,,,0,22,22,22,,,,,,,,,,,,,,,,,,,,,,,,,,,,,,,,,,,,,,,,,,,,,,,,,,,,,,,,,,,,,,,,,,,,,,,,,1,1.172059000004083,600.6692851999542,None,ScrollDown,정답입니다,600.6692851999542,None,600.6692851999542,None,600.6692851999542,None,600.6692851999542,None,601.7270815999946,None,601.7270815999946,602.2270197999896,,,,,,,,,,,,,,,,123,2022-05-09_20h00.51.810,FishGame,2022.1.1,59.96246353311211,
,24,넌 긍정적이야,1,Green,B,6.041666666666667,6.066666666666666,ScrollUp,ScrollDown,Green.png,4,Positive,Incongruent,0,0,0,0,,,,,,,,,,,,,,,,,,,,,,,,,0,23,23,23,,,,,,,,,,,,,,,,,,,,,,,,,,,,,,,,,,,,,,,,,,,,,,,,,,,,,,,,,,,,,,,,,,,,,,,,,1.9228395223617554,1.2744125999743119,602.873347899993,None,ScrollUp,정답입니다,602.873347899993,None,602.873347899993,None,602.873347899993,None,602.873347899993,None,604.0272022999125,None,604.0272022999125,604.5272850999609,,,,,,,,,,,,,,,,123,2022-05-09_20h00.51.810,FishGame,2022.1.1,59.96246353311211,
,25,나를 보내줘,6,Orange,A,0,0,ScrollUp,ScrollDown,Orange.png,4,NonTarget,NonTarget,0,0,0,0,,,,,,,,,,,,,,,,,,,,,,,,,0,24,24,24,,,,,,,,,,,,,,,,,,,,,,,,,,,,,,,,,,,,,,,,,,,,,,,,,,,,,,,,,,,,,,,,,,,,,,,,,1.8503086417913437,1.42540139995981,605.1699788999977,None,ScrollUp,정답입니다,605.1699788999977,None,605.1699788999977,None,605.1699788999977,None,605.1699788999977,None,606.4770686998963,None,606.4770686998963,606.9775484999409,,,,,,,,,,,,,,,,123,2022-05-09_20h00.51.810,FishGame,2022.1.1,59.96246353311211,
,26,넌 시기심이 많아,5,Green,B,2.458333333333333,2.233333333333333,ScrollUp,ScrollDown,Green.png,4,Negative,Congruent,0,0,0,0,,,,,,,,,,,,,,,,,,,,,,,,,0,25,25,25,,,,,,,,,,,,,,,,,,,,,,,,,,,,,,,,,,,,,,,,,,,,,,,,,,,,,,,,,,,,,,,,,,,,,,,,,1.9675925771395366,1.0971940000308678,607.6241715999786,None,ScrollUp,정답입니다,607.6241715999786,None,607.6241715999786,None,607.6241715999786,None,607.6241715999786,None,608.5986589998938,None,608.5986589998938,609.110645199893,,,,,,,,,,,,,,,,123,2022-05-09_20h00.51.810,FishGame,2022.1.1,59.96246353311211,
,27,넌 탁월해,2,Orange,A,5.708333333333334,4.5,ScrollDown,ScrollUp,Orange.png,4,Positive,Congruent,0,0,0,0,,,,,,,,,,,,,,,,,,,,,,,,,0,26,26,26,,,,,,,,,,,,,,,,,,,,,,,,,,,,,,,,,,,,,,,,,,,,,,,,,,,,,,,,,,,,,,,,,,,,,,,,,1,1.0835378000047058,609.7589263999835,None,ScrollDown,정답입니다,609.7589263999835,None,609.7589263999835,None,609.7589263999835,None,609.7589263999835,None,610.7154028998921,None,610.7154028998921,611.2273649999406,,,,,,,,,,,,,,,,123,2022-05-09_20h00.51.810,FishGame,2022.1.1,59.96246353311211,
,28,나를 데려가줘,6,Green,B,0,0,ScrollDown,ScrollUp,Green.png,4,NonTarget,NonTarget,0,0,0,0,,,,,,,,,,,,,,,,,,,,,,,,,0,27,27,27,,,,,,,,,,,,,,,,,,,,,,,,,,,,,,,,,,,,,,,,,,,,,,,,,,,,,,,,,,,,,,,,,,,,,,,,,1,1.3271533000515774,611.8657721999334,None,ScrollDown,정답입니다,611.8657721999334,None,611.8657721999334,None,611.8657721999334,None,611.8657721999334,None,613.0818392999936,None,613.0818392999936,613.5939725999488,,,,,,,,,,,,,,,,123,2022-05-09_20h00.51.810,FishGame,2022.1.1,59.96246353311211,
,29,넌 조용해,3,Green,B,4.333333333333333,4.166666666666667,ScrollUp,ScrollDown,Green.png,4,Neutral,Neutral,0,0,0,0,,,,,,,,,,,,,,,,,,,,,,,,,0,28,28,28,,,,,,,,,,,,,,,,,,,,,,,,,,,,,,,,,,,,,,,,,,,,,,,,,,,,,,,,,,,,,,,,,,,,,,,,,1.9706790049870808,1.1515952000627294,614.2406361999456,None,ScrollUp,정답입니다,614.2406361999456,None,614.2406361999456,None,614.2406361999456,None,614.2406361999456,None,615.2742978999158,None,615.2742978999158,615.7779040999012,,,,,,,,,,,,,,,,123,2022-05-09_20h00.51.810,FishGame,2022.1.1,59.96246353311211,
,30,넌 다정해,1,Orange,A,5.833333333333334,5.7,ScrollDown,ScrollUp,Orange.png,4,Positive,Congruent,0,0,0,0,,,,,,,,,,,,,,,,,,,,,,,,,0,29,29,29,,,,,,,,,,,,,,,,,,,,,,,,,,,,,,,,,,,,,,,,,,,,,,,,,,,,,,,,,,,,,,,,,,,,,,,,,1,1.01927990000695,616.4200870998902,None,ScrollDown,정답입니다,616.4200870998902,None,616.4200870998902,None,616.4200870998902,None,616.4200870998902,None,617.3242661999539,None,617.3242661999539,617.8269734999631,,,,,,,,,,,,,,,,123,2022-05-09_20h00.51.810,FishGame,2022.1.1,59.96246353311211,
,31,넌 능력있어,2,Green,B,6.166666666666666,4.6,ScrollUp,ScrollDown,Green.png,4,Positive,Incongruent,0,0,0,0,,,,,,,,,,,,,,,,,,,,,,,,,0,30,30,30,,,,,,,,,,,,,,,,,,,,,,,,,,,,,,,,,,,,,,,,,,,,,,,,,,,,,,,,,,,,,,,,,,,,,,,,,2,1.1413808999350294,618.472827599966,None,ScrollUp,정답입니다,618.472827599966,None,618.472827599966,None,618.472827599966,None,618.472827599966,None,619.4941377999494,None,619.4941377999494,619.9940218999982,,,,,,,,,,,,,,,,123,2022-05-09_20h00.51.810,FishGame,2022.1.1,59.96246353311211,
,32,넌 불쾌해,5,Orange,A,2.125,1.933333333333333,ScrollDown,ScrollUp,Orange.png,4,Negative,Incongruent,0,0,0,0,,,,,,,,,,,,,,,,,,,,,,,,,0,31,31,31,,,,,,,,,,,,,,,,,,,,,,,,,,,,,,,,,,,,,,,,,,,,,,,,,,,,,,,,,,,,,,,,,,,,,,,,,1,1.053044900065288,620.6317757999059,None,ScrollDown,정답입니다,620.6317757999059,None,620.6317757999059,None,620.6317757999059,None,620.6317757999059,None,621.5740818999475,None,621.5740818999475,622.0775242999662,,,,,,,,,,,,,,,,123,2022-05-09_20h00.51.810,FishGame,2022.1.1,59.96246353311211,
,33,나를 데려가줘,6,Green,B,0,0,ScrollDown,ScrollUp,Green.png,4,NonTarget,NonTarget,0,0,0,0,,,,,,,,,,,,,,,,,,,,,,,,,0,32,32,32,,,,,,,,,,,,,,,,,,,,,,,,,,,,,,,,,,,,,,,,,,,,,,,,,,,,,,,,,,,,,,,,,,,,,,,,,1,1.2674179999157786,622.7080738999648,None,ScrollDown,정답입니다,622.7080738999648,None,622.7080738999648,None,622.7080738999648,None,622.7080738999648,None,623.8654795999173,None,623.8654795999173,624.3772691999329,,,,,,,,,,,,,,,,123,2022-05-09_20h00.51.810,FishGame,2022.1.1,59.96246353311211,
,34,넌 유순해,3,Orange,A,4.458333333333333,5,ScrollDown,ScrollUp,Orange.png,4,Neutral,Neutral,0,0,0,0,,,,,,,,,,,,,,,,,,,,,,,,,0,33,33,33,,,,,,,,,,,,,,,,,,,,,,,,,,,,,,,,,,,,,,,,,,,,,,,,,,,,,,,,,,,,,,,,,,,,,,,,,1,1.2807335000252351,625.0306302999379,None,ScrollDown,정답입니다,625.0306302999379,None,625.0306302999379,None,625.0306302999379,None,625.0306302999379,None,626.1829694999615,None,626.1829694999615,626.6937603999395,,,,,,,,,,,,,,,,123,2022-05-09_20h00.51.810,FishGame,2022.1.1,59.96246353311211,
,35,넌 근심스러워,4,Green,B,2.708333333333333,3.133333333333333,ScrollUp,ScrollDown,Green.png,4,Negative,Congruent,0,0,0,0,,,,,,,,,,,,,,,,,,,,,,,,,0,34,34,34,,,,,,,,,,,,,,,,,,,,,,,,,,,,,,,,,,,,,,,,,,,,,,,,,,,,,,,,,,,,,,,,,,,,,,,,,1.9212963084379833,1.1023185000522062,627.3374495999888,None,ScrollUp,정답입니다,627.3374495999888,None,627.3374495999888,None,627.3374495999888,None,627.3374495999888,None,628.3242552999873,None,628.3242552999873,628.8278748999583,,,,,,,,,,,,,,,,123,2022-05-09_20h00.51.810,FishGame,2022.1.1,59.96246353311211,
,36,넌 세련되었어,2,Orange,A,5.5,4.6,ScrollDown,ScrollUp,Orange.png,4,Positive,Congruent,0,0,0,0,,,,,,,,,,,,,,,,,,,,,,,,,0,35,35,35,,,,,,,,,,,,,,,,,,,,,,,,,,,,,,,,,,,,,,,,,,,,,,,,,,,,,,,,,,,,,,,,,,,,,,,,,1,1.1299979999894276,629.4894746999489,None,ScrollDown,정답입니다,629.4894746999489,None,629.4894746999489,None,629.4894746999489,None,629.4894746999489,None,630.48246869992,None,630.48246869992,630.9944134999532,,,,,,,,,,,,,,,,123,2022-05-09_20h00.51.810,FishGame,2022.1.1,59.96246353311211,
,37,나를 보내줘,6,Orange,A,0,0,ScrollUp,ScrollDown,Orange.png,4,NonTarget,NonTarget,0,0,0,0,,,,,,,,,,,,,,,,,,,,,,,,,0,36,36,36,,,,,,,,,,,,,,,,,,,,,,,,,,,,,,,,,,,,,,,,,,,,,,,,,,,,,,,,,,,,,,,,,,,,,,,,,1.9367283980051677,1.2262857999885455,631.6332774999319,None,ScrollUp,정답입니다,631.6332774999319,None,631.6332774999319,None,631.6332774999319,None,631.6332774999319,None,632.7441629999084,None,632.7441629999084,633.244336899952,,,,,,,,,,,,,,,,123,2022-05-09_20h00.51.810,FishGame,2022.1.1,59.96246353311211,
,38,넌 확고해,3,Green,B,4.708333333333334,4.566666666666666,ScrollUp,ScrollDown,Green.png,4,Neutral,Neutral,0,0,0,0,,,,,,,,,,,,,,,,,,,,,,,,,0,37,37,37,,,,,,,,,,,,,,,,,,,,,,,,,,,,,,,,,,,,,,,,,,,,,,,,,,,,,,,,,,,,,,,,,,,,,,,,,2,0.9548711000243202,633.8831438999623,None,ScrollUp,정답입니다,633.8831438999623,None,633.8831438999623,None,633.8831438999623,None,633.8831438999623,None,634.7277873998974,None,634.7277873998974,635.227993199951,,,,,,,,,,,,,,,,123,2022-05-09_20h00.51.810,FishGame,2022.1.1,59.96246353311211,
,39,넌 이해심이 많아,1,Green,B,6.041666666666668,5.533333333333333,ScrollUp,ScrollDown,Green.png,4,Positive,Incongruent,0,0,0,0,,,,,,,,,,,,,,,,,,,,,,,,,0,38,38,38,,,,,,,,,,,,,,,,,,,,,,,,,,,,,,,,,,,,,,,,,,,,,,,,,,,,,,,,,,,,,,,,,,,,,,,,,2,1.01245929999277,635.8570543999085,None,ScrollUp,정답입니다,635.8570543999085,None,635.8570543999085,None,635.8570543999085,None,635.8570543999085,None,636.7658803999657,None,636.7658803999657,637.2778702999931,,,,,,,,,,,,,,,,123,2022-05-09_20h00.51.810,FishGame,2022.1.1,59.96246353311211,
,40,나를 보내줘,6,Orange,A,0,0,ScrollUp,ScrollDown,Orange.png,4,NonTarget,NonTarget,0,0,0,0,,,,,,,,,,,,,,,,,,,,,,,,,0,39,39,39,,,,,,,,,,,,,,,,,,,,,,,,,,,,,,,,,,,,,,,,,,,,,,,,,,,,,,,,,,,,,,,,,,,,,,,,,2,1.0826118999393657,637.9164216999197,None,ScrollUp,정답입니다,637.9164216999197,None,637.9164216999197,None,637.9164216999197,None,637.9164216999197,None,638.8824784999015,None,638.8824784999015,639.3945191999665,,,,,,,,,,,,,,,,123,2022-05-09_20h00.51.810,FishGame,2022.1.1,59.96246353311211,
,41,넌 거칠어,4,Orange,A,2.625,3.033333333333333,ScrollDown,ScrollUp,Orange.png,4,Negative,Incongruent,0,0,0,0,,,,,,,,,,,,,,,,,,,,,,,,,0,40,40,40,,,,,,,,,,,,,,,,,,,,,,,,,,,,,,,,,,,,,,,,,,,,,,,,,,,,,,,,,,,,,,,,,,,,,,,,,1,1.0013040999183431,640.0383898,None,ScrollDown,정답입니다,640.0383898,None,640.0383898,None,640.0383898,None,640.0383898,None,640.9248411000008,None,640.9248411000008,641.4274949999526,,,,,,,,,,,,,,,,123,2022-05-09_20h00.51.810,FishGame,2022.1.1,59.96246353311211,
,42,넌 변덕맞아,5,Green,B,2.75,2.166666666666667,ScrollUp,ScrollDown,Green.png,4,Negative,Congruent,0,0,0,0,,,,,,,,,,,,,,,,,,,,,,,,,0,41,41,41,,,,,,,,,,,,,,,,,,,,,,,,,,,,,,,,,,,,,,,,,,,,,,,,,,,,,,,,,,,,,,,,,,,,,,,,,1.9351851840813954,1.012177300057374,642.068285999936,None,ScrollUp,정답입니다,642.068285999936,None,642.068285999936,None,642.068285999936,None,642.068285999936,None,642.9662785999244,None,642.9662785999244,643.4782840999542,,,,,,,,,,,,,,,,123,2022-05-09_20h00.51.810,FishGame,2022.1.1,59.96246353311211,
,43,나를 데려가줘,6,Green,B,0,0,ScrollDown,ScrollUp,Green.png,4,NonTarget,NonTarget,0,0,0,0,,,,,,,,,,,,,,,,,,,,,,,,,0,42,42,42,,,,,,,,,,,,,,,,,,,,,,,,,,,,,,,,,,,,,,,,,,,,,,,,,,,,,,,,,,,,,,,,,,,,,,,,,1,1.0918272000271827,644.1172421999509,None,ScrollDown,정답입니다,644.1172421999509,None,644.1172421999509,None,644.1172421999509,None,644.1172421999509,None,645.0945703999605,None,645.0945703999605,645.5948486999841,,,,,,,,,,,,,,,,123,2022-05-09_20h00.51.810,FishGame,2022.1.1,59.96246353311211,
,44,넌 외로워,4,Green,B,2.833333333333333,3.3,ScrollUp,ScrollDown,Green.png,4,Negative,Congruent,0,0,0,0,,,,,,,,,,,,,,,,,,,,,,,,,0,43,43,43,,,,,,,,,,,,,,,,,,,,,,,,,,,,,,,,,,,,,,,,,,,,,,,,,,,,,,,,,,,,,,,,,,,,,,,,,1.9012345770994823,1.0223131000529975,646.231154399924,None,ScrollUp,정답입니다,646.231154399924,None,646.231154399924,None,646.231154399924,None,646.231154399924,None,647.1448496999219,None,647.1448496999219,647.6446690999437,,,,,,,,,,,,,,,,123,2022-05-09_20h00.51.810,FishGame,2022.1.1,59.96246353311211,
,1,넌 불평스러워,5,Orange,A,2.25,2.066666666666667,ScrollDown,ScrollUp,Orange.png,5,Negative,Incongruent,0,0,0,0,,,,,,,,,,,,,,,,,,,,,,,,,,,,,0,0,0,0,,,,,,,,,,,,,,,,,,,,,,,,,,,,681.0958637999138,682.5958495999221,682.6294515999034,683.5789680999005,683.6290161999641,684.5788965999382,684.5788965999382,None,,,,,,,,,,,,,,,,,,,,,,,,,,,,,,,,,,1,1.513508400064893,685.736557599972,None,ScrollDown,정답입니다,685.736557599972,None,685.736557599972,None,685.736557599972,None,685.736557599972,None,687.0871003998909,None,687.0871003998909,687.5960749998922,648.1450878999894,None,648.1450878999894,None,0.23981482,-0.121296294,1,0,0,0.015919349971227348,None,678.1456034999574,None,,,123,2022-05-09_20h00.51.810,FishGame,2022.1.1,59.96246353311211,
,2,나를 보내줘,6,Orange,A,0,0,ScrollUp,ScrollDown,Orange.png,5,NonTarget,NonTarget,0,0,0,0,,,,,,,,,,,,,,,,,,,,,,,,,,,,,0,1,1,1,,,,,,,,,,,,,,,,,,,,,,,,,,,,,,,,,,,,,,,,,,,,,,,,,,,,,,,,,,,,,,,,,,,,,1.9367283980051677,1.2346643999917433,688.235682599945,None,ScrollUp,정답입니다,688.235682599945,None,688.235682599945,None,688.235682599945,None,688.235682599945,None,689.3516231999965,None,689.3516231999965,689.8624460999854,,,,,,,,,,,,,,,,123,2022-05-09_20h00.51.810,FishGame,2022.1.1,59.96246353311211,
,3,넌 다재다능해,2,Green,B,6.208333333333333,4.5,ScrollUp,ScrollDown,Green.png,5,Positive,Incongruent,0,0,0,0,,,,,,,,,,,,,,,,,,,,,,,,,,,,,0,2,2,2,,,,,,,,,,,,,,,,,,,,,,,,,,,,,,,,,,,,,,,,,,,,,,,,,,,,,,,,,,,,,,,,,,,,,1.6450617238879204,0.8661244000541046,690.500241599977,None,ScrollUp,정답입니다,690.500241599977,None,690.500241599977,None,690.500241599977,None,690.500241599977,None,691.2508910999168,None,691.2508910999168,691.7626171999145,,,,,,,,,,,,,,,,123,2022-05-09_20h00.51.810,FishGame,2022.1.1,59.96246353311211,
,4,넌 과감해,3,Orange,A,4.833333333333334,4.6,ScrollDown,ScrollUp,Orange.png,5,Neutral,Neutral,0,0,0,0,,,,,,,,,,,,,,,,,,,,,,,,,,,,,0,3,3,3,,,,,,,,,,,,,,,,,,,,,,,,,,,,,,,,,,,,,,,,,,,,,,,,,,,,,,,,,,,,,,,,,,,,,1.0231481393178303,1.0078883999958634,692.3960733999265,None,ScrollDown,정답입니다,692.3960733999265,None,692.3960733999265,None,692.3960733999265,None,692.3960733999265,None,693.295287799905,None,693.295287799905,693.7959752999013,,,,,,,,,,,,,,,,123,2022-05-09_20h00.51.810,FishGame,2022.1.1,59.96246353311211,
,5,넌 고분고분해,3,Green,B,3.75,4.033333333333333,ScrollUp,ScrollDown,Green.png,5,Neutral,Neutral,0,0,0,0,,,,,,,,,,,,,,,,,,,,,,,,,,,,,0,4,4,4,,,,,,,,,,,,,,,,,,,,,,,,,,,,,,,,,,,,,,,,,,,,,,,,,,,,,,,,,,,,,,,,,,,,,1.939814825852712,1.1048508000094444,694.4419391999254,None,ScrollUp,정답입니다,694.4419391999254,None,694.4419391999254,None,694.4419391999254,None,694.4419391999254,None,695.42860069999,None,695.42860069999,695.9288168998901,,,,,,,,,,,,,,,,123,2022-05-09_20h00.51.810,FishGame,2022.1.1,59.96246353311211,
,6,나를 보내줘,6,Orange,A,0,0,ScrollUp,ScrollDown,Orange.png,5,NonTarget,NonTarget,0,0,0,0,,,,,,,,,,,,,,,,,,,,,,,,,,,,,0,5,5,5,,,,,,,,,,,,,,,,,,,,,,,,,,,,,,,,,,,,,,,,,,,,,,,,,,,,,,,,,,,,,,,,,,,,,1.879629631837209,0.9802706999471411,696.5643858999247,None,ScrollUp,정답입니다,696.5643858999247,None,696.5643858999247,None,696.5643858999247,None,696.5643858999247,None,697.4338747999864,None,697.4338747999864,697.9456349998945,,,,,,,,,,,,,,,,123,2022-05-09_20h00.51.810,FishGame,2022.1.1,59.96246353311211,
,7,넌 잘 잊어,4,Orange,A,3,3.7,ScrollDown,ScrollUp,Orange.png,5,Negative,Incongruent,0,0,0,0,,,,,,,,,,,,,,,,,,,,,,,,,,,,,0,6,6,6,,,,,,,,,,,,,,,,,,,,,,,,,,,,,,,,,,,,,,,,,,,,,,,,,,,,,,,,,,,,,,,,,,,,,1.1898148208856583,0.9890925999497995,698.6035907999612,None,ScrollDown,정답입니다,698.6035907999612,None,698.6035907999612,None,698.6035907999612,None,698.6035907999612,None,699.4621294999961,None,699.4621294999961,699.9627982999664,,,,,,,,,,,,,,,,123,2022-05-09_20h00.51.810,FishGame,2022.1.1,59.96246353311211,
,8,넌 탐구심이없어,4,Green,B,2.833333333333333,3.066666666666667,ScrollUp,ScrollDown,Green.png,5,Negative,Congruent,0,0,0,0,,,,,,,,,,,,,,,,,,,,,,,,,,,,,0,7,7,7,,,,,,,,,,,,,,,,,,,,,,,,,,,,,,,,,,,,,,,,,,,,,,,,,,,,,,,,,,,,,,,,,,,,,1.825617293516795,0.9665807000128552,700.618619899964,None,ScrollUp,정답입니다,700.618619899964,None,700.618619899964,None,700.618619899964,None,700.618619899964,None,701.4505033999449,None,701.4505033999449,701.9628056999063,,,,,,,,,,,,,,,,123,2022-05-09_20h00.51.810,FishGame,2022.1.1,59.96246353311211,
,9,나를 데려가줘,6,Green,B,0,0,ScrollDown,ScrollUp,Green.png,5,NonTarget,NonTarget,0,0,0,0,,,,,,,,,,,,,,,,,,,,,,,,,,,,,0,8,8,8,,,,,,,,,,,,,,,,,,,,,,,,,,,,,,,,,,,,,,,,,,,,,,,,,,,,,,,,,,,,,,,,,,,,,1.2314814726511638,1.0896239000139758,702.5941482000053,None,ScrollDown,정답입니다,702.5941482000053,None,702.5941482000053,None,702.5941482000053,None,702.5941482000053,None,703.573624099954,None,703.573624099954,704.0793160999892,,,,,,,,,,,,,,,,123,2022-05-09_20h00.51.810,FishGame,2022.1.1,59.96246353311211,
,10,넌 참되어,2,Orange,A,6.041666666666664,4.733333333333333,ScrollDown,ScrollUp,Orange.png,5,Positive,Congruent,0,0,0,0,,,,,,,,,,,,,,,,,,,,,,,,,,,,,0,9,9,9,,,,,,,,,,,,,,,,,,,,,,,,,,,,,,,,,,,,,,,,,,,,,,,,,,,,,,,,,,,,,,,,,,,,,1,1.0994154000654817,704.7305637999671,None,ScrollDown,정답입니다,704.7305637999671,None,704.7305637999671,None,704.7305637999671,None,704.7305637999671,None,705.7005619999254,None,705.7005619999254,706.2129501999589,,,,,,,,,,,,,,,,123,2022-05-09_20h00.51.810,FishGame,2022.1.1,59.96246353311211,
,11,넌 생기있어,1,Green,B,5.875,5.633333333333334,ScrollUp,ScrollDown,Green.png,5,Positive,Incongruent,0,0,0,0,,,,,,,,,,,,,,,,,,,,,,,,,,,,,0,10,10,10,,,,,,,,,,,,,,,,,,,,,,,,,,,,,,,,,,,,,,,,,,,,,,,,,,,,,,,,,,,,,,,,,,,,,1.6404320945342383,1.0538717000745237,706.8515011999989,None,ScrollUp,정답입니다,706.8515011999989,None,706.8515011999989,None,706.8515011999989,None,706.8515011999989,None,707.7869148999453,None,707.7869148999453,708.2957397999708,,,,,,,,,,,,,,,,123,2022-05-09_20h00.51.810,FishGame,2022.1.1,59.96246353311211,
,12,넌 비사교적이야,4,Green,B,2.875,2.9,ScrollUp,ScrollDown,Green.png,5,Negative,Congruent,0,0,0,0,,,,,,,,,,,,,,,,,,,,,,,,,,,,,0,11,11,11,,,,,,,,,,,,,,,,,,,,,,,,,,,,,,,,,,,,,,,,,,,,,,,,,,,,,,,,,,,,,,,,,,,,,1.7638888855775197,0.922309499932453,708.9299390999367,None,ScrollUp,정답입니다,708.9299390999367,None,708.9299390999367,None,708.9299390999367,None,708.9299390999367,None,709.745952499914,None,709.745952499914,710.2459469999885,,,,,,,,,,,,,,,,123,2022-05-09_20h00.51.810,FishGame,2022.1.1,59.96246353311211,
,13,나를 데려가줘,6,Green,B,0,0,ScrollDown,ScrollUp,Green.png,5,NonTarget,NonTarget,0,0,0,0,,,,,,,,,,,,,,,,,,,,,,,,,,,,,0,12,12,12,,,,,,,,,,,,,,,,,,,,,,,,,,,,,,,,,,,,,,,,,,,,,,,,,,,,,,,,,,,,,,,,,,,,,1.0154321193695068,1.215635999920778,710.882852199953,None,ScrollDown,정답입니다,710.882852199953,None,710.882852199953,None,710.882852199953,None,710.882852199953,None,711.9852710999548,None,711.9852710999548,712.4960788999451,,,,,,,,,,,,,,,,123,2022-05-09_20h00.51.810,FishGame,2022.1.1,59.96246353311211,
,14,넌 고독해,4,Orange,A,2.916666666666667,3.233333333333333,ScrollDown,ScrollUp,Orange.png,5,Negative,Incongruent,0,0,0,0,,,,,,,,,,,,,,,,,,,,,,,,,,,,,0,13,13,13,,,,,,,,,,,,,,,,,,,,,,,,,,,,,,,,,,,,,,,,,,,,,,,,,,,,,,,,,,,,,,,,,,,,,1.3395061741272607,0.9421080000465736,713.1322532999329,None,ScrollDown,정답입니다,713.1322532999329,None,713.1322532999329,None,713.1322532999329,None,713.1322532999329,None,713.9625145999016,None,713.9625145999016,714.4627993999748,,,,,,,,,,,,,,,,123,2022-05-09_20h00.51.810,FishGame,2022.1.1,59.96246353311211,
,15,넌 신경질적이야,5,Green,B,2.375,2.233333333333333,ScrollUp,ScrollDown,Green.png,5,Negative,Congruent,0,0,0,0,,,,,,,,,,,,,,,,,,,,,,,,,,,,,0,14,14,14,,,,,,,,,,,,,,,,,,,,,,,,,,,,,,,,,,,,,,,,,,,,,,,,,,,,,,,,,,,,,,,,,,,,,1.6311728358268738,0.9712501000612974,715.1090249998961,None,ScrollUp,정답입니다,715.1090249998961,None,715.1090249998961,None,715.1090249998961,None,715.1090249998961,None,715.9630069999257,None,715.9630069999257,716.4632514999248,,,,,,,,,,,,,,,,123,2022-05-09_20h00.51.810,FishGame,2022.1.1,59.96246353311211,
,16,넌 똑똑해,2,Green,B,5.666666666666667,3.966666666666667,ScrollUp,ScrollDown,Green.png,5,Positive,Incongruent,0,0,0,0,,,,,,,,,,,,,,,,,,,,,,,,,,,,,0,15,15,15,,,,,,,,,,,,,,,,,,,,,,,,,,,,,,,,,,,,,,,,,,,,,,,,,,,,,,,,,,,,,,,,,,,,,1.629629634320736,0.8929640999995172,717.1088907999219,None,ScrollUp,정답입니다,717.1088907999219,None,717.1088907999219,None,717.1088907999219,None,717.1088907999219,None,717.8793908999069,None,717.8793908999069,718.379473399953,,,,,,,,,,,,,,,,123,2022-05-09_20h00.51.810,FishGame,2022.1.1,59.96246353311211,
,17,나를 보내줘,6,Orange,A,0,0,ScrollUp,ScrollDown,Orange.png,5,NonTarget,NonTarget,0,0,0,0,,,,,,,,,,,,,,,,,,,,,,,,,,,,,0,16,16,16,,,,,,,,,,,,,,,,,,,,,,,,,,,,,,,,,,,,,,,,,,,,,,,,,,,,,,,,,,,,,,,,,,,,,1.8333333383003871,1.0835569000337273,719.0202062999597,None,ScrollUp,정답입니다,719.0202062999597,None,719.0202062999597,None,719.0202062999597,None,719.0202062999597,None,719.9853711999021,None,719.9853711999021,720.4962443999248,,,,,,,,,,,,,,,,123,2022-05-09_20h00.51.810,FishGame,2022.1.1,59.96246353311211,
,18,넌 협조적이야,1,Orange,A,5.625,5.666666666666667,ScrollDown,ScrollUp,Orange.png,5,Positive,Congruent,0,0,0,0,,,,,,,,,,,,,,,,,,,,,,,,,,,,,0,17,17,17,,,,,,,,,,,,,,,,,,,,,,,,,,,,,,,,,,,,,,,,,,,,,,,,,,,,,,,,,,,,,,,,,,,,,1,1.1573155999649316,721.1382816999685,None,ScrollDown,정답입니다,721.1382816999685,None,721.1382816999685,None,721.1382816999685,None,721.1382816999685,None,722.1797942999983,None,722.1797942999983,722.6799121999647,,,,,,,,,,,,,,,,123,2022-05-09_20h00.51.810,FishGame,2022.1.1,59.96246353311211,
,19,나를 데려가줘,6,Green,B,0,0,ScrollDown,ScrollUp,Green.png,5,NonTarget,NonTarget,0,0,0,0,,,,,,,,,,,,,,,,,,,,,,,,,,,,,0,18,18,18,,,,,,,,,,,,,,,,,,,,,,,,,,,,,,,,,,,,,,,,,,,,,,,,,,,,,,,,,,,,,,,,,,,,,1,1.372149300063029,723.3123159999959,None,ScrollDown,정답입니다,723.3123159999959,None,723.3123159999959,None,723.3123159999959,None,723.3123159999959,None,724.5795438999776,None,724.5795438999776,725.0797092999564,,,,,,,,,,,,,,,,123,2022-05-09_20h00.51.810,FishGame,2022.1.1,59.96246353311211,
,20,넌 몰인정해,5,Green,B,2.541666666666667,2.066666666666667,ScrollUp,ScrollDown,Green.png,5,Negative,Congruent,0,0,0,0,,,,,,,,,,,,,,,,,,,,,,,,,,,,,0,19,19,19,,,,,,,,,,,,,,,,,,,,,,,,,,,,,,,,,,,,,,,,,,,,,,,,,,,,,,,,,,,,,,,,,,,,,1.6481481517354646,1.0737365999957547,725.7213980999077,None,ScrollUp,정답입니다,725.7213980999077,None,725.7213980999077,None,725.7213980999077,None,725.7213980999077,None,726.6795093999244,None,726.6795093999244,727.1797887999564,,,,,,,,,,,,,,,,123,2022-05-09_20h00.51.810,FishGame,2022.1.1,59.96246353311211,
,21,나를 데려가줘,6,Green,B,0,0,ScrollDown,ScrollUp,Green.png,5,NonTarget,NonTarget,0,0,0,0,,,,,,,,,,,,,,,,,,,,,,,,,,,,,0,20,20,20,,,,,,,,,,,,,,,,,,,,,,,,,,,,,,,,,,,,,,,,,,,,,,,,,,,,,,,,,,,,,,,,,,,,,1,1.2990355000365525,727.8119471999817,None,ScrollDown,정답입니다,727.8119471999817,None,727.8119471999817,None,727.8119471999817,None,727.8119471999817,None,729.0010591999162,None,729.0010591999162,729.5134486999596,,,,,,,,,,,,,,,,123,2022-05-09_20h00.51.810,FishGame,2022.1.1,59.96246353311211,
,22,넌 순진해,3,Green,B,4.125,4.166666666666667,ScrollUp,ScrollDown,Green.png,5,Neutral,Neutral,0,0,0,0,,,,,,,,,,,,,,,,,,,,,,,,,,,,,0,21,21,21,,,,,,,,,,,,,,,,,,,,,,,,,,,,,,,,,,,,,,,,,,,,,,,,,,,,,,,,,,,,,,,,,,,,,1.8472222139437993,1.2715564999962226,730.1641674999846,None,ScrollUp,정답입니다,730.1641674999846,None,730.1641674999846,None,730.1641674999846,None,730.1641674999846,None,731.313180899946,None,731.313180899946,731.8131041999441,,,,,,,,,,,,,,,,123,2022-05-09_20h00.51.810,FishGame,2022.1.1,59.96246353311211,
,23,넌 신뢰할만해,1,Orange,A,6.625,5.533333333333333,ScrollDown,ScrollUp,Orange.png,5,Positive,Congruent,0,0,0,0,,,,,,,,,,,,,,,,,,,,,,,,,,,,,0,22,22,22,,,,,,,,,,,,,,,,,,,,,,,,,,,,,,,,,,,,,,,,,,,,,,,,,,,,,,,,,,,,,,,,,,,,,1,1.1897687000455335,732.4714642999461,None,ScrollDown,정답입니다,732.4714642999461,None,732.4714642999461,None,732.4714642999461,None,732.4714642999461,None,733.5301112999441,None,733.5301112999441,734.0301906999666,,,,,,,,,,,,,,,,123,2022-05-09_20h00.51.810,FishGame,2022.1.1,59.96246353311211,
,24,나를 보내줘,6,Orange,A,0,0,ScrollUp,ScrollDown,Orange.png,5,NonTarget,NonTarget,0,0,0,0,,,,,,,,,,,,,,,,,,,,,,,,,,,,,0,23,23,23,,,,,,,,,,,,,,,,,,,,,,,,,,,,,,,,,,,,,,,,,,,,,,,,,,,,,,,,,,,,,,,,,,,,,1.9861110945542653,1.358715399983339,734.6655663999263,None,ScrollUp,정답입니다,734.6655663999263,None,734.6655663999263,None,734.6655663999263,None,734.6655663999263,None,735.9133430999937,None,735.9133430999937,736.4134202999994,,,,,,,,,,,,,,,,123,2022-05-09_20h00.51.810,FishGame,2022.1.1,59.96246353311211,
,25,넌 인색해,5,Orange,A,2.625,2.233333333333333,ScrollDown,ScrollUp,Orange.png,5,Negative,Incongruent,0,0,0,0,,,,,,,,,,,,,,,,,,,,,,,,,,,,,0,24,24,24,,,,,,,,,,,,,,,,,,,,,,,,,,,,,,,,,,,,,,,,,,,,,,,,,,,,,,,,,,,,,,,,,,,,,1,1.2054440000792965,737.0630148999626,None,ScrollDown,정답입니다,737.0630148999626,None,737.0630148999626,None,737.0630148999626,None,737.0630148999626,None,738.1466365999077,None,738.1466365999077,738.6465688999742,,,,,,,,,,,,,,,,123,2022-05-09_20h00.51.810,FishGame,2022.1.1,59.96246353311211,
,26,넌 유쾌해,1,Green,B,5.833333333333333,5.766666666666667,ScrollUp,ScrollDown,Green.png,5,Positive,Incongruent,0,0,0,0,,,,,,,,,,,,,,,,,,,,,,,,,,,,,0,25,25,25,,,,,,,,,,,,,,,,,,,,,,,,,,,,,,,,,,,,,,,,,,,,,,,,,,,,,,,,,,,,,,,,,,,,,1.8487654278675716,1.5342250000685453,739.2835607999004,None,ScrollUp,정답입니다,739.2835607999004,None,739.2835607999004,None,739.2835607999004,None,739.2835607999004,None,740.7099042999325,None,740.7099042999325,741.2132229999406,,,,,,,,,,,,,,,,123,2022-05-09_20h00.51.810,FishGame,2022.1.1,59.96246353311211,
