name,TrialNum,Word,WordCategory,FishType,WordList,WordValence,WordReputation,CorrectResp,IncorrectResp,FishTypeFile,Round,WordType,Condition,LoopforOrange.thisRepN,LoopforOrange.thisTrialN,LoopforOrange.thisN,LoopforOrange.thisIndex,LoopForGreen.thisRepN,LoopForGreen.thisTrialN,LoopForGreen.thisN,LoopForGreen.thisIndex,GreenInstLoop.thisRepN,GreenInstLoop.thisTrialN,GreenInstLoop.thisN,GreenInstLoop.thisIndex,GreenPrac.thisRepN,GreenPrac.thisTrialN,GreenPrac.thisN,GreenPrac.thisIndex,trials_2.thisRepN,trials_2.thisTrialN,trials_2.thisN,trials_2.thisIndex,GreenRound1.thisRepN,GreenRound1.thisTrialN,GreenRound1.thisN,GreenRound1.thisIndex,GreenRound2.thisRepN,GreenRound2.thisTrialN,GreenRound2.thisN,GreenRound2.thisIndex,GreenRound3.thisRepN,GreenRound3.thisTrialN,GreenRound3.thisN,GreenRound3.thisIndex,GreenRound4.thisRepN,GreenRound4.thisTrialN,GreenRound4.thisN,GreenRound4.thisIndex,GreenRound5.thisRepN,GreenRound5.thisTrialN,GreenRound5.thisN,GreenRound5.thisIndex,text_2.started,text_2.stopped,text_3.started,text_3.stopped,key_resp.keys,key_resp.rt,key_resp.started,key_resp.stopped,PassI.started,PassI.stopped,PassInst.keys,PassInst.rt,PassInst.started,PassInst.stopped,mouse_2.x,mouse_2.y,mouse_2.leftButton,mouse_2.midButton,mouse_2.rightButton,mouse_2.started,mouse_2.stopped,image.started,image.stopped,text_5.started,text_5.stopped,text_6.started,text_6.stopped,text_7.started,text_7.stopped,text_8.started,text_8.stopped,slider_3.response,slider_3.rt,slider_3.started,slider_3.stopped,Response_3,Feedback_3,BackGround_3.started,BackGround_3.stopped,Fish_3.started,Fish_3.stopped,WordBox_3.started,WordBox_3.stopped,Words_3.started,Words_3.stopped,BackGround_Feedback_3.started,BackGround_Feedback_3.stopped,Feedbacks_3.started,Feedbacks_3.stopped,Continue_or_not_2.keys,Continue_or_not_2.rt,Continue_or_not_2.started,Continue_or_not_2.stopped,image_4.started,image_4.stopped,mouse_3.x,mouse_3.y,mouse_3.leftButton,mouse_3.midButton,mouse_3.rightButton,mouse_3.started,mouse_3.stopped,startmain.started,startmain.stopped,slider_4.response,slider_4.rt,slider_4.started,slider_4.stopped,Response_4,Feedback_4,BackGround_4.started,BackGround_4.stopped,Fish_4.started,Fish_4.stopped,WordBox_4.started,WordBox_4.stopped,Words_4.started,Words_4.stopped,BackGround_Feedback_4.started,BackGround_Feedback_4.stopped,Feedbacks_4.started,Feedbacks_4.stopped,text.started,text.stopped,break_interval.started,break_interval.stopped,mouse.x,mouse.y,mouse.leftButton,mouse.midButton,mouse.rightButton,mouse.started,mouse.stopped,stratnextround.started,stratnextround.stopped,endgame.started,endgame.stopped,participant,date,expName,psychopyVersion,frameRate,
,,,,,,,,,,,,,,,,,,,,,,,,,,,,,,,,,,,,,,,,,,,,,,,,,,,,,,20.868356900056824,None,20.868356900056824,None,space,1.413686400046572,21.329194099991582,None,,,,,,,,,,,,,,,,,,,,,,,,,,,,,,,,,,,,,,,,,,,,,,,,,,,,,,,,,,,,,,,,,,,,,,,,,,,,,,,,,,,,,,,,,,124,2022-05-10_09h33.29.599,FishGame,2022.1.1,60.02577508239855,
물고기과제_instruction(참가자용)GreenVersion.mp4,,,,,,,,,,,,,,,,,,0,0,0,0,0,0,0,0,,,,,,,,,,,,,,,,,,,,,,,,,,,,,,,,,,,,,89.5778694000328,None,n,4.647567500011064,89.5778694000328,None,,,,,,,,,,,,,,,,,,,,,,,,,,,,,,,,,,,,,,,,,,,,,,,,,,,,,,,,,,,,,,,,,,,,,,,,,,,,,,,,,,,,124,2022-05-10_09h33.29.599,FishGame,2022.1.1,60.02577508239855,
,1,넌 교활해,5,Orange,B,2.333333333333333,2.133333333333333,ScrollUp,ScrollDown,Orange.png,practice,,,,,,,0,0,0,0,,,,,0,0,0,0,0,0,0,0,,,,,,,,,,,,,,,,,,,,,,,,,,,,,,,,,,,0.087037034,-0.17685185,1,0,0,0.5135146599495783,None,94.24739430006593,None,100.6636756999651,102.16469050000887,102.19773070001975,103.14761520002503,103.19750320003368,104.14701039995998,104.14701039995998,None,1.8302469104528427,2.4195452999556437,105.34161440003663,None,ScrollUp,정답입니다,105.34161440003663,None,105.34161440003663,None,105.34161440003663,None,105.34161440003663,None,107.56391460006125,None,107.56391460006125,108.0647759999847,,,,,,,,,,,,,,,,,,,,,,,,,,,,,,,,,,,,,,,,,,,,,,,,,124,2022-05-10_09h33.29.599,FishGame,2022.1.1,60.02577508239855,
,2,넌 슬기로워,2,Green,A,6.166666666666667,4.1,ScrollDown,ScrollUp,Green.png,practice,,,,,,,0,0,0,0,,,,,0,0,0,0,0,1,1,1,,,,,,,,,,,,,,,,,,,,,,,,,,,,,,,,,,,,,,,,,,,,,,,,,,,,1,1.4817210000474006,108.70109460002277,None,ScrollDown,정답입니다,108.70109460002277,None,108.70109460002277,None,108.70109460002277,None,108.70109460002277,None,110.06885479995981,None,110.06885479995981,110.58096349996049,,,,,,,,,,,,,,,,,,,,,,,,,,,,,,,,,,,,,,,,,,,,,,,,,124,2022-05-10_09h33.29.599,FishGame,2022.1.1,60.02577508239855,
,3,나를 보내줘,6,Green,A,0,0,ScrollUp,ScrollDown,Green.png,practice,,,,,,,0,0,0,0,,,,,0,0,0,0,0,2,2,2,,,,,,,,,,,,,,,,,,,,,,,,,,,,,,,,,,,,,,,,,,,,,,,,,,,,1.7577160547176998,1.568234400008805,111.21174830000382,None,ScrollUp,정답입니다,111.21174830000382,None,111.21174830000382,None,111.21174830000382,None,111.21174830000382,None,112.67737819999456,None,112.67737819999456,113.18165559996851,,,,,,,,,,,,,,,,,,,,,,,,,,,,,,,,,,,,,,,,,,,,,,,,,124,2022-05-10_09h33.29.599,FishGame,2022.1.1,60.02577508239855,
,4,나를 데려가줘,6,Orange,B,0,0,ScrollDown,ScrollUp,Orange.png,practice,,,,,,,0,0,0,0,,,,,0,0,0,0,0,3,3,3,,,,,,,,,,,,,,,,,,,,,,,,,,,,,,,,,,,,,,,,,,,,,,,,,,,,1,2.2388378999894485,113.82563790003769,None,ScrollDown,정답입니다,113.82563790003769,None,113.82563790003769,None,113.82563790003769,None,113.82563790003769,None,115.94801150006242,None,115.94801150006242,116.4480105000548,,,,,,,,,,,,,,,,,,,,,,,,,,,,,,,,,,,,,,,,,,,,,,,,,124,2022-05-10_09h33.29.599,FishGame,2022.1.1,60.02577508239855,
,1,넌 교활해,5,Orange,B,2.333333333333333,2.133333333333333,ScrollUp,ScrollDown,Orange.png,practice,,,,,,,0,0,0,0,,,,,0,0,0,0,,,,,,,,,,,,,,,,,,,,,,,,,,,,,,,,,,,,,,,,,,,,,,,,,,,,,,,,,,,,,,,,,,,,,,,,,,y,6.035591099993326,116.94820240000263,None,116.94820240000263,None,,,,,,,,,,,,,,,,,,,,,,,,,,,,,,,,,,,,,,,,,,,124,2022-05-10_09h33.29.599,FishGame,2022.1.1,60.02577508239855,
,1,넌 교활해,5,Orange,B,2.333333333333333,2.133333333333333,ScrollUp,ScrollDown,Orange.png,practice,,,,,,,0,0,0,0,,,,,0,1,1,1,0,0,0,0,,,,,,,,,,,,,,,,,,,,,,,,,,,,,,,,,,,,,,,,,,,,,,,,,,,,1.9953703780968983,1.6246436999645084,123.16167179995682,None,ScrollUp,정답입니다,123.16167179995682,None,123.16167179995682,None,123.16167179995682,None,123.16167179995682,None,124.66906300000846,None,124.66906300000846,125.18142529996112,,,,,,,,,,,,,,,,,,,,,,,,,,,,,,,,,,,,,,,,,,,,,,,,,124,2022-05-10_09h33.29.599,FishGame,2022.1.1,60.02577508239855,
,2,넌 슬기로워,2,Green,A,6.166666666666667,4.1,ScrollDown,ScrollUp,Green.png,practice,,,,,,,0,0,0,0,,,,,0,1,1,1,0,1,1,1,,,,,,,,,,,,,,,,,,,,,,,,,,,,,,,,,,,,,,,,,,,,,,,,,,,,1.016975333293279,1.2062701999675483,125.81062800006475,None,ScrollDown,정답입니다,125.81062800006475,None,125.81062800006475,None,125.81062800006475,None,125.81062800006475,None,126.91433289996348,None,126.91433289996348,127.4148330000462,,,,,,,,,,,,,,,,,,,,,,,,,,,,,,,,,,,,,,,,,,,,,,,,,124,2022-05-10_09h33.29.599,FishGame,2022.1.1,60.02577508239855,
,3,나를 보내줘,6,Green,A,0,0,ScrollUp,ScrollDown,Green.png,practice,,,,,,,0,0,0,0,,,,,0,1,1,1,0,2,2,2,,,,,,,,,,,,,,,,,,,,,,,,,,,,,,,,,,,,,,,,,,,,,,,,,,,,1.8302469104528427,1.3031941999215633,128.03940899996087,None,ScrollUp,정답입니다,128.03940899996087,None,128.03940899996087,None,128.03940899996087,None,128.03940899996087,None,129.24454720003996,None,129.24454720003996,129.74869340006262,,,,,,,,,,,,,,,,,,,,,,,,,,,,,,,,,,,,,,,,,,,,,,,,,124,2022-05-10_09h33.29.599,FishGame,2022.1.1,60.02577508239855,
,4,나를 데려가줘,6,Orange,B,0,0,ScrollDown,ScrollUp,Orange.png,practice,,,,,,,0,0,0,0,,,,,0,1,1,1,0,3,3,3,,,,,,,,,,,,,,,,,,,,,,,,,,,,,,,,,,,,,,,,,,,,,,,,,,,,1,1.0917332998942584,130.38332130003255,None,ScrollDown,정답입니다,130.38332130003255,None,130.38332130003255,None,130.38332130003255,None,130.38332130003255,None,131.36497400002554,None,131.36497400002554,131.86528749996796,,,,,,,,,,,,,,,,,,,,,,,,,,,,,,,,,,,,,,,,,,,,,,,,,124,2022-05-10_09h33.29.599,FishGame,2022.1.1,60.02577508239855,
,2,넌 슬기로워,2,Green,A,6.166666666666667,4.1,ScrollDown,ScrollUp,Green.png,practice,,,,,,,0,0,0,0,,,,,0,1,1,1,,,,,,,,,,,,,,,,,,,,,,,,,,,,,,,,,,,,,,,,,,,,,,,,,,,,,,,,,,,,,,,,,,,,,,,,,,n,9.60221859999001,132.3651996999979,None,132.3651996999979,None,,,,,,,,,,,,,,,,,,,,,,,,,,,,,,,,,,,,,,,,,,,124,2022-05-10_09h33.29.599,FishGame,2022.1.1,60.02577508239855,
,1,넌 따뜻해,1,Orange,B,6.083333333333333,5.6,ScrollUp,ScrollDown,Orange.png,1,Positive,Incongruent,,,,,0,0,0,0,,,,,,,,,,,,,0,0,0,0,,,,,,,,,,,,,,,,,,,,,,,,,,,,,,,,,,,,,,,,145.49851239996497,146.99843749997672,147.03198460000567,147.9816268000286,148.0316887999652,148.9818566000322,148.9818566000322,None,,,,,,,,,,,,,,,,,,,,,,,,,0.032407407,-0.10277778,1,0,0,0.3139763599028811,None,141.9987267999677,None,1.9490740597248077,1.6084919000277296,150.165323000052,None,ScrollUp,정답입니다,150.165323000052,None,150.165323000052,None,150.165323000052,None,150.165323000052,None,151.5902178999968,None,151.5902178999968,152.0985401000362,,,,,,,,,,,,,,,,124,2022-05-10_09h33.29.599,FishGame,2022.1.1,60.02577508239855,
,2,넌 기품있어,2,Orange,B,5.791666666666668,4.5,ScrollUp,ScrollDown,Orange.png,1,Positive,Incongruent,,,,,0,0,0,0,,,,,,,,,,,,,0,1,1,1,,,,,,,,,,,,,,,,,,,,,,,,,,,,,,,,,,,,,,,,,,,,,,,,,,,,,,,,,,,,,,,,,,,,,,,,,,,,,,,,,1.6651234552264214,1.0652550000231713,152.75724609999452,None,ScrollUp,정답입니다,152.75724609999452,None,152.75724609999452,None,152.75724609999452,None,152.75724609999452,None,153.6874075999949,None,153.6874075999949,154.19909929996356,,,,,,,,,,,,,,,,124,2022-05-10_09h33.29.599,FishGame,2022.1.1,60.02577508239855,
,3,나를 보내줘,6,Green,A,0,0,ScrollUp,ScrollDown,Green.png,1,NonTarget,NonTarget,,,,,0,0,0,0,,,,,,,,,,,,,0,2,2,2,,,,,,,,,,,,,,,,,,,,,,,,,,,,,,,,,,,,,,,,,,,,,,,,,,,,,,,,,,,,,,,,,,,,,,,,,,,,,,,,,1.501543209849236,1.2524562000762671,154.85068759997375,None,NoResponse,무응답입니다,154.85068759997375,None,154.85068759997375,None,154.85068759997375,None,154.85068759997375,None,155.97595700004604,None,155.97595700004604,156.4818311999552,,,,,,,,,,,,,,,,124,2022-05-10_09h33.29.599,FishGame,2022.1.1,60.02577508239855,
,4,넌 수동적이야,4,Green,A,2.833333333333333,2.933333333333333,ScrollDown,ScrollUp,Green.png,1,Negative,Incongruent,,,,,0,0,0,0,,,,,,,,,,,,,0,3,3,3,,,,,,,,,,,,,,,,,,,,,,,,,,,,,,,,,,,,,,,,,,,,,,,,,,,,,,,,,,,,,,,,,,,,,,,,,,,,,,,,,1.0308642089366913,1.949006300070323,157.12961119995452,None,ScrollDown,정답입니다,157.12961119995452,None,157.12961119995452,None,157.12961119995452,None,157.12961119995452,None,158.9547806000337,None,158.9547806000337,159.4658421999775,,,,,,,,,,,,,,,,124,2022-05-10_09h33.29.599,FishGame,2022.1.1,60.02577508239855,
,5,넌 사심이 없어,3,Orange,B,4.916666666666666,4.333333333333333,ScrollUp,ScrollDown,Orange.png,1,Neutral,Neutral,,,,,0,0,0,0,,,,,,,,,,,,,0,4,4,4,,,,,,,,,,,,,,,,,,,,,,,,,,,,,,,,,,,,,,,,,,,,,,,,,,,,,,,,,,,,,,,,,,,,,,,,,,,,,,,,,1.8703703731298447,1.1430493999505416,160.11190979997627,None,ScrollUp,정답입니다,160.11190979997627,None,160.11190979997627,None,160.11190979997627,None,160.11190979997627,None,161.13186770002358,None,161.13186770002358,161.63183550001122,,,,,,,,,,,,,,,,124,2022-05-10_09h33.29.599,FishGame,2022.1.1,60.02577508239855,
,6,넌 헤퍼,5,Green,A,2.458333333333334,2.233333333333333,ScrollDown,ScrollUp,Green.png,1,Negative,Incongruent,,,,,0,0,0,0,,,,,,,,,,,,,0,5,5,5,,,,,,,,,,,,,,,,,,,,,,,,,,,,,,,,,,,,,,,,,,,,,,,,,,,,,,,,,,,,,,,,,,,,,,,,,,,,,,,,,1,1.2899335999973118,162.27484710002318,None,ScrollDown,정답입니다,162.27484710002318,None,162.27484710002318,None,162.27484710002318,None,162.27484710002318,None,163.4488559999736,None,163.4488559999736,163.9490749000106,,,,,,,,,,,,,,,,124,2022-05-10_09h33.29.599,FishGame,2022.1.1,60.02577508239855,
,7,넌 말쑥해,3,Green,A,4.833333333333334,4.333333333333333,ScrollDown,ScrollUp,Green.png,1,Neutral,Neutral,,,,,0,0,0,0,,,,,,,,,,,,,0,6,6,6,,,,,,,,,,,,,,,,,,,,,,,,,,,,,,,,,,,,,,,,,,,,,,,,,,,,,,,,,,,,,,,,,,,,,,,,,,,,,,,,,1.0617283880710602,1.1001061999704689,164.5858219000511,None,ScrollDown,정답입니다,164.5858219000511,None,164.5858219000511,None,164.5858219000511,None,164.5858219000511,None,165.56996720004827,None,165.56996720004827,166.0820200999733,,,,,,,,,,,,,,,,124,2022-05-10_09h33.29.599,FishGame,2022.1.1,60.02577508239855,
,8,넌 투덜거려,5,Orange,B,2.541666666666667,2.266666666666667,ScrollUp,ScrollDown,Orange.png,1,Negative,Congruent,,,,,0,0,0,0,,,,,,,,,,,,,0,7,7,7,,,,,,,,,,,,,,,,,,,,,,,,,,,,,,,,,,,,,,,,,,,,,,,,,,,,,,,,,,,,,,,,,,,,,,,,,,,,,,,,,1.8827160596847534,1.1412113000405952,166.73983380000573,None,ScrollUp,정답입니다,166.73983380000573,None,166.73983380000573,None,166.73983380000573,None,166.73983380000573,None,167.74860239995178,None,167.74860239995178,168.24951920006424,,,,,,,,,,,,,,,,124,2022-05-10_09h33.29.599,FishGame,2022.1.1,60.02577508239855,
,9,넌 적극적이야,1,Green,A,5.708333333333333,5.533333333333333,ScrollDown,ScrollUp,Green.png,1,Positive,Congruent,,,,,0,0,0,0,,,,,,,,,,,,,0,8,8,8,,,,,,,,,,,,,,,,,,,,,,,,,,,,,,,,,,,,,,,,,,,,,,,,,,,,,,,,,,,,,,,,,,,,,,,,,,,,,,,,,1,1.1141154000069946,168.89377279998735,None,ScrollDown,정답입니다,168.89377279998735,None,168.89377279998735,None,168.89377279998735,None,168.89377279998735,None,169.88681649998762,None,169.88681649998762,170.3990591999609,,,,,,,,,,,,,,,,124,2022-05-10_09h33.29.599,FishGame,2022.1.1,60.02577508239855,
,10,넌 재미없어,4,Orange,B,2.625,2.966666666666667,ScrollUp,ScrollDown,Orange.png,1,Negative,Congruent,,,,,0,0,0,0,,,,,,,,,,,,,0,9,9,9,,,,,,,,,,,,,,,,,,,,,,,,,,,,,,,,,,,,,,,,,,,,,,,,,,,,,,,,,,,,,,,,,,,,,,,,,,,,,,,,,1.8873456766208012,1.1450561999808997,171.04976049996912,None,ScrollUp,정답입니다,171.04976049996912,None,171.04976049996912,None,171.04976049996912,None,171.04976049996912,None,172.06992479995824,None,172.06992479995824,172.58272169996053,,,,,,,,,,,,,,,,124,2022-05-10_09h33.29.599,FishGame,2022.1.1,60.02577508239855,
,11,넌 명석해,2,Green,A,5.875,4.033333333333333,ScrollDown,ScrollUp,Green.png,1,Positive,Congruent,,,,,0,0,0,0,,,,,,,,,,,,,0,10,10,10,,,,,,,,,,,,,,,,,,,,,,,,,,,,,,,,,,,,,,,,,,,,,,,,,,,,,,,,,,,,,,,,,,,,,,,,,,,,,,,,,1.0586419602235158,1.0511232999851927,173.21982230001595,None,ScrollDown,정답입니다,173.21982230001595,None,173.21982230001595,None,173.21982230001595,None,173.21982230001595,None,174.16260469995905,None,174.16260469995905,174.66569100006018,,,,,,,,,,,,,,,,124,2022-05-10_09h33.29.599,FishGame,2022.1.1,60.02577508239855,
,12,나를 데려가줘,6,Orange,B,0,0,ScrollDown,ScrollUp,Orange.png,1,NonTarget,NonTarget,,,,,0,0,0,0,,,,,,,,,,,,,0,11,11,11,,,,,,,,,,,,,,,,,,,,,,,,,,,,,,,,,,,,,,,,,,,,,,,,,,,,,,,,,,,,,,,,,,,,,,,,,,,,,,,,,1,1.232102199923247,175.31082440004684,None,ScrollDown,정답입니다,175.31082440004684,None,175.31082440004684,None,175.31082440004684,None,175.31082440004684,None,176.4203312000027,None,176.4203312000027,176.9327272999799,,,,,,,,,,,,,,,,124,2022-05-10_09h33.29.599,FishGame,2022.1.1,60.02577508239855,
,13,넌 소심해,4,Green,A,3,3.1,ScrollDown,ScrollUp,Green.png,1,Negative,Incongruent,,,,,0,0,0,0,,,,,,,,,,,,,0,12,12,12,,,,,,,,,,,,,,,,,,,,,,,,,,,,,,,,,,,,,,,,,,,,,,,,,,,,,,,,,,,,,,,,,,,,,,,,,,,,,,,,,1.1250000099341075,1.1189864000771195,177.58269159996416,None,ScrollDown,정답입니다,177.58269159996416,None,177.58269159996416,None,177.58269159996416,None,177.58269159996416,None,178.57930099999066,None,178.57930099999066,179.08264419995248,,,,,,,,,,,,,,,,124,2022-05-10_09h33.29.599,FishGame,2022.1.1,60.02577508239855,
,14,넌 합리적이야,2,Green,A,5.583333333333333,4.733333333333333,ScrollDown,ScrollUp,Green.png,1,Positive,Congruent,,,,,0,0,0,0,,,,,,,,,,,,,0,13,13,13,,,,,,,,,,,,,,,,,,,,,,,,,,,,,,,,,,,,,,,,,,,,,,,,,,,,,,,,,,,,,,,,,,,,,,,,,,,,,,,,,1.0447530845801036,1.0215824999613687,179.73576810001396,None,ScrollDown,정답입니다,179.73576810001396,None,179.73576810001396,None,179.73576810001396,None,179.73576810001396,None,180.632252600044,None,180.632252600044,181.132821300067,,,,,,,,,,,,,,,,124,2022-05-10_09h33.29.599,FishGame,2022.1.1,60.02577508239855,
,15,넌 무자비해,5,Orange,B,2.333333333333333,2.1,ScrollUp,ScrollDown,Orange.png,1,Negative,Congruent,,,,,0,0,0,0,,,,,,,,,,,,,0,14,14,14,,,,,,,,,,,,,,,,,,,,,,,,,,,,,,,,,,,,,,,,,,,,,,,,,,,,,,,,,,,,,,,,,,,,,,,,,,,,,,,,,1.8364197413126628,1.0342205999186262,181.7801732000662,None,ScrollUp,정답입니다,181.7801732000662,None,181.7801732000662,None,181.7801732000662,None,181.7801732000662,None,182.68694599997252,None,182.68694599997252,183.19964160001837,,,,,,,,,,,,,,,,124,2022-05-10_09h33.29.599,FishGame,2022.1.1,60.02577508239855,
,16,나를 보내줘,6,Green,A,0,0,ScrollUp,ScrollDown,Green.png,1,NonTarget,NonTarget,,,,,0,0,0,0,,,,,,,,,,,,,0,15,15,15,,,,,,,,,,,,,,,,,,,,,,,,,,,,,,,,,,,,,,,,,,,,,,,,,,,,,,,,,,,,,,,,,,,,,,,,,,,,,,,,,1.9336419701576233,1.1534120999276638,183.8346995000029,None,ScrollUp,정답입니다,183.8346995000029,None,183.8346995000029,None,183.8346995000029,None,183.8346995000029,None,184.8794156999793,None,184.8794156999793,185.38255980005488,,,,,,,,,,,,,,,,124,2022-05-10_09h33.29.599,FishGame,2022.1.1,60.02577508239855,
,17,넌 현실적이야,3,Orange,B,4.608695652173913,4.766666666666667,ScrollUp,ScrollDown,Orange.png,1,Neutral,Neutral,,,,,0,0,0,0,,,,,,,,,,,,,0,16,16,16,,,,,,,,,,,,,,,,,,,,,,,,,,,,,,,,,,,,,,,,,,,,,,,,,,,,,,,,,,,,,,,,,,,,,,,,,,,,,,,,,1.9799382885297139,1.2398006999865174,186.03803860000335,None,ScrollUp,정답입니다,186.03803860000335,None,186.03803860000335,None,186.03803860000335,None,186.03803860000335,None,187.14940810005646,None,187.14940810005646,187.64967850001995,,,,,,,,,,,,,,,,124,2022-05-10_09h33.29.599,FishGame,2022.1.1,60.02577508239855,
,18,넌 의리있어,1,Orange,B,5.833333333333334,5.633333333333334,ScrollUp,ScrollDown,Orange.png,1,Positive,Incongruent,,,,,0,0,0,0,,,,,,,,,,,,,0,17,17,17,,,,,,,,,,,,,,,,,,,,,,,,,,,,,,,,,,,,,,,,,,,,,,,,,,,,,,,,,,,,,,,,,,,,,,,,,,,,,,,,,1.858024686574936,1.040713099995628,188.29277379997075,None,ScrollUp,정답입니다,188.29277379997075,None,188.29277379997075,None,188.29277379997075,None,188.29277379997075,None,189.21585789998062,None,189.21585789998062,189.71647420001682,,,,,,,,,,,,,,,,124,2022-05-10_09h33.29.599,FishGame,2022.1.1,60.02577508239855,
,19,넌 신경과민이야,5,Green,A,2.541666666666667,2.166666666666667,ScrollDown,ScrollUp,Green.png,1,Negative,Incongruent,,,,,0,0,0,0,,,,,,,,,,,,,0,18,18,18,,,,,,,,,,,,,,,,,,,,,,,,,,,,,,,,,,,,,,,,,,,,,,,,,,,,,,,,,,,,,,,,,,,,,,,,,,,,,,,,,1.1250000099341075,1.0707062999717891,190.36759669997264,None,ScrollDown,정답입니다,190.36759669997264,None,190.36759669997264,None,190.36759669997264,None,190.36759669997264,None,191.31586219999008,None,191.31586219999008,191.81604619999416,,,,,,,,,,,,,,,,124,2022-05-10_09h33.29.599,FishGame,2022.1.1,60.02577508239855,
,20,넌 편안해,1,Green,A,5.916666666666666,5.866666666666666,ScrollDown,ScrollUp,Green.png,1,Positive,Congruent,,,,,0,0,0,0,,,,,,,,,,,,,0,19,19,19,,,,,,,,,,,,,,,,,,,,,,,,,,,,,,,,,,,,,,,,,,,,,,,,,,,,,,,,,,,,,,,,,,,,,,,,,,,,,,,,,1,1.1356608000351116,192.4626900999574,None,ScrollDown,정답입니다,192.4626900999574,None,192.4626900999574,None,192.4626900999574,None,192.4626900999574,None,193.47951259999536,None,193.47951259999536,193.98301399999764,,,,,,,,,,,,,,,,124,2022-05-10_09h33.29.599,FishGame,2022.1.1,60.02577508239855,
,21,넌 품위있어,2,Orange,B,5.291666666666666,4.466666666666667,ScrollUp,ScrollDown,Orange.png,1,Positive,Incongruent,,,,,0,0,0,0,,,,,,,,,,,,,0,20,20,20,,,,,,,,,,,,,,,,,,,,,,,,,,,,,,,,,,,,,,,,,,,,,,,,,,,,,,,,,,,,,,,,,,,,,,,,,,,,,,,,,1.9259259502092998,1.1017194000305608,194.62280120002106,None,ScrollUp,정답입니다,194.62280120002106,None,194.62280120002106,None,194.62280120002106,None,194.62280120002106,None,195.61308040004224,None,195.61308040004224,196.1156112999888,,,,,,,,,,,,,,,,124,2022-05-10_09h33.29.599,FishGame,2022.1.1,60.02577508239855,
,22,넌 빈틈없어,3,Green,A,4.833333333333333,3.966666666666667,ScrollDown,ScrollUp,Green.png,1,Neutral,Neutral,,,,,0,0,0,0,,,,,,,,,,,,,0,21,21,21,,,,,,,,,,,,,,,,,,,,,,,,,,,,,,,,,,,,,,,,,,,,,,,,,,,,,,,,,,,,,,,,,,,,,,,,,,,,,,,,,1.1574074029922485,0.9451173000270501,196.75959270005114,None,ScrollDown,정답입니다,196.75959270005114,None,196.75959270005114,None,196.75959270005114,None,196.75959270005114,None,197.58752559998538,None,197.58752559998538,198.1000645000022,,,,,,,,,,,,,,,,124,2022-05-10_09h33.29.599,FishGame,2022.1.1,60.02577508239855,
,23,넌 상상력없어,4,Orange,B,2.833333333333333,3.133333333333333,ScrollUp,ScrollDown,Orange.png,1,Negative,Congruent,,,,,0,0,0,0,,,,,,,,,,,,,0,22,22,22,,,,,,,,,,,,,,,,,,,,,,,,,,,,,,,,,,,,,,,,,,,,,,,,,,,,,,,,,,,,,,,,,,,,,,,,,,,,,,,,,1.879629631837209,1.0412611999781802,198.7493933000369,None,ScrollUp,정답입니다,198.7493933000369,None,198.7493933000369,None,198.7493933000369,None,198.7493933000369,None,199.66573889995925,None,199.66573889995925,200.16700430004857,,,,,,,,,,,,,,,,124,2022-05-10_09h33.29.599,FishGame,2022.1.1,60.02577508239855,
,24,넌 지혜로워,2,Orange,B,6.333333333333334,4.633333333333334,ScrollUp,ScrollDown,Orange.png,1,Positive,Incongruent,,,,,0,0,0,0,,,,,,,,,,,,,0,23,23,23,,,,,,,,,,,,,,,,,,,,,,,,,,,,,,,,,,,,,,,,,,,,,,,,,,,,,,,,,,,,,,,,,,,,,,,,,,,,,,,,,2,0.9408150999806821,200.82023579999804,None,ScrollUp,정답입니다,200.82023579999804,None,200.82023579999804,None,200.82023579999804,None,200.82023579999804,None,201.63255980005488,None,201.63255980005488,202.13327920006122,,,,,,,,,,,,,,,,124,2022-05-10_09h33.29.599,FishGame,2022.1.1,60.02577508239855,
,25,넌 시끄러워,4,Green,A,2.833333333333333,3.033333333333333,ScrollDown,ScrollUp,Green.png,1,Negative,Incongruent,,,,,0,0,0,0,,,,,,,,,,,,,0,24,24,24,,,,,,,,,,,,,,,,,,,,,,,,,,,,,,,,,,,,,,,,,,,,,,,,,,,,,,,,,,,,,,,,,,,,,,,,,,,,,,,,,1,1.0396820000605658,202.7774925000267,None,ScrollDown,정답입니다,202.7774925000267,None,202.7774925000267,None,202.7774925000267,None,202.7774925000267,None,203.69960699998774,None,203.69960699998774,204.19955370004755,,,,,,,,,,,,,,,,124,2022-05-10_09h33.29.599,FishGame,2022.1.1,60.02577508239855,
,26,넌 만사태평이야,3,Orange,B,4,4.333333333333333,ScrollUp,ScrollDown,Orange.png,1,Neutral,Neutral,,,,,0,0,0,0,,,,,,,,,,,,,0,25,25,25,,,,,,,,,,,,,,,,,,,,,,,,,,,,,,,,,,,,,,,,,,,,,,,,,,,,,,,,,,,,,,,,,,,,,,,,,,,,,,,,,1.9953703780968983,0.937396900029853,204.84644270001445,None,ScrollUp,정답입니다,204.84644270001445,None,204.84644270001445,None,204.84644270001445,None,204.84644270001445,None,205.66327320004348,None,205.66327320004348,206.1658244000282,,,,,,,,,,,,,,,,124,2022-05-10_09h33.29.599,FishGame,2022.1.1,60.02577508239855,
,27,넌 붙임성있어,1,Green,A,5.708333333333333,5.633333333333334,ScrollDown,ScrollUp,Green.png,1,Positive,Congruent,,,,,0,0,0,0,,,,,,,,,,,,,0,26,26,26,,,,,,,,,,,,,,,,,,,,,,,,,,,,,,,,,,,,,,,,,,,,,,,,,,,,,,,,,,,,,,,,,,,,,,,,,,,,,,,,,1.1574074029922485,0.8827213000040501,206.81282770005055,None,ScrollDown,정답입니다,206.81282770005055,None,206.81282770005055,None,206.81282770005055,None,206.81282770005055,None,207.57105210004374,None,207.57105210004374,208.08353199996054,,,,,,,,,,,,,,,,124,2022-05-10_09h33.29.599,FishGame,2022.1.1,60.02577508239855,
,28,넌 영리해,2,Green,A,6,4.033333333333333,ScrollDown,ScrollUp,Green.png,1,Positive,Congruent,,,,,0,0,0,0,,,,,,,,,,,,,0,27,27,27,,,,,,,,,,,,,,,,,,,,,,,,,,,,,,,,,,,,,,,,,,,,,,,,,,,,,,,,,,,,,,,,,,,,,,,,,,,,,,,,,1,0.8591257999651134,208.7248355000047,None,ScrollDown,정답입니다,208.7248355000047,None,208.7248355000047,None,208.7248355000047,None,208.7248355000047,None,209.46621750004124,None,209.46621750004124,209.96692400006577,,,,,,,,,,,,,,,,124,2022-05-10_09h33.29.599,FishGame,2022.1.1,60.02577508239855,
,29,넌 열심이야,1,Orange,B,6.041666666666667,5.833333333333333,ScrollUp,ScrollDown,Orange.png,1,Positive,Incongruent,,,,,0,0,0,0,,,,,,,,,,,,,0,28,28,28,,,,,,,,,,,,,,,,,,,,,,,,,,,,,,,,,,,,,,,,,,,,,,,,,,,,,,,,,,,,,,,,,,,,,,,,,,,,,,,,,1.7345678955316544,1.0673059000400826,210.6165600999957,None,ScrollUp,정답입니다,210.6165600999957,None,210.6165600999957,None,210.6165600999957,None,210.6165600999957,None,211.55485770001542,None,211.55485770001542,212.06671469996218,,,,,,,,,,,,,,,,124,2022-05-10_09h33.29.599,FishGame,2022.1.1,60.02577508239855,
,30,넌 인기없어,4,Orange,B,3,3.3,ScrollUp,ScrollDown,Orange.png,1,Negative,Congruent,,,,,0,0,0,0,,,,,,,,,,,,,0,29,29,29,,,,,,,,,,,,,,,,,,,,,,,,,,,,,,,,,,,,,,,,,,,,,,,,,,,,,,,,,,,,,,,,,,,,,,,,,,,,,,,,,1.8132716069618862,0.9013916000258178,212.71360889996868,None,ScrollUp,정답입니다,212.71360889996868,None,212.71360889996868,None,212.71360889996868,None,212.71360889996868,None,213.4963543000631,None,213.4963543000631,214.00001129996963,,,,,,,,,,,,,,,,124,2022-05-10_09h33.29.599,FishGame,2022.1.1,60.02577508239855,
,31,넌 익살스러워,3,Green,A,4.708333333333334,4.833333333333333,ScrollDown,ScrollUp,Green.png,1,Neutral,Neutral,,,,,0,0,0,0,,,,,,,,,,,,,0,30,30,30,,,,,,,,,,,,,,,,,,,,,,,,,,,,,,,,,,,,,,,,,,,,,,,,,,,,,,,,,,,,,,,,,,,,,,,,,,,,,,,,,1.2885802388191223,1.5109069999307394,214.6415524999611,None,ScrollDown,정답입니다,214.6415524999611,None,214.6415524999611,None,214.6415524999611,None,214.6415524999611,None,216.0329616999952,None,216.0329616999952,216.53380009997636,,,,,,,,,,,,,,,,124,2022-05-10_09h33.29.599,FishGame,2022.1.1,60.02577508239855,
,32,넌 이기적이야,5,Orange,B,2.291666666666667,2.333333333333333,ScrollUp,ScrollDown,Orange.png,1,Negative,Congruent,,,,,0,0,0,0,,,,,,,,,,,,,0,31,31,31,,,,,,,,,,,,,,,,,,,,,,,,,,,,,,,,,,,,,,,,,,,,,,,,,,,,,,,,,,,,,,,,,,,,,,,,,,,,,,,,,1.584876542290052,0.9486505999229848,217.1762224000413,None,ScrollUp,정답입니다,217.1762224000413,None,217.1762224000413,None,217.1762224000413,None,217.1762224000413,None,218.0044982000254,None,218.0044982000254,218.51725569996051,,,,,,,,,,,,,,,,124,2022-05-10_09h33.29.599,FishGame,2022.1.1,60.02577508239855,
,33,나를 데려가줘,6,Orange,B,0,0,ScrollDown,ScrollUp,Orange.png,1,NonTarget,NonTarget,,,,,0,0,0,0,,,,,,,,,,,,,0,32,32,32,,,,,,,,,,,,,,,,,,,,,,,,,,,,,,,,,,,,,,,,,,,,,,,,,,,,,,,,,,,,,,,,,,,,,,,,,,,,,,,,,1.1666666616996129,1.0849266999866813,219.15444780001417,None,ScrollDown,정답입니다,219.15444780001417,None,219.15444780001417,None,219.15444780001417,None,219.15444780001417,None,220.12267139996402,None,220.12267139996402,220.63350700004958,,,,,,,,,,,,,,,,124,2022-05-10_09h33.29.599,FishGame,2022.1.1,60.02577508239855,
,34,넌 기회주의자야,5,Green,A,2.875,2.133333333333333,ScrollDown,ScrollUp,Green.png,1,Negative,Incongruent,,,,,0,0,0,0,,,,,,,,,,,,,0,33,33,33,,,,,,,,,,,,,,,,,,,,,,,,,,,,,,,,,,,,,,,,,,,,,,,,,,,,,,,,,,,,,,,,,,,,,,,,,,,,,,,,,1.0246913532416027,1.039292800007388,221.2858758000657,None,ScrollDown,정답입니다,221.2858758000657,None,221.2858758000657,None,221.2858758000657,None,221.2858758000657,None,222.19986559997778,None,222.19986559997778,222.7000336999772,,,,,,,,,,,,,,,,124,2022-05-10_09h33.29.599,FishGame,2022.1.1,60.02577508239855,
,1,넌 미성숙해,4,Green,A,3,3.2,ScrollDown,ScrollUp,Green.png,2,Negative,Incongruent,,,,,0,0,0,0,,,,,,,,,,,,,,,,,0,0,0,0,,,,,,,,,,,,,,,,,,,,,,,,,,,,,,,,,,,,262.25072300003376,263.75134730001446,263.78438379999716,264.73488999996334,264.7849284999538,265.73446930001955,265.73446930001955,None,,,,,,,,,,,,,,,,,,,,,,,,,,,,,,,,,,1.1141975373029709,1.1983088999986649,266.8950774000259,None,ScrollDown,정답입니다,266.8950774000259,None,266.8950774000259,None,266.8950774000259,None,266.8950774000259,None,267.9244254999794,None,267.9244254999794,268.4347170999972,223.2004679000238,None,223.2004679000238,None,0.14814815,-0.07962963,1,0,0,0.016112460056319833,None,253.20062320004217,None,,,124,2022-05-10_09h33.29.599,FishGame,2022.1.1,60.02577508239855,
,2,넌 반사회적이야,5,Orange,B,2.416666666666667,2.033333333333333,ScrollUp,ScrollDown,Orange.png,2,Negative,Congruent,,,,,0,0,0,0,,,,,,,,,,,,,,,,,0,1,1,1,,,,,,,,,,,,,,,,,,,,,,,,,,,,,,,,,,,,,,,,,,,,,,,,,,,,,,,,,,,,,,,,,,,,,,,,,,,,,1.805555562178294,1.0171438000397757,269.0746467000572,None,ScrollUp,정답입니다,269.0746467000572,None,269.0746467000572,None,269.0746467000572,None,269.0746467000572,None,269.97220650000963,None,269.97220650000963,270.4845219999552,,,,,,,,,,,,,,,,124,2022-05-10_09h33.29.599,FishGame,2022.1.1,60.02577508239855,
,3,넌 유능해,2,Green,A,6.208333333333333,4.433333333333334,ScrollDown,ScrollUp,Green.png,2,Positive,Congruent,,,,,0,0,0,0,,,,,,,,,,,,,,,,,0,2,2,2,,,,,,,,,,,,,,,,,,,,,,,,,,,,,,,,,,,,,,,,,,,,,,,,,,,,,,,,,,,,,,,,,,,,,,,,,,,,,1,1.1059762999648228,271.12903159996495,None,ScrollDown,정답입니다,271.12903159996495,None,271.12903159996495,None,271.12903159996495,None,271.12903159996495,None,272.1177786999615,None,272.1177786999615,272.61794100003317,,,,,,,,,,,,,,,,124,2022-05-10_09h33.29.599,FishGame,2022.1.1,60.02577508239855,
,4,넌 능숙해,2,Orange,B,5.666666666666667,4.733333333333333,ScrollUp,ScrollDown,Orange.png,2,Positive,Incongruent,,,,,0,0,0,0,,,,,,,,,,,,,,,,,0,3,3,3,,,,,,,,,,,,,,,,,,,,,,,,,,,,,,,,,,,,,,,,,,,,,,,,,,,,,,,,,,,,,,,,,,,,,,,,,,,,,1.7608024577299755,1.1638187000062317,273.25925060000736,None,ScrollUp,정답입니다,273.25925060000736,None,273.25925060000736,None,273.25925060000736,None,273.25925060000736,None,274.3057504000608,None,274.3057504000608,274.8181918000337,,,,,,,,,,,,,,,,124,2022-05-10_09h33.29.599,FishGame,2022.1.1,60.02577508239855,
,5,넌 진부해,4,Orange,B,2.458333333333333,3.166666666666667,ScrollUp,ScrollDown,Orange.png,2,Negative,Congruent,,,,,0,0,0,0,,,,,,,,,,,,,,,,,0,4,4,4,,,,,,,,,,,,,,,,,,,,,,,,,,,,,,,,,,,,,,,,,,,,,,,,,,,,,,,,,,,,,,,,,,,,,,,,,,,,,1.8981481492519379,1.0560886999592185,275.46156500000507,None,ScrollUp,정답입니다,275.46156500000507,None,275.46156500000507,None,275.46156500000507,None,275.46156500000507,None,276.4019774000626,None,276.4019774000626,276.90140239999164,,,,,,,,,,,,,,,,124,2022-05-10_09h33.29.599,FishGame,2022.1.1,60.02577508239855,
,6,나를 보내줘,6,Green,A,0,0,ScrollUp,ScrollDown,Green.png,2,NonTarget,NonTarget,,,,,0,0,0,0,,,,,,,,,,,,,,,,,0,5,5,5,,,,,,,,,,,,,,,,,,,,,,,,,,,,,,,,,,,,,,,,,,,,,,,,,,,,,,,,,,,,,,,,,,,,,,,,,,,,,1.723765422900518,1.1530678999843076,277.53223690006416,None,ScrollUp,정답입니다,277.53223690006416,None,277.53223690006416,None,277.53223690006416,None,277.53223690006416,None,278.5751434999984,None,278.5751434999984,279.08459480002057,,,,,,,,,,,,,,,,124,2022-05-10_09h33.29.599,FishGame,2022.1.1,60.02577508239855,
,7,넌 엄격해,3,Green,A,4.166666666666666,4.1,ScrollDown,ScrollUp,Green.png,2,Neutral,Neutral,,,,,0,0,0,0,,,,,,,,,,,,,,,,,0,6,6,6,,,,,,,,,,,,,,,,,,,,,,,,,,,,,,,,,,,,,,,,,,,,,,,,,,,,,,,,,,,,,,,,,,,,,,,,,,,,,1,1.082331100013107,279.72752590000164,None,ScrollDown,정답입니다,279.72752590000164,None,279.72752590000164,None,279.72752590000164,None,279.72752590000164,None,280.68925890000537,None,280.68925890000537,281.20150860003196,,,,,,,,,,,,,,,,124,2022-05-10_09h33.29.599,FishGame,2022.1.1,60.02577508239855,
,8,나를 보내줘,6,Green,A,0,0,ScrollUp,ScrollDown,Green.png,2,NonTarget,NonTarget,,,,,0,0,0,0,,,,,,,,,,,,,,,,,0,7,7,7,,,,,,,,,,,,,,,,,,,,,,,,,,,,,,,,,,,,,,,,,,,,,,,,,,,,,,,,,,,,,,,,,,,,,,,,,,,,,2,0.9981836000224575,281.8403350999579,None,ScrollUp,정답입니다,281.8403350999579,None,281.8403350999579,None,281.8403350999579,None,281.8403350999579,None,282.73096229997464,None,282.73096229997464,283.2348381000338,,,,,,,,,,,,,,,,124,2022-05-10_09h33.29.599,FishGame,2022.1.1,60.02577508239855,
,9,넌 대담해,3,Orange,B,4.875,4.866666666666666,ScrollUp,ScrollDown,Orange.png,2,Neutral,Neutral,,,,,0,0,0,0,,,,,,,,,,,,,,,,,0,8,8,8,,,,,,,,,,,,,,,,,,,,,,,,,,,,,,,,,,,,,,,,,,,,,,,,,,,,,,,,,,,,,,,,,,,,,,,,,,,,,1.7947530895471573,1.2551152999512851,283.8780084999744,None,ScrollUp,정답입니다,283.8780084999744,None,283.8780084999744,None,283.8780084999744,None,283.8780084999744,None,285.0179583999561,None,285.0179583999561,285.518559499993,,,,,,,,,,,,,,,,124,2022-05-10_09h33.29.599,FishGame,2022.1.1,60.02577508239855,
,10,넌 꾸준해,1,Green,A,5.916666666666668,5.8,ScrollDown,ScrollUp,Green.png,2,Positive,Congruent,,,,,0,0,0,0,,,,,,,,,,,,,,,,,0,9,9,9,,,,,,,,,,,,,,,,,,,,,,,,,,,,,,,,,,,,,,,,,,,,,,,,,,,,,,,,,,,,,,,,,,,,,,,,,,,,,1,1.0558114999439567,286.1591126000276,None,ScrollDown,정답입니다,286.1591126000276,None,286.1591126000276,None,286.1591126000276,None,286.1591126000276,None,287.1012014000444,None,287.1012014000444,287.6012759000296,,,,,,,,,,,,,,,,124,2022-05-10_09h33.29.599,FishGame,2022.1.1,60.02577508239855,
,11,나를 데려가줘,6,Orange,B,0,0,ScrollDown,ScrollUp,Orange.png,2,NonTarget,NonTarget,,,,,0,0,0,0,,,,,,,,,,,,,,,,,0,10,10,10,,,,,,,,,,,,,,,,,,,,,,,,,,,,,,,,,,,,,,,,,,,,,,,,,,,,,,,,,,,,,,,,,,,,,,,,,,,,,1,1.3417576000792906,288.2455201999983,None,ScrollDown,정답입니다,288.2455201999983,None,288.2455201999983,None,288.2455201999983,None,288.2455201999983,None,289.46799030003604,None,289.46799030003604,289.96853019995615,,,,,,,,,,,,,,,,124,2022-05-10_09h33.29.599,FishGame,2022.1.1,60.02577508239855,
,12,넌 독선적이야,5,Green,A,2.458333333333333,1.933333333333333,ScrollDown,ScrollUp,Green.png,2,Negative,Incongruent,,,,,0,0,0,0,,,,,,,,,,,,,,,,,0,11,11,11,,,,,,,,,,,,,,,,,,,,,,,,,,,,,,,,,,,,,,,,,,,,,,,,,,,,,,,,,,,,,,,,,,,,,,,,,,,,,1,1.218030899995938,290.6143599000061,None,ScrollDown,정답입니다,290.6143599000061,None,290.6143599000061,None,290.6143599000061,None,290.6143599000061,None,291.71499390003737,None,291.71499390003737,292.21865489997435,,,,,,,,,,,,,,,,124,2022-05-10_09h33.29.599,FishGame,2022.1.1,60.02577508239855,
,13,나를 보내줘,6,Green,A,0,0,ScrollUp,ScrollDown,Green.png,2,NonTarget,NonTarget,,,,,0,0,0,0,,,,,,,,,,,,,,,,,0,12,12,12,,,,,,,,,,,,,,,,,,,,,,,,,,,,,,,,,,,,,,,,,,,,,,,,,,,,,,,,,,,,,,,,,,,,,,,,,,,,,2,1.1060343000572175,292.85336980002467,None,ScrollUp,정답입니다,292.85336980002467,None,292.85336980002467,None,292.85336980002467,None,292.85336980002467,None,293.85147490003146,None,293.85147490003146,294.3514725000132,,,,,,,,,,,,,,,,124,2022-05-10_09h33.29.599,FishGame,2022.1.1,60.02577508239855,
,14,넌 책임감있어,1,Orange,B,6.347826086956522,6,ScrollUp,ScrollDown,Orange.png,2,Positive,Incongruent,,,,,0,0,0,0,,,,,,,,,,,,,,,,,0,13,13,13,,,,,,,,,,,,,,,,,,,,,,,,,,,,,,,,,,,,,,,,,,,,,,,,,,,,,,,,,,,,,,,,,,,,,,,,,,,,,2,1.1551893999567255,295.0035187000176,None,ScrollUp,정답입니다,295.0035187000176,None,295.0035187000176,None,295.0035187000176,None,295.0035187000176,None,296.03492790006567,None,296.03492790006567,296.53531369997654,,,,,,,,,,,,,,,,124,2022-05-10_09h33.29.599,FishGame,2022.1.1,60.02577508239855,
,15,넌 문학적이야,3,Green,A,4.708333333333334,4.333333333333333,ScrollDown,ScrollUp,Green.png,2,Neutral,Neutral,,,,,0,0,0,0,,,,,,,,,,,,,,,,,0,14,14,14,,,,,,,,,,,,,,,,,,,,,,,,,,,,,,,,,,,,,,,,,,,,,,,,,,,,,,,,,,,,,,,,,,,,,,,,,,,,,1.0339506367842357,0.9916153999511153,297.1877552999649,None,ScrollDown,정답입니다,297.1877552999649,None,297.1877552999649,None,297.1877552999649,None,297.1877552999649,None,298.05158159998246,None,298.05158159998246,298.55166160000954,,,,,,,,,,,,,,,,124,2022-05-10_09h33.29.599,FishGame,2022.1.1,60.02577508239855,
,16,넌 재미있어,1,Orange,B,5.875,5.7,ScrollUp,ScrollDown,Orange.png,2,Positive,Incongruent,,,,,0,0,0,0,,,,,,,,,,,,,,,,,0,15,15,15,,,,,,,,,,,,,,,,,,,,,,,,,,,,,,,,,,,,,,,,,,,,,,,,,,,,,,,,,,,,,,,,,,,,,,,,,,,,,1.7777777860562007,1.020616800058633,299.18776790006086,None,ScrollUp,정답입니다,299.18776790006086,None,299.18776790006086,None,299.18776790006086,None,299.18776790006086,None,300.0980506000342,None,300.0980506000342,300.60166609997395,,,,,,,,,,,,,,,,124,2022-05-10_09h33.29.599,FishGame,2022.1.1,60.02577508239855,
,17,나를 데려가줘,6,Orange,B,0,0,ScrollDown,ScrollUp,Orange.png,2,NonTarget,NonTarget,,,,,0,0,0,0,,,,,,,,,,,,,,,,,0,16,16,16,,,,,,,,,,,,,,,,,,,,,,,,,,,,,,,,,,,,,,,,,,,,,,,,,,,,,,,,,,,,,,,,,,,,,,,,,,,,,1.0617283880710602,1.0135565999662504,301.24652849999256,None,ScrollDown,정답입니다,301.24652849999256,None,301.24652849999256,None,301.24652849999256,None,301.24652849999256,None,302.1398804000346,None,302.1398804000346,302.6518567999592,,,,,,,,,,,,,,,,124,2022-05-10_09h33.29.599,FishGame,2022.1.1,60.02577508239855,
,18,넌 협력적이야,1,Green,A,5.625,5.633333333333334,ScrollDown,ScrollUp,Green.png,2,Positive,Congruent,,,,,0,0,0,0,,,,,,,,,,,,,,,,,0,17,17,17,,,,,,,,,,,,,,,,,,,,,,,,,,,,,,,,,,,,,,,,,,,,,,,,,,,,,,,,,,,,,,,,,,,,,,,,,,,,,1.0833333333333333,1.0745873999549076,303.29645799996797,None,ScrollDown,정답입니다,303.29645799996797,None,303.29645799996797,None,303.29645799996797,None,303.29645799996797,None,304.25168029998895,None,304.25168029998895,304.75184280006215,,,,,,,,,,,,,,,,124,2022-05-10_09h33.29.599,FishGame,2022.1.1,60.02577508239855,
,19,넌 평범해,3,Orange,B,4.333333333333332,4.233333333333333,ScrollUp,ScrollDown,Orange.png,2,Neutral,Neutral,,,,,0,0,0,0,,,,,,,,,,,,,,,,,0,18,18,18,,,,,,,,,,,,,,,,,,,,,,,,,,,,,,,,,,,,,,,,,,,,,,,,,,,,,,,,,,,,,,,,,,,,,,,,,,,,,1.751543199022611,0.9515038999961689,305.39203730004374,None,ScrollUp,정답입니다,305.39203730004374,None,305.39203730004374,None,305.39203730004374,None,305.39203730004374,None,306.23218060005456,None,306.23218060005456,306.7351574000204,,,,,,,,,,,,,,,,124,2022-05-10_09h33.29.599,FishGame,2022.1.1,60.02577508239855,
,20,넌 오만해,5,Green,A,2.333333333333333,2,ScrollDown,ScrollUp,Green.png,2,Negative,Incongruent,,,,,0,0,0,0,,,,,,,,,,,,,,,,,0,19,19,19,,,,,,,,,,,,,,,,,,,,,,,,,,,,,,,,,,,,,,,,,,,,,,,,,,,,,,,,,,,,,,,,,,,,,,,,,,,,,1.0061728358268738,1.0583374999696389,307.3831087000435,None,ScrollDown,정답입니다,307.3831087000435,None,307.3831087000435,None,307.3831087000435,None,307.3831087000435,None,308.3187464000657,None,308.3187464000657,308.8187052999856,,,,,,,,,,,,,,,,124,2022-05-10_09h33.29.599,FishGame,2022.1.1,60.02577508239855,
,21,넌 운이없어,4,Orange,B,3,3.466666666666667,ScrollUp,ScrollDown,Orange.png,2,Negative,Congruent,,,,,0,0,0,0,,,,,,,,,,,,,,,,,0,20,20,20,,,,,,,,,,,,,,,,,,,,,,,,,,,,,,,,,,,,,,,,,,,,,,,,,,,,,,,,,,,,,,,,,,,,,,,,,,,,,1.9120370248953502,1.108042599982582,309.4634589999914,None,ScrollUp,정답입니다,309.4634589999914,None,309.4634589999914,None,309.4634589999914,None,309.4634589999914,None,310.4516986999661,None,310.4516986999661,310.9518417000072,,,,,,,,,,,,,,,,124,2022-05-10_09h33.29.599,FishGame,2022.1.1,60.02577508239855,
,22,넌 창조적이야,2,Orange,B,6.125,4.633333333333334,ScrollUp,ScrollDown,Orange.png,2,Positive,Incongruent,,,,,0,0,0,0,,,,,,,,,,,,,,,,,0,21,21,21,,,,,,,,,,,,,,,,,,,,,,,,,,,,,,,,,,,,,,,,,,,,,,,,,,,,,,,,,,,,,,,,,,,,,,,,,,,,,1.9984568059444427,0.9757458999520168,311.6089947000146,None,ScrollUp,정답입니다,311.6089947000146,None,311.6089947000146,None,311.6089947000146,None,311.6089947000146,None,312.4523438999895,None,312.4523438999895,312.9518940000562,,,,,,,,,,,,,,,,124,2022-05-10_09h33.29.599,FishGame,2022.1.1,60.02577508239855,
,23,나를 보내줘,6,Green,A,0,0,ScrollUp,ScrollDown,Green.png,2,NonTarget,NonTarget,,,,,0,0,0,0,,,,,,,,,,,,,,,,,0,22,22,22,,,,,,,,,,,,,,,,,,,,,,,,,,,,,,,,,,,,,,,,,,,,,,,,,,,,,,,,,,,,,,,,,,,,,,,,,,,,,1.8935185074806213,1.0053809999953955,313.58862469997257,None,ScrollUp,정답입니다,313.58862469997257,None,313.58862469997257,None,313.58862469997257,None,313.58862469997257,None,314.4856553999707,None,314.4856553999707,314.9856717999792,,,,,,,,,,,,,,,,124,2022-05-10_09h33.29.599,FishGame,2022.1.1,60.02577508239855,
,24,넌 통찰력있어,2,Green,A,6.5,4.8,ScrollDown,ScrollUp,Green.png,2,Positive,Congruent,,,,,0,0,0,0,,,,,,,,,,,,,,,,,0,23,23,23,,,,,,,,,,,,,,,,,,,,,,,,,,,,,,,,,,,,,,,,,,,,,,,,,,,,,,,,,,,,,,,,,,,,,,,,,,,,,1.1064814925193787,1.104018000070937,315.63476210006047,None,ScrollDown,정답입니다,315.63476210006047,None,315.63476210006047,None,315.63476210006047,None,315.63476210006047,None,316.6154889999889,None,316.6154889999889,317.1191756000044,,,,,,,,,,,,,,,,124,2022-05-10_09h33.29.599,FishGame,2022.1.1,60.02577508239855,
,25,넌 경솔해,5,Orange,B,2.458333333333333,2.266666666666667,ScrollUp,ScrollDown,Orange.png,2,Negative,Congruent,,,,,0,0,0,0,,,,,,,,,,,,,,,,,0,24,24,24,,,,,,,,,,,,,,,,,,,,,,,,,,,,,,,,,,,,,,,,,,,,,,,,,,,,,,,,,,,,,,,,,,,,,,,,,,,,,1.8935185074806213,0.9568786999443546,317.7642075000331,None,ScrollUp,정답입니다,317.7642075000331,None,317.7642075000331,None,317.7642075000331,None,317.7642075000331,None,318.60218180005904,None,318.60218180005904,319.10213180002756,,,,,,,,,,,,,,,,124,2022-05-10_09h33.29.599,FishGame,2022.1.1,60.02577508239855,
,26,넌 초조해,4,Green,A,2.916666666666667,3.133333333333333,ScrollDown,ScrollUp,Green.png,2,Negative,Incongruent,,,,,0,0,0,0,,,,,,,,,,,,,,,,,0,25,25,25,,,,,,,,,,,,,,,,,,,,,,,,,,,,,,,,,,,,,,,,,,,,,,,,,,,,,,,,,,,,,,,,,,,,,,,,,,,,,1.0339506367842357,1.0440691999392584,319.7396836000262,None,ScrollDown,정답입니다,319.7396836000262,None,319.7396836000262,None,319.7396836000262,None,319.7396836000262,None,320.6686187000014,None,320.6686187000014,321.16903590003494,,,,,,,,,,,,,,,,124,2022-05-10_09h33.29.599,FishGame,2022.1.1,60.02577508239855,
,27,넌 무관심해,4,Orange,B,2.833333333333333,2.9,ScrollUp,ScrollDown,Orange.png,2,Negative,Congruent,,,,,0,0,0,0,,,,,,,,,,,,,,,,,0,26,26,26,,,,,,,,,,,,,,,,,,,,,,,,,,,,,,,,,,,,,,,,,,,,,,,,,,,,,,,,,,,,,,,,,,,,,,,,,,,,,2,0.9984186999499798,321.8244112000102,None,ScrollUp,정답입니다,321.8244112000102,None,321.8244112000102,None,321.8244112000102,None,321.8244112000102,None,322.69027699995786,None,322.69027699995786,323.2025952000404,,,,,,,,,,,,,,,,124,2022-05-10_09h33.29.599,FishGame,2022.1.1,60.02577508239855,
,28,넌 감성적이야,3,Orange,B,4.125,4.166666666666667,ScrollUp,ScrollDown,Orange.png,2,Neutral,Neutral,,,,,0,0,0,0,,,,,,,,,,,,,,,,,0,27,27,27,,,,,,,,,,,,,,,,,,,,,,,,,,,,,,,,,,,,,,,,,,,,,,,,,,,,,,,,,,,,,,,,,,,,,,,,,,,,,1.8117283930381138,0.9843219999456778,323.84246760001406,None,ScrollUp,정답입니다,323.84246760001406,None,323.84246760001406,None,323.84246760001406,None,323.84246760001406,None,324.71546460001264,None,324.71546460001264,325.2192551000044,,,,,,,,,,,,,,,,124,2022-05-10_09h33.29.599,FishGame,2022.1.1,60.02577508239855,
,29,넌 배려심있어,1,Green,A,6.083333333333333,5.5,ScrollDown,ScrollUp,Green.png,2,Positive,Congruent,,,,,0,0,0,0,,,,,,,,,,,,,,,,,0,28,28,28,,,,,,,,,,,,,,,,,,,,,,,,,,,,,,,,,,,,,,,,,,,,,,,,,,,,,,,,,,,,,,,,,,,,,,,,,,,,,1,1.1525155999697745,325.8549014000455,None,ScrollDown,정답입니다,325.8549014000455,None,325.8549014000455,None,325.8549014000455,None,325.8549014000455,None,326.8920979000395,None,326.8920979000395,327.4025193999987,,,,,,,,,,,,,,,,124,2022-05-10_09h33.29.599,FishGame,2022.1.1,60.02577508239855,
,30,넌 숨김없어,3,Green,A,4.5,4.933333333333334,ScrollDown,ScrollUp,Green.png,2,Neutral,Neutral,,,,,0,0,0,0,,,,,,,,,,,,,,,,,0,29,29,29,,,,,,,,,,,,,,,,,,,,,,,,,,,,,,,,,,,,,,,,,,,,,,,,,,,,,,,,,,,,,,,,,,,,,,,,,,,,,1.0138889054457347,1.0180491999490187,328.04894340003375,None,ScrollDown,정답입니다,328.04894340003375,None,328.04894340003375,None,328.04894340003375,None,328.04894340003375,None,328.94914310006425,None,328.94914310006425,329.45275850000326,,,,,,,,,,,,,,,,124,2022-05-10_09h33.29.599,FishGame,2022.1.1,60.02577508239855,
,31,넌 훌륭해,2,Orange,B,5.916666666666667,4.033333333333333,ScrollUp,ScrollDown,Orange.png,2,Positive,Incongruent,,,,,0,0,0,0,,,,,,,,,,,,,,,,,0,30,30,30,,,,,,,,,,,,,,,,,,,,,,,,,,,,,,,,,,,,,,,,,,,,,,,,,,,,,,,,,,,,,,,,,,,,,,,,,,,,,1.959876557191213,1.0408528000116348,330.09768430003896,None,ScrollUp,정답입니다,330.09768430003896,None,330.09768430003896,None,330.09768430003896,None,330.09768430003896,None,331.01920570002403,None,331.01920570002403,331.5193411000073,,,,,,,,,,,,,,,,124,2022-05-10_09h33.29.599,FishGame,2022.1.1,60.02577508239855,
,32,넌 슬기로워,2,Green,A,6.166666666666667,4.1,ScrollDown,ScrollUp,Green.png,2,Positive,Congruent,,,,,0,0,0,0,,,,,,,,,,,,,,,,,0,31,31,31,,,,,,,,,,,,,,,,,,,,,,,,,,,,,,,,,,,,,,,,,,,,,,,,,,,,,,,,,,,,,,,,,,,,,,,,,,,,,1,0.929640999995172,332.157497499953,None,ScrollDown,정답입니다,332.157497499953,None,332.157497499953,None,332.157497499953,None,332.157497499953,None,332.97444749996066,None,332.97444749996066,333.4859629999846,,,,,,,,,,,,,,,,124,2022-05-10_09h33.29.599,FishGame,2022.1.1,60.02577508239855,
,33,넌 냉혹해,5,Green,A,2.583333333333333,2.1,ScrollDown,ScrollUp,Green.png,2,Negative,Incongruent,,,,,0,0,0,0,,,,,,,,,,,,,,,,,0,32,32,32,,,,,,,,,,,,,,,,,,,,,,,,,,,,,,,,,,,,,,,,,,,,,,,,,,,,,,,,,,,,,,,,,,,,,,,,,,,,,1,0.99198710010387,334.1385271999752,None,ScrollDown,정답입니다,334.1385271999752,None,334.1385271999752,None,334.1385271999752,None,334.1385271999752,None,335.00240029999986,None,335.00240029999986,335.5029308999656,,,,,,,,,,,,,,,,124,2022-05-10_09h33.29.599,FishGame,2022.1.1,60.02577508239855,
,34,나를 데려가줘,6,Orange,B,0,0,ScrollDown,ScrollUp,Orange.png,2,NonTarget,NonTarget,,,,,0,0,0,0,,,,,,,,,,,,,,,,,0,33,33,33,,,,,,,,,,,,,,,,,,,,,,,,,,,,,,,,,,,,,,,,,,,,,,,,,,,,,,,,,,,,,,,,,,,,,,,,,,,,,1.0123456915219624,1.006655600038357,336.14304240001366,None,ScrollDown,정답입니다,336.14304240001366,None,336.14304240001366,None,336.14304240001366,None,336.14304240001366,None,337.0359856999712,None,337.0359856999712,337.5357553999638,,,,,,,,,,,,,,,,124,2022-05-10_09h33.29.599,FishGame,2022.1.1,60.02577508239855,
,35,넌 편파적이야,5,Orange,B,2.125,2,ScrollUp,ScrollDown,Orange.png,2,Negative,Congruent,,,,,0,0,0,0,,,,,,,,,,,,,,,,,0,34,34,34,,,,,,,,,,,,,,,,,,,,,,,,,,,,,,,,,,,,,,,,,,,,,,,,,,,,,,,,,,,,,,,,,,,,,,,,,,,,,1.9706790049870808,1.2012174000265077,338.18331470002886,None,ScrollUp,정답입니다,338.18331470002886,None,338.18331470002886,None,338.18331470002886,None,338.18331470002886,None,339.265895599965,None,339.265895599965,339.7694442999782,,,,,,,,,,,,,,,,124,2022-05-10_09h33.29.599,FishGame,2022.1.1,60.02577508239855,
,36,넌 슬퍼,4,Green,A,2.583333333333333,3.066666666666667,ScrollDown,ScrollUp,Green.png,2,Negative,Incongruent,,,,,0,0,0,0,,,,,,,,,,,,,,,,,0,35,35,35,,,,,,,,,,,,,,,,,,,,,,,,,,,,,,,,,,,,,,,,,,,,,,,,,,,,,,,,,,,,,,,,,,,,,,,,,,,,,1,1.0577628000173718,340.4149649000028,None,ScrollDown,정답입니다,340.4149649000028,None,340.4149649000028,None,340.4149649000028,None,340.4149649000028,None,341.35282080003526,None,341.35282080003526,341.85219030000735,,,,,,,,,,,,,,,,124,2022-05-10_09h33.29.599,FishGame,2022.1.1,60.02577508239855,
,37,나를 데려가줘,6,Orange,B,0,0,ScrollDown,ScrollUp,Orange.png,2,NonTarget,NonTarget,,,,,0,0,0,0,,,,,,,,,,,,,,,,,0,36,36,36,,,,,,,,,,,,,,,,,,,,,,,,,,,,,,,,,,,,,,,,,,,,,,,,,,,,,,,,,,,,,,,,,,,,,,,,,,,,,1.0586419602235158,1.1084916000254452,342.492637700052,None,ScrollDown,정답입니다,342.492637700052,None,342.492637700052,None,342.492637700052,None,342.492637700052,None,343.48597719997633,None,343.48597719997633,343.9863242000574,,,,,,,,,,,,,,,,124,2022-05-10_09h33.29.599,FishGame,2022.1.1,60.02577508239855,
,38,넌 친절해,1,Orange,B,6.041666666666667,5.533333333333333,ScrollUp,ScrollDown,Orange.png,2,Positive,Incongruent,,,,,0,0,0,0,,,,,,,,,,,,,,,,,0,37,37,37,,,,,,,,,,,,,,,,,,,,,,,,,,,,,,,,,,,,,,,,,,,,,,,,,,,,,,,,,,,,,,,,,,,,,,,,,,,,,1.7145061641931534,1.0145295000402257,344.63583379995544,None,ScrollUp,정답입니다,344.63583379995544,None,344.63583379995544,None,344.63583379995544,None,344.63583379995544,None,345.52456699998584,None,345.52456699998584,346.036202999996,,,,,,,,,,,,,,,,124,2022-05-10_09h33.29.599,FishGame,2022.1.1,60.02577508239855,
,1,넌 엉성해,4,Green,A,3,3.3,ScrollDown,ScrollUp,Green.png,3,Negative,Incongruent,,,,,0,0,0,0,,,,,,,,,,,,,,,,,,,,,0,0,0,0,,,,,,,,,,,,,,,,,,,,,,,,,,,,,,,,377.83676009997725,379.3367276999634,379.37040200002957,380.3207019000547,380.37050810002256,381.3209030999569,381.3209030999569,None,,,,,,,,,,,,,,,,,,,,,,,,,,,,,,,,,,1.0246913532416027,1.1384424000279978,382.4778429999715,None,ScrollDown,정답입니다,382.4778429999715,None,382.4778429999715,None,382.4778429999715,None,382.4778429999715,None,383.45344359998126,None,383.45344359998126,383.9539753999561,346.5362828000216,None,346.5362828000216,None,0.060185187,-0.12407407,1,0,0,0.01626355992630124,None,376.53742489998695,None,,,124,2022-05-10_09h33.29.599,FishGame,2022.1.1,60.02577508239855,
,2,나를 보내줘,6,Green,A,0,0,ScrollUp,ScrollDown,Green.png,3,NonTarget,NonTarget,,,,,0,0,0,0,,,,,,,,,,,,,,,,,,,,,0,1,1,1,,,,,,,,,,,,,,,,,,,,,,,,,,,,,,,,,,,,,,,,,,,,,,,,,,,,,,,,,,,,,,,,,,,,,,,,,1.9120370248953502,1.0165849999757484,384.5874736000551,None,ScrollUp,정답입니다,384.5874736000551,None,384.5874736000551,None,384.5874736000551,None,384.5874736000551,None,385.4916518999962,None,385.4916518999962,386.00399720005225,,,,,,,,,,,,,,,,124,2022-05-10_09h33.29.599,FishGame,2022.1.1,60.02577508239855,
,3,넌 활발해,1,Orange,B,5.666666666666667,5.6,ScrollUp,ScrollDown,Orange.png,3,Positive,Incongruent,,,,,0,0,0,0,,,,,,,,,,,,,,,,,,,,,0,2,2,2,,,,,,,,,,,,,,,,,,,,,,,,,,,,,,,,,,,,,,,,,,,,,,,,,,,,,,,,,,,,,,,,,,,,,,,,,1.807098776102066,1.0752208000048995,386.6606630999595,None,ScrollUp,정답입니다,386.6606630999595,None,386.6606630999595,None,386.6606630999595,None,386.6606630999595,None,387.6033552000299,None,387.6033552000299,388.10381620004773,,,,,,,,,,,,,,,,124,2022-05-10_09h33.29.599,FishGame,2022.1.1,60.02577508239855,
,4,넌 논리적이야,2,Green,A,5.666666666666666,4.633333333333334,ScrollDown,ScrollUp,Green.png,3,Positive,Congruent,,,,,0,0,0,0,,,,,,,,,,,,,,,,,,,,,0,3,3,3,,,,,,,,,,,,,,,,,,,,,,,,,,,,,,,,,,,,,,,,,,,,,,,,,,,,,,,,,,,,,,,,,,,,,,,,,1,1.138488300028257,388.7529152999632,None,ScrollDown,정답입니다,388.7529152999632,None,388.7529152999632,None,388.7529152999632,None,388.7529152999632,None,389.7703242000425,None,389.7703242000425,390.27093810006045,,,,,,,,,,,,,,,,124,2022-05-10_09h33.29.599,FishGame,2022.1.1,60.02577508239855,
,5,넌 과묵해,3,Green,A,3.875,4.4,ScrollDown,ScrollUp,Green.png,3,Neutral,Neutral,,,,,0,0,0,0,,,,,,,,,,,,,,,,,,,,,0,4,4,4,,,,,,,,,,,,,,,,,,,,,,,,,,,,,,,,,,,,,,,,,,,,,,,,,,,,,,,,,,,,,,,,,,,,,,,,,1,0.9793739999877289,390.9052718000021,None,ScrollDown,정답입니다,390.9052718000021,None,390.9052718000021,None,390.9052718000021,None,390.9052718000021,None,391.7751413000515,None,391.7751413000515,392.28763679997064,,,,,,,,,,,,,,,,124,2022-05-10_09h33.29.599,FishGame,2022.1.1,60.02577508239855,
,6,나를 데려가줘,6,Orange,B,0,0,ScrollDown,ScrollUp,Orange.png,3,NonTarget,NonTarget,,,,,0,0,0,0,,,,,,,,,,,,,,,,,,,,,0,5,5,5,,,,,,,,,,,,,,,,,,,,,,,,,,,,,,,,,,,,,,,,,,,,,,,,,,,,,,,,,,,,,,,,,,,,,,,,,1,0.9719554999610409,392.9260809000116,None,ScrollDown,정답입니다,392.9260809000116,None,392.9260809000116,None,392.9260809000116,None,392.9260809000116,None,393.78698450000957,None,393.78698450000957,394.28725160006434,,,,,,,,,,,,,,,,124,2022-05-10_09h33.29.599,FishGame,2022.1.1,60.02577508239855,
,7,넌 미숙해,4,Orange,B,3,3,ScrollUp,ScrollDown,Orange.png,3,Negative,Congruent,,,,,0,0,0,0,,,,,,,,,,,,,,,,,,,,,0,6,6,6,,,,,,,,,,,,,,,,,,,,,,,,,,,,,,,,,,,,,,,,,,,,,,,,,,,,,,,,,,,,,,,,,,,,,,,,,1.90586419403553,1.3430562000721693,394.92160500003956,None,ScrollUp,정답입니다,394.92160500003956,None,394.92160500003956,None,394.92160500003956,None,394.92160500003956,None,396.15640770003665,None,396.15640770003665,396.67086820001714,,,,,,,,,,,,,,,,124,2022-05-10_09h33.29.599,FishGame,2022.1.1,60.02577508239855,
,8,나를 보내줘,6,Green,A,0,0,ScrollUp,ScrollDown,Green.png,3,NonTarget,NonTarget,,,,,0,0,0,0,,,,,,,,,,,,,,,,,,,,,0,7,7,7,,,,,,,,,,,,,,,,,,,,,,,,,,,,,,,,,,,,,,,,,,,,,,,,,,,,,,,,,,,,,,,,,,,,,,,,,2,1.163523600087501,397.3001492000185,None,ScrollUp,정답입니다,397.3001492000185,None,397.3001492000185,None,397.3001492000185,None,397.3001492000185,None,398.35873940004967,None,398.35873940004967,398.87070990004577,,,,,,,,,,,,,,,,124,2022-05-10_09h33.29.599,FishGame,2022.1.1,60.02577508239855,
,9,넌 자신만만해,3,Orange,B,4.833333333333334,4.333333333333333,ScrollUp,ScrollDown,Orange.png,3,Neutral,Neutral,,,,,0,0,0,0,,,,,,,,,,,,,,,,,,,,,0,8,8,8,,,,,,,,,,,,,,,,,,,,,,,,,,,,,,,,,,,,,,,,,,,,,,,,,,,,,,,,,,,,,,,,,,,,,,,,,1.9552469154198964,1.1334302000468597,399.51423139998224,None,ScrollUp,정답입니다,399.51423139998224,None,399.51423139998224,None,399.51423139998224,None,399.51423139998224,None,400.5339627000503,None,400.5339627000503,401.0380261000246,,,,,,,,,,,,,,,,124,2022-05-10_09h33.29.599,FishGame,2022.1.1,60.02577508239855,
,10,넌 탐욕스러워,5,Green,A,2.25,2.1,ScrollDown,ScrollUp,Green.png,3,Negative,Incongruent,,,,,0,0,0,0,,,,,,,,,,,,,,,,,,,,,0,9,9,9,,,,,,,,,,,,,,,,,,,,,,,,,,,,,,,,,,,,,,,,,,,,,,,,,,,,,,,,,,,,,,,,,,,,,,,,,1,1.0716741000069305,401.6906855000416,None,ScrollDown,정답입니다,401.6906855000416,None,401.6906855000416,None,401.6906855000416,None,401.6906855000416,None,402.6371800999623,None,402.6371800999623,403.1374205000466,,,,,,,,,,,,,,,,124,2022-05-10_09h33.29.599,FishGame,2022.1.1,60.02577508239855,
,11,넌 인기있어,2,Green,A,5.458333333333333,4.5,ScrollDown,ScrollUp,Green.png,3,Positive,Congruent,,,,,0,0,0,0,,,,,,,,,,,,,,,,,,,,,0,10,10,10,,,,,,,,,,,,,,,,,,,,,,,,,,,,,,,,,,,,,,,,,,,,,,,,,,,,,,,,,,,,,,,,,,,,,,,,,1,1.1221515000797808,403.77110260003246,None,ScrollDown,정답입니다,403.77110260003246,None,403.77110260003246,None,403.77110260003246,None,403.77110260003246,None,404.78756069997326,None,404.78756069997326,405.2876123000169,,,,,,,,,,,,,,,,124,2022-05-10_09h33.29.599,FishGame,2022.1.1,60.02577508239855,
,12,나를 데려가줘,6,Orange,B,0,0,ScrollDown,ScrollUp,Orange.png,3,NonTarget,NonTarget,,,,,0,0,0,0,,,,,,,,,,,,,,,,,,,,,0,11,11,11,,,,,,,,,,,,,,,,,,,,,,,,,,,,,,,,,,,,,,,,,,,,,,,,,,,,,,,,,,,,,,,,,,,,,,,,,1,1.0311441000085324,405.91769569995813,None,ScrollDown,정답입니다,405.91769569995813,None,405.91769569995813,None,405.91769569995813,None,405.91769569995813,None,406.842206500005,None,406.842206500005,407.3545421999879,,,,,,,,,,,,,,,,124,2022-05-10_09h33.29.599,FishGame,2022.1.1,60.02577508239855,
,13,넌 뛰어나,2,Orange,B,6.166666666666667,4,ScrollUp,ScrollDown,Orange.png,3,Positive,Incongruent,,,,,0,0,0,0,,,,,,,,,,,,,,,,,,,,,0,12,12,12,,,,,,,,,,,,,,,,,,,,,,,,,,,,,,,,,,,,,,,,,,,,,,,,,,,,,,,,,,,,,,,,,,,,,,,,,1.9320987562338512,1.0729709999868646,408.002672099974,None,ScrollUp,정답입니다,408.002672099974,None,408.002672099974,None,408.002672099974,None,408.002672099974,None,408.9543216000311,None,408.9543216000311,409.45417869999073,,,,,,,,,,,,,,,,124,2022-05-10_09h33.29.599,FishGame,2022.1.1,60.02577508239855,
,14,넌 낙관적이야,1,Green,A,5.75,5.8,ScrollDown,ScrollUp,Green.png,3,Positive,Congruent,,,,,0,0,0,0,,,,,,,,,,,,,,,,,,,,,0,13,13,13,,,,,,,,,,,,,,,,,,,,,,,,,,,,,,,,,,,,,,,,,,,,,,,,,,,,,,,,,,,,,,,,,,,,,,,,,1,0.9966768000740558,410.09177479997743,None,ScrollDown,정답입니다,410.09177479997743,None,410.09177479997743,None,410.09177479997743,None,410.09177479997743,None,410.9759171999758,None,410.9759171999758,411.48787469998933,,,,,,,,,,,,,,,,124,2022-05-10_09h33.29.599,FishGame,2022.1.1,60.02577508239855,
,15,넌 산만해,4,Orange,B,2.695652173913043,3.033333333333333,ScrollUp,ScrollDown,Orange.png,3,Negative,Congruent,,,,,0,0,0,0,,,,,,,,,,,,,,,,,,,,,0,14,14,14,,,,,,,,,,,,,,,,,,,,,,,,,,,,,,,,,,,,,,,,,,,,,,,,,,,,,,,,,,,,,,,,,,,,,,,,,1.807098776102066,1.066959600080736,412.1327620999655,None,ScrollUp,정답입니다,412.1327620999655,None,412.1327620999655,None,412.1327620999655,None,412.1327620999655,None,413.0757563000079,None,413.0757563000079,413.58739919995423,,,,,,,,,,,,,,,,124,2022-05-10_09h33.29.599,FishGame,2022.1.1,60.02577508239855,
,16,나를 보내줘,6,Green,A,0,0,ScrollUp,ScrollDown,Green.png,3,NonTarget,NonTarget,,,,,0,0,0,0,,,,,,,,,,,,,,,,,,,,,0,15,15,15,,,,,,,,,,,,,,,,,,,,,,,,,,,,,,,,,,,,,,,,,,,,,,,,,,,,,,,,,,,,,,,,,,,,,,,,,1.6481481517354646,1.109821300022304,414.225329900044,None,ScrollUp,정답입니다,414.225329900044,None,414.225329900044,None,414.225329900044,None,414.225329900044,None,415.22562990000006,None,415.22562990000006,415.7383308999706,,,,,,,,,,,,,,,,124,2022-05-10_09h33.29.599,FishGame,2022.1.1,60.02577508239855,
,17,넌 교활해,5,Orange,B,2.333333333333333,2.133333333333333,ScrollUp,ScrollDown,Orange.png,3,Negative,Congruent,,,,,0,0,0,0,,,,,,,,,,,,,,,,,,,,,0,16,16,16,,,,,,,,,,,,,,,,,,,,,,,,,,,,,,,,,,,,,,,,,,,,,,,,,,,,,,,,,,,,,,,,,,,,,,,,,1.68364197264115,1.16418479999993,416.38303330005147,None,ScrollUp,정답입니다,416.38303330005147,None,416.38303330005147,None,416.38303330005147,None,416.38303330005147,None,417.42563469999004,None,417.42563469999004,417.93755959998816,,,,,,,,,,,,,,,,124,2022-05-10_09h33.29.599,FishGame,2022.1.1,60.02577508239855,
,18,나를 보내줘,6,Green,A,0,0,ScrollUp,ScrollDown,Green.png,3,NonTarget,NonTarget,,,,,0,0,0,0,,,,,,,,,,,,,,,,,,,,,0,17,17,17,,,,,,,,,,,,,,,,,,,,,,,,,,,,,,,,,,,,,,,,,,,,,,,,,,,,,,,,,,,,,,,,,,,,,,,,,1.805555562178294,0.9863162999972701,418.5704866000451,None,ScrollUp,정답입니다,418.5704866000451,None,418.5704866000451,None,418.5704866000451,None,418.5704866000451,None,419.4511676999973,None,419.4511676999973,419.95482890005223,,,,,,,,,,,,,,,,124,2022-05-10_09h33.29.599,FishGame,2022.1.1,60.02577508239855,
,19,넌 불친절해,5,Orange,B,2.208333333333333,2.033333333333333,ScrollUp,ScrollDown,Orange.png,3,Negative,Congruent,,,,,0,0,0,0,,,,,,,,,,,,,,,,,,,,,0,18,18,18,,,,,,,,,,,,,,,,,,,,,,,,,,,,,,,,,,,,,,,,,,,,,,,,,,,,,,,,,,,,,,,,,,,,,,,,,1.9969135920206706,1.0680768999736756,420.5966426000232,None,ScrollUp,정답입니다,420.5966426000232,None,420.5966426000232,None,420.5966426000232,None,420.5966426000232,None,421.5513476000633,None,421.5513476000633,422.0539492999669,,,,,,,,,,,,,,,,124,2022-05-10_09h33.29.599,FishGame,2022.1.1,60.02577508239855,
,20,넌 지적이야,2,Orange,B,5.75,4.366666666666666,ScrollUp,ScrollDown,Orange.png,3,Positive,Incongruent,,,,,0,0,0,0,,,,,,,,,,,,,,,,,,,,,0,19,19,19,,,,,,,,,,,,,,,,,,,,,,,,,,,,,,,,,,,,,,,,,,,,,,,,,,,,,,,,,,,,,,,,,,,,,,,,,2,1.0311383999651298,422.6853884999873,None,ScrollUp,정답입니다,422.6853884999873,None,422.6853884999873,None,422.6853884999873,None,422.6853884999873,None,423.6092850000132,None,423.6092850000132,424.1213708999567,,,,,,,,,,,,,,,,124,2022-05-10_09h33.29.599,FishGame,2022.1.1,60.02577508239855,
,21,넌 우유부단해,4,Green,A,2.666666666666667,3.166666666666667,ScrollDown,ScrollUp,Green.png,3,Negative,Incongruent,,,,,0,0,0,0,,,,,,,,,,,,,,,,,,,,,0,20,20,20,,,,,,,,,,,,,,,,,,,,,,,,,,,,,,,,,,,,,,,,,,,,,,,,,,,,,,,,,,,,,,,,,,,,,,,,,1,1.075165000045672,424.7651002999628,None,ScrollDown,정답입니다,424.7651002999628,None,424.7651002999628,None,424.7651002999628,None,424.7651002999628,None,425.7209287000587,None,425.7209287000587,426.22131030005403,,,,,,,,,,,,,,,,124,2022-05-10_09h33.29.599,FishGame,2022.1.1,60.02577508239855,
,22,나를 데려가줘,6,Orange,B,0,0,ScrollDown,ScrollUp,Orange.png,3,NonTarget,NonTarget,,,,,0,0,0,0,,,,,,,,,,,,,,,,,,,,,0,21,21,21,,,,,,,,,,,,,,,,,,,,,,,,,,,,,,,,,,,,,,,,,,,,,,,,,,,,,,,,,,,,,,,,,,,,,,,,,1.0092592636744182,1.1249202999752015,426.8688861000119,None,ScrollDown,정답입니다,426.8688861000119,None,426.8688861000119,None,426.8688861000119,None,426.8688861000119,None,427.87116189999506,None,427.87116189999506,428.371496799984,,,,,,,,,,,,,,,,124,2022-05-10_09h33.29.599,FishGame,2022.1.1,60.02577508239855,
,23,넌 성실해,1,Orange,B,6.041666666666666,5.7,ScrollUp,ScrollDown,Orange.png,3,Positive,Incongruent,,,,,0,0,0,0,,,,,,,,,,,,,,,,,,,,,0,22,22,22,,,,,,,,,,,,,,,,,,,,,,,,,,,,,,,,,,,,,,,,,,,,,,,,,,,,,,,,,,,,,,,,,,,,,,,,,2,0.9873540999833494,429.0100616000127,None,ScrollUp,정답입니다,429.0100616000127,None,429.0100616000127,None,429.0100616000127,None,429.0100616000127,None,429.8881577999564,None,429.8881577999564,430.3882463000482,,,,,,,,,,,,,,,,124,2022-05-10_09h33.29.599,FishGame,2022.1.1,60.02577508239855,
,24,넌 현실주의적이야,3,Green,A,4.625,4.4,ScrollDown,ScrollUp,Green.png,3,Neutral,Neutral,,,,,0,0,0,0,,,,,,,,,,,,,,,,,,,,,0,23,23,23,,,,,,,,,,,,,,,,,,,,,,,,,,,,,,,,,,,,,,,,,,,,,,,,,,,,,,,,,,,,,,,,,,,,,,,,,1.0663580298423767,1.1013923999853432,431.0158297000453,None,ScrollDown,정답입니다,431.0158297000453,None,431.0158297000453,None,431.0158297000453,None,431.0158297000453,None,432.0177317999769,None,432.0177317999769,432.52172049996443,,,,,,,,,,,,,,,,124,2022-05-10_09h33.29.599,FishGame,2022.1.1,60.02577508239855,
,25,넌 진실돼,1,Green,A,6.625,5.566666666666666,ScrollDown,ScrollUp,Green.png,3,Positive,Congruent,,,,,0,0,0,0,,,,,,,,,,,,,,,,,,,,,0,24,24,24,,,,,,,,,,,,,,,,,,,,,,,,,,,,,,,,,,,,,,,,,,,,,,,,,,,,,,,,,,,,,,,,,,,,,,,,,1.0138889054457347,0.8916536000324413,433.16167900001165,None,ScrollDown,정답입니다,433.16167900001165,None,433.16167900001165,None,433.16167900001165,None,433.16167900001165,None,433.93811180000193,None,433.93811180000193,434.43809209996834,,,,,,,,,,,,,,,,124,2022-05-10_09h33.29.599,FishGame,2022.1.1,60.02577508239855,
,26,넌 천진난만해,3,Orange,B,4.958333333333334,4.833333333333333,ScrollUp,ScrollDown,Orange.png,3,Neutral,Neutral,,,,,0,0,0,0,,,,,,,,,,,,,,,,,,,,,0,25,25,25,,,,,,,,,,,,,,,,,,,,,,,,,,,,,,,,,,,,,,,,,,,,,,,,,,,,,,,,,,,,,,,,,,,,,,,,,1.6388888930281005,1.046156800002791,435.0857905000448,None,ScrollUp,정답입니다,435.0857905000448,None,435.0857905000448,None,435.0857905000448,None,435.0857905000448,None,436.00957400002517,None,436.00957400002517,436.5215126000112,,,,,,,,,,,,,,,,124,2022-05-10_09h33.29.599,FishGame,2022.1.1,60.02577508239855,
,27,넌 교양없어,5,Green,A,2.416666666666667,2.2,ScrollDown,ScrollUp,Green.png,3,Negative,Incongruent,,,,,0,0,0,0,,,,,,,,,,,,,,,,,,,,,0,26,26,26,,,,,,,,,,,,,,,,,,,,,,,,,,,,,,,,,,,,,,,,,,,,,,,,,,,,,,,,,,,,,,,,,,,,,,,,,1,0.9755839999997988,437.1662053000182,None,ScrollDown,정답입니다,437.1662053000182,None,437.1662053000182,None,437.1662053000182,None,437.1662053000182,None,438.0210283000488,None,438.0210283000488,438.5213075999636,,,,,,,,,,,,,,,,124,2022-05-10_09h33.29.599,FishGame,2022.1.1,60.02577508239855,
,28,나를 보내줘,6,Green,A,0,0,ScrollUp,ScrollDown,Green.png,3,NonTarget,NonTarget,,,,,0,0,0,0,,,,,,,,,,,,,,,,,,,,,0,27,27,27,,,,,,,,,,,,,,,,,,,,,,,,,,,,,,,,,,,,,,,,,,,,,,,,,,,,,,,,,,,,,,,,,,,,,,,,,2,1.0615849999012426,439.15254459995776,None,ScrollUp,정답입니다,439.15254459995776,None,439.15254459995776,None,439.15254459995776,None,439.15254459995776,None,440.1102314000018,None,440.1102314000018,440.62174770003185,,,,,,,,,,,,,,,,124,2022-05-10_09h33.29.599,FishGame,2022.1.1,60.02577508239855,
,29,넌 엉뚱스러워,3,Green,A,4.166666666666667,4.133333333333334,ScrollDown,ScrollUp,Green.png,3,Neutral,Neutral,,,,,0,0,0,0,,,,,,,,,,,,,,,,,,,,,0,28,28,28,,,,,,,,,,,,,,,,,,,,,,,,,,,,,,,,,,,,,,,,,,,,,,,,,,,,,,,,,,,,,,,,,,,,,,,,,1,1.0002263999776915,441.2593191000633,None,ScrollDown,정답입니다,441.2593191000633,None,441.2593191000633,None,441.2593191000633,None,441.2593191000633,None,442.15130380005576,None,442.15130380005576,442.65474609995726,,,,,,,,,,,,,,,,124,2022-05-10_09h33.29.599,FishGame,2022.1.1,60.02577508239855,
,30,넌 무지해,4,Orange,B,2.541666666666667,3.066666666666667,ScrollUp,ScrollDown,Orange.png,3,Negative,Congruent,,,,,0,0,0,0,,,,,,,,,,,,,,,,,,,,,0,29,29,29,,,,,,,,,,,,,,,,,,,,,,,,,,,,,,,,,,,,,,,,,,,,,,,,,,,,,,,,,,,,,,,,,,,,,,,,,1.9799382885297139,0.9279918998945504,443.2924731000094,None,ScrollUp,정답입니다,443.2924731000094,None,443.2924731000094,None,443.2924731000094,None,443.2924731000094,None,444.1059231000254,None,444.1059231000254,444.60515529999975,,,,,,,,,,,,,,,,124,2022-05-10_09h33.29.599,FishGame,2022.1.1,60.02577508239855,
,31,넌 음울해,5,Orange,B,2.25,2.233333333333333,ScrollUp,ScrollDown,Orange.png,3,Negative,Congruent,,,,,0,0,0,0,,,,,,,,,,,,,,,,,,,,,0,30,30,30,,,,,,,,,,,,,,,,,,,,,,,,,,,,,,,,,,,,,,,,,,,,,,,,,,,,,,,,,,,,,,,,,,,,,,,,,1.703703703979651,0.8984361999901012,445.24955880001653,None,ScrollUp,정답입니다,445.24955880001653,None,445.24955880001653,None,445.24955880001653,None,445.24955880001653,None,446.02635679999366,None,446.02635679999366,446.5384093000321,,,,,,,,,,,,,,,,124,2022-05-10_09h33.29.599,FishGame,2022.1.1,60.02577508239855,
,32,넌 냉소적이야,5,Green,A,2.916666666666667,2.4,ScrollDown,ScrollUp,Green.png,3,Negative,Incongruent,,,,,0,0,0,0,,,,,,,,,,,,,,,,,,,,,0,31,31,31,,,,,,,,,,,,,,,,,,,,,,,,,,,,,,,,,,,,,,,,,,,,,,,,,,,,,,,,,,,,,,,,,,,,,,,,,1.0277777810891469,0.8899408999131992,447.17763769999146,None,ScrollDown,정답입니다,447.17763769999146,None,447.17763769999146,None,447.17763769999146,None,447.17763769999146,None,447.95493700006045,None,447.95493700006045,448.4551254999824,,,,,,,,,,,,,,,,124,2022-05-10_09h33.29.599,FishGame,2022.1.1,60.02577508239855,
,33,나를 데려가줘,6,Orange,B,0,0,ScrollDown,ScrollUp,Orange.png,3,NonTarget,NonTarget,,,,,0,0,0,0,,,,,,,,,,,,,,,,,,,,,0,32,32,32,,,,,,,,,,,,,,,,,,,,,,,,,,,,,,,,,,,,,,,,,,,,,,,,,,,,,,,,,,,,,,,,,,,,,,,,,1.0570987462997437,1.0414705000584945,449.09180399996694,None,ScrollDown,정답입니다,449.09180399996694,None,449.09180399996694,None,449.09180399996694,None,449.09180399996694,None,450.02178489998914,None,450.02178489998914,450.522243799991,,,,,,,,,,,,,,,,124,2022-05-10_09h33.29.599,FishGame,2022.1.1,60.02577508239855,
,34,넌 쾌활해,1,Green,A,5.541666666666666,5.733333333333333,ScrollDown,ScrollUp,Green.png,3,Positive,Congruent,,,,,0,0,0,0,,,,,,,,,,,,,,,,,,,,,0,33,33,33,,,,,,,,,,,,,,,,,,,,,,,,,,,,,,,,,,,,,,,,,,,,,,,,,,,,,,,,,,,,,,,,,,,,,,,,,1,1.0291149000404403,451.16229240002576,None,ScrollDown,정답입니다,451.16229240002576,None,451.16229240002576,None,451.16229240002576,None,451.16229240002576,None,452.07634529995266,None,452.07634529995266,452.5888828999596,,,,,,,,,,,,,,,,124,2022-05-10_09h33.29.599,FishGame,2022.1.1,60.02577508239855,
,35,나를 보내줘,6,Green,A,0,0,ScrollUp,ScrollDown,Green.png,3,NonTarget,NonTarget,,,,,0,0,0,0,,,,,,,,,,,,,,,,,,,,,0,34,34,34,,,,,,,,,,,,,,,,,,,,,,,,,,,,,,,,,,,,,,,,,,,,,,,,,,,,,,,,,,,,,,,,,,,,,,,,,1.9953703780968983,0.9325094999512658,453.2308114999905,None,ScrollUp,정답입니다,453.2308114999905,None,453.2308114999905,None,453.2308114999905,None,453.2308114999905,None,454.04282319999766,None,454.04282319999766,454.55502009997144,,,,,,,,,,,,,,,,124,2022-05-10_09h33.29.599,FishGame,2022.1.1,60.02577508239855,
,36,넌 명랑해,1,Orange,B,5.739130434782609,5.666666666666667,ScrollUp,ScrollDown,Orange.png,3,Positive,Incongruent,,,,,0,0,0,0,,,,,,,,,,,,,,,,,,,,,0,35,35,35,,,,,,,,,,,,,,,,,,,,,,,,,,,,,,,,,,,,,,,,,,,,,,,,,,,,,,,,,,,,,,,,,,,,,,,,,2,1.1014725000131875,455.1960540000582,None,ScrollUp,정답입니다,455.1960540000582,None,455.1960540000582,None,455.1960540000582,None,455.1960540000582,None,456.18542069999967,None,456.18542069999967,456.6888285999885,,,,,,,,,,,,,,,,124,2022-05-10_09h33.29.599,FishGame,2022.1.1,60.02577508239855,
,37,넌 멍해,4,Green,A,2.833333333333333,3.4,ScrollDown,ScrollUp,Green.png,3,Negative,Incongruent,,,,,0,0,0,0,,,,,,,,,,,,,,,,,,,,,0,36,36,36,,,,,,,,,,,,,,,,,,,,,,,,,,,,,,,,,,,,,,,,,,,,,,,,,,,,,,,,,,,,,,,,,,,,,,,,,1,1.0339244999922812,457.3231659999583,None,ScrollDown,정답입니다,457.3231659999583,None,457.3231659999583,None,457.3231659999583,None,457.3231659999583,None,458.24326080002356,None,458.24326080002356,458.7555414000526,,,,,,,,,,,,,,,,124,2022-05-10_09h33.29.599,FishGame,2022.1.1,60.02577508239855,
,38,나를 데려가줘,6,Orange,B,0,0,ScrollDown,ScrollUp,Orange.png,3,NonTarget,NonTarget,,,,,0,0,0,0,,,,,,,,,,,,,,,,,,,,,0,37,37,37,,,,,,,,,,,,,,,,,,,,,,,,,,,,,,,,,,,,,,,,,,,,,,,,,,,,,,,,,,,,,,,,,,,,,,,,,1,1.0547817000187933,459.3995291000465,None,ScrollDown,정답입니다,459.3995291000465,None,459.3995291000465,None,459.3995291000465,None,459.3995291000465,None,460.3386264999863,None,460.3386264999863,460.8393985000439,,,,,,,,,,,,,,,,124,2022-05-10_09h33.29.599,FishGame,2022.1.1,60.02577508239855,
,39,넌 현명해,2,Green,A,6.541666666666666,4.533333333333333,ScrollDown,ScrollUp,Green.png,3,Positive,Congruent,,,,,0,0,0,0,,,,,,,,,,,,,,,,,,,,,0,38,38,38,,,,,,,,,,,,,,,,,,,,,,,,,,,,,,,,,,,,,,,,,,,,,,,,,,,,,,,,,,,,,,,,,,,,,,,,,1,1.0018208000110462,461.47080879996065,None,ScrollDown,정답입니다,461.47080879996065,None,461.47080879996065,None,461.47080879996065,None,461.47080879996065,None,462.3619707999751,None,462.3619707999751,462.87220410001464,,,,,,,,,,,,,,,,124,2022-05-10_09h33.29.599,FishGame,2022.1.1,60.02577508239855,
,40,넌 수줍어,3,Orange,B,3.541666666666666,4.366666666666666,ScrollUp,ScrollDown,Orange.png,3,Neutral,Neutral,,,,,0,0,0,0,,,,,,,,,,,,,,,,,,,,,0,39,39,39,,,,,,,,,,,,,,,,,,,,,,,,,,,,,,,,,,,,,,,,,,,,,,,,,,,,,,,,,,,,,,,,,,,,,,,,,1.9413580397764842,0.9910739000188187,463.5231679000426,None,ScrollUp,정답입니다,463.5231679000426,None,463.5231679000426,None,463.5231679000426,None,463.5231679000426,None,464.3885612000013,None,464.3885612000013,464.88898839999456,,,,,,,,,,,,,,,,124,2022-05-10_09h33.29.599,FishGame,2022.1.1,60.02577508239855,
,41,나를 데려가줘,6,Orange,B,0,0,ScrollDown,ScrollUp,Orange.png,3,NonTarget,NonTarget,,,,,0,0,0,0,,,,,,,,,,,,,,,,,,,,,0,40,40,40,,,,,,,,,,,,,,,,,,,,,,,,,,,,,,,,,,,,,,,,,,,,,,,,,,,,,,,,,,,,,,,,,,,,,,,,,1.0570987462997437,0.9438583999872208,465.5237969000591,None,ScrollDown,정답입니다,465.5237969000591,None,465.5237969000591,None,465.5237969000591,None,465.5237969000591,None,466.35522520006634,None,466.35522520006634,466.85571749997325,,,,,,,,,,,,,,,,124,2022-05-10_09h33.29.599,FishGame,2022.1.1,60.02577508239855,
,42,넌 성숙해,2,Orange,B,5.833333333333333,4.533333333333333,ScrollUp,ScrollDown,Orange.png,3,Positive,Incongruent,,,,,0,0,0,0,,,,,,,,,,,,,,,,,,,,,0,41,41,41,,,,,,,,,,,,,,,,,,,,,,,,,,,,,,,,,,,,,,,,,,,,,,,,,,,,,,,,,,,,,,,,,,,,,,,,,2,1.0547366000246257,467.5105468999827,None,ScrollUp,정답입니다,467.5105468999827,None,467.5105468999827,None,467.5105468999827,None,467.5105468999827,None,468.43519410002045,None,468.43519410002045,468.93917410005815,,,,,,,,,,,,,,,,124,2022-05-10_09h33.29.599,FishGame,2022.1.1,60.02577508239855,
,1,넌 매력적이야,2,Orange,B,6.125,4.666666666666667,ScrollUp,ScrollDown,Orange.png,4,Positive,Incongruent,,,,,0,0,0,0,,,,,,,,,,,,,,,,,,,,,,,,,0,0,0,0,,,,,,,,,,,,,,,,,,,,,,,,,,,,500.6893393000355,502.1900009000674,502.2231177999638,503.17313490004744,503.2230035000248,504.1733690999681,504.1733690999681,None,,,,,,,,,,,,,,,,,,,,,,,,,,,,,,,,,,1.6898148159186044,1.1314276000484824,505.3353063999675,None,ScrollUp,정답입니다,505.3353063999675,None,505.3353063999675,None,505.3353063999675,None,505.3353063999675,None,506.29691190004814,None,506.29691190004814,506.8062154999934,469.4390585999936,None,469.4390585999936,None,-0.0046296297,-0.17314816,1,0,0,0.016270659863948822,None,499.43968920002226,None,,,124,2022-05-10_09h33.29.599,FishGame,2022.1.1,60.02577508239855,
,2,나를 보내줘,6,Green,A,0,0,ScrollUp,ScrollDown,Green.png,4,NonTarget,NonTarget,,,,,0,0,0,0,,,,,,,,,,,,,,,,,,,,,,,,,0,1,1,1,,,,,,,,,,,,,,,,,,,,,,,,,,,,,,,,,,,,,,,,,,,,,,,,,,,,,,,,,,,,,,,,,,,,,1.919753094514211,0.9927256999071687,507.44065340003,None,ScrollUp,정답입니다,507.44065340003,None,507.44065340003,None,507.44065340003,None,507.44065340003,None,508.32249289995525,None,508.32249289995525,508.8231593000237,,,,,,,,,,,,,,,,124,2022-05-10_09h33.29.599,FishGame,2022.1.1,60.02577508239855,
,3,넌 조심스러워,3,Green,A,4.791666666666666,4.666666666666667,ScrollDown,ScrollUp,Green.png,4,Neutral,Neutral,,,,,0,0,0,0,,,,,,,,,,,,,,,,,,,,,,,,,0,2,2,2,,,,,,,,,,,,,,,,,,,,,,,,,,,,,,,,,,,,,,,,,,,,,,,,,,,,,,,,,,,,,,,,,,,,,1.2052469104528427,0.9660104000940919,509.46562599996105,None,ScrollDown,정답입니다,509.46562599996105,None,509.46562599996105,None,509.46562599996105,None,509.46562599996105,None,510.3109784000553,None,510.3109784000553,510.82332289998885,,,,,,,,,,,,,,,,124,2022-05-10_09h33.29.599,FishGame,2022.1.1,60.02577508239855,
,4,넌 철학적이야,3,Orange,B,4.5,4.266666666666667,ScrollUp,ScrollDown,Orange.png,4,Neutral,Neutral,,,,,0,0,0,0,,,,,,,,,,,,,,,,,,,,,,,,,0,3,3,3,,,,,,,,,,,,,,,,,,,,,,,,,,,,,,,,,,,,,,,,,,,,,,,,,,,,,,,,,,,,,,,,,,,,,1.5910493855675063,1.5134044999722391,511.46770100004505,None,ScrollUp,정답입니다,511.46770100004505,None,511.46770100004505,None,511.46770100004505,None,511.46770100004505,None,512.8583013999742,None,512.8583013999742,513.3729689000174,,,,,,,,,,,,,,,,124,2022-05-10_09h33.29.599,FishGame,2022.1.1,60.02577508239855,
,5,넌 쩨쩨해,5,Green,A,2.375,2.133333333333333,ScrollDown,ScrollUp,Green.png,4,Negative,Incongruent,,,,,0,0,0,0,,,,,,,,,,,,,,,,,,,,,,,,,0,4,4,4,,,,,,,,,,,,,,,,,,,,,,,,,,,,,,,,,,,,,,,,,,,,,,,,,,,,,,,,,,,,,,,,,,,,,1,1.000841400003992,514.0105884000659,None,ScrollDown,정답입니다,514.0105884000659,None,514.0105884000659,None,514.0105884000659,None,514.0105884000659,None,514.8944488000125,None,514.8944488000125,515.4064441999653,,,,,,,,,,,,,,,,124,2022-05-10_09h33.29.599,FishGame,2022.1.1,60.02577508239855,
,6,나를 데려가줘,6,Orange,B,0,0,ScrollDown,ScrollUp,Orange.png,4,NonTarget,NonTarget,,,,,0,0,0,0,,,,,,,,,,,,,,,,,,,,,,,,,0,5,5,5,,,,,,,,,,,,,,,,,,,,,,,,,,,,,,,,,,,,,,,,,,,,,,,,,,,,,,,,,,,,,,,,,,,,,1.2623456766208014,0.9676606000866741,516.0387291000225,None,ScrollDown,정답입니다,516.0387291000225,None,516.0387291000225,None,516.0387291000225,None,516.0387291000225,None,516.8946972000413,None,516.8946972000413,517.4067801999627,,,,,,,,,,,,,,,,124,2022-05-10_09h33.29.599,FishGame,2022.1.1,60.02577508239855,
,7,넌 고집불통이야,5,Orange,B,2.875,2,ScrollUp,ScrollDown,Orange.png,4,Negative,Congruent,,,,,0,0,0,0,,,,,,,,,,,,,,,,,,,,,,,,,0,6,6,6,,,,,,,,,,,,,,,,,,,,,,,,,,,,,,,,,,,,,,,,,,,,,,,,,,,,,,,,,,,,,,,,,,,,,2,1.0336909000761807,518.0611383999931,None,ScrollUp,정답입니다,518.0611383999931,None,518.0611383999931,None,518.0611383999931,None,518.0611383999931,None,518.9700278000673,None,518.9700278000673,519.4734221999533,,,,,,,,,,,,,,,,124,2022-05-10_09h33.29.599,FishGame,2022.1.1,60.02577508239855,
,8,넌 무심해,4,Green,A,2.875,3.2,ScrollDown,ScrollUp,Green.png,4,Negative,Incongruent,,,,,0,0,0,0,,,,,,,,,,,,,,,,,,,,,,,,,0,7,7,7,,,,,,,,,,,,,,,,,,,,,,,,,,,,,,,,,,,,,,,,,,,,,,,,,,,,,,,,,,,,,,,,,,,,,1,0.9341249000281096,520.1152770000044,None,ScrollDown,정답입니다,520.1152770000044,None,520.1152770000044,None,520.1152770000044,None,520.1152770000044,None,520.9367904999526,None,520.9367904999526,521.4403533999575,,,,,,,,,,,,,,,,124,2022-05-10_09h33.29.599,FishGame,2022.1.1,60.02577508239855,
,9,넌 정겨워,1,Green,A,5.791666666666667,5.666666666666667,ScrollDown,ScrollUp,Green.png,4,Positive,Congruent,,,,,0,0,0,0,,,,,,,,,,,,,,,,,,,,,,,,,0,8,8,8,,,,,,,,,,,,,,,,,,,,,,,,,,,,,,,,,,,,,,,,,,,,,,,,,,,,,,,,,,,,,,,,,,,,,1,1.126866800012067,522.0805953999516,None,ScrollDown,정답입니다,522.0805953999516,None,522.0805953999516,None,522.0805953999516,None,522.0805953999516,None,523.0936289000092,None,523.0936289000092,523.606682099984,,,,,,,,,,,,,,,,124,2022-05-10_09h33.29.599,FishGame,2022.1.1,60.02577508239855,
,10,나를 데려가줘,6,Orange,B,0,0,ScrollDown,ScrollUp,Orange.png,4,NonTarget,NonTarget,,,,,0,0,0,0,,,,,,,,,,,,,,,,,,,,,,,,,0,9,9,9,,,,,,,,,,,,,,,,,,,,,,,,,,,,,,,,,,,,,,,,,,,,,,,,,,,,,,,,,,,,,,,,,,,,,1,1.039732399978675,524.2468895000638,None,ScrollDown,정답입니다,524.2468895000638,None,524.2468895000638,None,524.2468895000638,None,524.2468895000638,None,525.1730313999578,None,525.1730313999578,525.6738928999985,,,,,,,,,,,,,,,,124,2022-05-10_09h33.29.599,FishGame,2022.1.1,60.02577508239855,
,11,넌 체제순응적이야,4,Orange,B,3,3.6,ScrollUp,ScrollDown,Orange.png,4,Negative,Congruent,,,,,0,0,0,0,,,,,,,,,,,,,,,,,,,,,,,,,0,10,10,10,,,,,,,,,,,,,,,,,,,,,,,,,,,,,,,,,,,,,,,,,,,,,,,,,,,,,,,,,,,,,,,,,,,,,2,1.2579594999551773,526.3294067999814,None,ScrollUp,정답입니다,526.3294067999814,None,526.3294067999814,None,526.3294067999814,None,526.3294067999814,None,527.4566245999886,None,527.4566245999886,527.9571355000371,,,,,,,,,,,,,,,,124,2022-05-10_09h33.29.599,FishGame,2022.1.1,60.02577508239855,
,12,나를 보내줘,6,Green,A,0,0,ScrollUp,ScrollDown,Green.png,4,NonTarget,NonTarget,,,,,0,0,0,0,,,,,,,,,,,,,,,,,,,,,,,,,0,11,11,11,,,,,,,,,,,,,,,,,,,,,,,,,,,,,,,,,,,,,,,,,,,,,,,,,,,,,,,,,,,,,,,,,,,,,2,1.0400538999820128,528.6011331999907,None,ScrollUp,정답입니다,528.6011331999907,None,528.6011331999907,None,528.6011331999907,None,528.6011331999907,None,529.523385599954,None,529.523385599954,530.0236877000425,,,,,,,,,,,,,,,,124,2022-05-10_09h33.29.599,FishGame,2022.1.1,60.02577508239855,
,13,넌 박식해,2,Green,A,5.625,3.933333333333333,ScrollDown,ScrollUp,Green.png,4,Positive,Congruent,,,,,0,0,0,0,,,,,,,,,,,,,,,,,,,,,,,,,0,12,12,12,,,,,,,,,,,,,,,,,,,,,,,,,,,,,,,,,,,,,,,,,,,,,,,,,,,,,,,,,,,,,,,,,,,,,1,1.167896999977529,530.6692022000207,None,ScrollDown,정답입니다,530.6692022000207,None,530.6692022000207,None,530.6692022000207,None,530.6692022000207,None,531.7203751000343,None,531.7203751000343,532.2238221999723,,,,,,,,,,,,,,,,124,2022-05-10_09h33.29.599,FishGame,2022.1.1,60.02577508239855,
,14,나를 보내줘,6,Green,A,0,0,ScrollUp,ScrollDown,Green.png,4,NonTarget,NonTarget,,,,,0,0,0,0,,,,,,,,,,,,,,,,,,,,,,,,,0,13,13,13,,,,,,,,,,,,,,,,,,,,,,,,,,,,,,,,,,,,,,,,,,,,,,,,,,,,,,,,,,,,,,,,,,,,,1.594135800997416,1.0172128999838606,532.8512934000464,None,ScrollUp,정답입니다,532.8512934000464,None,532.8512934000464,None,532.8512934000464,None,532.8512934000464,None,533.7620221000398,None,533.7620221000398,534.273991300026,,,,,,,,,,,,,,,,124,2022-05-10_09h33.29.599,FishGame,2022.1.1,60.02577508239855,
,15,넌 침착해,1,Orange,B,5.458333333333333,5.566666666666666,ScrollUp,ScrollDown,Orange.png,4,Positive,Incongruent,,,,,0,0,0,0,,,,,,,,,,,,,,,,,,,,,,,,,0,14,14,14,,,,,,,,,,,,,,,,,,,,,,,,,,,,,,,,,,,,,,,,,,,,,,,,,,,,,,,,,,,,,,,,,,,,,1.9459876318772633,1.0845026000170037,534.918094899971,None,ScrollUp,정답입니다,534.918094899971,None,534.918094899971,None,534.918094899971,None,534.918094899971,None,535.8868975000223,None,535.8868975000223,536.3909394000657,,,,,,,,,,,,,,,,124,2022-05-10_09h33.29.599,FishGame,2022.1.1,60.02577508239855,
,16,나를 데려가줘,6,Orange,B,0,0,ScrollDown,ScrollUp,Orange.png,4,NonTarget,NonTarget,,,,,0,0,0,0,,,,,,,,,,,,,,,,,,,,,,,,,0,15,15,15,,,,,,,,,,,,,,,,,,,,,,,,,,,,,,,,,,,,,,,,,,,,,,,,,,,,,,,,,,,,,,,,,,,,,1.1342592686414719,0.9485050999792293,537.0312099000439,None,ScrollDown,정답입니다,537.0312099000439,None,537.0312099000439,None,537.0312099000439,None,537.0312099000439,None,537.8623519999674,None,537.8623519999674,538.3739968000446,,,,,,,,,,,,,,,,124,2022-05-10_09h33.29.599,FishGame,2022.1.1,60.02577508239855,
,17,넌 행복해,1,Green,A,6.416666666666666,6.166666666666667,ScrollDown,ScrollUp,Green.png,4,Positive,Congruent,,,,,0,0,0,0,,,,,,,,,,,,,,,,,,,,,,,,,0,16,16,16,,,,,,,,,,,,,,,,,,,,,,,,,,,,,,,,,,,,,,,,,,,,,,,,,,,,,,,,,,,,,,,,,,,,,1,0.9108840998960659,539.0154752000235,None,ScrollDown,정답입니다,539.0154752000235,None,539.0154752000235,None,539.0154752000235,None,539.0154752000235,None,539.8127761000069,None,539.8127761000069,540.3240096999798,,,,,,,,,,,,,,,,124,2022-05-10_09h33.29.599,FishGame,2022.1.1,60.02577508239855,
,18,넌 겸손해,2,Orange,B,5.791666666666667,4.766666666666667,ScrollUp,ScrollDown,Orange.png,4,Positive,Incongruent,,,,,0,0,0,0,,,,,,,,,,,,,,,,,,,,,,,,,0,17,17,17,,,,,,,,,,,,,,,,,,,,,,,,,,,,,,,,,,,,,,,,,,,,,,,,,,,,,,,,,,,,,,,,,,,,,2,1.0215824000770226,540.963607099955,None,ScrollUp,정답입니다,540.963607099955,None,540.963607099955,None,540.963607099955,None,540.963607099955,None,541.8705897000618,None,541.8705897000618,542.37390710006,,,,,,,,,,,,,,,,124,2022-05-10_09h33.29.599,FishGame,2022.1.1,60.02577508239855,
,19,나를 보내줘,6,Green,A,0,0,ScrollUp,ScrollDown,Green.png,4,NonTarget,NonTarget,,,,,0,0,0,0,,,,,,,,,,,,,,,,,,,,,,,,,0,18,18,18,,,,,,,,,,,,,,,,,,,,,,,,,,,,,,,,,,,,,,,,,,,,,,,,,,,,,,,,,,,,,,,,,,,,,2,0.9754831000464037,543.0089454000117,None,ScrollUp,정답입니다,543.0089454000117,None,543.0089454000117,None,543.0089454000117,None,543.0089454000117,None,543.8737736999756,None,543.8737736999756,544.3740257000318,,,,,,,,,,,,,,,,124,2022-05-10_09h33.29.599,FishGame,2022.1.1,60.02577508239855,
,20,넌 의심없어,3,Green,A,4.166666666666667,4.6,ScrollDown,ScrollUp,Green.png,4,Neutral,Neutral,,,,,0,0,0,0,,,,,,,,,,,,,,,,,,,,,,,,,0,19,19,19,,,,,,,,,,,,,,,,,,,,,,,,,,,,,,,,,,,,,,,,,,,,,,,,,,,,,,,,,,,,,,,,,,,,,1,1.03376790008042,545.007833300042,None,ScrollDown,정답입니다,545.007833300042,None,545.007833300042,None,545.007833300042,None,545.007833300042,None,545.9282028999878,None,545.9282028999878,546.4410335000139,,,,,,,,,,,,,,,,124,2022-05-10_09h33.29.599,FishGame,2022.1.1,60.02577508239855,
,21,넌 시시해,4,Green,A,2.666666666666667,2.966666666666667,ScrollDown,ScrollUp,Green.png,4,Negative,Incongruent,,,,,0,0,0,0,,,,,,,,,,,,,,,,,,,,,,,,,0,20,20,20,,,,,,,,,,,,,,,,,,,,,,,,,,,,,,,,,,,,,,,,,,,,,,,,,,,,,,,,,,,,,,,,,,,,,1,0.8997480999678373,547.0737076000078,None,ScrollDown,정답입니다,547.0737076000078,None,547.0737076000078,None,547.0737076000078,None,547.0737076000078,None,547.8619159000227,None,547.8619159000227,548.3740942999721,,,,,,,,,,,,,,,,124,2022-05-10_09h33.29.599,FishGame,2022.1.1,60.02577508239855,
,22,나를 데려가줘,6,Orange,B,0,0,ScrollDown,ScrollUp,Orange.png,4,NonTarget,NonTarget,,,,,0,0,0,0,,,,,,,,,,,,,,,,,,,,,,,,,0,21,21,21,,,,,,,,,,,,,,,,,,,,,,,,,,,,,,,,,,,,,,,,,,,,,,,,,,,,,,,,,,,,,,,,,,,,,1,1.0281815000344068,549.0090244000312,None,ScrollDown,정답입니다,549.0090244000312,None,549.0090244000312,None,549.0090244000312,None,549.0090244000312,None,549.928569199983,None,549.928569199983,550.4407023000531,,,,,,,,,,,,,,,,124,2022-05-10_09h33.29.599,FishGame,2022.1.1,60.02577508239855,
,23,넌 무정해,5,Green,A,2.5,2.2,ScrollDown,ScrollUp,Green.png,4,Negative,Incongruent,,,,,0,0,0,0,,,,,,,,,,,,,,,,,,,,,,,,,0,22,22,22,,,,,,,,,,,,,,,,,,,,,,,,,,,,,,,,,,,,,,,,,,,,,,,,,,,,,,,,,,,,,,,,,,,,,1,1.091730899992399,551.0703781000338,None,ScrollDown,정답입니다,551.0703781000338,None,551.0703781000338,None,551.0703781000338,None,551.0703781000338,None,552.057328099967,None,552.057328099967,552.5577873999719,,,,,,,,,,,,,,,,124,2022-05-10_09h33.29.599,FishGame,2022.1.1,60.02577508239855,
,24,넌 긍정적이야,1,Orange,B,6.041666666666667,6.066666666666666,ScrollUp,ScrollDown,Orange.png,4,Positive,Incongruent,,,,,0,0,0,0,,,,,,,,,,,,,,,,,,,,,,,,,0,23,23,23,,,,,,,,,,,,,,,,,,,,,,,,,,,,,,,,,,,,,,,,,,,,,,,,,,,,,,,,,,,,,,,,,,,,,2,1.3816713000414893,553.2019710000604,None,ScrollUp,정답입니다,553.2019710000604,None,553.2019710000604,None,553.2019710000604,None,553.2019710000604,None,554.4619367000414,None,554.4619367000414,554.9742789999582,,,,,,,,,,,,,,,,124,2022-05-10_09h33.29.599,FishGame,2022.1.1,60.02577508239855,
,25,나를 보내줘,6,Green,A,0,0,ScrollUp,ScrollDown,Green.png,4,NonTarget,NonTarget,,,,,0,0,0,0,,,,,,,,,,,,,,,,,,,,,,,,,0,24,24,24,,,,,,,,,,,,,,,,,,,,,,,,,,,,,,,,,,,,,,,,,,,,,,,,,,,,,,,,,,,,,,,,,,,,,1.7731481442848842,1.020319200004451,555.612116400036,None,ScrollUp,정답입니다,555.612116400036,None,555.612116400036,None,555.612116400036,None,555.612116400036,None,556.5208532999968,None,556.5208532999968,557.0235901999986,,,,,,,,,,,,,,,,124,2022-05-10_09h33.29.599,FishGame,2022.1.1,60.02577508239855,
,26,넌 시기심이 많아,5,Orange,B,2.458333333333333,2.233333333333333,ScrollUp,ScrollDown,Orange.png,4,Negative,Congruent,,,,,0,0,0,0,,,,,,,,,,,,,,,,,,,,,,,,,0,25,25,25,,,,,,,,,,,,,,,,,,,,,,,,,,,,,,,,,,,,,,,,,,,,,,,,,,,,,,,,,,,,,,,,,,,,,1.8549382835626602,1.1254164000274613,557.6844140000176,None,ScrollUp,정답입니다,557.6844140000176,None,557.6844140000176,None,557.6844140000176,None,557.6844140000176,None,558.6735989999725,None,558.6735989999725,559.1743584000506,,,,,,,,,,,,,,,,124,2022-05-10_09h33.29.599,FishGame,2022.1.1,60.02577508239855,
,27,넌 탁월해,2,Green,A,5.708333333333334,4.5,ScrollDown,ScrollUp,Green.png,4,Positive,Congruent,,,,,0,0,0,0,,,,,,,,,,,,,,,,,,,,,,,,,0,26,26,26,,,,,,,,,,,,,,,,,,,,,,,,,,,,,,,,,,,,,,,,,,,,,,,,,,,,,,,,,,,,,,,,,,,,,1,1.0892926999367774,559.8139411000302,None,ScrollDown,정답입니다,559.8139411000302,None,559.8139411000302,None,559.8139411000302,None,559.8139411000302,None,560.7910982000176,None,560.7910982000176,561.2912576999515,,,,,,,,,,,,,,,,124,2022-05-10_09h33.29.599,FishGame,2022.1.1,60.02577508239855,
,28,나를 데려가줘,6,Orange,B,0,0,ScrollDown,ScrollUp,Orange.png,4,NonTarget,NonTarget,,,,,0,0,0,0,,,,,,,,,,,,,,,,,,,,,,,,,0,27,27,27,,,,,,,,,,,,,,,,,,,,,,,,,,,,,,,,,,,,,,,,,,,,,,,,,,,,,,,,,,,,,,,,,,,,,1,1.0173766000662,561.9287769000512,None,ScrollDown,정답입니다,561.9287769000512,None,561.9287769000512,None,561.9287769000512,None,561.9287769000512,None,562.8299833000638,None,562.8299833000638,563.3414103999967,,,,,,,,,,,,,,,,124,2022-05-10_09h33.29.599,FishGame,2022.1.1,60.02577508239855,
,29,넌 조용해,3,Orange,B,4.333333333333333,4.166666666666667,ScrollUp,ScrollDown,Orange.png,4,Neutral,Neutral,,,,,0,0,0,0,,,,,,,,,,,,,,,,,,,,,,,,,0,28,28,28,,,,,,,,,,,,,,,,,,,,,,,,,,,,,,,,,,,,,,,,,,,,,,,,,,,,,,,,,,,,,,,,,,,,,2,1.1135932001052424,563.9934862999944,None,ScrollUp,정답입니다,563.9934862999944,None,563.9934862999944,None,563.9934862999944,None,563.9934862999944,None,564.9789514000295,None,564.9789514000295,565.4910212999675,,,,,,,,,,,,,,,,124,2022-05-10_09h33.29.599,FishGame,2022.1.1,60.02577508239855,
,30,넌 다정해,1,Green,A,5.833333333333334,5.7,ScrollDown,ScrollUp,Green.png,4,Positive,Congruent,,,,,0,0,0,0,,,,,,,,,,,,,,,,,,,,,,,,,0,29,29,29,,,,,,,,,,,,,,,,,,,,,,,,,,,,,,,,,,,,,,,,,,,,,,,,,,,,,,,,,,,,,,,,,,,,,1,1.0992132999235764,566.1277054999955,None,ScrollDown,정답입니다,566.1277054999955,None,566.1277054999955,None,566.1277054999955,None,566.1277054999955,None,567.112286800053,None,567.112286800053,567.6246227000374,,,,,,,,,,,,,,,,124,2022-05-10_09h33.29.599,FishGame,2022.1.1,60.02577508239855,
,31,넌 능력있어,2,Orange,B,6.166666666666666,4.6,ScrollUp,ScrollDown,Orange.png,4,Positive,Incongruent,,,,,0,0,0,0,,,,,,,,,,,,,,,,,,,,,,,,,0,30,30,30,,,,,,,,,,,,,,,,,,,,,,,,,,,,,,,,,,,,,,,,,,,,,,,,,,,,,,,,,,,,,,,,,,,,,2,1.1413458999013528,568.256531800027,None,ScrollUp,정답입니다,568.256531800027,None,568.256531800027,None,568.256531800027,None,568.256531800027,None,569.2909746000078,None,569.2909746000078,569.79138900002,,,,,,,,,,,,,,,,124,2022-05-10_09h33.29.599,FishGame,2022.1.1,60.02577508239855,
,32,넌 불쾌해,5,Green,A,2.125,1.933333333333333,ScrollDown,ScrollUp,Green.png,4,Negative,Incongruent,,,,,0,0,0,0,,,,,,,,,,,,,,,,,,,,,,,,,0,31,31,31,,,,,,,,,,,,,,,,,,,,,,,,,,,,,,,,,,,,,,,,,,,,,,,,,,,,,,,,,,,,,,,,,,,,,1,0.9990309999557212,570.4257790000411,None,ScrollDown,정답입니다,570.4257790000411,None,570.4257790000411,None,570.4257790000411,None,570.4257790000411,None,571.3124251000118,None,571.3124251000118,571.824380200007,,,,,,,,,,,,,,,,124,2022-05-10_09h33.29.599,FishGame,2022.1.1,60.02577508239855,
,33,나를 데려가줘,6,Orange,B,0,0,ScrollDown,ScrollUp,Orange.png,4,NonTarget,NonTarget,,,,,0,0,0,0,,,,,,,,,,,,,,,,,,,,,,,,,0,32,32,32,,,,,,,,,,,,,,,,,,,,,,,,,,,,,,,,,,,,,,,,,,,,,,,,,,,,,,,,,,,,,,,,,,,,,1,1.0152085999725387,572.4650285999523,None,ScrollDown,정답입니다,572.4650285999523,None,572.4650285999523,None,572.4650285999523,None,572.4650285999523,None,573.362774600042,None,573.362774600042,573.8746489000041,,,,,,,,,,,,,,,,124,2022-05-10_09h33.29.599,FishGame,2022.1.1,60.02577508239855,
,34,넌 유순해,3,Green,A,4.458333333333333,5,ScrollDown,ScrollUp,Green.png,4,Neutral,Neutral,,,,,0,0,0,0,,,,,,,,,,,,,,,,,,,,,,,,,0,33,33,33,,,,,,,,,,,,,,,,,,,,,,,,,,,,,,,,,,,,,,,,,,,,,,,,,,,,,,,,,,,,,,,,,,,,,1,1.0717255000490695,574.5111291999929,None,ScrollDown,정답입니다,574.5111291999929,None,574.5111291999929,None,574.5111291999929,None,574.5111291999929,None,575.4746963999933,None,575.4746963999933,575.9745477000251,,,,,,,,,,,,,,,,124,2022-05-10_09h33.29.599,FishGame,2022.1.1,60.02577508239855,
,35,넌 근심스러워,4,Orange,B,2.708333333333333,3.133333333333333,ScrollUp,ScrollDown,Orange.png,4,Negative,Congruent,,,,,0,0,0,0,,,,,,,,,,,,,,,,,,,,,,,,,0,34,34,34,,,,,,,,,,,,,,,,,,,,,,,,,,,,,,,,,,,,,,,,,,,,,,,,,,,,,,,,,,,,,,,,,,,,,1.9922839502493541,0.959654500009492,576.6135568000609,None,ScrollUp,정답입니다,576.6135568000609,None,576.6135568000609,None,576.6135568000609,None,576.6135568000609,None,577.4579419000074,None,577.4579419000074,577.9578819000162,,,,,,,,,,,,,,,,124,2022-05-10_09h33.29.599,FishGame,2022.1.1,60.02577508239855,
,36,넌 세련되었어,2,Green,A,5.5,4.6,ScrollDown,ScrollUp,Green.png,4,Positive,Congruent,,,,,0,0,0,0,,,,,,,,,,,,,,,,,,,,,,,,,0,35,35,35,,,,,,,,,,,,,,,,,,,,,,,,,,,,,,,,,,,,,,,,,,,,,,,,,,,,,,,,,,,,,,,,,,,,,1,0.9991417999844998,578.6097141000209,None,ScrollDown,정답입니다,578.6097141000209,None,578.6097141000209,None,578.6097141000209,None,578.6097141000209,None,579.4814587000292,None,579.4814587000292,579.9919355000602,,,,,,,,,,,,,,,,124,2022-05-10_09h33.29.599,FishGame,2022.1.1,60.02577508239855,
,37,나를 보내줘,6,Green,A,0,0,ScrollUp,ScrollDown,Green.png,4,NonTarget,NonTarget,,,,,0,0,0,0,,,,,,,,,,,,,,,,,,,,,,,,,0,36,36,36,,,,,,,,,,,,,,,,,,,,,,,,,,,,,,,,,,,,,,,,,,,,,,,,,,,,,,,,,,,,,,,,,,,,,1.9938271641731262,1.0250225000781938,580.6228917000117,None,ScrollUp,정답입니다,580.6228917000117,None,580.6228917000117,None,580.6228917000117,None,580.6228917000117,None,581.5411639000522,None,581.5411639000522,582.0419500999851,,,,,,,,,,,,,,,,124,2022-05-10_09h33.29.599,FishGame,2022.1.1,60.02577508239855,
,38,넌 확고해,3,Orange,B,4.708333333333334,4.566666666666666,ScrollUp,ScrollDown,Orange.png,4,Neutral,Neutral,,,,,0,0,0,0,,,,,,,,,,,,,,,,,,,,,,,,,0,37,37,37,,,,,,,,,,,,,,,,,,,,,,,,,,,,,,,,,,,,,,,,,,,,,,,,,,,,,,,,,,,,,,,,,,,,,1.9074074079593022,1.0093248001066968,582.6881568999961,None,ScrollUp,정답입니다,582.6881568999961,None,582.6881568999961,None,582.6881568999961,None,582.6881568999961,None,583.5763822000008,None,583.5763822000008,584.0914840999758,,,,,,,,,,,,,,,,124,2022-05-10_09h33.29.599,FishGame,2022.1.1,60.02577508239855,
,39,넌 이해심이 많아,1,Orange,B,6.041666666666668,5.533333333333333,ScrollUp,ScrollDown,Orange.png,4,Positive,Incongruent,,,,,0,0,0,0,,,,,,,,,,,,,,,,,,,,,,,,,0,38,38,38,,,,,,,,,,,,,,,,,,,,,,,,,,,,,,,,,,,,,,,,,,,,,,,,,,,,,,,,,,,,,,,,,,,,,2,1.0150055000558496,584.7350210000295,None,ScrollUp,정답입니다,584.7350210000295,None,584.7350210000295,None,584.7350210000295,None,584.7350210000295,None,585.6294292999664,None,585.6294292999664,586.1414959999966,,,,,,,,,,,,,,,,124,2022-05-10_09h33.29.599,FishGame,2022.1.1,60.02577508239855,
,40,나를 보내줘,6,Green,A,0,0,ScrollUp,ScrollDown,Green.png,4,NonTarget,NonTarget,,,,,0,0,0,0,,,,,,,,,,,,,,,,,,,,,,,,,0,39,39,39,,,,,,,,,,,,,,,,,,,,,,,,,,,,,,,,,,,,,,,,,,,,,,,,,,,,,,,,,,,,,,,,,,,,,2,1.0327312999870628,586.7771305000642,None,ScrollUp,정답입니다,586.7771305000642,None,586.7771305000642,None,586.7771305000642,None,586.7771305000642,None,587.6961151000578,None,587.6961151000578,588.2082703000633,,,,,,,,,,,,,,,,124,2022-05-10_09h33.29.599,FishGame,2022.1.1,60.02577508239855,
,41,넌 거칠어,4,Green,A,2.625,3.033333333333333,ScrollDown,ScrollUp,Green.png,4,Negative,Incongruent,,,,,0,0,0,0,,,,,,,,,,,,,,,,,,,,,,,,,0,40,40,40,,,,,,,,,,,,,,,,,,,,,,,,,,,,,,,,,,,,,,,,,,,,,,,,,,,,,,,,,,,,,,,,,,,,,1,1.1361948000267148,588.8566852000076,None,ScrollDown,정답입니다,588.8566852000076,None,588.8566852000076,None,588.8566852000076,None,588.8566852000076,None,589.8715701999608,None,589.8715701999608,590.3748192000203,,,,,,,,,,,,,,,,124,2022-05-10_09h33.29.599,FishGame,2022.1.1,60.02577508239855,
,42,넌 변덕맞아,5,Orange,B,2.75,2.166666666666667,ScrollUp,ScrollDown,Orange.png,4,Negative,Congruent,,,,,0,0,0,0,,,,,,,,,,,,,,,,,,,,,,,,,0,41,41,41,,,,,,,,,,,,,,,,,,,,,,,,,,,,,,,,,,,,,,,,,,,,,,,,,,,,,,,,,,,,,,,,,,,,,1.7283950646718345,1.102130699902773,591.0262618999695,None,ScrollUp,정답입니다,591.0262618999695,None,591.0262618999695,None,591.0262618999695,None,591.0262618999695,None,592.0048096999526,None,592.0048096999526,592.508318200009,,,,,,,,,,,,,,,,124,2022-05-10_09h33.29.599,FishGame,2022.1.1,60.02577508239855,
,43,나를 데려가줘,6,Orange,B,0,0,ScrollDown,ScrollUp,Orange.png,4,NonTarget,NonTarget,,,,,0,0,0,0,,,,,,,,,,,,,,,,,,,,,,,,,0,42,42,42,,,,,,,,,,,,,,,,,,,,,,,,,,,,,,,,,,,,,,,,,,,,,,,,,,,,,,,,,,,,,,,,,,,,,1,0.9914898000424728,593.1573162999703,None,ScrollDown,정답입니다,593.1573162999703,None,593.1573162999703,None,593.1573162999703,None,593.1573162999703,None,594.025003900053,None,594.025003900053,594.5251142999623,,,,,,,,,,,,,,,,124,2022-05-10_09h33.29.599,FishGame,2022.1.1,60.02577508239855,
,44,넌 외로워,4,Orange,B,2.833333333333333,3.3,ScrollUp,ScrollDown,Orange.png,4,Negative,Congruent,,,,,0,0,0,0,,,,,,,,,,,,,,,,,,,,,,,,,0,43,43,43,,,,,,,,,,,,,,,,,,,,,,,,,,,,,,,,,,,,,,,,,,,,,,,,,,,,,,,,,,,,,,,,,,,,,2,1.0390856000594795,595.1748600000283,None,ScrollUp,정답입니다,595.1748600000283,None,595.1748600000283,None,595.1748600000283,None,595.1748600000283,None,596.0914929000428,None,596.0914929000428,596.5917656000238,,,,,,,,,,,,,,,,124,2022-05-10_09h33.29.599,FishGame,2022.1.1,60.02577508239855,
,1,넌 불평스러워,5,Green,A,2.25,2.066666666666667,ScrollDown,ScrollUp,Green.png,5,Negative,Incongruent,,,,,0,0,0,0,,,,,,,,,,,,,,,,,,,,,,,,,,,,,0,0,0,0,,,,,,,,,,,,,,,,,,,,,,,,628.1420153999934,629.6424008000176,629.6762180000078,630.6258748000255,630.6762117999606,631.6260465000523,631.6260465000523,None,,,,,,,,,,,,,,,,,,,,,,,,,,,,,,,,,,1.0833333333333333,1.1033203999977559,632.7825871000532,None,ScrollDown,정답입니다,632.7825871000532,None,632.7825871000532,None,632.7825871000532,None,632.7825871000532,None,633.7255967999808,None,633.7255967999808,634.2263589999638,597.0917727999622,None,597.0917727999622,None,0.022222223,-0.13055556,1,0,0,0.016299959970638156,None,627.092871800065,None,,,124,2022-05-10_09h33.29.599,FishGame,2022.1.1,60.02577508239855,
,2,나를 보내줘,6,Green,A,0,0,ScrollUp,ScrollDown,Green.png,5,NonTarget,NonTarget,,,,,0,0,0,0,,,,,,,,,,,,,,,,,,,,,,,,,,,,,0,1,1,1,,,,,,,,,,,,,,,,,,,,,,,,,,,,,,,,,,,,,,,,,,,,,,,,,,,,,,,,,,,,,,,,,1.983024666706721,0.9663490999955684,634.8596737000626,None,ScrollUp,정답입니다,634.8596737000626,None,634.8596737000626,None,634.8596737000626,None,634.8596737000626,None,635.7139977000188,None,635.7139977000188,636.2261295999633,,,,,,,,,,,,,,,,124,2022-05-10_09h33.29.599,FishGame,2022.1.1,60.02577508239855,
,3,넌 다재다능해,2,Orange,B,6.208333333333333,4.5,ScrollUp,ScrollDown,Orange.png,5,Positive,Incongruent,,,,,0,0,0,0,,,,,,,,,,,,,,,,,,,,,,,,,,,,,0,2,2,2,,,,,,,,,,,,,,,,,,,,,,,,,,,,,,,,,,,,,,,,,,,,,,,,,,,,,,,,,,,,,,,,,1.614197532335917,1.0597529000369832,636.8631847000215,None,ScrollUp,정답입니다,636.8631847000215,None,636.8631847000215,None,636.8631847000215,None,636.8631847000215,None,637.8091296000639,None,637.8091296000639,638.3090992000652,,,,,,,,,,,,,,,,124,2022-05-10_09h33.29.599,FishGame,2022.1.1,60.02577508239855,
,4,넌 과감해,3,Green,A,4.833333333333334,4.6,ScrollDown,ScrollUp,Green.png,5,Neutral,Neutral,,,,,0,0,0,0,,,,,,,,,,,,,,,,,,,,,,,,,,,,,0,3,3,3,,,,,,,,,,,,,,,,,,,,,,,,,,,,,,,,,,,,,,,,,,,,,,,,,,,,,,,,,,,,,,,,,1.0679012437661488,0.9837047000182793,638.9507808999624,None,ScrollDown,정답입니다,638.9507808999624,None,638.9507808999624,None,638.9507808999624,None,638.9507808999624,None,639.8144138000207,None,639.8144138000207,640.3269106000662,,,,,,,,,,,,,,,,124,2022-05-10_09h33.29.599,FishGame,2022.1.1,60.02577508239855,
,5,넌 고분고분해,3,Orange,B,3.75,4.033333333333333,ScrollUp,ScrollDown,Orange.png,5,Neutral,Neutral,,,,,0,0,0,0,,,,,,,,,,,,,,,,,,,,,,,,,,,,,0,4,4,4,,,,,,,,,,,,,,,,,,,,,,,,,,,,,,,,,,,,,,,,,,,,,,,,,,,,,,,,,,,,,,,,,1.8040123482545216,1.0170551999472082,640.9709334999789,None,ScrollUp,정답입니다,640.9709334999789,None,640.9709334999789,None,640.9709334999789,None,640.9709334999789,None,641.8636858999962,None,641.8636858999962,642.3760980999796,,,,,,,,,,,,,,,,124,2022-05-10_09h33.29.599,FishGame,2022.1.1,60.02577508239855,
,6,나를 보내줘,6,Green,A,0,0,ScrollUp,ScrollDown,Green.png,5,NonTarget,NonTarget,,,,,0,0,0,0,,,,,,,,,,,,,,,,,,,,,,,,,,,,,0,5,5,5,,,,,,,,,,,,,,,,,,,,,,,,,,,,,,,,,,,,,,,,,,,,,,,,,,,,,,,,,,,,,,,,,1.819444437821706,1.0542820000555366,643.0140661000041,None,ScrollUp,정답입니다,643.0140661000041,None,643.0140661000041,None,643.0140661000041,None,643.0140661000041,None,643.9558913999936,None,643.9558913999936,644.4597344000358,,,,,,,,,,,,,,,,124,2022-05-10_09h33.29.599,FishGame,2022.1.1,60.02577508239855,
,7,넌 잘 잊어,4,Green,A,3,3.7,ScrollDown,ScrollUp,Green.png,5,Negative,Incongruent,,,,,0,0,0,0,,,,,,,,,,,,,,,,,,,,,,,,,,,,,0,6,6,6,,,,,,,,,,,,,,,,,,,,,,,,,,,,,,,,,,,,,,,,,,,,,,,,,,,,,,,,,,,,,,,,,1,1.0746067999862134,645.1012824999634,None,ScrollDown,정답입니다,645.1012824999634,None,645.1012824999634,None,645.1012824999634,None,645.1012824999634,None,646.0595941999927,None,646.0595941999927,646.5598894000286,,,,,,,,,,,,,,,,124,2022-05-10_09h33.29.599,FishGame,2022.1.1,60.02577508239855,
,8,넌 탐구심이없어,4,Orange,B,2.833333333333333,3.066666666666667,ScrollUp,ScrollDown,Orange.png,5,Negative,Congruent,,,,,0,0,0,0,,,,,,,,,,,,,,,,,,,,,,,,,,,,,0,7,7,7,,,,,,,,,,,,,,,,,,,,,,,,,,,,,,,,,,,,,,,,,,,,,,,,,,,,,,,,,,,,,,,,,1.7762345721324284,1.154085300047882,647.2018718000036,None,ScrollUp,정답입니다,647.2018718000036,None,647.2018718000036,None,647.2018718000036,None,647.2018718000036,None,648.2429928999627,None,648.2429928999627,648.743474500021,,,,,,,,,,,,,,,,124,2022-05-10_09h33.29.599,FishGame,2022.1.1,60.02577508239855,
,9,나를 데려가줘,6,Orange,B,0,0,ScrollDown,ScrollUp,Orange.png,5,NonTarget,NonTarget,,,,,0,0,0,0,,,,,,,,,,,,,,,,,,,,,,,,,,,,,0,8,8,8,,,,,,,,,,,,,,,,,,,,,,,,,,,,,,,,,,,,,,,,,,,,,,,,,,,,,,,,,,,,,,,,,1.080246905485789,1.0259534999495372,649.3857984000351,None,ScrollDown,정답입니다,649.3857984000351,None,649.3857984000351,None,649.3857984000351,None,649.3857984000351,None,650.292454999988,None,650.292454999988,650.7928463000571,,,,,,,,,,,,,,,,124,2022-05-10_09h33.29.599,FishGame,2022.1.1,60.02577508239855,
,10,넌 참되어,2,Green,A,6.041666666666664,4.733333333333333,ScrollDown,ScrollUp,Green.png,5,Positive,Congruent,,,,,0,0,0,0,,,,,,,,,,,,,,,,,,,,,,,,,,,,,0,9,9,9,,,,,,,,,,,,,,,,,,,,,,,,,,,,,,,,,,,,,,,,,,,,,,,,,,,,,,,,,,,,,,,,,1.016975333293279,1.0338178999954835,651.4302559000207,None,ScrollDown,정답입니다,651.4302559000207,None,651.4302559000207,None,651.4302559000207,None,651.4302559000207,None,652.3562952000648,None,652.3562952000648,652.859683800023,,,,,,,,,,,,,,,,124,2022-05-10_09h33.29.599,FishGame,2022.1.1,60.02577508239855,
,11,넌 생기있어,1,Orange,B,5.875,5.633333333333334,ScrollUp,ScrollDown,Orange.png,5,Positive,Incongruent,,,,,0,0,0,0,,,,,,,,,,,,,,,,,,,,,,,,,,,,,0,10,10,10,,,,,,,,,,,,,,,,,,,,,,,,,,,,,,,,,,,,,,,,,,,,,,,,,,,,,,,,,,,,,,,,,1.703703703979651,0.9702978000277653,653.5035802000202,None,ScrollUp,정답입니다,653.5035802000202,None,653.5035802000202,None,653.5035802000202,None,653.5035802000202,None,654.3597295000218,None,654.3597295000218,654.8597010000376,,,,,,,,,,,,,,,,124,2022-05-10_09h33.29.599,FishGame,2022.1.1,60.02577508239855,
,12,넌 비사교적이야,4,Orange,B,2.875,2.9,ScrollUp,ScrollDown,Orange.png,5,Negative,Congruent,,,,,0,0,0,0,,,,,,,,,,,,,,,,,,,,,,,,,,,,,0,11,11,11,,,,,,,,,,,,,,,,,,,,,,,,,,,,,,,,,,,,,,,,,,,,,,,,,,,,,,,,,,,,,,,,,1.6944444452722869,1.030885100015439,655.4987829000456,None,ScrollUp,정답입니다,655.4987829000456,None,655.4987829000456,None,655.4987829000456,None,655.4987829000456,None,656.4146455000155,None,656.4146455000155,656.9267762000673,,,,,,,,,,,,,,,,124,2022-05-10_09h33.29.599,FishGame,2022.1.1,60.02577508239855,
,13,나를 데려가줘,6,Orange,B,0,0,ScrollDown,ScrollUp,Orange.png,5,NonTarget,NonTarget,,,,,0,0,0,0,,,,,,,,,,,,,,,,,,,,,,,,,,,,,0,12,12,12,,,,,,,,,,,,,,,,,,,,,,,,,,,,,,,,,,,,,,,,,,,,,,,,,,,,,,,,,,,,,,,,,1,0.9760991999646649,657.5651176000247,None,ScrollDown,정답입니다,657.5651176000247,None,657.5651176000247,None,657.5651176000247,None,657.5651176000247,None,658.426315400051,None,658.426315400051,658.9263650999637,,,,,,,,,,,,,,,,124,2022-05-10_09h33.29.599,FishGame,2022.1.1,60.02577508239855,
,14,넌 고독해,4,Green,A,2.916666666666667,3.233333333333333,ScrollDown,ScrollUp,Green.png,5,Negative,Incongruent,,,,,0,0,0,0,,,,,,,,,,,,,,,,,,,,,,,,,,,,,0,13,13,13,,,,,,,,,,,,,,,,,,,,,,,,,,,,,,,,,,,,,,,,,,,,,,,,,,,,,,,,,,,,,,,,,1.0586419602235158,1.439459800021723,659.5651274999836,None,ScrollDown,정답입니다,659.5651274999836,None,659.5651274999836,None,659.5651274999836,None,659.5651274999836,None,660.8931812000228,None,660.8931812000228,661.3930672999704,,,,,,,,,,,,,,,,124,2022-05-10_09h33.29.599,FishGame,2022.1.1,60.02577508239855,
,15,넌 신경질적이야,5,Orange,B,2.375,2.233333333333333,ScrollUp,ScrollDown,Orange.png,5,Negative,Congruent,,,,,0,0,0,0,,,,,,,,,,,,,,,,,,,,,,,,,,,,,0,14,14,14,,,,,,,,,,,,,,,,,,,,,,,,,,,,,,,,,,,,,,,,,,,,,,,,,,,,,,,,,,,,,,,,,1.9475308458010356,0.9472522001015022,662.0314935999922,None,ScrollUp,정답입니다,662.0314935999922,None,662.0314935999922,None,662.0314935999922,None,662.0314935999922,None,662.8641160000116,None,662.8641160000116,663.3762783999555,,,,,,,,,,,,,,,,124,2022-05-10_09h33.29.599,FishGame,2022.1.1,60.02577508239855,
,16,넌 똑똑해,2,Orange,B,5.666666666666667,3.966666666666667,ScrollUp,ScrollDown,Orange.png,5,Positive,Incongruent,,,,,0,0,0,0,,,,,,,,,,,,,,,,,,,,,,,,,,,,,0,15,15,15,,,,,,,,,,,,,,,,,,,,,,,,,,,,,,,,,,,,,,,,,,,,,,,,,,,,,,,,,,,,,,,,,1.6018518519898257,0.998795099905692,664.0172310000053,None,ScrollUp,정답입니다,664.0172310000053,None,664.0172310000053,None,664.0172310000053,None,664.0172310000053,None,664.8984111000318,None,664.8984111000318,665.4099163999781,,,,,,,,,,,,,,,,124,2022-05-10_09h33.29.599,FishGame,2022.1.1,60.02577508239855,
,17,나를 보내줘,6,Green,A,0,0,ScrollUp,ScrollDown,Green.png,5,NonTarget,NonTarget,,,,,0,0,0,0,,,,,,,,,,,,,,,,,,,,,,,,,,,,,0,16,16,16,,,,,,,,,,,,,,,,,,,,,,,,,,,,,,,,,,,,,,,,,,,,,,,,,,,,,,,,,,,,,,,,,1.8688271592060726,1.0773639000253752,666.042033100035,None,ScrollUp,정답입니다,666.042033100035,None,666.042033100035,None,666.042033100035,None,666.042033100035,None,667.0134721000213,None,667.0134721000213,667.5272498000413,,,,,,,,,,,,,,,,124,2022-05-10_09h33.29.599,FishGame,2022.1.1,60.02577508239855,
,18,넌 협조적이야,1,Green,A,5.625,5.666666666666667,ScrollDown,ScrollUp,Green.png,5,Positive,Congruent,,,,,0,0,0,0,,,,,,,,,,,,,,,,,,,,,,,,,,,,,0,17,17,17,,,,,,,,,,,,,,,,,,,,,,,,,,,,,,,,,,,,,,,,,,,,,,,,,,,,,,,,,,,,,,,,,1.0154321193695068,1.0841090000467375,668.1740535000572,None,ScrollDown,정답입니다,668.1740535000572,None,668.1740535000572,None,668.1740535000572,None,668.1740535000572,None,669.1400012000231,None,669.1400012000231,669.6433121999726,,,,,,,,,,,,,,,,124,2022-05-10_09h33.29.599,FishGame,2022.1.1,60.02577508239855,
,19,나를 데려가줘,6,Orange,B,0,0,ScrollDown,ScrollUp,Orange.png,5,NonTarget,NonTarget,,,,,0,0,0,0,,,,,,,,,,,,,,,,,,,,,,,,,,,,,0,18,18,18,,,,,,,,,,,,,,,,,,,,,,,,,,,,,,,,,,,,,,,,,,,,,,,,,,,,,,,,,,,,,,,,,1,1.0381809000391513,670.2819672999904,None,ScrollDown,정답입니다,670.2819672999904,None,670.2819672999904,None,670.2819672999904,None,670.2819672999904,None,671.2102373000234,None,671.2102373000234,671.7101714999881,,,,,,,,,,,,,,,,124,2022-05-10_09h33.29.599,FishGame,2022.1.1,60.02577508239855,
