name,TrialNum,Word,WordCategory,FishType,WordList,WordValence,WordReputation,CorrectResp,IncorrectResp,FishTypeFile,Round,WordType,Condition,LoopforOrange.thisRepN,LoopforOrange.thisTrialN,LoopforOrange.thisN,LoopforOrange.thisIndex,OrangeInstLoop.thisRepN,OrangeInstLoop.thisTrialN,OrangeInstLoop.thisN,OrangeInstLoop.thisIndex,OrangePrac.thisRepN,OrangePrac.thisTrialN,OrangePrac.thisN,OrangePrac.thisIndex,temp1.thisRepN,temp1.thisTrialN,temp1.thisN,temp1.thisIndex,OrangeRound1.thisRepN,OrangeRound1.thisTrialN,OrangeRound1.thisN,OrangeRound1.thisIndex,OrangeRound2.thisRepN,OrangeRound2.thisTrialN,OrangeRound2.thisN,OrangeRound2.thisIndex,OrangeRound3.thisRepN,OrangeRound3.thisTrialN,OrangeRound3.thisN,OrangeRound3.thisIndex,OrangeRound4.thisRepN,OrangeRound4.thisTrialN,OrangeRound4.thisN,OrangeRound4.thisIndex,OrangeRound5.thisRepN,OrangeRound5.thisTrialN,OrangeRound5.thisN,OrangeRound5.thisIndex,LoopForGreen.thisRepN,LoopForGreen.thisTrialN,LoopForGreen.thisN,LoopForGreen.thisIndex,text_2.started,text_2.stopped,text_3.started,text_3.stopped,key_resp.keys,key_resp.rt,key_resp.started,key_resp.stopped,PassI_2.started,PassI_2.stopped,PassInst_2.keys,PassInst_2.rt,PassInst_2.started,PassInst_2.stopped,mouse_2.x,mouse_2.y,mouse_2.leftButton,mouse_2.midButton,mouse_2.rightButton,mouse_2.started,mouse_2.stopped,image.started,image.stopped,text_5.started,text_5.stopped,text_6.started,text_6.stopped,text_7.started,text_7.stopped,text_8.started,text_8.stopped,slider_2.response,slider_2.rt,slider_2.started,slider_2.stopped,Response_2,Feedback_2,BackGround_2.started,BackGround_2.stopped,Fish_2.started,Fish_2.stopped,WordBox_2.started,WordBox_2.stopped,Words_2.started,Words_2.stopped,BackGround_Feedback_2.started,BackGround_Feedback_2.stopped,Feedbacks_2.started,Feedbacks_2.stopped,Continue_or_not.keys,Continue_or_not.rt,Continue_or_not.started,Continue_or_not.stopped,image_3.started,image_3.stopped,mouse_3.x,mouse_3.y,mouse_3.leftButton,mouse_3.midButton,mouse_3.rightButton,mouse_3.started,mouse_3.stopped,startmain.started,startmain.stopped,slider.response,slider.rt,slider.started,slider.stopped,Response,Feedback,BackGround.started,BackGround.stopped,Fish.started,Fish.stopped,WordBox.started,WordBox.stopped,Words.started,Words.stopped,BackGround_Feedback.started,BackGround_Feedback.stopped,Feedbacks.started,Feedbacks.stopped,text.started,text.stopped,break_interval.started,break_interval.stopped,mouse.x,mouse.y,mouse.leftButton,mouse.midButton,mouse.rightButton,mouse.started,mouse.stopped,stratnextround.started,stratnextround.stopped,endgame.started,endgame.stopped,participant,date,expName,psychopyVersion,frameRate,
,,,,,,,,,,,,,,,,,,,,,,,,,,,,,,,,,,,,,,,,,,,,,,,,,,,,,,22.044626699993387,None,22.044626699993387,None,space,3.283759699901566,22.514306099968962,None,,,,,,,,,,,,,,,,,,,,,,,,,,,,,,,,,,,,,,,,,,,,,,,,,,,,,,,,,,,,,,,,,,,,,,,,,,,,,,,,,,,,,,,,,,125,2022-05-10_12h26.56.117,FishGame,2022.1.1,60.05115156891075,
물고기과제_instruction(참가자용)OrangeVersion.mp4,,,,,,,,,,,,,,0,0,0,0,0,0,0,0,,,,,,,,,,,,,,,,,,,,,,,,,,,,,,,,,,,,,,,,,92.20032210007776,None,n,11.273470800020732,92.20032210007776,None,,,,,,,,,,,,,,,,,,,,,,,,,,,,,,,,,,,,,,,,,,,,,,,,,,,,,,,,,,,,,,,,,,,,,,,,,,,,,,,,,,,,125,2022-05-10_12h26.56.117,FishGame,2022.1.1,60.05115156891075,
,1,넌 교활해,5,Green,B,2.333333333333333,2.133333333333333,ScrollUp,ScrollDown,Green.png,practice,,,0,0,0,0,,,,,0,0,0,0,0,0,0,0,,,,,,,,,,,,,,,,,,,,,,,,,,,,,,,,,,,,,,,-0.019444445,-0.19629629,1,0,0,0.5135935798753053,None,103.49975339998491,None,106.74967889999971,108.24925190000795,108.28278150002006,109.23309980006889,109.28249050001614,110.23296359996311,110.23296359996311,None,1.4737654315928619,1.588581299991347,111.39314499998,None,NoResponse,무응답입니다,111.39314499998,None,111.39314499998,None,111.39314499998,None,111.39314499998,None,112.81575900001917,None,112.81575900001917,113.31615219998639,,,,,,,,,,,,,,,,,,,,,,,,,,,,,,,,,,,,,,,,,,,,,,,,,125,2022-05-10_12h26.56.117,FishGame,2022.1.1,60.05115156891075,
,2,넌 슬기로워,2,Orange,A,6.166666666666667,4.1,ScrollDown,ScrollUp,Orange.png,practice,,,0,0,0,0,,,,,0,0,0,0,0,1,1,1,,,,,,,,,,,,,,,,,,,,,,,,,,,,,,,,,,,,,,,,,,,,,,,,,,,,,,,,1.0848765472571056,3.7593429000116885,113.9560591999907,None,ScrollDown,정답입니다,113.9560591999907,None,113.9560591999907,None,113.9560591999907,None,113.9560591999907,None,117.59977049997542,None,117.59977049997542,118.09953010000754,,,,,,,,,,,,,,,,,,,,,,,,,,,,,,,,,,,,,,,,,,,,,,,,,125,2022-05-10_12h26.56.117,FishGame,2022.1.1,60.05115156891075,
,3,나를 보내줘,6,Orange,A,0,0,ScrollUp,ScrollDown,Orange.png,practice,,,0,0,0,0,,,,,0,0,0,0,0,2,2,2,,,,,,,,,,,,,,,,,,,,,,,,,,,,,,,,,,,,,,,,,,,,,,,,,,,,,,,,1.0293209950129192,1.8722420999547467,118.76075530005619,None,ScrollDown,오답입니다,118.76075530005619,None,118.76075530005619,None,118.76075530005619,None,118.76075530005619,None,120.49444420007057,None,120.49444420007057,120.99938060005661,,,,,,,,,,,,,,,,,,,,,,,,,,,,,,,,,,,,,,,,,,,,,,,,,125,2022-05-10_12h26.56.117,FishGame,2022.1.1,60.05115156891075,
,4,나를 데려가줘,6,Green,B,0,0,ScrollDown,ScrollUp,Green.png,practice,,,0,0,0,0,,,,,0,0,0,0,0,3,3,3,,,,,,,,,,,,,,,,,,,,,,,,,,,,,,,,,,,,,,,,,,,,,,,,,,,,,,,,1.0756172637144725,1.6776903999270871,121.63120359997265,None,ScrollDown,정답입니다,121.63120359997265,None,121.63120359997265,None,121.63120359997265,None,121.63120359997265,None,123.19946070003789,None,123.19946070003789,123.69983950001188,,,,,,,,,,,,,,,,,,,,,,,,,,,,,,,,,,,,,,,,,,,,,,,,,125,2022-05-10_12h26.56.117,FishGame,2022.1.1,60.05115156891075,
,1,넌 교활해,5,Green,B,2.333333333333333,2.133333333333333,ScrollUp,ScrollDown,Green.png,practice,,,0,0,0,0,,,,,0,0,0,0,,,,,,,,,,,,,,,,,,,,,,,,,,,,,,,,,,,,,,,,,,,,,,,,,,,,,,,,,,,,,,,,,,,,,,,,,,,,,,y,10.72978970000986,124.19965640001465,None,124.19965640001465,None,,,,,,,,,,,,,,,,,,,,,,,,,,,,,,,,,,,,,,,,,,,125,2022-05-10_12h26.56.117,FishGame,2022.1.1,60.05115156891075,
,1,넌 교활해,5,Green,B,2.333333333333333,2.133333333333333,ScrollUp,ScrollDown,Green.png,practice,,,0,0,0,0,,,,,0,1,1,1,0,0,0,0,,,,,,,,,,,,,,,,,,,,,,,,,,,,,,,,,,,,,,,,,,,,,,,,,,,,,,,,2,2.4471134999766946,135.14316400000826,None,ScrollUp,정답입니다,135.14316400000826,None,135.14316400000826,None,135.14316400000826,None,135.14316400000826,None,137.42950470000505,None,137.42950470000505,137.93323500000406,,,,,,,,,,,,,,,,,,,,,,,,,,,,,,,,,,,,,,,,,,,,,,,,,125,2022-05-10_12h26.56.117,FishGame,2022.1.1,60.05115156891075,
,2,넌 슬기로워,2,Orange,A,6.166666666666667,4.1,ScrollDown,ScrollUp,Orange.png,practice,,,0,0,0,0,,,,,0,1,1,1,0,1,1,1,,,,,,,,,,,,,,,,,,,,,,,,,,,,,,,,,,,,,,,,,,,,,,,,,,,,,,,,1.0339506367842357,1.2893395000137389,138.56032689998392,None,ScrollDown,정답입니다,138.56032689998392,None,138.56032689998392,None,138.56032689998392,None,138.56032689998392,None,139.74948120000772,None,139.74948120000772,140.24988220003434,,,,,,,,,,,,,,,,,,,,,,,,,,,,,,,,,,,,,,,,,,,,,,,,,125,2022-05-10_12h26.56.117,FishGame,2022.1.1,60.05115156891075,
,3,나를 보내줘,6,Orange,A,0,0,ScrollUp,ScrollDown,Orange.png,practice,,,0,0,0,0,,,,,0,1,1,1,0,2,2,2,,,,,,,,,,,,,,,,,,,,,,,,,,,,,,,,,,,,,,,,,,,,,,,,,,,,,,,,2,1.2478877999819815,140.88416710007004,None,ScrollUp,정답입니다,140.88416710007004,None,140.88416710007004,None,140.88416710007004,None,140.88416710007004,None,142.02117429999635,None,142.02117429999635,142.53326130006462,,,,,,,,,,,,,,,,,,,,,,,,,,,,,,,,,,,,,,,,,,,,,,,,,125,2022-05-10_12h26.56.117,FishGame,2022.1.1,60.05115156891075,
,4,나를 데려가줘,6,Green,B,0,0,ScrollDown,ScrollUp,Green.png,practice,,,0,0,0,0,,,,,0,1,1,1,0,3,3,3,,,,,,,,,,,,,,,,,,,,,,,,,,,,,,,,,,,,,,,,,,,,,,,,,,,,,,,,1.1280864129463832,1.019755300018005,143.16021270002238,None,ScrollDown,정답입니다,143.16021270002238,None,143.16021270002238,None,143.16021270002238,None,143.16021270002238,None,144.07954639999662,None,144.07954639999662,144.58375790005084,,,,,,,,,,,,,,,,,,,,,,,,,,,,,,,,,,,,,,,,,,,,,,,,,125,2022-05-10_12h26.56.117,FishGame,2022.1.1,60.05115156891075,
,2,넌 슬기로워,2,Orange,A,6.166666666666667,4.1,ScrollDown,ScrollUp,Orange.png,practice,,,0,0,0,0,,,,,0,1,1,1,,,,,,,,,,,,,,,,,,,,,,,,,,,,,,,,,,,,,,,,,,,,,,,,,,,,,,,,,,,,,,,,,,,,,,,,,,,,,,n,5.699934999924153,145.08331829996314,None,145.08331829996314,None,,,,,,,,,,,,,,,,,,,,,,,,,,,,,,,,,,,,,,,,,,,125,2022-05-10_12h26.56.117,FishGame,2022.1.1,60.05115156891075,
,1,넌 따뜻해,1,Green,B,6.083333333333333,5.6,ScrollUp,ScrollDown,Green.png,1,Positive,Incongruent,0,0,0,0,,,,,,,,,,,,,0,0,0,0,,,,,,,,,,,,,,,,,,,,,,,,,,,,,,,,,,,,,,,,,,,,161.01728879997972,162.51745749998372,162.55052140005864,163.50093199999537,163.55071340000723,164.5009463999886,164.5009463999886,None,,,,,,,,,,,,,,,,,,,,,,,,,0.0074074073,-0.098148145,1,0,0,0.3119190799770877,None,150.79986520006787,None,2,1.6392012999858707,165.69372069998644,None,ScrollUp,정답입니다,165.69372069998644,None,165.69372069998644,None,165.69372069998644,None,165.69372069998644,None,167.1394138999749,None,167.1394138999749,167.6510813999921,,,,,,,,,,,,,,,,125,2022-05-10_12h26.56.117,FishGame,2022.1.1,60.05115156891075,
,2,넌 기품있어,2,Green,B,5.791666666666668,4.5,ScrollUp,ScrollDown,Green.png,1,Positive,Incongruent,0,0,0,0,,,,,,,,,,,,,0,1,1,1,,,,,,,,,,,,,,,,,,,,,,,,,,,,,,,,,,,,,,,,,,,,,,,,,,,,,,,,,,,,,,,,,,,,,,,,,,,,,,,,,,,,,1.9567901293436687,1.1934492000145838,168.29411060002167,None,ScrollUp,정답입니다,168.29411060002167,None,168.29411060002167,None,168.29411060002167,None,168.29411060002167,None,169.36735040007625,None,169.36735040007625,169.8671733000083,,,,,,,,,,,,,,,,125,2022-05-10_12h26.56.117,FishGame,2022.1.1,60.05115156891075,
,3,나를 보내줘,6,Orange,A,0,0,ScrollUp,ScrollDown,Orange.png,1,NonTarget,NonTarget,0,0,0,0,,,,,,,,,,,,,0,2,2,2,,,,,,,,,,,,,,,,,,,,,,,,,,,,,,,,,,,,,,,,,,,,,,,,,,,,,,,,,,,,,,,,,,,,,,,,,,,,,,,,,,,,,2,1.0985718000447378,170.5162855000235,None,ScrollUp,정답입니다,170.5162855000235,None,170.5162855000235,None,170.5162855000235,None,170.5162855000235,None,171.48833099997137,None,171.48833099997137,172.00075560004916,,,,,,,,,,,,,,,,125,2022-05-10_12h26.56.117,FishGame,2022.1.1,60.05115156891075,
,4,넌 수동적이야,4,Orange,A,2.833333333333333,2.933333333333333,ScrollDown,ScrollUp,Orange.png,1,Negative,Incongruent,0,0,0,0,,,,,,,,,,,,,0,3,3,3,,,,,,,,,,,,,,,,,,,,,,,,,,,,,,,,,,,,,,,,,,,,,,,,,,,,,,,,,,,,,,,,,,,,,,,,,,,,,,,,,,,,,1,1.2176648000022396,172.64999489998445,None,ScrollDown,정답입니다,172.64999489998445,None,172.64999489998445,None,172.64999489998445,None,172.64999489998445,None,173.73877910000738,None,173.73877910000738,174.25094830000307,,,,,,,,,,,,,,,,125,2022-05-10_12h26.56.117,FishGame,2022.1.1,60.05115156891075,
,5,넌 사심이 없어,3,Green,B,4.916666666666666,4.333333333333333,ScrollUp,ScrollDown,Green.png,1,Neutral,Neutral,0,0,0,0,,,,,,,,,,,,,0,4,4,4,,,,,,,,,,,,,,,,,,,,,,,,,,,,,,,,,,,,,,,,,,,,,,,,,,,,,,,,,,,,,,,,,,,,,,,,,,,,,,,,,,,,,1.9567901293436687,1.2052884000586346,174.89641819999088,None,ScrollUp,정답입니다,174.89641819999088,None,174.89641819999088,None,174.89641819999088,None,174.89641819999088,None,175.98411379999015,None,175.98411379999015,176.4843260999769,,,,,,,,,,,,,,,,125,2022-05-10_12h26.56.117,FishGame,2022.1.1,60.05115156891075,
,6,넌 헤퍼,5,Orange,A,2.458333333333334,2.233333333333333,ScrollDown,ScrollUp,Orange.png,1,Negative,Incongruent,0,0,0,0,,,,,,,,,,,,,0,5,5,5,,,,,,,,,,,,,,,,,,,,,,,,,,,,,,,,,,,,,,,,,,,,,,,,,,,,,,,,,,,,,,,,,,,,,,,,,,,,,,,,,,,,,1,1.3890400000382215,177.1253128000535,None,ScrollDown,정답입니다,177.1253128000535,None,177.1253128000535,None,177.1253128000535,None,177.1253128000535,None,178.40084530005697,None,178.40084530005697,178.90111720003188,,,,,,,,,,,,,,,,125,2022-05-10_12h26.56.117,FishGame,2022.1.1,60.05115156891075,
,7,넌 말쑥해,3,Orange,A,4.833333333333334,4.333333333333333,ScrollDown,ScrollUp,Orange.png,1,Neutral,Neutral,0,0,0,0,,,,,,,,,,,,,0,6,6,6,,,,,,,,,,,,,,,,,,,,,,,,,,,,,,,,,,,,,,,,,,,,,,,,,,,,,,,,,,,,,,,,,,,,,,,,,,,,,,,,,,,,,1.2407407313585281,1.1007235000142828,179.54369920003228,None,ScrollDown,정답입니다,179.54369920003228,None,179.54369920003228,None,179.54369920003228,None,179.54369920003228,None,180.52233599999454,None,180.52233599999454,181.03416759998072,,,,,,,,,,,,,,,,125,2022-05-10_12h26.56.117,FishGame,2022.1.1,60.05115156891075,
,8,넌 투덜거려,5,Green,B,2.541666666666667,2.266666666666667,ScrollUp,ScrollDown,Green.png,1,Negative,Congruent,0,0,0,0,,,,,,,,,,,,,0,7,7,7,,,,,,,,,,,,,,,,,,,,,,,,,,,,,,,,,,,,,,,,,,,,,,,,,,,,,,,,,,,,,,,,,,,,,,,,,,,,,,,,,,,,,1.90586419403553,1.2917706000152975,181.6774507999653,None,ScrollUp,정답입니다,181.6774507999653,None,181.6774507999653,None,181.6774507999653,None,181.6774507999653,None,182.85090860002674,None,182.85090860002674,183.35122299997602,,,,,,,,,,,,,,,,125,2022-05-10_12h26.56.117,FishGame,2022.1.1,60.05115156891075,
,9,넌 적극적이야,1,Orange,A,5.708333333333333,5.533333333333333,ScrollDown,ScrollUp,Orange.png,1,Positive,Congruent,0,0,0,0,,,,,,,,,,,,,0,8,8,8,,,,,,,,,,,,,,,,,,,,,,,,,,,,,,,,,,,,,,,,,,,,,,,,,,,,,,,,,,,,,,,,,,,,,,,,,,,,,,,,,,,,,1.0972222338120143,0.9824726999504492,183.99414249998517,None,ScrollDown,정답입니다,183.99414249998517,None,183.99414249998517,None,183.99414249998517,None,183.99414249998517,None,184.85531440004706,None,184.85531440004706,185.36817500006873,,,,,,,,,,,,,,,,125,2022-05-10_12h26.56.117,FishGame,2022.1.1,60.05115156891075,
,10,넌 재미없어,4,Green,B,2.625,2.966666666666667,ScrollUp,ScrollDown,Green.png,1,Negative,Congruent,0,0,0,0,,,,,,,,,,,,,0,9,9,9,,,,,,,,,,,,,,,,,,,,,,,,,,,,,,,,,,,,,,,,,,,,,,,,,,,,,,,,,,,,,,,,,,,,,,,,,,,,,,,,,,,,,1.8487654278675716,1.0888841999694705,186.0052661000518,None,ScrollUp,정답입니다,186.0052661000518,None,186.0052661000518,None,186.0052661000518,None,186.0052661000518,None,186.98386819998268,None,186.98386819998268,187.48444879997987,,,,,,,,,,,,,,,,125,2022-05-10_12h26.56.117,FishGame,2022.1.1,60.05115156891075,
,11,넌 명석해,2,Orange,A,5.875,4.033333333333333,ScrollDown,ScrollUp,Orange.png,1,Positive,Congruent,0,0,0,0,,,,,,,,,,,,,0,10,10,10,,,,,,,,,,,,,,,,,,,,,,,,,,,,,,,,,,,,,,,,,,,,,,,,,,,,,,,,,,,,,,,,,,,,,,,,,,,,,,,,,,,,,1.140432099501292,1.092071900027804,188.12665980006568,None,ScrollDown,정답입니다,188.12665980006568,None,188.12665980006568,None,188.12665980006568,None,188.12665980006568,None,189.1006495000329,None,189.1006495000329,189.6007874000352,,,,,,,,,,,,,,,,125,2022-05-10_12h26.56.117,FishGame,2022.1.1,60.05115156891075,
,12,나를 데려가줘,6,Green,B,0,0,ScrollDown,ScrollUp,Green.png,1,NonTarget,NonTarget,0,0,0,0,,,,,,,,,,,,,0,11,11,11,,,,,,,,,,,,,,,,,,,,,,,,,,,,,,,,,,,,,,,,,,,,,,,,,,,,,,,,,,,,,,,,,,,,,,,,,,,,,,,,,,,,,1.0925925920406978,2.3351217000745237,190.24372650007717,None,ScrollDown,정답입니다,190.24372650007717,None,190.24372650007717,None,190.24372650007717,None,190.24372650007717,None,192.46438670007046,None,192.46438670007046,192.96820450003725,,,,,,,,,,,,,,,,125,2022-05-10_12h26.56.117,FishGame,2022.1.1,60.05115156891075,
,13,넌 소심해,4,Orange,A,3,3.1,ScrollDown,ScrollUp,Orange.png,1,Negative,Incongruent,0,0,0,0,,,,,,,,,,,,,0,12,12,12,,,,,,,,,,,,,,,,,,,,,,,,,,,,,,,,,,,,,,,,,,,,,,,,,,,,,,,,,,,,,,,,,,,,,,,,,,,,,,,,,,,,,1.10030863682429,1.1684109000489116,193.6266256000381,None,ScrollDown,정답입니다,193.6266256000381,None,193.6266256000381,None,193.6266256000381,None,193.6266256000381,None,194.66421610000543,None,194.66421610000543,195.16833909996785,,,,,,,,,,,,,,,,125,2022-05-10_12h26.56.117,FishGame,2022.1.1,60.05115156891075,
,14,넌 합리적이야,2,Orange,A,5.583333333333333,4.733333333333333,ScrollDown,ScrollUp,Orange.png,1,Positive,Congruent,0,0,0,0,,,,,,,,,,,,,0,13,13,13,,,,,,,,,,,,,,,,,,,,,,,,,,,,,,,,,,,,,,,,,,,,,,,,,,,,,,,,,,,,,,,,,,,,,,,,,,,,,,,,,,,,,1.0339506367842357,0.9981097000418231,195.8095168999862,None,ScrollDown,정답입니다,195.8095168999862,None,195.8095168999862,None,195.8095168999862,None,195.8095168999862,None,196.6888239000691,None,196.6888239000691,197.20173630001955,,,,,,,,,,,,,,,,125,2022-05-10_12h26.56.117,FishGame,2022.1.1,60.05115156891075,
,15,넌 무자비해,5,Green,B,2.333333333333333,2.1,ScrollUp,ScrollDown,Green.png,1,Negative,Congruent,0,0,0,0,,,,,,,,,,,,,0,14,14,14,,,,,,,,,,,,,,,,,,,,,,,,,,,,,,,,,,,,,,,,,,,,,,,,,,,,,,,,,,,,,,,,,,,,,,,,,,,,,,,,,,,,,1.9537037014961243,1.085218199994415,197.8459303000709,None,ScrollUp,정답입니다,197.8459303000709,None,197.8459303000709,None,197.8459303000709,None,197.8459303000709,None,198.81397440005094,None,198.81397440005094,199.31854760006536,,,,,,,,,,,,,,,,125,2022-05-10_12h26.56.117,FishGame,2022.1.1,60.05115156891075,
,16,나를 보내줘,6,Orange,A,0,0,ScrollUp,ScrollDown,Orange.png,1,NonTarget,NonTarget,0,0,0,0,,,,,,,,,,,,,0,15,15,15,,,,,,,,,,,,,,,,,,,,,,,,,,,,,,,,,,,,,,,,,,,,,,,,,,,,,,,,,,,,,,,,,,,,,,,,,,,,,,,,,,,,,1.9506172736485798,1.1846613999223337,199.95251670002472,None,ScrollUp,정답입니다,199.95251670002472,None,199.95251670002472,None,199.95251670002472,None,199.95251670002472,None,201.03133939998224,None,201.03133939998224,201.53508920001332,,,,,,,,,,,,,,,,125,2022-05-10_12h26.56.117,FishGame,2022.1.1,60.05115156891075,
,17,넌 현실적이야,3,Green,B,4.608695652173913,4.766666666666667,ScrollUp,ScrollDown,Green.png,1,Neutral,Neutral,0,0,0,0,,,,,,,,,,,,,0,16,16,16,,,,,,,,,,,,,,,,,,,,,,,,,,,,,,,,,,,,,,,,,,,,,,,,,,,,,,,,,,,,,,,,,,,,,,,,,,,,,,,,,,,,,2,1.6153726000338793,202.17124509997666,None,ScrollUp,정답입니다,202.17124509997666,None,202.17124509997666,None,202.17124509997666,None,202.17124509997666,None,203.67272679996677,None,203.67272679996677,204.185294099967,,,,,,,,,,,,,,,,125,2022-05-10_12h26.56.117,FishGame,2022.1.1,60.05115156891075,
,18,넌 의리있어,1,Green,B,5.833333333333334,5.633333333333334,ScrollUp,ScrollDown,Green.png,1,Positive,Incongruent,0,0,0,0,,,,,,,,,,,,,0,17,17,17,,,,,,,,,,,,,,,,,,,,,,,,,,,,,,,,,,,,,,,,,,,,,,,,,,,,,,,,,,,,,,,,,,,,,,,,,,,,,,,,,,,,,2,1.3557423000456765,204.8202200999949,None,ScrollUp,정답입니다,204.8202200999949,None,204.8202200999949,None,204.8202200999949,None,204.8202200999949,None,206.06791560002603,None,206.06791560002603,206.56833280005958,,,,,,,,,,,,,,,,125,2022-05-10_12h26.56.117,FishGame,2022.1.1,60.05115156891075,
,19,넌 신경과민이야,5,Orange,A,2.541666666666667,2.166666666666667,ScrollDown,ScrollUp,Orange.png,1,Negative,Incongruent,0,0,0,0,,,,,,,,,,,,,0,18,18,18,,,,,,,,,,,,,,,,,,,,,,,,,,,,,,,,,,,,,,,,,,,,,,,,,,,,,,,,,,,,,,,,,,,,,,,,,,,,,,,,,,,,,1.1373456716537476,1.284247100003995,207.21764220006298,None,ScrollDown,정답입니다,207.21764220006298,None,207.21764220006298,None,207.21764220006298,None,207.21764220006298,None,208.37256779999007,None,208.37256779999007,208.8853729000548,,,,,,,,,,,,,,,,125,2022-05-10_12h26.56.117,FishGame,2022.1.1,60.05115156891075,
,20,넌 편안해,1,Orange,A,5.916666666666666,5.866666666666666,ScrollDown,ScrollUp,Orange.png,1,Positive,Congruent,0,0,0,0,,,,,,,,,,,,,0,19,19,19,,,,,,,,,,,,,,,,,,,,,,,,,,,,,,,,,,,,,,,,,,,,,,,,,,,,,,,,,,,,,,,,,,,,,,,,,,,,,,,,,,,,,1,1.4540946999331936,209.52673969999887,None,ScrollDown,정답입니다,209.52673969999887,None,209.52673969999887,None,209.52673969999887,None,209.52673969999887,None,210.8647891000146,None,210.8647891000146,211.36830430000555,,,,,,,,,,,,,,,,125,2022-05-10_12h26.56.117,FishGame,2022.1.1,60.05115156891075,
,21,넌 품위있어,2,Green,B,5.291666666666666,4.466666666666667,ScrollUp,ScrollDown,Green.png,1,Positive,Incongruent,0,0,0,0,,,,,,,,,,,,,0,20,20,20,,,,,,,,,,,,,,,,,,,,,,,,,,,,,,,,,,,,,,,,,,,,,,,,,,,,,,,,,,,,,,,,,,,,,,,,,,,,,,,,,,,,,2,1.1804943999741226,212.00190949998796,None,ScrollUp,정답입니다,212.00190949998796,None,212.00190949998796,None,212.00190949998796,None,212.00190949998796,None,213.07309179997537,None,213.07309179997537,213.58532030007336,,,,,,,,,,,,,,,,125,2022-05-10_12h26.56.117,FishGame,2022.1.1,60.05115156891075,
,22,넌 빈틈없어,3,Orange,A,4.833333333333333,3.966666666666667,ScrollDown,ScrollUp,Orange.png,1,Neutral,Neutral,0,0,0,0,,,,,,,,,,,,,0,21,21,21,,,,,,,,,,,,,,,,,,,,,,,,,,,,,,,,,,,,,,,,,,,,,,,,,,,,,,,,,,,,,,,,,,,,,,,,,,,,,,,,,,,,,1,1.106264500063844,214.2275996999815,None,ScrollDown,정답입니다,214.2275996999815,None,214.2275996999815,None,214.2275996999815,None,214.2275996999815,None,215.218298300053,None,215.218298300053,215.7182733999798,,,,,,,,,,,,,,,,125,2022-05-10_12h26.56.117,FishGame,2022.1.1,60.05115156891075,
,23,넌 상상력없어,4,Green,B,2.833333333333333,3.133333333333333,ScrollUp,ScrollDown,Green.png,1,Negative,Congruent,0,0,0,0,,,,,,,,,,,,,0,22,22,22,,,,,,,,,,,,,,,,,,,,,,,,,,,,,,,,,,,,,,,,,,,,,,,,,,,,,,,,,,,,,,,,,,,,,,,,,,,,,,,,,,,,,2,1.196545199956745,216.36033519997727,None,ScrollUp,정답입니다,216.36033519997727,None,216.36033519997727,None,216.36033519997727,None,216.36033519997727,None,217.4398675999837,None,217.4398675999837,217.951716999989,,,,,,,,,,,,,,,,125,2022-05-10_12h26.56.117,FishGame,2022.1.1,60.05115156891075,
,24,넌 지혜로워,2,Green,B,6.333333333333334,4.633333333333334,ScrollUp,ScrollDown,Green.png,1,Positive,Incongruent,0,0,0,0,,,,,,,,,,,,,0,23,23,23,,,,,,,,,,,,,,,,,,,,,,,,,,,,,,,,,,,,,,,,,,,,,,,,,,,,,,,,,,,,,,,,,,,,,,,,,,,,,,,,,,,,,1.9151234527428944,1.1519154999405146,218.594508600072,None,ScrollUp,정답입니다,218.594508600072,None,218.594508600072,None,218.594508600072,None,218.594508600072,None,219.6315860999748,None,219.6315860999748,220.13569979998283,,,,,,,,,,,,,,,,125,2022-05-10_12h26.56.117,FishGame,2022.1.1,60.05115156891075,
,25,넌 시끄러워,4,Orange,A,2.833333333333333,3.033333333333333,ScrollDown,ScrollUp,Orange.png,1,Negative,Incongruent,0,0,0,0,,,,,,,,,,,,,0,24,24,24,,,,,,,,,,,,,,,,,,,,,,,,,,,,,,,,,,,,,,,,,,,,,,,,,,,,,,,,,,,,,,,,,,,,,,,,,,,,,,,,,,,,,1.1033950646718342,1.001398399937898,220.77832719997969,None,ScrollDown,정답입니다,220.77832719997969,None,220.77832719997969,None,220.77832719997969,None,220.77832719997969,None,221.65646490000654,None,221.65646490000654,222.1689299000427,,,,,,,,,,,,,,,,125,2022-05-10_12h26.56.117,FishGame,2022.1.1,60.05115156891075,
,26,넌 만사태평이야,3,Green,B,4,4.333333333333333,ScrollUp,ScrollDown,Green.png,1,Neutral,Neutral,0,0,0,0,,,,,,,,,,,,,0,25,25,25,,,,,,,,,,,,,,,,,,,,,,,,,,,,,,,,,,,,,,,,,,,,,,,,,,,,,,,,,,,,,,,,,,,,,,,,,,,,,,,,,,,,,2,1.0573811999056488,222.81076050002594,None,ScrollUp,정답입니다,222.81076050002594,None,222.81076050002594,None,222.81076050002594,None,222.81076050002594,None,223.75148600002285,None,223.75148600002285,224.2521014000522,,,,,,,,,,,,,,,,125,2022-05-10_12h26.56.117,FishGame,2022.1.1,60.05115156891075,
,27,넌 붙임성있어,1,Orange,A,5.708333333333333,5.633333333333334,ScrollDown,ScrollUp,Orange.png,1,Positive,Congruent,0,0,0,0,,,,,,,,,,,,,0,26,26,26,,,,,,,,,,,,,,,,,,,,,,,,,,,,,,,,,,,,,,,,,,,,,,,,,,,,,,,,,,,,,,,,,,,,,,,,,,,,,,,,,,,,,1,1.0342624000040814,224.89447369996924,None,ScrollDown,정답입니다,224.89447369996924,None,224.89447369996924,None,224.89447369996924,None,224.89447369996924,None,225.80633990000933,None,225.80633990000933,226.3185057999799,,,,,,,,,,,,,,,,125,2022-05-10_12h26.56.117,FishGame,2022.1.1,60.05115156891075,
,28,넌 영리해,2,Orange,A,6,4.033333333333333,ScrollDown,ScrollUp,Orange.png,1,Positive,Congruent,0,0,0,0,,,,,,,,,,,,,0,27,27,27,,,,,,,,,,,,,,,,,,,,,,,,,,,,,,,,,,,,,,,,,,,,,,,,,,,,,,,,,,,,,,,,,,,,,,,,,,,,,,,,,,,,,1.0586419602235158,0.8687740999739617,226.95982830005232,None,ScrollDown,정답입니다,226.95982830005232,None,226.95982830005232,None,226.95982830005232,None,226.95982830005232,None,227.70682500000112,None,227.70682500000112,228.2185252000345,,,,,,,,,,,,,,,,125,2022-05-10_12h26.56.117,FishGame,2022.1.1,60.05115156891075,
,29,넌 열심이야,1,Green,B,6.041666666666667,5.833333333333333,ScrollUp,ScrollDown,Green.png,1,Positive,Incongruent,0,0,0,0,,,,,,,,,,,,,0,28,28,28,,,,,,,,,,,,,,,,,,,,,,,,,,,,,,,,,,,,,,,,,,,,,,,,,,,,,,,,,,,,,,,,,,,,,,,,,,,,,,,,,,,,,1.8919753183921177,1.1547110999235883,228.85389789997134,None,ScrollUp,정답입니다,228.85389789997134,None,228.85389789997134,None,228.85389789997134,None,228.85389789997134,None,229.90198199998122,None,229.90198199998122,230.40207579999696,,,,,,,,,,,,,,,,125,2022-05-10_12h26.56.117,FishGame,2022.1.1,60.05115156891075,
,30,넌 인기없어,4,Green,B,3,3.3,ScrollUp,ScrollDown,Green.png,1,Negative,Congruent,0,0,0,0,,,,,,,,,,,,,0,29,29,29,,,,,,,,,,,,,,,,,,,,,,,,,,,,,,,,,,,,,,,,,,,,,,,,,,,,,,,,,,,,,,,,,,,,,,,,,,,,,,,,,,,,,1.6512345671653748,1.025962600018829,231.03690279996954,None,ScrollUp,정답입니다,231.03690279996954,None,231.03690279996954,None,231.03690279996954,None,231.03690279996954,None,231.95134999998845,None,231.95134999998845,232.4525654000463,,,,,,,,,,,,,,,,125,2022-05-10_12h26.56.117,FishGame,2022.1.1,60.05115156891075,
,31,넌 익살스러워,3,Orange,A,4.708333333333334,4.833333333333333,ScrollDown,ScrollUp,Orange.png,1,Neutral,Neutral,0,0,0,0,,,,,,,,,,,,,0,30,30,30,,,,,,,,,,,,,,,,,,,,,,,,,,,,,,,,,,,,,,,,,,,,,,,,,,,,,,,,,,,,,,,,,,,,,,,,,,,,,,,,,,,,,1.0478395124276478,1.029890100006014,233.09758780000266,None,ScrollDown,정답입니다,233.09758780000266,None,233.09758780000266,None,233.09758780000266,None,233.09758780000266,None,234.0077916000737,None,234.0077916000737,234.51917049998883,,,,,,,,,,,,,,,,125,2022-05-10_12h26.56.117,FishGame,2022.1.1,60.05115156891075,
,32,넌 이기적이야,5,Green,B,2.291666666666667,2.333333333333333,ScrollUp,ScrollDown,Green.png,1,Negative,Congruent,0,0,0,0,,,,,,,,,,,,,0,31,31,31,,,,,,,,,,,,,,,,,,,,,,,,,,,,,,,,,,,,,,,,,,,,,,,,,,,,,,,,,,,,,,,,,,,,,,,,,,,,,,,,,,,,,1.9475308458010356,1.058108999975957,235.14834269997664,None,ScrollUp,정답입니다,235.14834269997664,None,235.14834269997664,None,235.14834269997664,None,235.14834269997664,None,236.10149270005058,None,236.10149270005058,236.60245390003547,,,,,,,,,,,,,,,,125,2022-05-10_12h26.56.117,FishGame,2022.1.1,60.05115156891075,
,33,나를 데려가줘,6,Green,B,0,0,ScrollDown,ScrollUp,Green.png,1,NonTarget,NonTarget,0,0,0,0,,,,,,,,,,,,,0,32,32,32,,,,,,,,,,,,,,,,,,,,,,,,,,,,,,,,,,,,,,,,,,,,,,,,,,,,,,,,,,,,,,,,,,,,,,,,,,,,,,,,,,,,,1,1.236548199900426,237.23428139998578,None,ScrollDown,정답입니다,237.23428139998578,None,237.23428139998578,None,237.23428139998578,None,237.23428139998578,None,238.3654199000448,None,238.3654199000448,238.868993400014,,,,,,,,,,,,,,,,125,2022-05-10_12h26.56.117,FishGame,2022.1.1,60.05115156891075,
,34,넌 기회주의자야,5,Orange,A,2.875,2.133333333333333,ScrollDown,ScrollUp,Orange.png,1,Negative,Incongruent,0,0,0,0,,,,,,,,,,,,,0,33,33,33,,,,,,,,,,,,,,,,,,,,,,,,,,,,,,,,,,,,,,,,,,,,,,,,,,,,,,,,,,,,,,,,,,,,,,,,,,,,,,,,,,,,,1,2.355669599957764,239.5195071999915,None,ScrollDown,정답입니다,239.5195071999915,None,239.5195071999915,None,239.5195071999915,None,239.5195071999915,None,241.75193899997976,None,241.75193899997976,242.25222749996465,,,,,,,,,,,,,,,,125,2022-05-10_12h26.56.117,FishGame,2022.1.1,60.05115156891075,
,1,넌 미성숙해,4,Orange,A,3,3.2,ScrollDown,ScrollUp,Orange.png,2,Negative,Incongruent,0,0,0,0,,,,,,,,,,,,,,,,,0,0,0,0,,,,,,,,,,,,,,,,,,,,,,,,,,,,,,,,,,,,,,,,278.3863256999757,279.88649609999266,279.91972979996353,280.8702089000726,280.9194303000113,281.8702671000501,281.8702671000501,None,,,,,,,,,,,,,,,,,,,,,,,,,,,,,,,,,,1,1.3394515999825671,283.0331477000145,None,ScrollDown,정답입니다,283.0331477000145,None,283.0331477000145,None,283.0331477000145,None,283.0331477000145,None,284.20319500006735,None,284.20319500006735,284.7031994999852,242.75230539997574,None,242.75230539997574,None,0.1037037,-0.08981481,1,0,0,0.016088880016468465,None,272.752728600055,None,,,125,2022-05-10_12h26.56.117,FishGame,2022.1.1,60.05115156891075,
,2,넌 반사회적이야,5,Green,B,2.416666666666667,2.033333333333333,ScrollUp,ScrollDown,Green.png,2,Negative,Congruent,0,0,0,0,,,,,,,,,,,,,,,,,0,1,1,1,,,,,,,,,,,,,,,,,,,,,,,,,,,,,,,,,,,,,,,,,,,,,,,,,,,,,,,,,,,,,,,,,,,,,,,,,,,,,,,,,2,0.9386635000118986,285.33864600001834,None,ScrollUp,정답입니다,285.33864600001834,None,285.33864600001834,None,285.33864600001834,None,285.33864600001834,None,286.1694408999756,None,286.1694408999756,286.66981049999595,,,,,,,,,,,,,,,,125,2022-05-10_12h26.56.117,FishGame,2022.1.1,60.05115156891075,
,3,넌 유능해,2,Orange,A,6.208333333333333,4.433333333333334,ScrollDown,ScrollUp,Orange.png,2,Positive,Congruent,0,0,0,0,,,,,,,,,,,,,,,,,0,2,2,2,,,,,,,,,,,,,,,,,,,,,,,,,,,,,,,,,,,,,,,,,,,,,,,,,,,,,,,,,,,,,,,,,,,,,,,,,,,,,,,,,1.1234567960103352,0.9567012999905273,287.3131403999869,None,ScrollDown,정답입니다,287.3131403999869,None,287.3131403999869,None,287.3131403999869,None,287.3131403999869,None,288.1528159000445,None,288.1528159000445,288.6531709000701,,,,,,,,,,,,,,,,125,2022-05-10_12h26.56.117,FishGame,2022.1.1,60.05115156891075,
,4,넌 능숙해,2,Green,B,5.666666666666667,4.733333333333333,ScrollUp,ScrollDown,Green.png,2,Positive,Incongruent,0,0,0,0,,,,,,,,,,,,,,,,,0,3,3,3,,,,,,,,,,,,,,,,,,,,,,,,,,,,,,,,,,,,,,,,,,,,,,,,,,,,,,,,,,,,,,,,,,,,,,,,,,,,,,,,,2,0.9825223999796435,289.28082710003946,None,ScrollUp,정답입니다,289.28082710003946,None,289.28082710003946,None,289.28082710003946,None,289.28082710003946,None,290.1579058000352,None,290.1579058000352,290.66993109998293,,,,,,,,,,,,,,,,125,2022-05-10_12h26.56.117,FishGame,2022.1.1,60.05115156891075,
,5,넌 진부해,4,Green,B,2.458333333333333,3.166666666666667,ScrollUp,ScrollDown,Green.png,2,Negative,Congruent,0,0,0,0,,,,,,,,,,,,,,,,,0,4,4,4,,,,,,,,,,,,,,,,,,,,,,,,,,,,,,,,,,,,,,,,,,,,,,,,,,,,,,,,,,,,,,,,,,,,,,,,,,,,,,,,,2,1.1860840000445023,291.3079487000359,None,ScrollUp,정답입니다,291.3079487000359,None,291.3079487000359,None,291.3079487000359,None,291.3079487000359,None,292.383335200022,None,292.383335200022,292.88736030005384,,,,,,,,,,,,,,,,125,2022-05-10_12h26.56.117,FishGame,2022.1.1,60.05115156891075,
,6,나를 보내줘,6,Orange,A,0,0,ScrollUp,ScrollDown,Orange.png,2,NonTarget,NonTarget,0,0,0,0,,,,,,,,,,,,,,,,,0,5,5,5,,,,,,,,,,,,,,,,,,,,,,,,,,,,,,,,,,,,,,,,,,,,,,,,,,,,,,,,,,,,,,,,,,,,,,,,,,,,,,,,,2,1.2937968000769615,293.52334139996674,None,ScrollUp,정답입니다,293.52334139996674,None,293.52334139996674,None,293.52334139996674,None,293.52334139996674,None,294.70315020007547,None,294.70315020007547,295.2037355999928,,,,,,,,,,,,,,,,125,2022-05-10_12h26.56.117,FishGame,2022.1.1,60.05115156891075,
,7,넌 엄격해,3,Orange,A,4.166666666666666,4.1,ScrollDown,ScrollUp,Orange.png,2,Neutral,Neutral,0,0,0,0,,,,,,,,,,,,,,,,,0,6,6,6,,,,,,,,,,,,,,,,,,,,,,,,,,,,,,,,,,,,,,,,,,,,,,,,,,,,,,,,,,,,,,,,,,,,,,,,,,,,,,,,,1,1.3742841000203043,295.8449047000613,None,ScrollDown,정답입니다,295.8449047000613,None,295.8449047000613,None,295.8449047000613,None,295.8449047000613,None,297.10353930003475,None,297.10353930003475,297.60335099999793,,,,,,,,,,,,,,,,125,2022-05-10_12h26.56.117,FishGame,2022.1.1,60.05115156891075,
,8,나를 보내줘,6,Orange,A,0,0,ScrollUp,ScrollDown,Orange.png,2,NonTarget,NonTarget,0,0,0,0,,,,,,,,,,,,,,,,,0,7,7,7,,,,,,,,,,,,,,,,,,,,,,,,,,,,,,,,,,,,,,,,,,,,,,,,,,,,,,,,,,,,,,,,,,,,,,,,,,,,,,,,,2,0.9620544000063092,298.24189289996866,None,ScrollUp,정답입니다,298.24189289996866,None,298.24189289996866,None,298.24189289996866,None,298.24189289996866,None,299.09136289998423,None,299.09136289998423,299.60372020001523,,,,,,,,,,,,,,,,125,2022-05-10_12h26.56.117,FishGame,2022.1.1,60.05115156891075,
,9,넌 대담해,3,Green,B,4.875,4.866666666666666,ScrollUp,ScrollDown,Green.png,2,Neutral,Neutral,0,0,0,0,,,,,,,,,,,,,,,,,0,8,8,8,,,,,,,,,,,,,,,,,,,,,,,,,,,,,,,,,,,,,,,,,,,,,,,,,,,,,,,,,,,,,,,,,,,,,,,,,,,,,,,,,2,1.0029650999931619,300.2402928000083,None,ScrollUp,정답입니다,300.2402928000083,None,300.2402928000083,None,300.2402928000083,None,300.2402928000083,None,301.128669800004,None,301.128669800004,301.63686349999625,,,,,,,,,,,,,,,,125,2022-05-10_12h26.56.117,FishGame,2022.1.1,60.05115156891075,
,10,넌 꾸준해,1,Orange,A,5.916666666666668,5.8,ScrollDown,ScrollUp,Orange.png,2,Positive,Congruent,0,0,0,0,,,,,,,,,,,,,,,,,0,9,9,9,,,,,,,,,,,,,,,,,,,,,,,,,,,,,,,,,,,,,,,,,,,,,,,,,,,,,,,,,,,,,,,,,,,,,,,,,,,,,,,,,1,0.9569380000466481,302.2773896000581,None,ScrollDown,정답입니다,302.2773896000581,None,302.2773896000581,None,302.2773896000581,None,302.2773896000581,None,303.12001060007606,None,303.12001060007606,303.6206014000345,,,,,,,,,,,,,,,,125,2022-05-10_12h26.56.117,FishGame,2022.1.1,60.05115156891075,
,11,나를 데려가줘,6,Green,B,0,0,ScrollDown,ScrollUp,Green.png,2,NonTarget,NonTarget,0,0,0,0,,,,,,,,,,,,,,,,,0,10,10,10,,,,,,,,,,,,,,,,,,,,,,,,,,,,,,,,,,,,,,,,,,,,,,,,,,,,,,,,,,,,,,,,,,,,,,,,,,,,,,,,,1,1.2920744000002742,304.2677985000191,None,ScrollDown,정답입니다,304.2677985000191,None,304.2677985000191,None,304.2677985000191,None,304.2677985000191,None,305.4370643000584,None,305.4370643000584,305.9368944000453,,,,,,,,,,,,,,,,125,2022-05-10_12h26.56.117,FishGame,2022.1.1,60.05115156891075,
,12,넌 독선적이야,5,Orange,A,2.458333333333333,1.933333333333333,ScrollDown,ScrollUp,Orange.png,2,Negative,Incongruent,0,0,0,0,,,,,,,,,,,,,,,,,0,11,11,11,,,,,,,,,,,,,,,,,,,,,,,,,,,,,,,,,,,,,,,,,,,,,,,,,,,,,,,,,,,,,,,,,,,,,,,,,,,,,,,,,1.1990740795930226,1.0264681000262499,306.58075590000954,None,ScrollDown,정답입니다,306.58075590000954,None,306.58075590000954,None,306.58075590000954,None,306.58075590000954,None,307.4864316000603,None,307.4864316000603,307.9870109000476,,,,,,,,,,,,,,,,125,2022-05-10_12h26.56.117,FishGame,2022.1.1,60.05115156891075,
,13,나를 보내줘,6,Orange,A,0,0,ScrollUp,ScrollDown,Orange.png,2,NonTarget,NonTarget,0,0,0,0,,,,,,,,,,,,,,,,,0,12,12,12,,,,,,,,,,,,,,,,,,,,,,,,,,,,,,,,,,,,,,,,,,,,,,,,,,,,,,,,,,,,,,,,,,,,,,,,,,,,,,,,,2,1.0134385999990627,308.6233596999664,None,ScrollUp,정답입니다,308.6233596999664,None,308.6233596999664,None,308.6233596999664,None,308.6233596999664,None,309.52624869998544,None,309.52624869998544,310.03719050006475,,,,,,,,,,,,,,,,125,2022-05-10_12h26.56.117,FishGame,2022.1.1,60.05115156891075,
,14,넌 책임감있어,1,Green,B,6.347826086956522,6,ScrollUp,ScrollDown,Green.png,2,Positive,Incongruent,0,0,0,0,,,,,,,,,,,,,,,,,0,13,13,13,,,,,,,,,,,,,,,,,,,,,,,,,,,,,,,,,,,,,,,,,,,,,,,,,,,,,,,,,,,,,,,,,,,,,,,,,,,,,,,,,2,1.198769100010395,310.67430690000765,None,ScrollUp,정답입니다,310.67430690000765,None,310.67430690000765,None,310.67430690000765,None,310.67430690000765,None,311.7584214999806,None,311.7584214999806,312.27062239998486,,,,,,,,,,,,,,,,125,2022-05-10_12h26.56.117,FishGame,2022.1.1,60.05115156891075,
,15,넌 문학적이야,3,Orange,A,4.708333333333334,4.333333333333333,ScrollDown,ScrollUp,Orange.png,2,Neutral,Neutral,0,0,0,0,,,,,,,,,,,,,,,,,0,14,14,14,,,,,,,,,,,,,,,,,,,,,,,,,,,,,,,,,,,,,,,,,,,,,,,,,,,,,,,,,,,,,,,,,,,,,,,,,,,,,,,,,1,1.0056321999290958,312.91442589997314,None,ScrollDown,정답입니다,312.91442589997314,None,312.91442589997314,None,312.91442589997314,None,312.91442589997314,None,313.8037642000709,None,313.8037642000709,314.30368200002704,,,,,,,,,,,,,,,,125,2022-05-10_12h26.56.117,FishGame,2022.1.1,60.05115156891075,
,16,넌 재미있어,1,Green,B,5.875,5.7,ScrollUp,ScrollDown,Green.png,2,Positive,Incongruent,0,0,0,0,,,,,,,,,,,,,,,,,0,15,15,15,,,,,,,,,,,,,,,,,,,,,,,,,,,,,,,,,,,,,,,,,,,,,,,,,,,,,,,,,,,,,,,,,,,,,,,,,,,,,,,,,1.9567901293436687,1.2582459000404924,314.9334988000337,None,ScrollUp,정답입니다,314.9334988000337,None,314.9334988000337,None,314.9334988000337,None,314.9334988000337,None,316.08722560002934,None,316.08722560002934,316.58709260006435,,,,,,,,,,,,,,,,125,2022-05-10_12h26.56.117,FishGame,2022.1.1,60.05115156891075,
,17,나를 데려가줘,6,Green,B,0,0,ScrollDown,ScrollUp,Green.png,2,NonTarget,NonTarget,0,0,0,0,,,,,,,,,,,,,,,,,0,16,16,16,,,,,,,,,,,,,,,,,,,,,,,,,,,,,,,,,,,,,,,,,,,,,,,,,,,,,,,,,,,,,,,,,,,,,,,,,,,,,,,,,1,1.0231736999703571,317.21673230000306,None,ScrollDown,정답입니다,317.21673230000306,None,317.21673230000306,None,317.21673230000306,None,317.21673230000306,None,318.13675740000326,None,318.13675740000326,318.63754220004193,,,,,,,,,,,,,,,,125,2022-05-10_12h26.56.117,FishGame,2022.1.1,60.05115156891075,
,18,넌 협력적이야,1,Orange,A,5.625,5.633333333333334,ScrollDown,ScrollUp,Orange.png,2,Positive,Congruent,0,0,0,0,,,,,,,,,,,,,,,,,0,17,17,17,,,,,,,,,,,,,,,,,,,,,,,,,,,,,,,,,,,,,,,,,,,,,,,,,,,,,,,,,,,,,,,,,,,,,,,,,,,,,,,,,1,1.3223902999889106,319.28274870000314,None,ScrollDown,정답입니다,319.28274870000314,None,319.28274870000314,None,319.28274870000314,None,319.28274870000314,None,320.48760790005326,None,320.48760790005326,320.98758720001206,,,,,,,,,,,,,,,,125,2022-05-10_12h26.56.117,FishGame,2022.1.1,60.05115156891075,
,19,넌 평범해,3,Green,B,4.333333333333332,4.233333333333333,ScrollUp,ScrollDown,Green.png,2,Neutral,Neutral,0,0,0,0,,,,,,,,,,,,,,,,,0,18,18,18,,,,,,,,,,,,,,,,,,,,,,,,,,,,,,,,,,,,,,,,,,,,,,,,,,,,,,,,,,,,,,,,,,,,,,,,,,,,,,,,,2,0.9598726999247447,321.6201064999914,None,ScrollUp,정답입니다,321.6201064999914,None,321.6201064999914,None,321.6201064999914,None,321.6201064999914,None,322.4706842000596,None,322.4706842000596,322.9705461000558,,,,,,,,,,,,,,,,125,2022-05-10_12h26.56.117,FishGame,2022.1.1,60.05115156891075,
,20,넌 오만해,5,Orange,A,2.333333333333333,2,ScrollDown,ScrollUp,Orange.png,2,Negative,Incongruent,0,0,0,0,,,,,,,,,,,,,,,,,0,19,19,19,,,,,,,,,,,,,,,,,,,,,,,,,,,,,,,,,,,,,,,,,,,,,,,,,,,,,,,,,,,,,,,,,,,,,,,,,,,,,,,,,1,1.2582248999970034,323.610325000016,None,ScrollDown,정답입니다,323.610325000016,None,323.610325000016,None,323.610325000016,None,323.610325000016,None,324.7540155000752,None,324.7540155000752,325.2545066999737,,,,,,,,,,,,,,,,125,2022-05-10_12h26.56.117,FishGame,2022.1.1,60.05115156891075,
,21,넌 운이없어,4,Green,B,3,3.466666666666667,ScrollUp,ScrollDown,Green.png,2,Negative,Congruent,0,0,0,0,,,,,,,,,,,,,,,,,0,20,20,20,,,,,,,,,,,,,,,,,,,,,,,,,,,,,,,,,,,,,,,,,,,,,,,,,,,,,,,,,,,,,,,,,,,,,,,,,,,,,,,,,2,1.2973876999458298,325.89988669997547,None,ScrollUp,정답입니다,325.89988669997547,None,325.89988669997547,None,325.89988669997547,None,325.89988669997547,None,327.0753916000249,None,327.0753916000249,327.58812179998495,,,,,,,,,,,,,,,,125,2022-05-10_12h26.56.117,FishGame,2022.1.1,60.05115156891075,
,22,넌 창조적이야,2,Green,B,6.125,4.633333333333334,ScrollUp,ScrollDown,Green.png,2,Positive,Incongruent,0,0,0,0,,,,,,,,,,,,,,,,,0,21,21,21,,,,,,,,,,,,,,,,,,,,,,,,,,,,,,,,,,,,,,,,,,,,,,,,,,,,,,,,,,,,,,,,,,,,,,,,,,,,,,,,,2,1.1370487998938188,328.2306873999769,None,ScrollUp,정답입니다,328.2306873999769,None,328.2306873999769,None,328.2306873999769,None,328.2306873999769,None,329.250530899968,None,329.250530899968,329.7547016000608,,,,,,,,,,,,,,,,125,2022-05-10_12h26.56.117,FishGame,2022.1.1,60.05115156891075,
,23,나를 보내줘,6,Orange,A,0,0,ScrollUp,ScrollDown,Orange.png,2,NonTarget,NonTarget,0,0,0,0,,,,,,,,,,,,,,,,,0,22,22,22,,,,,,,,,,,,,,,,,,,,,,,,,,,,,,,,,,,,,,,,,,,,,,,,,,,,,,,,,,,,,,,,,,,,,,,,,,,,,,,,,2,1.215862000011839,330.39005360007286,None,ScrollUp,정답입니다,330.39005360007286,None,330.39005360007286,None,330.39005360007286,None,330.39005360007286,None,331.49222340004053,None,331.49222340004053,332.00466580002103,,,,,,,,,,,,,,,,125,2022-05-10_12h26.56.117,FishGame,2022.1.1,60.05115156891075,
,24,넌 통찰력있어,2,Orange,A,6.5,4.8,ScrollDown,ScrollUp,Orange.png,2,Positive,Congruent,0,0,0,0,,,,,,,,,,,,,,,,,0,23,23,23,,,,,,,,,,,,,,,,,,,,,,,,,,,,,,,,,,,,,,,,,,,,,,,,,,,,,,,,,,,,,,,,,,,,,,,,,,,,,,,,,1,1.0248756000073627,332.6485019000247,None,ScrollDown,정답입니다,332.6485019000247,None,332.6485019000247,None,332.6485019000247,None,332.6485019000247,None,333.55360460001975,None,333.55360460001975,334.0546255999943,,,,,,,,,,,,,,,,125,2022-05-10_12h26.56.117,FishGame,2022.1.1,60.05115156891075,
,25,넌 경솔해,5,Green,B,2.458333333333333,2.266666666666667,ScrollUp,ScrollDown,Green.png,2,Negative,Congruent,0,0,0,0,,,,,,,,,,,,,,,,,0,24,24,24,,,,,,,,,,,,,,,,,,,,,,,,,,,,,,,,,,,,,,,,,,,,,,,,,,,,,,,,,,,,,,,,,,,,,,,,,,,,,,,,,2,1.0898194999899715,334.69014429999515,None,ScrollUp,정답입니다,334.69014429999515,None,334.69014429999515,None,334.69014429999515,None,334.69014429999515,None,335.670937399962,None,335.670937399962,336.171004200005,,,,,,,,,,,,,,,,125,2022-05-10_12h26.56.117,FishGame,2022.1.1,60.05115156891075,
,26,넌 초조해,4,Orange,A,2.916666666666667,3.133333333333333,ScrollDown,ScrollUp,Orange.png,2,Negative,Incongruent,0,0,0,0,,,,,,,,,,,,,,,,,0,25,25,25,,,,,,,,,,,,,,,,,,,,,,,,,,,,,,,,,,,,,,,,,,,,,,,,,,,,,,,,,,,,,,,,,,,,,,,,,,,,,,,,,1,1.0228569000028074,336.80792200006545,None,ScrollDown,정답입니다,336.80792200006545,None,336.80792200006545,None,336.80792200006545,None,336.80792200006545,None,337.72105459996965,None,337.72105459996965,338.2211724000517,,,,,,,,,,,,,,,,125,2022-05-10_12h26.56.117,FishGame,2022.1.1,60.05115156891075,
,27,넌 무관심해,4,Green,B,2.833333333333333,2.9,ScrollUp,ScrollDown,Green.png,2,Negative,Congruent,0,0,0,0,,,,,,,,,,,,,,,,,0,26,26,26,,,,,,,,,,,,,,,,,,,,,,,,,,,,,,,,,,,,,,,,,,,,,,,,,,,,,,,,,,,,,,,,,,,,,,,,,,,,,,,,,2,0.9032988999970257,338.85293130006175,None,ScrollUp,정답입니다,338.85293130006175,None,338.85293130006175,None,338.85293130006175,None,338.85293130006175,None,339.6505307999905,None,339.6505307999905,340.15420340001583,,,,,,,,,,,,,,,,125,2022-05-10_12h26.56.117,FishGame,2022.1.1,60.05115156891075,
,28,넌 감성적이야,3,Green,B,4.125,4.166666666666667,ScrollUp,ScrollDown,Green.png,2,Neutral,Neutral,0,0,0,0,,,,,,,,,,,,,,,,,0,27,27,27,,,,,,,,,,,,,,,,,,,,,,,,,,,,,,,,,,,,,,,,,,,,,,,,,,,,,,,,,,,,,,,,,,,,,,,,,,,,,,,,,2,0.9325418999651447,340.7857727999799,None,ScrollUp,정답입니다,340.7857727999799,None,340.7857727999799,None,340.7857727999799,None,340.7857727999799,None,341.6090094000101,None,341.6090094000101,342.1216649999842,,,,,,,,,,,,,,,,125,2022-05-10_12h26.56.117,FishGame,2022.1.1,60.05115156891075,
,29,넌 배려심있어,1,Orange,A,6.083333333333333,5.5,ScrollDown,ScrollUp,Orange.png,2,Positive,Congruent,0,0,0,0,,,,,,,,,,,,,,,,,0,28,28,28,,,,,,,,,,,,,,,,,,,,,,,,,,,,,,,,,,,,,,,,,,,,,,,,,,,,,,,,,,,,,,,,,,,,,,,,,,,,,,,,,1,0.9060958999907598,342.766293499968,None,ScrollDown,정답입니다,342.766293499968,None,342.766293499968,None,342.766293499968,None,342.766293499968,None,343.5545225000242,None,343.5545225000242,344.05456449999474,,,,,,,,,,,,,,,,125,2022-05-10_12h26.56.117,FishGame,2022.1.1,60.05115156891075,
,30,넌 숨김없어,3,Orange,A,4.5,4.933333333333334,ScrollDown,ScrollUp,Orange.png,2,Neutral,Neutral,0,0,0,0,,,,,,,,,,,,,,,,,0,29,29,29,,,,,,,,,,,,,,,,,,,,,,,,,,,,,,,,,,,,,,,,,,,,,,,,,,,,,,,,,,,,,,,,,,,,,,,,,,,,,,,,,1,0.8990706000477076,344.70086490001995,None,ScrollDown,정답입니다,344.70086490001995,None,344.70086490001995,None,344.70086490001995,None,344.70086490001995,None,345.47570159996394,None,345.47570159996394,345.9878308000043,,,,,,,,,,,,,,,,125,2022-05-10_12h26.56.117,FishGame,2022.1.1,60.05115156891075,
,31,넌 훌륭해,2,Green,B,5.916666666666667,4.033333333333333,ScrollUp,ScrollDown,Green.png,2,Positive,Incongruent,0,0,0,0,,,,,,,,,,,,,,,,,0,30,30,30,,,,,,,,,,,,,,,,,,,,,,,,,,,,,,,,,,,,,,,,,,,,,,,,,,,,,,,,,,,,,,,,,,,,,,,,,,,,,,,,,2,0.9040242999326438,346.6265943000326,None,ScrollUp,정답입니다,346.6265943000326,None,346.6265943000326,None,346.6265943000326,None,346.6265943000326,None,347.4179104999639,None,347.4179104999639,347.9216791000217,,,,,,,,,,,,,,,,125,2022-05-10_12h26.56.117,FishGame,2022.1.1,60.05115156891075,
,32,넌 슬기로워,2,Orange,A,6.166666666666667,4.1,ScrollDown,ScrollUp,Orange.png,2,Positive,Congruent,0,0,0,0,,,,,,,,,,,,,,,,,0,31,31,31,,,,,,,,,,,,,,,,,,,,,,,,,,,,,,,,,,,,,,,,,,,,,,,,,,,,,,,,,,,,,,,,,,,,,,,,,,,,,,,,,1,0.8859240999445319,348.56779860006645,None,ScrollDown,정답입니다,348.56779860006645,None,348.56779860006645,None,348.56779860006645,None,348.56779860006645,None,349.3344657999696,None,349.3344657999696,349.8383986999979,,,,,,,,,,,,,,,,125,2022-05-10_12h26.56.117,FishGame,2022.1.1,60.05115156891075,
,33,넌 냉혹해,5,Orange,A,2.583333333333333,2.1,ScrollDown,ScrollUp,Orange.png,2,Negative,Incongruent,0,0,0,0,,,,,,,,,,,,,,,,,0,32,32,32,,,,,,,,,,,,,,,,,,,,,,,,,,,,,,,,,,,,,,,,,,,,,,,,,,,,,,,,,,,,,,,,,,,,,,,,,,,,,,,,,1,1.001850500004366,350.48290810000617,None,ScrollDown,정답입니다,350.48290810000617,None,350.48290810000617,None,350.48290810000617,None,350.48290810000617,None,351.36783030000515,None,351.36783030000515,351.87161809997633,,,,,,,,,,,,,,,,125,2022-05-10_12h26.56.117,FishGame,2022.1.1,60.05115156891075,
,34,나를 데려가줘,6,Green,B,0,0,ScrollDown,ScrollUp,Green.png,2,NonTarget,NonTarget,0,0,0,0,,,,,,,,,,,,,,,,,0,33,33,33,,,,,,,,,,,,,,,,,,,,,,,,,,,,,,,,,,,,,,,,,,,,,,,,,,,,,,,,,,,,,,,,,,,,,,,,,,,,,,,,,2,0.9564864999847487,352.5014935999643,None,ScrollUp,오답입니다,352.5014935999643,None,352.5014935999643,None,352.5014935999643,None,352.5014935999643,None,353.3492264000233,None,353.3492264000233,353.8551237999927,,,,,,,,,,,,,,,,125,2022-05-10_12h26.56.117,FishGame,2022.1.1,60.05115156891075,
,35,넌 편파적이야,5,Green,B,2.125,2,ScrollUp,ScrollDown,Green.png,2,Negative,Congruent,0,0,0,0,,,,,,,,,,,,,,,,,0,34,34,34,,,,,,,,,,,,,,,,,,,,,,,,,,,,,,,,,,,,,,,,,,,,,,,,,,,,,,,,,,,,,,,,,,,,,,,,,,,,,,,,,2,1.181413699989207,354.4923101000022,None,ScrollUp,정답입니다,354.4923101000022,None,354.4923101000022,None,354.4923101000022,None,354.4923101000022,None,355.56036620005034,None,355.56036620005034,356.0712454000022,,,,,,,,,,,,,,,,125,2022-05-10_12h26.56.117,FishGame,2022.1.1,60.05115156891075,
,36,넌 슬퍼,4,Orange,A,2.583333333333333,3.066666666666667,ScrollDown,ScrollUp,Orange.png,2,Negative,Incongruent,0,0,0,0,,,,,,,,,,,,,,,,,0,35,35,35,,,,,,,,,,,,,,,,,,,,,,,,,,,,,,,,,,,,,,,,,,,,,,,,,,,,,,,,,,,,,,,,,,,,,,,,,,,,,,,,,1,0.9225677999202162,356.715667600045,None,ScrollDown,정답입니다,356.715667600045,None,356.715667600045,None,356.715667600045,None,356.715667600045,None,357.52148530003615,None,357.52148530003615,358.02139530004933,,,,,,,,,,,,,,,,125,2022-05-10_12h26.56.117,FishGame,2022.1.1,60.05115156891075,
,37,나를 데려가줘,6,Green,B,0,0,ScrollDown,ScrollUp,Green.png,2,NonTarget,NonTarget,0,0,0,0,,,,,,,,,,,,,,,,,0,36,36,36,,,,,,,,,,,,,,,,,,,,,,,,,,,,,,,,,,,,,,,,,,,,,,,,,,,,,,,,,,,,,,,,,,,,,,,,,,,,,,,,,1,1.7744045000290498,358.6528946000617,None,ScrollDown,정답입니다,358.6528946000617,None,358.6528946000617,None,358.6528946000617,None,358.6528946000617,None,360.321518199984,None,360.321518199984,360.8216570999939,,,,,,,,,,,,,,,,125,2022-05-10_12h26.56.117,FishGame,2022.1.1,60.05115156891075,
,38,넌 친절해,1,Green,B,6.041666666666667,5.533333333333333,ScrollUp,ScrollDown,Green.png,2,Positive,Incongruent,0,0,0,0,,,,,,,,,,,,,,,,,0,37,37,37,,,,,,,,,,,,,,,,,,,,,,,,,,,,,,,,,,,,,,,,,,,,,,,,,,,,,,,,,,,,,,,,,,,,,,,,,,,,,,,,,2,1.3886841000057757,361.46316370007116,None,ScrollUp,정답입니다,361.46316370007116,None,361.46316370007116,None,361.46316370007116,None,361.46316370007116,None,362.73761830001604,None,362.73761830001604,363.2386262000073,,,,,,,,,,,,,,,,125,2022-05-10_12h26.56.117,FishGame,2022.1.1,60.05115156891075,
,1,넌 엉성해,4,Orange,A,3,3.3,ScrollDown,ScrollUp,Orange.png,3,Negative,Incongruent,0,0,0,0,,,,,,,,,,,,,,,,,,,,,0,0,0,0,,,,,,,,,,,,,,,,,,,,,,,,,,,,,,,,,,,,395.35580989997834,396.8559630999807,396.88899460004177,397.8393725999631,397.8892788999947,398.839457700029,398.839457700029,None,,,,,,,,,,,,,,,,,,,,,,,,,,,,,,,,,,1.1358024577299755,1.3249086000723764,400.0225345999934,None,ScrollDown,정답입니다,400.0225345999934,None,400.0225345999934,None,400.0225345999934,None,400.0225345999934,None,401.1606206999859,None,401.1606206999859,401.6731029000366,363.7384066999657,None,363.7384066999657,None,0.17592593,-0.1675926,1,0,0,0.016305880155414343,None,393.73868060007226,None,,,125,2022-05-10_12h26.56.117,FishGame,2022.1.1,60.05115156891075,
,2,나를 보내줘,6,Orange,A,0,0,ScrollUp,ScrollDown,Orange.png,3,NonTarget,NonTarget,0,0,0,0,,,,,,,,,,,,,,,,,,,,,0,1,1,1,,,,,,,,,,,,,,,,,,,,,,,,,,,,,,,,,,,,,,,,,,,,,,,,,,,,,,,,,,,,,,,,,,,,,,,,,,,,,1.8888888905445735,0.9556703000562266,402.3084264000645,None,ScrollUp,정답입니다,402.3084264000645,None,402.3084264000645,None,402.3084264000645,None,402.3084264000645,None,403.15586769999936,None,403.15586769999936,403.6562534000259,,,,,,,,,,,,,,,,125,2022-05-10_12h26.56.117,FishGame,2022.1.1,60.05115156891075,
,3,넌 활발해,1,Green,B,5.666666666666667,5.6,ScrollUp,ScrollDown,Green.png,3,Positive,Incongruent,0,0,0,0,,,,,,,,,,,,,,,,,,,,,0,2,2,2,,,,,,,,,,,,,,,,,,,,,,,,,,,,,,,,,,,,,,,,,,,,,,,,,,,,,,,,,,,,,,,,,,,,,,,,,,,,,1.7685185273488362,1.184897999977693,404.2968591999961,None,ScrollUp,정답입니다,404.2968591999961,None,404.2968591999961,None,404.2968591999961,None,404.2968591999961,None,405.3604303000029,None,405.3604303000029,405.8725643999642,,,,,,,,,,,,,,,,125,2022-05-10_12h26.56.117,FishGame,2022.1.1,60.05115156891075,
,4,넌 논리적이야,2,Orange,A,5.666666666666666,4.633333333333334,ScrollDown,ScrollUp,Orange.png,3,Positive,Congruent,0,0,0,0,,,,,,,,,,,,,,,,,,,,,0,3,3,3,,,,,,,,,,,,,,,,,,,,,,,,,,,,,,,,,,,,,,,,,,,,,,,,,,,,,,,,,,,,,,,,,,,,,,,,,,,,,1.1774691343307495,1.0232551000081003,406.515110700042,None,ScrollDown,정답입니다,406.515110700042,None,406.515110700042,None,406.515110700042,None,406.515110700042,None,407.4222104999935,None,407.4222104999935,407.92304999998305,,,,,,,,,,,,,,,,125,2022-05-10_12h26.56.117,FishGame,2022.1.1,60.05115156891075,
,5,넌 과묵해,3,Orange,A,3.875,4.4,ScrollDown,ScrollUp,Orange.png,3,Neutral,Neutral,0,0,0,0,,,,,,,,,,,,,,,,,,,,,0,4,4,4,,,,,,,,,,,,,,,,,,,,,,,,,,,,,,,,,,,,,,,,,,,,,,,,,,,,,,,,,,,,,,,,,,,,,,,,,,,,,1.0015431940555573,0.9589221000205725,408.56307889998425,None,ScrollDown,정답입니다,408.56307889998425,None,408.56307889998425,None,408.56307889998425,None,408.56307889998425,None,409.4058888000436,None,409.4058888000436,409.9066208000295,,,,,,,,,,,,,,,,125,2022-05-10_12h26.56.117,FishGame,2022.1.1,60.05115156891075,
,6,나를 데려가줘,6,Green,B,0,0,ScrollDown,ScrollUp,Green.png,3,NonTarget,NonTarget,0,0,0,0,,,,,,,,,,,,,,,,,,,,,0,5,5,5,,,,,,,,,,,,,,,,,,,,,,,,,,,,,,,,,,,,,,,,,,,,,,,,,,,,,,,,,,,,,,,,,,,,,,,,,,,,,2,1.048079299973324,410.5378729000222,None,ScrollUp,오답입니다,410.5378729000222,None,410.5378729000222,None,410.5378729000222,None,410.5378729000222,None,411.47789249999914,None,411.47789249999914,411.98939290002454,,,,,,,,,,,,,,,,125,2022-05-10_12h26.56.117,FishGame,2022.1.1,60.05115156891075,
,7,넌 미숙해,4,Green,B,3,3,ScrollUp,ScrollDown,Green.png,3,Negative,Congruent,0,0,0,0,,,,,,,,,,,,,,,,,,,,,0,6,6,6,,,,,,,,,,,,,,,,,,,,,,,,,,,,,,,,,,,,,,,,,,,,,,,,,,,,,,,,,,,,,,,,,,,,,,,,,,,,,2,1.325350100058131,412.6194211000111,None,ScrollUp,정답입니다,412.6194211000111,None,412.6194211000111,None,412.6194211000111,None,412.6194211000111,None,413.8389900000766,None,413.8389900000766,414.33914499997627,,,,,,,,,,,,,,,,125,2022-05-10_12h26.56.117,FishGame,2022.1.1,60.05115156891075,
,8,나를 보내줘,6,Orange,A,0,0,ScrollUp,ScrollDown,Orange.png,3,NonTarget,NonTarget,0,0,0,0,,,,,,,,,,,,,,,,,,,,,0,7,7,7,,,,,,,,,,,,,,,,,,,,,,,,,,,,,,,,,,,,,,,,,,,,,,,,,,,,,,,,,,,,,,,,,,,,,,,,,,,,,2,1.4407185999443755,414.97478729998693,None,ScrollUp,정답입니다,414.97478729998693,None,414.97478729998693,None,414.97478729998693,None,414.97478729998693,None,416.3058775999816,None,416.3058775999816,416.80660889996216,,,,,,,,,,,,,,,,125,2022-05-10_12h26.56.117,FishGame,2022.1.1,60.05115156891075,
,9,넌 자신만만해,3,Green,B,4.833333333333334,4.333333333333333,ScrollUp,ScrollDown,Green.png,3,Neutral,Neutral,0,0,0,0,,,,,,,,,,,,,,,,,,,,,0,8,8,8,,,,,,,,,,,,,,,,,,,,,,,,,,,,,,,,,,,,,,,,,,,,,,,,,,,,,,,,,,,,,,,,,,,,,,,,,,,,,1.9645061492919922,1.1339108000975102,417.43894490005914,None,ScrollUp,정답입니다,417.43894490005914,None,417.43894490005914,None,417.43894490005914,None,417.43894490005914,None,418.4607719000196,None,418.4607719000196,418.9727700999938,,,,,,,,,,,,,,,,125,2022-05-10_12h26.56.117,FishGame,2022.1.1,60.05115156891075,
,10,넌 탐욕스러워,5,Orange,A,2.25,2.1,ScrollDown,ScrollUp,Orange.png,3,Negative,Incongruent,0,0,0,0,,,,,,,,,,,,,,,,,,,,,0,9,9,9,,,,,,,,,,,,,,,,,,,,,,,,,,,,,,,,,,,,,,,,,,,,,,,,,,,,,,,,,,,,,,,,,,,,,,,,,,,,,1,0.9586019999114797,419.6209108000621,None,ScrollDown,정답입니다,419.6209108000621,None,419.6209108000621,None,419.6209108000621,None,419.6209108000621,None,420.45612250000704,None,420.45612250000704,420.9563965999987,,,,,,,,,,,,,,,,125,2022-05-10_12h26.56.117,FishGame,2022.1.1,60.05115156891075,
,11,넌 인기있어,2,Orange,A,5.458333333333333,4.5,ScrollDown,ScrollUp,Orange.png,3,Positive,Congruent,0,0,0,0,,,,,,,,,,,,,,,,,,,,,0,10,10,10,,,,,,,,,,,,,,,,,,,,,,,,,,,,,,,,,,,,,,,,,,,,,,,,,,,,,,,,,,,,,,,,,,,,,,,,,,,,,1,0.9059813999338076,421.5930532000493,None,ScrollDown,정답입니다,421.5930532000493,None,421.5930532000493,None,421.5930532000493,None,421.5930532000493,None,422.3889638000401,None,422.3889638000401,422.88953250006307,,,,,,,,,,,,,,,,125,2022-05-10_12h26.56.117,FishGame,2022.1.1,60.05115156891075,
,12,나를 데려가줘,6,Green,B,0,0,ScrollDown,ScrollUp,Green.png,3,NonTarget,NonTarget,0,0,0,0,,,,,,,,,,,,,,,,,,,,,0,11,11,11,,,,,,,,,,,,,,,,,,,,,,,,,,,,,,,,,,,,,,,,,,,,,,,,,,,,,,,,,,,,,,,,,,,,,,,,,,,,,1.0339506367842357,1.0553669999353588,423.5212788999779,None,ScrollDown,정답입니다,423.5212788999779,None,423.5212788999779,None,423.5212788999779,None,423.5212788999779,None,424.47248740005307,None,424.47248740005307,424.973230100004,,,,,,,,,,,,,,,,125,2022-05-10_12h26.56.117,FishGame,2022.1.1,60.05115156891075,
,13,넌 뛰어나,2,Green,B,6.166666666666667,4,ScrollUp,ScrollDown,Green.png,3,Positive,Incongruent,0,0,0,0,,,,,,,,,,,,,,,,,,,,,0,12,12,12,,,,,,,,,,,,,,,,,,,,,,,,,,,,,,,,,,,,,,,,,,,,,,,,,,,,,,,,,,,,,,,,,,,,,,,,,,,,,1.8425925970077515,1.375004000030458,425.60715290007647,None,ScrollUp,정답입니다,425.60715290007647,None,425.60715290007647,None,425.60715290007647,None,425.60715290007647,None,426.87276729999576,None,426.87276729999576,427.3734835999785,,,,,,,,,,,,,,,,125,2022-05-10_12h26.56.117,FishGame,2022.1.1,60.05115156891075,
,14,넌 낙관적이야,1,Orange,A,5.75,5.8,ScrollDown,ScrollUp,Orange.png,3,Positive,Congruent,0,0,0,0,,,,,,,,,,,,,,,,,,,,,0,13,13,13,,,,,,,,,,,,,,,,,,,,,,,,,,,,,,,,,,,,,,,,,,,,,,,,,,,,,,,,,,,,,,,,,,,,,,,,,,,,,1.2283950696388881,0.9885645000031218,428.0152900000103,None,ScrollDown,정답입니다,428.0152900000103,None,428.0152900000103,None,428.0152900000103,None,428.0152900000103,None,428.8891211000737,None,428.8891211000737,429.38937260000966,,,,,,,,,,,,,,,,125,2022-05-10_12h26.56.117,FishGame,2022.1.1,60.05115156891075,
,15,넌 산만해,4,Green,B,2.695652173913043,3.033333333333333,ScrollUp,ScrollDown,Green.png,3,Negative,Congruent,0,0,0,0,,,,,,,,,,,,,,,,,,,,,0,14,14,14,,,,,,,,,,,,,,,,,,,,,,,,,,,,,,,,,,,,,,,,,,,,,,,,,,,,,,,,,,,,,,,,,,,,,,,,,,,,,1.9645061492919922,0.9823671999620274,430.0254844999872,None,ScrollUp,정답입니다,430.0254844999872,None,430.0254844999872,None,430.0254844999872,None,430.0254844999872,None,430.8946823000442,None,430.8946823000442,431.40644030005205,,,,,,,,,,,,,,,,125,2022-05-10_12h26.56.117,FishGame,2022.1.1,60.05115156891075,
,16,나를 보내줘,6,Orange,A,0,0,ScrollUp,ScrollDown,Orange.png,3,NonTarget,NonTarget,0,0,0,0,,,,,,,,,,,,,,,,,,,,,0,15,15,15,,,,,,,,,,,,,,,,,,,,,,,,,,,,,,,,,,,,,,,,,,,,,,,,,,,,,,,,,,,,,,,,,,,,,,,,,,,,,1.9274691144625347,1.1063029000069946,432.0509438000154,None,ScrollUp,정답입니다,432.0509438000154,None,432.0509438000154,None,432.0509438000154,None,432.0509438000154,None,433.03921920002904,None,433.03921920002904,433.5400817000773,,,,,,,,,,,,,,,,125,2022-05-10_12h26.56.117,FishGame,2022.1.1,60.05115156891075,
,17,넌 교활해,5,Green,B,2.333333333333333,2.133333333333333,ScrollUp,ScrollDown,Green.png,3,Negative,Congruent,0,0,0,0,,,,,,,,,,,,,,,,,,,,,0,16,16,16,,,,,,,,,,,,,,,,,,,,,,,,,,,,,,,,,,,,,,,,,,,,,,,,,,,,,,,,,,,,,,,,,,,,,,,,,,,,,1.8549382835626602,1.0167293000267819,434.17277060006745,None,ScrollUp,정답입니다,434.17277060006745,None,434.17277060006745,None,434.17277060006745,None,434.17277060006745,None,435.0776475999737,None,435.0776475999737,435.58965600002557,,,,,,,,,,,,,,,,125,2022-05-10_12h26.56.117,FishGame,2022.1.1,60.05115156891075,
,18,나를 보내줘,6,Orange,A,0,0,ScrollUp,ScrollDown,Orange.png,3,NonTarget,NonTarget,0,0,0,0,,,,,,,,,,,,,,,,,,,,,0,17,17,17,,,,,,,,,,,,,,,,,,,,,,,,,,,,,,,,,,,,,,,,,,,,,,,,,,,,,,,,,,,,,,,,,,,,,,,,,,,,,1.7145061641931534,0.9020233999472111,436.22470140003134,None,ScrollUp,정답입니다,436.22470140003134,None,436.22470140003134,None,436.22470140003134,None,436.22470140003134,None,437.01943330001086,None,437.01943330001086,437.52353730006143,,,,,,,,,,,,,,,,125,2022-05-10_12h26.56.117,FishGame,2022.1.1,60.05115156891075,
,19,넌 불친절해,5,Green,B,2.208333333333333,2.033333333333333,ScrollUp,ScrollDown,Green.png,3,Negative,Congruent,0,0,0,0,,,,,,,,,,,,,,,,,,,,,0,18,18,18,,,,,,,,,,,,,,,,,,,,,,,,,,,,,,,,,,,,,,,,,,,,,,,,,,,,,,,,,,,,,,,,,,,,,,,,,,,,,1.89969136317571,1.1765387000050396,438.15785139997024,None,ScrollUp,정답입니다,438.15785139997024,None,438.15785139997024,None,438.15785139997024,None,438.15785139997024,None,439.22325430007186,None,439.22325430007186,439.7236594000133,,,,,,,,,,,,,,,,125,2022-05-10_12h26.56.117,FishGame,2022.1.1,60.05115156891075,
,20,넌 지적이야,2,Green,B,5.75,4.366666666666666,ScrollUp,ScrollDown,Green.png,3,Positive,Incongruent,0,0,0,0,,,,,,,,,,,,,,,,,,,,,0,19,19,19,,,,,,,,,,,,,,,,,,,,,,,,,,,,,,,,,,,,,,,,,,,,,,,,,,,,,,,,,,,,,,,,,,,,,,,,,,,,,2,1.4809573999373242,440.35292299999855,None,ScrollUp,정답입니다,440.35292299999855,None,440.35292299999855,None,440.35292299999855,None,440.35292299999855,None,441.7280086000683,None,441.7280086000683,442.2401138000423,,,,,,,,,,,,,,,,125,2022-05-10_12h26.56.117,FishGame,2022.1.1,60.05115156891075,
,21,넌 우유부단해,4,Orange,A,2.666666666666667,3.166666666666667,ScrollDown,ScrollUp,Orange.png,3,Negative,Incongruent,0,0,0,0,,,,,,,,,,,,,,,,,,,,,0,20,20,20,,,,,,,,,,,,,,,,,,,,,,,,,,,,,,,,,,,,,,,,,,,,,,,,,,,,,,,,,,,,,,,,,,,,,,,,,,,,,1,1.0174357999349013,442.8875444000587,None,ScrollDown,정답입니다,442.8875444000587,None,442.8875444000587,None,442.8875444000587,None,442.8875444000587,None,443.7779204000253,None,443.7779204000253,444.2898859999841,,,,,,,,,,,,,,,,125,2022-05-10_12h26.56.117,FishGame,2022.1.1,60.05115156891075,
,22,나를 데려가줘,6,Green,B,0,0,ScrollDown,ScrollUp,Green.png,3,NonTarget,NonTarget,0,0,0,0,,,,,,,,,,,,,,,,,,,,,0,21,21,21,,,,,,,,,,,,,,,,,,,,,,,,,,,,,,,,,,,,,,,,,,,,,,,,,,,,,,,,,,,,,,,,,,,,,,,,,,,,,1,1.2232640999136493,444.92967860004865,None,ScrollDown,정답입니다,444.92967860004865,None,444.92967860004865,None,444.92967860004865,None,444.92967860004865,None,446.0396328000352,None,446.0396328000352,446.5396760000149,,,,,,,,,,,,,,,,125,2022-05-10_12h26.56.117,FishGame,2022.1.1,60.05115156891075,
,23,넌 성실해,1,Green,B,6.041666666666666,5.7,ScrollUp,ScrollDown,Green.png,3,Positive,Incongruent,0,0,0,0,,,,,,,,,,,,,,,,,,,,,0,22,22,22,,,,,,,,,,,,,,,,,,,,,,,,,,,,,,,,,,,,,,,,,,,,,,,,,,,,,,,,,,,,,,,,,,,,,,,,,,,,,2,1.1940059000626206,447.1680054999888,None,ScrollUp,정답입니다,447.1680054999888,None,447.1680054999888,None,447.1680054999888,None,447.1680054999888,None,448.2594849000452,None,448.2594849000452,448.773641900043,,,,,,,,,,,,,,,,125,2022-05-10_12h26.56.117,FishGame,2022.1.1,60.05115156891075,
,24,넌 현실주의적이야,3,Orange,A,4.625,4.4,ScrollDown,ScrollUp,Orange.png,3,Neutral,Neutral,0,0,0,0,,,,,,,,,,,,,,,,,,,,,0,23,23,23,,,,,,,,,,,,,,,,,,,,,,,,,,,,,,,,,,,,,,,,,,,,,,,,,,,,,,,,,,,,,,,,,,,,,,,,,,,,,1,1.0990044999634847,449.40882710006554,None,ScrollDown,정답입니다,449.40882710006554,None,449.40882710006554,None,449.40882710006554,None,449.40882710006554,None,450.3944513000315,None,450.3944513000315,450.9071324999677,,,,,,,,,,,,,,,,125,2022-05-10_12h26.56.117,FishGame,2022.1.1,60.05115156891075,
,25,넌 진실돼,1,Orange,A,6.625,5.566666666666666,ScrollDown,ScrollUp,Orange.png,3,Positive,Congruent,0,0,0,0,,,,,,,,,,,,,,,,,,,,,0,24,24,24,,,,,,,,,,,,,,,,,,,,,,,,,,,,,,,,,,,,,,,,,,,,,,,,,,,,,,,,,,,,,,,,,,,,,,,,,,,,,1.0586419602235158,0.8657377999043092,451.5492602000013,None,ScrollDown,정답입니다,451.5492602000013,None,451.5492602000013,None,451.5492602000013,None,451.5492602000013,None,452.295273500029,None,452.295273500029,452.8070379999699,,,,,,,,,,,,,,,,125,2022-05-10_12h26.56.117,FishGame,2022.1.1,60.05115156891075,
,26,넌 천진난만해,3,Green,B,4.958333333333334,4.833333333333333,ScrollUp,ScrollDown,Green.png,3,Neutral,Neutral,0,0,0,0,,,,,,,,,,,,,,,,,,,,,0,25,25,25,,,,,,,,,,,,,,,,,,,,,,,,,,,,,,,,,,,,,,,,,,,,,,,,,,,,,,,,,,,,,,,,,,,,,,,,,,,,,2,0.9780093999579549,453.44810889998917,None,ScrollUp,정답입니다,453.44810889998917,None,453.44810889998917,None,453.44810889998917,None,453.44810889998917,None,454.3097981000319,None,454.3097981000319,454.82357000000775,,,,,,,,,,,,,,,,125,2022-05-10_12h26.56.117,FishGame,2022.1.1,60.05115156891075,
,27,넌 교양없어,5,Orange,A,2.416666666666667,2.2,ScrollDown,ScrollUp,Orange.png,3,Negative,Incongruent,0,0,0,0,,,,,,,,,,,,,,,,,,,,,0,26,26,26,,,,,,,,,,,,,,,,,,,,,,,,,,,,,,,,,,,,,,,,,,,,,,,,,,,,,,,,,,,,,,,,,,,,,,,,,,,,,1,1.4398865000111982,455.46727410005406,None,ScrollDown,정답입니다,455.46727410005406,None,455.46727410005406,None,455.46727410005406,None,455.46727410005406,None,456.79013610002585,None,456.79013610002585,457.2905581999803,,,,,,,,,,,,,,,,125,2022-05-10_12h26.56.117,FishGame,2022.1.1,60.05115156891075,
,28,나를 보내줘,6,Orange,A,0,0,ScrollUp,ScrollDown,Orange.png,3,NonTarget,NonTarget,0,0,0,0,,,,,,,,,,,,,,,,,,,,,0,27,27,27,,,,,,,,,,,,,,,,,,,,,,,,,,,,,,,,,,,,,,,,,,,,,,,,,,,,,,,,,,,,,,,,,,,,,,,,,,,,,2,1.0008370999712497,457.9262292999774,None,ScrollUp,정답입니다,457.9262292999774,None,457.9262292999774,None,457.9262292999774,None,457.9262292999774,None,458.820447599981,None,458.820447599981,459.32370740000624,,,,,,,,,,,,,,,,125,2022-05-10_12h26.56.117,FishGame,2022.1.1,60.05115156891075,
,29,넌 엉뚱스러워,3,Orange,A,4.166666666666667,4.133333333333334,ScrollDown,ScrollUp,Orange.png,3,Neutral,Neutral,0,0,0,0,,,,,,,,,,,,,,,,,,,,,0,28,28,28,,,,,,,,,,,,,,,,,,,,,,,,,,,,,,,,,,,,,,,,,,,,,,,,,,,,,,,,,,,,,,,,,,,,,,,,,,,,,1,1.1083963999990374,459.9588053000625,None,ScrollDown,정답입니다,459.9588053000625,None,459.9588053000625,None,459.9588053000625,None,459.9588053000625,None,460.9567982000299,None,460.9567982000299,461.4572177999653,,,,,,,,,,,,,,,,125,2022-05-10_12h26.56.117,FishGame,2022.1.1,60.05115156891075,
,30,넌 무지해,4,Green,B,2.541666666666667,3.066666666666667,ScrollUp,ScrollDown,Green.png,3,Negative,Congruent,0,0,0,0,,,,,,,,,,,,,,,,,,,,,0,29,29,29,,,,,,,,,,,,,,,,,,,,,,,,,,,,,,,,,,,,,,,,,,,,,,,,,,,,,,,,,,,,,,,,,,,,,,,,,,,,,2,0.9841643000254408,462.09204929997213,None,ScrollUp,정답입니다,462.09204929997213,None,462.09204929997213,None,462.09204929997213,None,462.09204929997213,None,462.9723655000562,None,462.9723655000562,463.4741643000161,,,,,,,,,,,,,,,,125,2022-05-10_12h26.56.117,FishGame,2022.1.1,60.05115156891075,
,31,넌 음울해,5,Green,B,2.25,2.233333333333333,ScrollUp,ScrollDown,Green.png,3,Negative,Congruent,0,0,0,0,,,,,,,,,,,,,,,,,,,,,0,30,30,30,,,,,,,,,,,,,,,,,,,,,,,,,,,,,,,,,,,,,,,,,,,,,,,,,,,,,,,,,,,,,,,,,,,,,,,,,,,,,2,0.9302702998975292,464.1099496000679,None,ScrollUp,정답입니다,464.1099496000679,None,464.1099496000679,None,464.1099496000679,None,464.1099496000679,None,464.9289395000087,None,464.9289395000087,465.44033420004416,,,,,,,,,,,,,,,,125,2022-05-10_12h26.56.117,FishGame,2022.1.1,60.05115156891075,
,32,넌 냉소적이야,5,Orange,A,2.916666666666667,2.4,ScrollDown,ScrollUp,Orange.png,3,Negative,Incongruent,0,0,0,0,,,,,,,,,,,,,,,,,,,,,0,31,31,31,,,,,,,,,,,,,,,,,,,,,,,,,,,,,,,,,,,,,,,,,,,,,,,,,,,,,,,,,,,,,,,,,,,,,,,,,,,,,1,1.0158359999768436,466.07693109998945,None,ScrollDown,정답입니다,466.07693109998945,None,466.07693109998945,None,466.07693109998945,None,466.07693109998945,None,466.9786893000128,None,466.9786893000128,467.49024590000045,,,,,,,,,,,,,,,,125,2022-05-10_12h26.56.117,FishGame,2022.1.1,60.05115156891075,
,33,나를 데려가줘,6,Green,B,0,0,ScrollDown,ScrollUp,Green.png,3,NonTarget,NonTarget,0,0,0,0,,,,,,,,,,,,,,,,,,,,,0,32,32,32,,,,,,,,,,,,,,,,,,,,,,,,,,,,,,,,,,,,,,,,,,,,,,,,,,,,,,,,,,,,,,,,,,,,,,,,,,,,,1.0524691541989644,0.9498473999556154,468.11618090001866,None,ScrollDown,정답입니다,468.11618090001866,None,468.11618090001866,None,468.11618090001866,None,468.11618090001866,None,468.9620899000438,None,468.9620899000438,469.4741883999668,,,,,,,,,,,,,,,,125,2022-05-10_12h26.56.117,FishGame,2022.1.1,60.05115156891075,
,34,넌 쾌활해,1,Orange,A,5.541666666666666,5.733333333333333,ScrollDown,ScrollUp,Orange.png,3,Positive,Congruent,0,0,0,0,,,,,,,,,,,,,,,,,,,,,0,33,33,33,,,,,,,,,,,,,,,,,,,,,,,,,,,,,,,,,,,,,,,,,,,,,,,,,,,,,,,,,,,,,,,,,,,,,,,,,,,,,1,1.0230082999914885,470.11613930005115,None,ScrollDown,정답입니다,470.11613930005115,None,470.11613930005115,None,470.11613930005115,None,470.11613930005115,None,471.0239183000522,None,471.0239183000522,471.52438269997947,,,,,,,,,,,,,,,,125,2022-05-10_12h26.56.117,FishGame,2022.1.1,60.05115156891075,
,35,나를 보내줘,6,Orange,A,0,0,ScrollUp,ScrollDown,Orange.png,3,NonTarget,NonTarget,0,0,0,0,,,,,,,,,,,,,,,,,,,,,0,34,34,34,,,,,,,,,,,,,,,,,,,,,,,,,,,,,,,,,,,,,,,,,,,,,,,,,,,,,,,,,,,,,,,,,,,,,,,,,,,,,2,0.9839133000932634,472.15609389997553,None,ScrollUp,정답입니다,472.15609389997553,None,472.15609389997553,None,472.15609389997553,None,472.15609389997553,None,473.03744280000683,None,473.03744280000683,473.54050610004924,,,,,,,,,,,,,,,,125,2022-05-10_12h26.56.117,FishGame,2022.1.1,60.05115156891075,
,36,넌 명랑해,1,Green,B,5.739130434782609,5.666666666666667,ScrollUp,ScrollDown,Green.png,3,Positive,Incongruent,0,0,0,0,,,,,,,,,,,,,,,,,,,,,0,35,35,35,,,,,,,,,,,,,,,,,,,,,,,,,,,,,,,,,,,,,,,,,,,,,,,,,,,,,,,,,,,,,,,,,,,,,,,,,,,,,2,1.1664562000660226,474.1746783000417,None,ScrollUp,정답입니다,474.1746783000417,None,474.1746783000417,None,474.1746783000417,None,474.1746783000417,None,475.2287130000768,None,475.2287130000768,475.74091459997,,,,,,,,,,,,,,,,125,2022-05-10_12h26.56.117,FishGame,2022.1.1,60.05115156891075,
,37,넌 멍해,4,Orange,A,2.833333333333333,3.4,ScrollDown,ScrollUp,Orange.png,3,Negative,Incongruent,0,0,0,0,,,,,,,,,,,,,,,,,,,,,0,36,36,36,,,,,,,,,,,,,,,,,,,,,,,,,,,,,,,,,,,,,,,,,,,,,,,,,,,,,,,,,,,,,,,,,,,,,,,,,,,,,1.0138889054457347,1.0587119000265375,476.3729164999677,None,ScrollDown,정답입니다,476.3729164999677,None,476.3729164999677,None,476.3729164999677,None,476.3729164999677,None,477.32371520006564,None,477.32371520006564,477.8245001999894,,,,,,,,,,,,,,,,125,2022-05-10_12h26.56.117,FishGame,2022.1.1,60.05115156891075,
,38,나를 데려가줘,6,Green,B,0,0,ScrollDown,ScrollUp,Green.png,3,NonTarget,NonTarget,0,0,0,0,,,,,,,,,,,,,,,,,,,,,0,37,37,37,,,,,,,,,,,,,,,,,,,,,,,,,,,,,,,,,,,,,,,,,,,,,,,,,,,,,,,,,,,,,,,,,,,,,,,,,,,,,1,1.2410946999443695,478.4574437000556,None,ScrollDown,정답입니다,478.4574437000556,None,478.4574437000556,None,478.4574437000556,None,478.4574437000556,None,479.590521599981,None,479.590521599981,480.09082549996674,,,,,,,,,,,,,,,,125,2022-05-10_12h26.56.117,FishGame,2022.1.1,60.05115156891075,
,39,넌 현명해,2,Orange,A,6.541666666666666,4.533333333333333,ScrollDown,ScrollUp,Orange.png,3,Positive,Congruent,0,0,0,0,,,,,,,,,,,,,,,,,,,,,0,38,38,38,,,,,,,,,,,,,,,,,,,,,,,,,,,,,,,,,,,,,,,,,,,,,,,,,,,,,,,,,,,,,,,,,,,,,,,,,,,,,1,1.0920343999750912,480.7269909000024,None,ScrollDown,정답입니다,480.7269909000024,None,480.7269909000024,None,480.7269909000024,None,480.7269909000024,None,481.7069610999897,None,481.7069610999897,482.20747040002607,,,,,,,,,,,,,,,,125,2022-05-10_12h26.56.117,FishGame,2022.1.1,60.05115156891075,
,40,넌 수줍어,3,Green,B,3.541666666666666,4.366666666666666,ScrollUp,ScrollDown,Green.png,3,Neutral,Neutral,0,0,0,0,,,,,,,,,,,,,,,,,,,,,0,39,39,39,,,,,,,,,,,,,,,,,,,,,,,,,,,,,,,,,,,,,,,,,,,,,,,,,,,,,,,,,,,,,,,,,,,,,,,,,,,,,2,0.8543994000647217,482.8436209000647,None,ScrollUp,정답입니다,482.8436209000647,None,482.8436209000647,None,482.8436209000647,None,482.8436209000647,None,483.59064439998474,None,483.59064439998474,484.09132610005327,,,,,,,,,,,,,,,,125,2022-05-10_12h26.56.117,FishGame,2022.1.1,60.05115156891075,
,41,나를 데려가줘,6,Green,B,0,0,ScrollDown,ScrollUp,Green.png,3,NonTarget,NonTarget,0,0,0,0,,,,,,,,,,,,,,,,,,,,,0,40,40,40,,,,,,,,,,,,,,,,,,,,,,,,,,,,,,,,,,,,,,,,,,,,,,,,,,,,,,,,,,,,,,,,,,,,,,,,,,,,,1,1.056754400022328,484.7139271000633,None,ScrollDown,정답입니다,484.7139271000633,None,484.7139271000633,None,484.7139271000633,None,484.7139271000633,None,485.6742630000226,None,485.6742630000226,486.17472160002217,,,,,,,,,,,,,,,,125,2022-05-10_12h26.56.117,FishGame,2022.1.1,60.05115156891075,
,42,넌 성숙해,2,Green,B,5.833333333333333,4.533333333333333,ScrollUp,ScrollDown,Green.png,3,Positive,Incongruent,0,0,0,0,,,,,,,,,,,,,,,,,,,,,0,41,41,41,,,,,,,,,,,,,,,,,,,,,,,,,,,,,,,,,,,,,,,,,,,,,,,,,,,,,,,,,,,,,,,,,,,,,,,,,,,,,2,1.0741798999952152,486.8069019999821,None,ScrollUp,정답입니다,486.8069019999821,None,486.8069019999821,None,486.8069019999821,None,486.8069019999821,None,487.77411420003045,None,487.77411420003045,488.27405470004305,,,,,,,,,,,,,,,,125,2022-05-10_12h26.56.117,FishGame,2022.1.1,60.05115156891075,
,1,넌 매력적이야,2,Green,B,6.125,4.666666666666667,ScrollUp,ScrollDown,Green.png,4,Positive,Incongruent,0,0,0,0,,,,,,,,,,,,,,,,,,,,,,,,,0,0,0,0,,,,,,,,,,,,,,,,,,,,,,,,,,,,,,,,523.0083307999885,524.5086210999871,524.5419765000697,525.4918836000143,525.5419406000292,526.4924238000531,526.4924238000531,None,,,,,,,,,,,,,,,,,,,,,,,,,,,,,,,,,,2,1.2779543000506237,527.6575594000751,None,ScrollUp,정답입니다,527.6575594000751,None,527.6575594000751,None,527.6575594000751,None,527.6575594000751,None,528.7640036999946,None,528.7640036999946,529.2756439000368,488.77478269999847,None,488.77478269999847,None,0.1712963,-0.10092592,1,0,0,0.016319979913532734,None,518.7749497999903,None,,,125,2022-05-10_12h26.56.117,FishGame,2022.1.1,60.05115156891075,
,2,나를 보내줘,6,Orange,A,0,0,ScrollUp,ScrollDown,Orange.png,4,NonTarget,NonTarget,0,0,0,0,,,,,,,,,,,,,,,,,,,,,,,,,0,1,1,1,,,,,,,,,,,,,,,,,,,,,,,,,,,,,,,,,,,,,,,,,,,,,,,,,,,,,,,,,,,,,,,,,,,,,,,,,2,1.1143561999779195,529.9127729000757,None,ScrollUp,정답입니다,529.9127729000757,None,529.9127729000757,None,529.9127729000757,None,529.9127729000757,None,530.9131811000407,None,530.9131811000407,531.425921899965,,,,,,,,,,,,,,,,125,2022-05-10_12h26.56.117,FishGame,2022.1.1,60.05115156891075,
,3,넌 조심스러워,3,Orange,A,4.791666666666666,4.666666666666667,ScrollDown,ScrollUp,Orange.png,4,Neutral,Neutral,0,0,0,0,,,,,,,,,,,,,,,,,,,,,,,,,0,2,2,2,,,,,,,,,,,,,,,,,,,,,,,,,,,,,,,,,,,,,,,,,,,,,,,,,,,,,,,,,,,,,,,,,,,,,,,,,1,1.2333011000882834,532.0712217000546,None,ScrollDown,정답입니다,532.0712217000546,None,532.0712217000546,None,532.0712217000546,None,532.0712217000546,None,533.1883140000282,None,533.1883140000282,533.6920895000221,,,,,,,,,,,,,,,,125,2022-05-10_12h26.56.117,FishGame,2022.1.1,60.05115156891075,
,4,넌 철학적이야,3,Green,B,4.5,4.266666666666667,ScrollUp,ScrollDown,Green.png,4,Neutral,Neutral,0,0,0,0,,,,,,,,,,,,,,,,,,,,,,,,,0,3,3,3,,,,,,,,,,,,,,,,,,,,,,,,,,,,,,,,,,,,,,,,,,,,,,,,,,,,,,,,,,,,,,,,,,,,,,,,,2,0.9166804000269622,534.3307601000415,None,ScrollUp,정답입니다,534.3307601000415,None,534.3307601000415,None,534.3307601000415,None,534.3307601000415,None,535.1297701000003,None,535.1297701000003,535.6425814999966,,,,,,,,,,,,,,,,125,2022-05-10_12h26.56.117,FishGame,2022.1.1,60.05115156891075,
,5,넌 쩨쩨해,5,Orange,A,2.375,2.133333333333333,ScrollDown,ScrollUp,Orange.png,4,Negative,Incongruent,0,0,0,0,,,,,,,,,,,,,,,,,,,,,,,,,0,4,4,4,,,,,,,,,,,,,,,,,,,,,,,,,,,,,,,,,,,,,,,,,,,,,,,,,,,,,,,,,,,,,,,,,,,,,,,,,1,0.9685783000895754,536.2752865999937,None,ScrollDown,정답입니다,536.2752865999937,None,536.2752865999937,None,536.2752865999937,None,536.2752865999937,None,537.131713300012,None,537.131713300012,537.6425579000497,,,,,,,,,,,,,,,,125,2022-05-10_12h26.56.117,FishGame,2022.1.1,60.05115156891075,
,6,나를 데려가줘,6,Green,B,0,0,ScrollDown,ScrollUp,Green.png,4,NonTarget,NonTarget,0,0,0,0,,,,,,,,,,,,,,,,,,,,,,,,,0,5,5,5,,,,,,,,,,,,,,,,,,,,,,,,,,,,,,,,,,,,,,,,,,,,,,,,,,,,,,,,,,,,,,,,,,,,,,,,,1,1.8518307999474928,538.2743756000418,None,ScrollDown,정답입니다,538.2743756000418,None,538.2743756000418,None,538.2743756000418,None,538.2743756000418,None,540.0219044999685,None,540.0219044999685,540.5254943000618,,,,,,,,,,,,,,,,125,2022-05-10_12h26.56.117,FishGame,2022.1.1,60.05115156891075,
,7,넌 고집불통이야,5,Green,B,2.875,2,ScrollUp,ScrollDown,Green.png,4,Negative,Congruent,0,0,0,0,,,,,,,,,,,,,,,,,,,,,,,,,0,6,6,6,,,,,,,,,,,,,,,,,,,,,,,,,,,,,,,,,,,,,,,,,,,,,,,,,,,,,,,,,,,,,,,,,,,,,,,,,2,0.9584146999986842,541.1695058000041,None,ScrollUp,정답입니다,541.1695058000041,None,541.1695058000041,None,541.1695058000041,None,541.1695058000041,None,542.0086414000252,None,542.0086414000252,542.5089253999759,,,,,,,,,,,,,,,,125,2022-05-10_12h26.56.117,FishGame,2022.1.1,60.05115156891075,
,8,넌 무심해,4,Orange,A,2.875,3.2,ScrollDown,ScrollUp,Orange.png,4,Negative,Incongruent,0,0,0,0,,,,,,,,,,,,,,,,,,,,,,,,,0,7,7,7,,,,,,,,,,,,,,,,,,,,,,,,,,,,,,,,,,,,,,,,,,,,,,,,,,,,,,,,,,,,,,,,,,,,,,,,,1.0447530845801036,0.8665484999073669,543.1500921000261,None,ScrollDown,정답입니다,543.1500921000261,None,543.1500921000261,None,543.1500921000261,None,543.1500921000261,None,543.9049412000459,None,543.9049412000459,544.4089507000754,,,,,,,,,,,,,,,,125,2022-05-10_12h26.56.117,FishGame,2022.1.1,60.05115156891075,
,9,넌 정겨워,1,Orange,A,5.791666666666667,5.666666666666667,ScrollDown,ScrollUp,Orange.png,4,Positive,Congruent,0,0,0,0,,,,,,,,,,,,,,,,,,,,,,,,,0,8,8,8,,,,,,,,,,,,,,,,,,,,,,,,,,,,,,,,,,,,,,,,,,,,,,,,,,,,,,,,,,,,,,,,,,,,,,,,,1,0.8867936000460759,545.0456788999727,None,ScrollDown,정답입니다,545.0456788999727,None,545.0456788999727,None,545.0456788999727,None,545.0456788999727,None,545.8219306999817,None,545.8219306999817,546.3253986999625,,,,,,,,,,,,,,,,125,2022-05-10_12h26.56.117,FishGame,2022.1.1,60.05115156891075,
,10,나를 데려가줘,6,Green,B,0,0,ScrollDown,ScrollUp,Green.png,4,NonTarget,NonTarget,0,0,0,0,,,,,,,,,,,,,,,,,,,,,,,,,0,9,9,9,,,,,,,,,,,,,,,,,,,,,,,,,,,,,,,,,,,,,,,,,,,,,,,,,,,,,,,,,,,,,,,,,,,,,,,,,1,1.2973462999798357,546.9594248000067,None,ScrollDown,정답입니다,546.9594248000067,None,546.9594248000067,None,546.9594248000067,None,546.9594248000067,None,548.1469040999655,None,548.1469040999655,548.6589562000008,,,,,,,,,,,,,,,,125,2022-05-10_12h26.56.117,FishGame,2022.1.1,60.05115156891075,
,11,넌 체제순응적이야,4,Green,B,3,3.6,ScrollUp,ScrollDown,Green.png,4,Negative,Congruent,0,0,0,0,,,,,,,,,,,,,,,,,,,,,,,,,0,10,10,10,,,,,,,,,,,,,,,,,,,,,,,,,,,,,,,,,,,,,,,,,,,,,,,,,,,,,,,,,,,,,,,,,,,,,,,,,1.9984568059444427,1.1902063000015914,549.3051289999858,None,ScrollUp,정답입니다,549.3051289999858,None,549.3051289999858,None,549.3051289999858,None,549.3051289999858,None,550.3754159000237,None,550.3754159000237,550.8760146000423,,,,,,,,,,,,,,,,125,2022-05-10_12h26.56.117,FishGame,2022.1.1,60.05115156891075,
,12,나를 보내줘,6,Orange,A,0,0,ScrollUp,ScrollDown,Orange.png,4,NonTarget,NonTarget,0,0,0,0,,,,,,,,,,,,,,,,,,,,,,,,,0,11,11,11,,,,,,,,,,,,,,,,,,,,,,,,,,,,,,,,,,,,,,,,,,,,,,,,,,,,,,,,,,,,,,,,,,,,,,,,,2,1.2724601000081748,551.5096531000454,None,ScrollUp,정답입니다,551.5096531000454,None,551.5096531000454,None,551.5096531000454,None,551.5096531000454,None,552.6751823000377,None,552.6751823000377,553.1757819000632,,,,,,,,,,,,,,,,125,2022-05-10_12h26.56.117,FishGame,2022.1.1,60.05115156891075,
,13,넌 박식해,2,Orange,A,5.625,3.933333333333333,ScrollDown,ScrollUp,Orange.png,4,Positive,Congruent,0,0,0,0,,,,,,,,,,,,,,,,,,,,,,,,,0,12,12,12,,,,,,,,,,,,,,,,,,,,,,,,,,,,,,,,,,,,,,,,,,,,,,,,,,,,,,,,,,,,,,,,,,,,,,,,,1,1.017212999984622,553.818442299962,None,ScrollDown,정답입니다,553.818442299962,None,553.818442299962,None,553.818442299962,None,553.818442299962,None,554.7134742999915,None,554.7134742999915,555.2262226999737,,,,,,,,,,,,,,,,125,2022-05-10_12h26.56.117,FishGame,2022.1.1,60.05115156891075,
,14,나를 보내줘,6,Orange,A,0,0,ScrollUp,ScrollDown,Orange.png,4,NonTarget,NonTarget,0,0,0,0,,,,,,,,,,,,,,,,,,,,,,,,,0,13,13,13,,,,,,,,,,,,,,,,,,,,,,,,,,,,,,,,,,,,,,,,,,,,,,,,,,,,,,,,,,,,,,,,,,,,,,,,,2,1.091647500055842,555.8638267000206,None,ScrollUp,정답입니다,555.8638267000206,None,555.8638267000206,None,555.8638267000206,None,555.8638267000206,None,556.8423201000551,None,556.8423201000551,557.342929400038,,,,,,,,,,,,,,,,125,2022-05-10_12h26.56.117,FishGame,2022.1.1,60.05115156891075,
,15,넌 침착해,1,Green,B,5.458333333333333,5.566666666666666,ScrollUp,ScrollDown,Green.png,4,Positive,Incongruent,0,0,0,0,,,,,,,,,,,,,,,,,,,,,,,,,0,14,14,14,,,,,,,,,,,,,,,,,,,,,,,,,,,,,,,,,,,,,,,,,,,,,,,,,,,,,,,,,,,,,,,,,,,,,,,,,2,1.1982824999140576,557.9784933000337,None,ScrollUp,정답입니다,557.9784933000337,None,557.9784933000337,None,557.9784933000337,None,557.9784933000337,None,559.0638660000404,None,559.0638660000404,559.5762445,,,,,,,,,,,,,,,,125,2022-05-10_12h26.56.117,FishGame,2022.1.1,60.05115156891075,
,16,나를 데려가줘,6,Green,B,0,0,ScrollDown,ScrollUp,Green.png,4,NonTarget,NonTarget,0,0,0,0,,,,,,,,,,,,,,,,,,,,,,,,,0,15,15,15,,,,,,,,,,,,,,,,,,,,,,,,,,,,,,,,,,,,,,,,,,,,,,,,,,,,,,,,,,,,,,,,,,,,,,,,,1,1.339911499992013,560.2047768000048,None,ScrollDown,정답입니다,560.2047768000048,None,560.2047768000048,None,560.2047768000048,None,560.2047768000048,None,561.4424126000376,None,561.4424126000376,561.9432010999881,,,,,,,,,,,,,,,,125,2022-05-10_12h26.56.117,FishGame,2022.1.1,60.05115156891075,
,17,넌 행복해,1,Orange,A,6.416666666666666,6.166666666666667,ScrollDown,ScrollUp,Orange.png,4,Positive,Congruent,0,0,0,0,,,,,,,,,,,,,,,,,,,,,,,,,0,16,16,16,,,,,,,,,,,,,,,,,,,,,,,,,,,,,,,,,,,,,,,,,,,,,,,,,,,,,,,,,,,,,,,,,,,,,,,,,1,1.1233582000713795,562.5802617999725,None,ScrollDown,정답입니다,562.5802617999725,None,562.5802617999725,None,562.5802617999725,None,562.5802617999725,None,563.5926834000275,None,563.5926834000275,564.0931825999869,,,,,,,,,,,,,,,,125,2022-05-10_12h26.56.117,FishGame,2022.1.1,60.05115156891075,
,18,넌 겸손해,2,Green,B,5.791666666666667,4.766666666666667,ScrollUp,ScrollDown,Green.png,4,Positive,Incongruent,0,0,0,0,,,,,,,,,,,,,,,,,,,,,,,,,0,17,17,17,,,,,,,,,,,,,,,,,,,,,,,,,,,,,,,,,,,,,,,,,,,,,,,,,,,,,,,,,,,,,,,,,,,,,,,,,2,0.908223700011149,564.7310137000168,None,ScrollUp,정답입니다,564.7310137000168,None,564.7310137000168,None,564.7310137000168,None,564.7310137000168,None,565.5259922000114,None,565.5259922000114,566.0266252000583,,,,,,,,,,,,,,,,125,2022-05-10_12h26.56.117,FishGame,2022.1.1,60.05115156891075,
,19,나를 보내줘,6,Orange,A,0,0,ScrollUp,ScrollDown,Orange.png,4,NonTarget,NonTarget,0,0,0,0,,,,,,,,,,,,,,,,,,,,,,,,,0,18,18,18,,,,,,,,,,,,,,,,,,,,,,,,,,,,,,,,,,,,,,,,,,,,,,,,,,,,,,,,,,,,,,,,,,,,,,,,,1.9768518606821697,1.0503996000625193,566.6644372000592,None,ScrollUp,정답입니다,566.6644372000592,None,566.6644372000592,None,566.6644372000592,None,566.6644372000592,None,567.6054134999868,None,567.6054134999868,568.1097967000678,,,,,,,,,,,,,,,,125,2022-05-10_12h26.56.117,FishGame,2022.1.1,60.05115156891075,
,20,넌 의심없어,3,Orange,A,4.166666666666667,4.6,ScrollDown,ScrollUp,Orange.png,4,Neutral,Neutral,0,0,0,0,,,,,,,,,,,,,,,,,,,,,,,,,0,19,19,19,,,,,,,,,,,,,,,,,,,,,,,,,,,,,,,,,,,,,,,,,,,,,,,,,,,,,,,,,,,,,,,,,,,,,,,,,1,0.9310673999134451,568.7432778000366,None,ScrollDown,정답입니다,568.7432778000366,None,568.7432778000366,None,568.7432778000366,None,568.7432778000366,None,569.5640872999793,None,569.5640872999793,570.076022000052,,,,,,,,,,,,,,,,125,2022-05-10_12h26.56.117,FishGame,2022.1.1,60.05115156891075,
,21,넌 시시해,4,Orange,A,2.666666666666667,2.966666666666667,ScrollDown,ScrollUp,Orange.png,4,Negative,Incongruent,0,0,0,0,,,,,,,,,,,,,,,,,,,,,,,,,0,20,20,20,,,,,,,,,,,,,,,,,,,,,,,,,,,,,,,,,,,,,,,,,,,,,,,,,,,,,,,,,,,,,,,,,,,,,,,,,1,0.9728299000998959,570.7026884000516,None,ScrollDown,정답입니다,570.7026884000516,None,570.7026884000516,None,570.7026884000516,None,570.7026884000516,None,571.5764201000566,None,571.5764201000566,572.0764144000132,,,,,,,,,,,,,,,,125,2022-05-10_12h26.56.117,FishGame,2022.1.1,60.05115156891075,
,22,나를 데려가줘,6,Green,B,0,0,ScrollDown,ScrollUp,Green.png,4,NonTarget,NonTarget,0,0,0,0,,,,,,,,,,,,,,,,,,,,,,,,,0,21,21,21,,,,,,,,,,,,,,,,,,,,,,,,,,,,,,,,,,,,,,,,,,,,,,,,,,,,,,,,,,,,,,,,,,,,,,,,,1,1.8923155999509618,572.7115733000683,None,ScrollDown,정답입니다,572.7115733000683,None,572.7115733000683,None,572.7115733000683,None,572.7115733000683,None,574.4927080000052,None,574.4927080000052,574.9932199000614,,,,,,,,,,,,,,,,125,2022-05-10_12h26.56.117,FishGame,2022.1.1,60.05115156891075,
,23,넌 무정해,5,Orange,A,2.5,2.2,ScrollDown,ScrollUp,Orange.png,4,Negative,Incongruent,0,0,0,0,,,,,,,,,,,,,,,,,,,,,,,,,0,22,22,22,,,,,,,,,,,,,,,,,,,,,,,,,,,,,,,,,,,,,,,,,,,,,,,,,,,,,,,,,,,,,,,,,,,,,,,,,1.0447530845801036,1.0351286000804976,575.6298503000289,None,ScrollDown,정답입니다,575.6298503000289,None,575.6298503000289,None,575.6298503000289,None,575.6298503000289,None,576.5561210999731,None,576.5561210999731,577.0596129000187,,,,,,,,,,,,,,,,125,2022-05-10_12h26.56.117,FishGame,2022.1.1,60.05115156891075,
,24,넌 긍정적이야,1,Green,B,6.041666666666667,6.066666666666666,ScrollUp,ScrollDown,Green.png,4,Positive,Incongruent,0,0,0,0,,,,,,,,,,,,,,,,,,,,,,,,,0,23,23,23,,,,,,,,,,,,,,,,,,,,,,,,,,,,,,,,,,,,,,,,,,,,,,,,,,,,,,,,,,,,,,,,,,,,,,,,,2,1.9883651999989524,577.6986567999702,None,ScrollUp,정답입니다,577.6986567999702,None,577.6986567999702,None,577.6986567999702,None,577.6986567999702,None,579.5766562999925,None,579.5766562999925,580.0765181999886,,,,,,,,,,,,,,,,125,2022-05-10_12h26.56.117,FishGame,2022.1.1,60.05115156891075,
,25,나를 보내줘,6,Orange,A,0,0,ScrollUp,ScrollDown,Orange.png,4,NonTarget,NonTarget,0,0,0,0,,,,,,,,,,,,,,,,,,,,,,,,,0,24,24,24,,,,,,,,,,,,,,,,,,,,,,,,,,,,,,,,,,,,,,,,,,,,,,,,,,,,,,,,,,,,,,,,,,,,,,,,,1.9861110945542653,1.0846315999515355,580.7054995000362,None,ScrollUp,정답입니다,580.7054995000362,None,580.7054995000362,None,580.7054995000362,None,580.7054995000362,None,581.6898437000345,None,581.6898437000345,582.1934130999725,,,,,,,,,,,,,,,,125,2022-05-10_12h26.56.117,FishGame,2022.1.1,60.05115156891075,
,26,넌 시기심이 많아,5,Green,B,2.458333333333333,2.233333333333333,ScrollUp,ScrollDown,Green.png,4,Negative,Congruent,0,0,0,0,,,,,,,,,,,,,,,,,,,,,,,,,0,25,25,25,,,,,,,,,,,,,,,,,,,,,,,,,,,,,,,,,,,,,,,,,,,,,,,,,,,,,,,,,,,,,,,,,,,,,,,,,2,1.5160983999958262,582.834058700013,None,ScrollUp,정답입니다,582.834058700013,None,582.834058700013,None,582.834058700013,None,582.834058700013,None,584.2311655000085,None,584.2311655000085,584.7432871999918,,,,,,,,,,,,,,,,125,2022-05-10_12h26.56.117,FishGame,2022.1.1,60.05115156891075,
,27,넌 탁월해,2,Orange,A,5.708333333333334,4.5,ScrollDown,ScrollUp,Orange.png,4,Positive,Congruent,0,0,0,0,,,,,,,,,,,,,,,,,,,,,,,,,0,26,26,26,,,,,,,,,,,,,,,,,,,,,,,,,,,,,,,,,,,,,,,,,,,,,,,,,,,,,,,,,,,,,,,,,,,,,,,,,1,0.9423430000897497,585.3822733999696,None,ScrollDown,정답입니다,585.3822733999696,None,585.3822733999696,None,585.3822733999696,None,585.3822733999696,None,586.2095993000548,None,586.2095993000548,586.7097142999992,,,,,,,,,,,,,,,,125,2022-05-10_12h26.56.117,FishGame,2022.1.1,60.05115156891075,
,28,나를 데려가줘,6,Green,B,0,0,ScrollDown,ScrollUp,Green.png,4,NonTarget,NonTarget,0,0,0,0,,,,,,,,,,,,,,,,,,,,,,,,,0,27,27,27,,,,,,,,,,,,,,,,,,,,,,,,,,,,,,,,,,,,,,,,,,,,,,,,,,,,,,,,,,,,,,,,,,,,,,,,,1,1.2481345999985933,587.3369302999927,None,ScrollDown,정답입니다,587.3369302999927,None,587.3369302999927,None,587.3369302999927,None,587.3369302999927,None,588.4815841000527,None,588.4815841000527,588.9933257000521,,,,,,,,,,,,,,,,125,2022-05-10_12h26.56.117,FishGame,2022.1.1,60.05115156891075,
,29,넌 조용해,3,Green,B,4.333333333333333,4.166666666666667,ScrollUp,ScrollDown,Green.png,4,Neutral,Neutral,0,0,0,0,,,,,,,,,,,,,,,,,,,,,,,,,0,28,28,28,,,,,,,,,,,,,,,,,,,,,,,,,,,,,,,,,,,,,,,,,,,,,,,,,,,,,,,,,,,,,,,,,,,,,,,,,2,1.0745741000864655,589.6311552000698,None,ScrollUp,정답입니다,589.6311552000698,None,589.6311552000698,None,589.6311552000698,None,589.6311552000698,None,590.5931946999626,None,590.5931946999626,591.093464900041,,,,,,,,,,,,,,,,125,2022-05-10_12h26.56.117,FishGame,2022.1.1,60.05115156891075,
,30,넌 다정해,1,Orange,A,5.833333333333334,5.7,ScrollDown,ScrollUp,Orange.png,4,Positive,Congruent,0,0,0,0,,,,,,,,,,,,,,,,,,,,,,,,,0,29,29,29,,,,,,,,,,,,,,,,,,,,,,,,,,,,,,,,,,,,,,,,,,,,,,,,,,,,,,,,,,,,,,,,,,,,,,,,,1.126543199022611,0.9757129999343306,591.7314852999989,None,ScrollDown,정답입니다,591.7314852999989,None,591.7314852999989,None,591.7314852999989,None,591.7314852999989,None,592.5929511999711,None,592.5929511999711,593.0932247000746,,,,,,,,,,,,,,,,125,2022-05-10_12h26.56.117,FishGame,2022.1.1,60.05115156891075,
,31,넌 능력있어,2,Green,B,6.166666666666666,4.6,ScrollUp,ScrollDown,Green.png,4,Positive,Incongruent,0,0,0,0,,,,,,,,,,,,,,,,,,,,,,,,,0,30,30,30,,,,,,,,,,,,,,,,,,,,,,,,,,,,,,,,,,,,,,,,,,,,,,,,,,,,,,,,,,,,,,,,,,,,,,,,,1.9367283980051677,0.9742335999617353,593.7230411000783,None,ScrollUp,정답입니다,593.7230411000783,None,593.7230411000783,None,593.7230411000783,None,593.7230411000783,None,594.5930039000232,None,594.5930039000232,595.0936298000161,,,,,,,,,,,,,,,,125,2022-05-10_12h26.56.117,FishGame,2022.1.1,60.05115156891075,
,32,넌 불쾌해,5,Orange,A,2.125,1.933333333333333,ScrollDown,ScrollUp,Orange.png,4,Negative,Incongruent,0,0,0,0,,,,,,,,,,,,,,,,,,,,,,,,,0,31,31,31,,,,,,,,,,,,,,,,,,,,,,,,,,,,,,,,,,,,,,,,,,,,,,,,,,,,,,,,,,,,,,,,,,,,,,,,,1,1.0346234999597073,595.7222547000274,None,ScrollDown,정답입니다,595.7222547000274,None,595.7222547000274,None,595.7222547000274,None,595.7222547000274,None,596.6566869000671,None,596.6566869000671,597.1597951999865,,,,,,,,,,,,,,,,125,2022-05-10_12h26.56.117,FishGame,2022.1.1,60.05115156891075,
,33,나를 데려가줘,6,Green,B,0,0,ScrollDown,ScrollUp,Green.png,4,NonTarget,NonTarget,0,0,0,0,,,,,,,,,,,,,,,,,,,,,,,,,0,32,32,32,,,,,,,,,,,,,,,,,,,,,,,,,,,,,,,,,,,,,,,,,,,,,,,,,,,,,,,,,,,,,,,,,,,,,,,,,1,0.9749658000655472,597.7906609000638,None,ScrollDown,정답입니다,597.7906609000638,None,597.7906609000638,None,597.7906609000638,None,597.7906609000638,None,598.6601025999989,None,598.6601025999989,599.1603553000605,,,,,,,,,,,,,,,,125,2022-05-10_12h26.56.117,FishGame,2022.1.1,60.05115156891075,
,34,넌 유순해,3,Orange,A,4.458333333333333,5,ScrollDown,ScrollUp,Orange.png,4,Neutral,Neutral,0,0,0,0,,,,,,,,,,,,,,,,,,,,,,,,,0,33,33,33,,,,,,,,,,,,,,,,,,,,,,,,,,,,,,,,,,,,,,,,,,,,,,,,,,,,,,,,,,,,,,,,,,,,,,,,,1,0.984957900014706,599.7980214999989,None,ScrollDown,정답입니다,599.7980214999989,None,599.7980214999989,None,599.7980214999989,None,599.7980214999989,None,600.6665773000568,None,600.6665773000568,601.1773833000334,,,,,,,,,,,,,,,,125,2022-05-10_12h26.56.117,FishGame,2022.1.1,60.05115156891075,
,35,넌 근심스러워,4,Green,B,2.708333333333333,3.133333333333333,ScrollUp,ScrollDown,Green.png,4,Negative,Congruent,0,0,0,0,,,,,,,,,,,,,,,,,,,,,,,,,0,34,34,34,,,,,,,,,,,,,,,,,,,,,,,,,,,,,,,,,,,,,,,,,,,,,,,,,,,,,,,,,,,,,,,,,,,,,,,,,2,1.0582912999670953,601.8148642000742,None,ScrollUp,정답입니다,601.8148642000742,None,601.8148642000742,None,601.8148642000742,None,601.8148642000742,None,602.7602040000493,None,602.7602040000493,603.2606697999872,,,,,,,,,,,,,,,,125,2022-05-10_12h26.56.117,FishGame,2022.1.1,60.05115156891075,
,36,넌 세련되었어,2,Orange,A,5.5,4.6,ScrollDown,ScrollUp,Orange.png,4,Positive,Congruent,0,0,0,0,,,,,,,,,,,,,,,,,,,,,,,,,0,35,35,35,,,,,,,,,,,,,,,,,,,,,,,,,,,,,,,,,,,,,,,,,,,,,,,,,,,,,,,,,,,,,,,,,,,,,,,,,1,0.9825552999973297,603.9139695999911,None,ScrollDown,정답입니다,603.9139695999911,None,603.9139695999911,None,603.9139695999911,None,603.9139695999911,None,604.7654951000586,None,604.7654951000586,605.2768122999696,,,,,,,,,,,,,,,,125,2022-05-10_12h26.56.117,FishGame,2022.1.1,60.05115156891075,
,37,나를 보내줘,6,Orange,A,0,0,ScrollUp,ScrollDown,Orange.png,4,NonTarget,NonTarget,0,0,0,0,,,,,,,,,,,,,,,,,,,,,,,,,0,36,36,36,,,,,,,,,,,,,,,,,,,,,,,,,,,,,,,,,,,,,,,,,,,,,,,,,,,,,,,,,,,,,,,,,,,,,,,,,2,1.2210232000797987,605.9147049000021,None,ScrollUp,정답입니다,605.9147049000021,None,605.9147049000021,None,605.9147049000021,None,605.9147049000021,None,607.0264804000035,None,607.0264804000035,607.526982099982,,,,,,,,,,,,,,,,125,2022-05-10_12h26.56.117,FishGame,2022.1.1,60.05115156891075,
,38,넌 확고해,3,Green,B,4.708333333333334,4.566666666666666,ScrollUp,ScrollDown,Green.png,4,Neutral,Neutral,0,0,0,0,,,,,,,,,,,,,,,,,,,,,,,,,0,37,37,37,,,,,,,,,,,,,,,,,,,,,,,,,,,,,,,,,,,,,,,,,,,,,,,,,,,,,,,,,,,,,,,,,,,,,,,,,1.8641975422700245,1.2004578000633046,608.1636743000709,None,ScrollUp,정답입니다,608.1636743000709,None,608.1636743000709,None,608.1636743000709,None,608.1636743000709,None,609.2480961000547,None,609.2480961000547,609.7607871000655,,,,,,,,,,,,,,,,125,2022-05-10_12h26.56.117,FishGame,2022.1.1,60.05115156891075,
,39,넌 이해심이 많아,1,Green,B,6.041666666666668,5.533333333333333,ScrollUp,ScrollDown,Green.png,4,Positive,Incongruent,0,0,0,0,,,,,,,,,,,,,,,,,,,,,,,,,0,38,38,38,,,,,,,,,,,,,,,,,,,,,,,,,,,,,,,,,,,,,,,,,,,,,,,,,,,,,,,,,,,,,,,,,,,,,,,,,2,0.9082152999471873,610.3933915999951,None,ScrollUp,정답입니다,610.3933915999951,None,610.3933915999951,None,610.3933915999951,None,610.3933915999951,None,611.1936439999845,None,611.1936439999845,611.6936879999703,,,,,,,,,,,,,,,,125,2022-05-10_12h26.56.117,FishGame,2022.1.1,60.05115156891075,
,40,나를 보내줘,6,Orange,A,0,0,ScrollUp,ScrollDown,Orange.png,4,NonTarget,NonTarget,0,0,0,0,,,,,,,,,,,,,,,,,,,,,,,,,0,39,39,39,,,,,,,,,,,,,,,,,,,,,,,,,,,,,,,,,,,,,,,,,,,,,,,,,,,,,,,,,,,,,,,,,,,,,,,,,2,1.7802719000028446,612.3269062000327,None,ScrollUp,정답입니다,612.3269062000327,None,612.3269062000327,None,612.3269062000327,None,612.3269062000327,None,613.9985002999892,None,613.9985002999892,614.5103748000693,,,,,,,,,,,,,,,,125,2022-05-10_12h26.56.117,FishGame,2022.1.1,60.05115156891075,
,41,넌 거칠어,4,Orange,A,2.625,3.033333333333333,ScrollDown,ScrollUp,Orange.png,4,Negative,Incongruent,0,0,0,0,,,,,,,,,,,,,,,,,,,,,,,,,0,40,40,40,,,,,,,,,,,,,,,,,,,,,,,,,,,,,,,,,,,,,,,,,,,,,,,,,,,,,,,,,,,,,,,,,,,,,,,,,1,1.3727449999423698,615.1471179999644,None,ScrollDown,정답입니다,615.1471179999644,None,615.1471179999644,None,615.1471179999644,None,615.1471179999644,None,616.4104522999842,None,616.4104522999842,616.9103018000023,,,,,,,,,,,,,,,,125,2022-05-10_12h26.56.117,FishGame,2022.1.1,60.05115156891075,
,42,넌 변덕맞아,5,Green,B,2.75,2.166666666666667,ScrollUp,ScrollDown,Green.png,4,Negative,Congruent,0,0,0,0,,,,,,,,,,,,,,,,,,,,,,,,,0,41,41,41,,,,,,,,,,,,,,,,,,,,,,,,,,,,,,,,,,,,,,,,,,,,,,,,,,,,,,,,,,,,,,,,,,,,,,,,,1.9645061492919922,1.1416792999953032,617.5560437999666,None,ScrollUp,정답입니다,617.5560437999666,None,617.5560437999666,None,617.5560437999666,None,617.5560437999666,None,618.5769843000453,None,618.5769843000453,619.0771710000699,,,,,,,,,,,,,,,,125,2022-05-10_12h26.56.117,FishGame,2022.1.1,60.05115156891075,
,43,나를 데려가줘,6,Green,B,0,0,ScrollDown,ScrollUp,Green.png,4,NonTarget,NonTarget,0,0,0,0,,,,,,,,,,,,,,,,,,,,,,,,,0,42,42,42,,,,,,,,,,,,,,,,,,,,,,,,,,,,,,,,,,,,,,,,,,,,,,,,,,,,,,,,,,,,,,,,,,,,,,,,,1,1.1745829000137746,619.7073600000003,None,ScrollDown,정답입니다,619.7073600000003,None,619.7073600000003,None,619.7073600000003,None,619.7073600000003,None,620.7770295999944,None,620.7770295999944,621.2773870000383,,,,,,,,,,,,,,,,125,2022-05-10_12h26.56.117,FishGame,2022.1.1,60.05115156891075,
,44,넌 외로워,4,Green,B,2.833333333333333,3.3,ScrollUp,ScrollDown,Green.png,4,Negative,Congruent,0,0,0,0,,,,,,,,,,,,,,,,,,,,,,,,,0,43,43,43,,,,,,,,,,,,,,,,,,,,,,,,,,,,,,,,,,,,,,,,,,,,,,,,,,,,,,,,,,,,,,,,,,,,,,,,,2,2.5356093000154942,621.9087862999877,None,ScrollUp,정답입니다,621.9087862999877,None,621.9087862999877,None,621.9087862999877,None,621.9087862999877,None,624.3403848999878,None,624.3403848999878,624.8437830000184,,,,,,,,,,,,,,,,125,2022-05-10_12h26.56.117,FishGame,2022.1.1,60.05115156891075,
,1,넌 불평스러워,5,Orange,A,2.25,2.066666666666667,ScrollDown,ScrollUp,Orange.png,5,Negative,Incongruent,0,0,0,0,,,,,,,,,,,,,,,,,,,,,,,,,,,,,0,0,0,0,,,,,,,,,,,,,,,,,,,,,,,,,,,,657.0784363000421,658.5781315000495,658.6119102999801,659.5615736000473,659.6116361999884,660.5618858999806,660.5618858999806,None,,,,,,,,,,,,,,,,,,,,,,,,,,,,,,,,,,1,1.395782999927178,661.7270580000477,None,ScrollDown,정답입니다,661.7270580000477,None,661.7270580000477,None,661.7270580000477,None,661.7270580000477,None,662.9498936000746,None,662.9498936000746,663.462116700015,625.344022699981,None,625.344022699981,None,0.011111111,-0.094444446,1,0,0,0.01633827993646264,None,655.3449133000104,None,,,125,2022-05-10_12h26.56.117,FishGame,2022.1.1,60.05115156891075,
,2,나를 보내줘,6,Orange,A,0,0,ScrollUp,ScrollDown,Orange.png,5,NonTarget,NonTarget,0,0,0,0,,,,,,,,,,,,,,,,,,,,,,,,,,,,,0,1,1,1,,,,,,,,,,,,,,,,,,,,,,,,,,,,,,,,,,,,,,,,,,,,,,,,,,,,,,,,,,,,,,,,,,,,,2,1.1388426000485197,664.0895007000072,None,ScrollUp,정답입니다,664.0895007000072,None,664.0895007000072,None,664.0895007000072,None,664.0895007000072,None,665.1280815000646,None,665.1280815000646,665.6287914999994,,,,,,,,,,,,,,,,125,2022-05-10_12h26.56.117,FishGame,2022.1.1,60.05115156891075,
,3,넌 다재다능해,2,Green,B,6.208333333333333,4.5,ScrollUp,ScrollDown,Green.png,5,Positive,Incongruent,0,0,0,0,,,,,,,,,,,,,,,,,,,,,,,,,,,,,0,2,2,2,,,,,,,,,,,,,,,,,,,,,,,,,,,,,,,,,,,,,,,,,,,,,,,,,,,,,,,,,,,,,,,,,,,,,2,1.324651199975051,666.2607582999626,None,ScrollUp,정답입니다,666.2607582999626,None,666.2607582999626,None,666.2607582999626,None,666.2607582999626,None,667.478345700074,None,667.478345700074,667.979086700012,,,,,,,,,,,,,,,,125,2022-05-10_12h26.56.117,FishGame,2022.1.1,60.05115156891075,
,4,넌 과감해,3,Orange,A,4.833333333333334,4.6,ScrollDown,ScrollUp,Orange.png,5,Neutral,Neutral,0,0,0,0,,,,,,,,,,,,,,,,,,,,,,,,,,,,,0,3,3,3,,,,,,,,,,,,,,,,,,,,,,,,,,,,,,,,,,,,,,,,,,,,,,,,,,,,,,,,,,,,,,,,,,,,,1,0.9349525000434369,668.6113943000091,None,ScrollDown,정답입니다,668.6113943000091,None,668.6113943000091,None,668.6113943000091,None,668.6113943000091,None,669.4415901000611,None,669.4415901000611,669.9455479000462,,,,,,,,,,,,,,,,125,2022-05-10_12h26.56.117,FishGame,2022.1.1,60.05115156891075,
,5,넌 고분고분해,3,Green,B,3.75,4.033333333333333,ScrollUp,ScrollDown,Green.png,5,Neutral,Neutral,0,0,0,0,,,,,,,,,,,,,,,,,,,,,,,,,,,,,0,4,4,4,,,,,,,,,,,,,,,,,,,,,,,,,,,,,,,,,,,,,,,,,,,,,,,,,,,,,,,,,,,,,,,,,,,,,2,0.9512054999358952,670.5881367999827,None,ScrollUp,정답입니다,670.5881367999827,None,670.5881367999827,None,670.5881367999827,None,670.5881367999827,None,671.4249329000013,None,671.4249329000013,671.9284314999823,,,,,,,,,,,,,,,,125,2022-05-10_12h26.56.117,FishGame,2022.1.1,60.05115156891075,
,6,나를 보내줘,6,Orange,A,0,0,ScrollUp,ScrollDown,Orange.png,5,NonTarget,NonTarget,0,0,0,0,,,,,,,,,,,,,,,,,,,,,,,,,,,,,0,5,5,5,,,,,,,,,,,,,,,,,,,,,,,,,,,,,,,,,,,,,,,,,,,,,,,,,,,,,,,,,,,,,,,,,,,,,2,1.3748579000821337,672.5617327999789,None,ScrollUp,정답입니다,672.5617327999789,None,672.5617327999789,None,672.5617327999789,None,672.5617327999789,None,673.8286188000347,None,673.8286188000347,674.329156700056,,,,,,,,,,,,,,,,125,2022-05-10_12h26.56.117,FishGame,2022.1.1,60.05115156891075,
,7,넌 잘 잊어,4,Orange,A,3,3.7,ScrollDown,ScrollUp,Orange.png,5,Negative,Incongruent,0,0,0,0,,,,,,,,,,,,,,,,,,,,,,,,,,,,,0,6,6,6,,,,,,,,,,,,,,,,,,,,,,,,,,,,,,,,,,,,,,,,,,,,,,,,,,,,,,,,,,,,,,,,,,,,,1,1.2240627000574023,674.9726998000406,None,ScrollDown,정답입니다,674.9726998000406,None,674.9726998000406,None,674.9726998000406,None,674.9726998000406,None,676.0780966000166,None,676.0780966000166,676.5784914999967,,,,,,,,,,,,,,,,125,2022-05-10_12h26.56.117,FishGame,2022.1.1,60.05115156891075,
,8,넌 탐구심이없어,4,Green,B,2.833333333333333,3.066666666666667,ScrollUp,ScrollDown,Green.png,5,Negative,Congruent,0,0,0,0,,,,,,,,,,,,,,,,,,,,,,,,,,,,,0,7,7,7,,,,,,,,,,,,,,,,,,,,,,,,,,,,,,,,,,,,,,,,,,,,,,,,,,,,,,,,,,,,,,,,,,,,,2,0.9485126999206841,677.2119341000216,None,ScrollUp,정답입니다,677.2119341000216,None,677.2119341000216,None,677.2119341000216,None,677.2119341000216,None,678.0499357000226,None,678.0499357000226,678.5618245999794,,,,,,,,,,,,,,,,125,2022-05-10_12h26.56.117,FishGame,2022.1.1,60.05115156891075,
,9,나를 데려가줘,6,Green,B,0,0,ScrollDown,ScrollUp,Green.png,5,NonTarget,NonTarget,0,0,0,0,,,,,,,,,,,,,,,,,,,,,,,,,,,,,0,8,8,8,,,,,,,,,,,,,,,,,,,,,,,,,,,,,,,,,,,,,,,,,,,,,,,,,,,,,,,,,,,,,,,,,,,,,1,1.0799466000171378,679.1907483000541,None,ScrollDown,정답입니다,679.1907483000541,None,679.1907483000541,None,679.1907483000541,None,679.1907483000541,None,680.1666770000011,None,680.1666770000011,680.678657200071,,,,,,,,,,,,,,,,125,2022-05-10_12h26.56.117,FishGame,2022.1.1,60.05115156891075,
,10,넌 참되어,2,Orange,A,6.041666666666664,4.733333333333333,ScrollDown,ScrollUp,Orange.png,5,Positive,Congruent,0,0,0,0,,,,,,,,,,,,,,,,,,,,,,,,,,,,,0,9,9,9,,,,,,,,,,,,,,,,,,,,,,,,,,,,,,,,,,,,,,,,,,,,,,,,,,,,,,,,,,,,,,,,,,,,,1,1.1540744000812992,681.3155528999632,None,ScrollDown,정답입니다,681.3155528999632,None,681.3155528999632,None,681.3155528999632,None,681.3155528999632,None,682.3587832000339,None,682.3587832000339,682.8623170000501,,,,,,,,,,,,,,,,125,2022-05-10_12h26.56.117,FishGame,2022.1.1,60.05115156891075,
,11,넌 생기있어,1,Green,B,5.875,5.633333333333334,ScrollUp,ScrollDown,Green.png,5,Positive,Incongruent,0,0,0,0,,,,,,,,,,,,,,,,,,,,,,,,,,,,,0,10,10,10,,,,,,,,,,,,,,,,,,,,,,,,,,,,,,,,,,,,,,,,,,,,,,,,,,,,,,,,,,,,,,,,,,,,,2,1.315844799974002,683.4919895000057,None,ScrollUp,정답입니다,683.4919895000057,None,683.4919895000057,None,683.4919895000057,None,683.4919895000057,None,684.7000074000098,None,684.7000074000098,685.2118675999809,,,,,,,,,,,,,,,,125,2022-05-10_12h26.56.117,FishGame,2022.1.1,60.05115156891075,
,12,넌 비사교적이야,4,Green,B,2.875,2.9,ScrollUp,ScrollDown,Green.png,5,Negative,Congruent,0,0,0,0,,,,,,,,,,,,,,,,,,,,,,,,,,,,,0,11,11,11,,,,,,,,,,,,,,,,,,,,,,,,,,,,,,,,,,,,,,,,,,,,,,,,,,,,,,,,,,,,,,,,,,,,,2,1.0869623000035062,685.846693700063,None,ScrollUp,정답입니다,685.846693700063,None,685.846693700063,None,685.846693700063,None,685.846693700063,None,686.8250991000095,None,686.8250991000095,687.329327500076,,,,,,,,,,,,,,,,125,2022-05-10_12h26.56.117,FishGame,2022.1.1,60.05115156891075,
,13,나를 데려가줘,6,Green,B,0,0,ScrollDown,ScrollUp,Green.png,5,NonTarget,NonTarget,0,0,0,0,,,,,,,,,,,,,,,,,,,,,,,,,,,,,0,12,12,12,,,,,,,,,,,,,,,,,,,,,,,,,,,,,,,,,,,,,,,,,,,,,,,,,,,,,,,,,,,,,,,,,,,,,1,1.2052198000019416,687.9575453000143,None,ScrollDown,정답입니다,687.9575453000143,None,687.9575453000143,None,687.9575453000143,None,687.9575453000143,None,689.0621390000451,None,689.0621390000451,689.5620591000188,,,,,,,,,,,,,,,,125,2022-05-10_12h26.56.117,FishGame,2022.1.1,60.05115156891075,
,14,넌 고독해,4,Orange,A,2.916666666666667,3.233333333333333,ScrollDown,ScrollUp,Orange.png,5,Negative,Incongruent,0,0,0,0,,,,,,,,,,,,,,,,,,,,,,,,,,,,,0,13,13,13,,,,,,,,,,,,,,,,,,,,,,,,,,,,,,,,,,,,,,,,,,,,,,,,,,,,,,,,,,,,,,,,,,,,,1,1.4335396999958903,690.1964385000756,None,ScrollDown,정답입니다,690.1964385000756,None,690.1964385000756,None,690.1964385000756,None,690.1964385000756,None,691.5166851000395,None,691.5166851000395,692.028986099991,,,,,,,,,,,,,,,,125,2022-05-10_12h26.56.117,FishGame,2022.1.1,60.05115156891075,
,15,넌 신경질적이야,5,Green,B,2.375,2.233333333333333,ScrollUp,ScrollDown,Green.png,5,Negative,Congruent,0,0,0,0,,,,,,,,,,,,,,,,,,,,,,,,,,,,,0,14,14,14,,,,,,,,,,,,,,,,,,,,,,,,,,,,,,,,,,,,,,,,,,,,,,,,,,,,,,,,,,,,,,,,,,,,,2,1.0392297999933362,692.6686198000098,None,ScrollUp,정답입니다,692.6686198000098,None,692.6686198000098,None,692.6686198000098,None,692.6686198000098,None,693.5956519000465,None,693.5956519000465,694.0959262000397,,,,,,,,,,,,,,,,125,2022-05-10_12h26.56.117,FishGame,2022.1.1,60.05115156891075,
,16,넌 똑똑해,2,Green,B,5.666666666666667,3.966666666666667,ScrollUp,ScrollDown,Green.png,5,Positive,Incongruent,0,0,0,0,,,,,,,,,,,,,,,,,,,,,,,,,,,,,0,15,15,15,,,,,,,,,,,,,,,,,,,,,,,,,,,,,,,,,,,,,,,,,,,,,,,,,,,,,,,,,,,,,,,,,,,,,2,1.4890731000341475,694.7257336999755,None,ScrollUp,정답입니다,694.7257336999755,None,694.7257336999755,None,694.7257336999755,None,694.7257336999755,None,696.1085737000685,None,696.1085737000685,696.6123070999747,,,,,,,,,,,,,,,,125,2022-05-10_12h26.56.117,FishGame,2022.1.1,60.05115156891075,
,17,나를 보내줘,6,Orange,A,0,0,ScrollUp,ScrollDown,Orange.png,5,NonTarget,NonTarget,0,0,0,0,,,,,,,,,,,,,,,,,,,,,,,,,,,,,0,16,16,16,,,,,,,,,,,,,,,,,,,,,,,,,,,,,,,,,,,,,,,,,,,,,,,,,,,,,,,,,,,,,,,,,,,,,2,1.0902271999511868,697.2453440000536,None,ScrollUp,정답입니다,697.2453440000536,None,697.2453440000536,None,697.2453440000536,None,697.2453440000536,None,698.2290677999845,None,698.2290677999845,698.7291235000594,,,,,,,,,,,,,,,,125,2022-05-10_12h26.56.117,FishGame,2022.1.1,60.05115156891075,
,18,넌 협조적이야,1,Orange,A,5.625,5.666666666666667,ScrollDown,ScrollUp,Orange.png,5,Positive,Congruent,0,0,0,0,,,,,,,,,,,,,,,,,,,,,,,,,,,,,0,17,17,17,,,,,,,,,,,,,,,,,,,,,,,,,,,,,,,,,,,,,,,,,,,,,,,,,,,,,,,,,,,,,,,,,,,,,1,1.1015943000093102,699.3581639999757,None,ScrollDown,정답입니다,699.3581639999757,None,699.3581639999757,None,699.3581639999757,None,699.3581639999757,None,700.3587322999956,None,700.3587322999956,700.8626616999973,,,,,,,,,,,,,,,,125,2022-05-10_12h26.56.117,FishGame,2022.1.1,60.05115156891075,
,19,나를 데려가줘,6,Green,B,0,0,ScrollDown,ScrollUp,Green.png,5,NonTarget,NonTarget,0,0,0,0,,,,,,,,,,,,,,,,,,,,,,,,,,,,,0,18,18,18,,,,,,,,,,,,,,,,,,,,,,,,,,,,,,,,,,,,,,,,,,,,,,,,,,,,,,,,,,,,,,,,,,,,,1,1.0351366000249982,701.4881371000083,None,ScrollDown,정답입니다,701.4881371000083,None,701.4881371000083,None,701.4881371000083,None,701.4881371000083,None,702.4254652999807,None,702.4254652999807,702.929204300046,,,,,,,,,,,,,,,,125,2022-05-10_12h26.56.117,FishGame,2022.1.1,60.05115156891075,
,20,넌 몰인정해,5,Green,B,2.541666666666667,2.066666666666667,ScrollUp,ScrollDown,Green.png,5,Negative,Congruent,0,0,0,0,,,,,,,,,,,,,,,,,,,,,,,,,,,,,0,19,19,19,,,,,,,,,,,,,,,,,,,,,,,,,,,,,,,,,,,,,,,,,,,,,,,,,,,,,,,,,,,,,,,,,,,,,2,1.1139989999355748,703.5664506000467,None,ScrollUp,정답입니다,703.5664506000467,None,703.5664506000467,None,703.5664506000467,None,703.5664506000467,None,704.5675345000345,None,704.5675345000345,705.0790140000172,,,,,,,,,,,,,,,,125,2022-05-10_12h26.56.117,FishGame,2022.1.1,60.05115156891075,
,21,나를 데려가줘,6,Green,B,0,0,ScrollDown,ScrollUp,Green.png,5,NonTarget,NonTarget,0,0,0,0,,,,,,,,,,,,,,,,,,,,,,,,,,,,,0,20,20,20,,,,,,,,,,,,,,,,,,,,,,,,,,,,,,,,,,,,,,,,,,,,,,,,,,,,,,,,,,,,,,,,,,,,,1,1.055748000042513,705.7076220000163,None,ScrollDown,정답입니다,705.7076220000163,None,705.7076220000163,None,705.7076220000163,None,705.7076220000163,None,706.6621412000386,None,706.6621412000386,707.1628813999705,,,,,,,,,,,,,,,,125,2022-05-10_12h26.56.117,FishGame,2022.1.1,60.05115156891075,
