name,TrialNum,Word,WordCategory,FishType,WordList,WordValence,WordReputation,CorrectResp,IncorrectResp,FishTypeFile,Round,WordType,Condition,LoopforOrange.thisRepN,LoopforOrange.thisTrialN,LoopforOrange.thisN,LoopforOrange.thisIndex,LoopForGreen.thisRepN,LoopForGreen.thisTrialN,LoopForGreen.thisN,LoopForGreen.thisIndex,GreenInstLoop.thisRepN,GreenInstLoop.thisTrialN,GreenInstLoop.thisN,GreenInstLoop.thisIndex,GreenPrac.thisRepN,GreenPrac.thisTrialN,GreenPrac.thisN,GreenPrac.thisIndex,trials_2.thisRepN,trials_2.thisTrialN,trials_2.thisN,trials_2.thisIndex,GreenRound1.thisRepN,GreenRound1.thisTrialN,GreenRound1.thisN,GreenRound1.thisIndex,GreenRound2.thisRepN,GreenRound2.thisTrialN,GreenRound2.thisN,GreenRound2.thisIndex,GreenRound3.thisRepN,GreenRound3.thisTrialN,GreenRound3.thisN,GreenRound3.thisIndex,GreenRound4.thisRepN,GreenRound4.thisTrialN,GreenRound4.thisN,GreenRound4.thisIndex,GreenRound5.thisRepN,GreenRound5.thisTrialN,GreenRound5.thisN,GreenRound5.thisIndex,text_2.started,text_2.stopped,text_3.started,text_3.stopped,key_resp.keys,key_resp.rt,key_resp.started,key_resp.stopped,PassI.started,PassI.stopped,PassInst.keys,PassInst.rt,PassInst.started,PassInst.stopped,mouse_2.x,mouse_2.y,mouse_2.leftButton,mouse_2.midButton,mouse_2.rightButton,mouse_2.started,mouse_2.stopped,image.started,image.stopped,text_5.started,text_5.stopped,text_6.started,text_6.stopped,text_7.started,text_7.stopped,text_8.started,text_8.stopped,slider_3.response,slider_3.rt,slider_3.started,slider_3.stopped,Response_3,Feedback_3,BackGround_3.started,BackGround_3.stopped,Fish_3.started,Fish_3.stopped,WordBox_3.started,WordBox_3.stopped,Words_3.started,Words_3.stopped,BackGround_Feedback_3.started,BackGround_Feedback_3.stopped,Feedbacks_3.started,Feedbacks_3.stopped,Continue_or_not_2.keys,Continue_or_not_2.rt,Continue_or_not_2.started,Continue_or_not_2.stopped,image_4.started,image_4.stopped,mouse_3.x,mouse_3.y,mouse_3.leftButton,mouse_3.midButton,mouse_3.rightButton,mouse_3.started,mouse_3.stopped,startmain.started,startmain.stopped,slider_4.response,slider_4.rt,slider_4.started,slider_4.stopped,Response_4,Feedback_4,BackGround_4.started,BackGround_4.stopped,Fish_4.started,Fish_4.stopped,WordBox_4.started,WordBox_4.stopped,Words_4.started,Words_4.stopped,BackGround_Feedback_4.started,BackGround_Feedback_4.stopped,Feedbacks_4.started,Feedbacks_4.stopped,text.started,text.stopped,break_interval.started,break_interval.stopped,mouse.x,mouse.y,mouse.leftButton,mouse.midButton,mouse.rightButton,mouse.started,mouse.stopped,stratnextround.started,stratnextround.stopped,endgame.started,endgame.stopped,participant,date,expName,psychopyVersion,frameRate,
,,,,,,,,,,,,,,,,,,,,,,,,,,,,,,,,,,,,,,,,,,,,,,,,,,,,,,21.84044719999656,None,21.84044719999656,None,space,0.6153549000155181,22.29323900002055,None,,,,,,,,,,,,,,,,,,,,,,,,,,,,,,,,,,,,,,,,,,,,,,,,,,,,,,,,,,,,,,,,,,,,,,,,,,,,,,,,,,,,,,,,,,126,2022-05-10_17h41.58.680,FishGame,2022.1.1,59.90197639861314,
물고기과제_instruction(참가자용)GreenVersion.mp4,,,,,,,,,,,,,,,,,,0,0,0,0,0,0,0,0,,,,,,,,,,,,,,,,,,,,,,,,,,,,,,,,,,,,,89.72262010001577,None,n,6.924993900000118,89.72262010001577,None,,,,,,,,,,,,,,,,,,,,,,,,,,,,,,,,,,,,,,,,,,,,,,,,,,,,,,,,,,,,,,,,,,,,,,,,,,,,,,,,,,,,126,2022-05-10_17h41.58.680,FishGame,2022.1.1,59.90197639861314,
,1,넌 교활해,5,Orange,B,2.333333333333333,2.133333333333333,ScrollUp,ScrollDown,Orange.png,practice,,,,,,,0,0,0,0,,,,,0,0,0,0,0,0,0,0,,,,,,,,,,,,,,,,,,,,,,,,,,,,,,,,,,,0.07777778,-0.2361111,1,0,0,0.5142014099983498,None,96.6786318999948,None,103.07838860002812,104.57872340001632,104.6116443000501,105.56180490006227,105.61168720002752,106.5614162000129,106.5614162000129,None,2,1.6384765000548214,107.73651770001743,None,ScrollUp,정답입니다,107.73651770001743,None,107.73651770001743,None,107.73651770001743,None,107.73651770001743,None,109.19728110008873,None,109.19728110008873,109.71218700008467,,,,,,,,,,,,,,,,,,,,,,,,,,,,,,,,,,,,,,,,,,,,,,,,,126,2022-05-10_17h41.58.680,FishGame,2022.1.1,59.90197639861314,
,2,넌 슬기로워,2,Green,A,6.166666666666667,4.1,ScrollDown,ScrollUp,Green.png,practice,,,,,,,0,0,0,0,,,,,0,0,0,0,0,1,1,1,,,,,,,,,,,,,,,,,,,,,,,,,,,,,,,,,,,,,,,,,,,,,,,,,,,,1,1.5761415999149904,110.33077210001647,None,ScrollDown,정답입니다,110.33077210001647,None,110.33077210001647,None,110.33077210001647,None,110.33077210001647,None,111.79516400001012,None,111.79516400001012,112.29537980002351,,,,,,,,,,,,,,,,,,,,,,,,,,,,,,,,,,,,,,,,,,,,,,,,,126,2022-05-10_17h41.58.680,FishGame,2022.1.1,59.90197639861314,
,3,나를 보내줘,6,Green,A,0,0,ScrollUp,ScrollDown,Green.png,practice,,,,,,,0,0,0,0,,,,,0,0,0,0,0,2,2,2,,,,,,,,,,,,,,,,,,,,,,,,,,,,,,,,,,,,,,,,,,,,,,,,,,,,2,2.085888499976136,112.92789729998913,None,ScrollUp,정답입니다,112.92789729998913,None,112.92789729998913,None,112.92789729998913,None,112.92789729998913,None,114.90858490008395,None,114.90858490008395,115.41251070005819,,,,,,,,,,,,,,,,,,,,,,,,,,,,,,,,,,,,,,,,,,,,,,,,,126,2022-05-10_17h41.58.680,FishGame,2022.1.1,59.90197639861314,
,4,나를 데려가줘,6,Orange,B,0,0,ScrollDown,ScrollUp,Orange.png,practice,,,,,,,0,0,0,0,,,,,0,0,0,0,0,3,3,3,,,,,,,,,,,,,,,,,,,,,,,,,,,,,,,,,,,,,,,,,,,,,,,,,,,,1,2.012105799978599,116.05051219998859,None,ScrollDown,정답입니다,116.05051219998859,None,116.05051219998859,None,116.05051219998859,None,116.05051219998859,None,117.9498198000947,None,117.9498198000947,118.46240830002353,,,,,,,,,,,,,,,,,,,,,,,,,,,,,,,,,,,,,,,,,,,,,,,,,126,2022-05-10_17h41.58.680,FishGame,2022.1.1,59.90197639861314,
,1,넌 교활해,5,Orange,B,2.333333333333333,2.133333333333333,ScrollUp,ScrollDown,Orange.png,practice,,,,,,,0,0,0,0,,,,,0,0,0,0,,,,,,,,,,,,,,,,,,,,,,,,,,,,,,,,,,,,,,,,,,,,,,,,,,,,,,,,,,,,,,,,,,,,,,,,,,n,18.360996400006115,118.96224110003095,None,118.96224110003095,None,,,,,,,,,,,,,,,,,,,,,,,,,,,,,,,,,,,,,,,,,,,126,2022-05-10_17h41.58.680,FishGame,2022.1.1,59.90197639861314,
,1,넌 따뜻해,1,Orange,B,6.083333333333333,5.6,ScrollUp,ScrollDown,Orange.png,1,Positive,Incongruent,,,,,0,0,0,0,,,,,,,,,,,,,0,0,0,0,,,,,,,,,,,,,,,,,,,,,,,,,,,,,,,,,,,,,,,,140.46262350003235,141.96267859998625,141.99632650008425,142.94571080000605,142.99572860007174,143.94616769999266,143.94616769999266,None,,,,,,,,,,,,,,,,,,,,,,,,,0.050925925,-0.09074074,1,0,0,0.31423430994618684,None,137.34598340000957,None,2,1.659230099990964,145.12948620005045,None,ScrollUp,정답입니다,145.12948620005045,None,145.12948620005045,None,145.12948620005045,None,145.12948620005045,None,146.60782790009398,None,146.60782790009398,147.11294170003384,,,,,,,,,,,,,,,,126,2022-05-10_17h41.58.680,FishGame,2022.1.1,59.90197639861314,
,2,넌 기품있어,2,Orange,B,5.791666666666668,4.5,ScrollUp,ScrollDown,Orange.png,1,Positive,Incongruent,,,,,0,0,0,0,,,,,,,,,,,,,0,1,1,1,,,,,,,,,,,,,,,,,,,,,,,,,,,,,,,,,,,,,,,,,,,,,,,,,,,,,,,,,,,,,,,,,,,,,,,,,,,,,,,,,2,1.3446006999583915,147.77093110000715,None,ScrollUp,정답입니다,147.77093110000715,None,147.77093110000715,None,147.77093110000715,None,147.77093110000715,None,148.9818527000025,None,148.9818527000025,149.49609050003346,,,,,,,,,,,,,,,,126,2022-05-10_17h41.58.680,FishGame,2022.1.1,59.90197639861314,
,3,나를 보내줘,6,Green,A,0,0,ScrollUp,ScrollDown,Green.png,1,NonTarget,NonTarget,,,,,0,0,0,0,,,,,,,,,,,,,0,2,2,2,,,,,,,,,,,,,,,,,,,,,,,,,,,,,,,,,,,,,,,,,,,,,,,,,,,,,,,,,,,,,,,,,,,,,,,,,,,,,,,,,2,1.9378602999495342,150.13953440007754,None,ScrollUp,정답입니다,150.13953440007754,None,150.13953440007754,None,150.13953440007754,None,150.13953440007754,None,151.95908820000477,None,151.95908820000477,152.46241530007683,,,,,,,,,,,,,,,,126,2022-05-10_17h41.58.680,FishGame,2022.1.1,59.90197639861314,
,4,넌 수동적이야,4,Green,A,2.833333333333333,2.933333333333333,ScrollDown,ScrollUp,Green.png,1,Negative,Incongruent,,,,,0,0,0,0,,,,,,,,,,,,,0,3,3,3,,,,,,,,,,,,,,,,,,,,,,,,,,,,,,,,,,,,,,,,,,,,,,,,,,,,,,,,,,,,,,,,,,,,,,,,,,,,,,,,,1,1.6314133999403566,153.1085559000494,None,ScrollDown,정답입니다,153.1085559000494,None,153.1085559000494,None,153.1085559000494,None,153.1085559000494,None,154.6167940000305,None,154.6167940000305,155.12925019999966,,,,,,,,,,,,,,,,126,2022-05-10_17h41.58.680,FishGame,2022.1.1,59.90197639861314,
,5,넌 사심이 없어,3,Orange,B,4.916666666666666,4.333333333333333,ScrollUp,ScrollDown,Orange.png,1,Neutral,Neutral,,,,,0,0,0,0,,,,,,,,,,,,,0,4,4,4,,,,,,,,,,,,,,,,,,,,,,,,,,,,,,,,,,,,,,,,,,,,,,,,,,,,,,,,,,,,,,,,,,,,,,,,,,,,,,,,,2,1.4015993000939488,155.78620780003257,None,ScrollUp,정답입니다,155.78620780003257,None,155.78620780003257,None,155.78620780003257,None,155.78620780003257,None,157.05938890005928,None,157.05938890005928,157.56256940006278,,,,,,,,,,,,,,,,126,2022-05-10_17h41.58.680,FishGame,2022.1.1,59.90197639861314,
,6,넌 헤퍼,5,Green,A,2.458333333333334,2.233333333333333,ScrollDown,ScrollUp,Green.png,1,Negative,Incongruent,,,,,0,0,0,0,,,,,,,,,,,,,0,5,5,5,,,,,,,,,,,,,,,,,,,,,,,,,,,,,,,,,,,,,,,,,,,,,,,,,,,,,,,,,,,,,,,,,,,,,,,,,,,,,,,,,1,1.7455941999796778,158.2074279000517,None,ScrollDown,정답입니다,158.2074279000517,None,158.2074279000517,None,158.2074279000517,None,158.2074279000517,None,159.83441630005836,None,159.83441630005836,160.34580360003747,,,,,,,,,,,,,,,,126,2022-05-10_17h41.58.680,FishGame,2022.1.1,59.90197639861314,
,7,넌 말쑥해,3,Green,A,4.833333333333334,4.333333333333333,ScrollDown,ScrollUp,Green.png,1,Neutral,Neutral,,,,,0,0,0,0,,,,,,,,,,,,,0,6,6,6,,,,,,,,,,,,,,,,,,,,,,,,,,,,,,,,,,,,,,,,,,,,,,,,,,,,,,,,,,,,,,,,,,,,,,,,,,,,,,,,,1,1.5056295999092981,160.98316499998327,None,ScrollDown,정답입니다,160.98316499998327,None,160.98316499998327,None,160.98316499998327,None,160.98316499998327,None,162.37960270000622,None,162.37960270000622,162.8798306999961,,,,,,,,,,,,,,,,126,2022-05-10_17h41.58.680,FishGame,2022.1.1,59.90197639861314,
,8,넌 투덜거려,5,Orange,B,2.541666666666667,2.266666666666667,ScrollUp,ScrollDown,Orange.png,1,Negative,Congruent,,,,,0,0,0,0,,,,,,,,,,,,,0,7,7,7,,,,,,,,,,,,,,,,,,,,,,,,,,,,,,,,,,,,,,,,,,,,,,,,,,,,,,,,,,,,,,,,,,,,,,,,,,,,,,,,,2,1.4662703999783844,163.53189950005617,None,ScrollUp,정답입니다,163.53189950005617,None,163.53189950005617,None,163.53189950005617,None,163.53189950005617,None,164.86739440006204,None,164.86739440006204,165.3792179999873,,,,,,,,,,,,,,,,126,2022-05-10_17h41.58.680,FishGame,2022.1.1,59.90197639861314,
,9,넌 적극적이야,1,Green,A,5.708333333333333,5.533333333333333,ScrollDown,ScrollUp,Green.png,1,Positive,Congruent,,,,,0,0,0,0,,,,,,,,,,,,,0,8,8,8,,,,,,,,,,,,,,,,,,,,,,,,,,,,,,,,,,,,,,,,,,,,,,,,,,,,,,,,,,,,,,,,,,,,,,,,,,,,,,,,,1,1.7587951000314206,166.0143693999853,None,ScrollDown,정답입니다,166.0143693999853,None,166.0143693999853,None,166.0143693999853,None,166.0143693999853,None,167.6626839999808,None,167.6626839999808,168.16356440004893,,,,,,,,,,,,,,,,126,2022-05-10_17h41.58.680,FishGame,2022.1.1,59.90197639861314,
,10,넌 재미없어,4,Orange,B,2.625,2.966666666666667,ScrollUp,ScrollDown,Orange.png,1,Negative,Congruent,,,,,0,0,0,0,,,,,,,,,,,,,0,9,9,9,,,,,,,,,,,,,,,,,,,,,,,,,,,,,,,,,,,,,,,,,,,,,,,,,,,,,,,,,,,,,,,,,,,,,,,,,,,,,,,,,2,1.3738712000194937,168.8092641000403,None,ScrollUp,정답입니다,168.8092641000403,None,168.8092641000403,None,168.8092641000403,None,168.8092641000403,None,170.06329990003724,None,170.06329990003724,170.56346309999935,,,,,,,,,,,,,,,,126,2022-05-10_17h41.58.680,FishGame,2022.1.1,59.90197639861314,
,11,넌 명석해,2,Green,A,5.875,4.033333333333333,ScrollDown,ScrollUp,Green.png,1,Positive,Congruent,,,,,0,0,0,0,,,,,,,,,,,,,0,10,10,10,,,,,,,,,,,,,,,,,,,,,,,,,,,,,,,,,,,,,,,,,,,,,,,,,,,,,,,,,,,,,,,,,,,,,,,,,,,,,,,,,1,1.3386070999549702,171.19953109999187,None,ScrollDown,정답입니다,171.19953109999187,None,171.19953109999187,None,171.19953109999187,None,171.19953109999187,None,172.42924530000892,None,172.42924530000892,172.93045580002945,,,,,,,,,,,,,,,,126,2022-05-10_17h41.58.680,FishGame,2022.1.1,59.90197639861314,
,12,나를 데려가줘,6,Orange,B,0,0,ScrollDown,ScrollUp,Orange.png,1,NonTarget,NonTarget,,,,,0,0,0,0,,,,,,,,,,,,,0,11,11,11,,,,,,,,,,,,,,,,,,,,,,,,,,,,,,,,,,,,,,,,,,,,,,,,,,,,,,,,,,,,,,,,,,,,,,,,,,,,,,,,,1,1.6085665000136942,173.5825813000556,None,ScrollDown,정답입니다,173.5825813000556,None,173.5825813000556,None,173.5825813000556,None,173.5825813000556,None,175.06282840005588,None,175.06282840005588,175.5633965000743,,,,,,,,,,,,,,,,126,2022-05-10_17h41.58.680,FishGame,2022.1.1,59.90197639861314,
,13,넌 소심해,4,Green,A,3,3.1,ScrollDown,ScrollUp,Green.png,1,Negative,Incongruent,,,,,0,0,0,0,,,,,,,,,,,,,0,12,12,12,,,,,,,,,,,,,,,,,,,,,,,,,,,,,,,,,,,,,,,,,,,,,,,,,,,,,,,,,,,,,,,,,,,,,,,,,,,,,,,,,1,1.4958375999704003,176.1999820000492,None,ScrollDown,정답입니다,176.1999820000492,None,176.1999820000492,None,176.1999820000492,None,176.1999820000492,None,177.58524280006532,None,177.58524280006532,178.09668329998385,,,,,,,,,,,,,,,,126,2022-05-10_17h41.58.680,FishGame,2022.1.1,59.90197639861314,
,14,넌 합리적이야,2,Green,A,5.583333333333333,4.733333333333333,ScrollDown,ScrollUp,Green.png,1,Positive,Congruent,,,,,0,0,0,0,,,,,,,,,,,,,0,13,13,13,,,,,,,,,,,,,,,,,,,,,,,,,,,,,,,,,,,,,,,,,,,,,,,,,,,,,,,,,,,,,,,,,,,,,,,,,,,,,,,,,1,1.4017671000910923,178.73500600003172,None,ScrollDown,정답입니다,178.73500600003172,None,178.73500600003172,None,178.73500600003172,None,178.73500600003172,None,180.02664860000368,None,180.02664860000368,180.53002449998166,,,,,,,,,,,,,,,,126,2022-05-10_17h41.58.680,FishGame,2022.1.1,59.90197639861314,
,15,넌 무자비해,5,Orange,B,2.333333333333333,2.1,ScrollUp,ScrollDown,Orange.png,1,Negative,Congruent,,,,,0,0,0,0,,,,,,,,,,,,,0,14,14,14,,,,,,,,,,,,,,,,,,,,,,,,,,,,,,,,,,,,,,,,,,,,,,,,,,,,,,,,,,,,,,,,,,,,,,,,,,,,,,,,,2,1.2520755000878125,181.17528110009152,None,ScrollUp,정답입니다,181.17528110009152,None,181.17528110009152,None,181.17528110009152,None,181.17528110009152,None,182.30987690004986,None,182.30987690004986,182.8136900999816,,,,,,,,,,,,,,,,126,2022-05-10_17h41.58.680,FishGame,2022.1.1,59.90197639861314,
,16,나를 보내줘,6,Green,A,0,0,ScrollUp,ScrollDown,Green.png,1,NonTarget,NonTarget,,,,,0,0,0,0,,,,,,,,,,,,,0,15,15,15,,,,,,,,,,,,,,,,,,,,,,,,,,,,,,,,,,,,,,,,,,,,,,,,,,,,,,,,,,,,,,,,,,,,,,,,,,,,,,,,,2,1.4171036999905482,183.44481960008852,None,ScrollUp,정답입니다,183.44481960008852,None,183.44481960008852,None,183.44481960008852,None,183.44481960008852,None,184.76014500006568,None,184.76014500006568,185.2633112000767,,,,,,,,,,,,,,,,126,2022-05-10_17h41.58.680,FishGame,2022.1.1,59.90197639861314,
,17,넌 현실적이야,3,Orange,B,4.608695652173913,4.766666666666667,ScrollUp,ScrollDown,Orange.png,1,Neutral,Neutral,,,,,0,0,0,0,,,,,,,,,,,,,0,16,16,16,,,,,,,,,,,,,,,,,,,,,,,,,,,,,,,,,,,,,,,,,,,,,,,,,,,,,,,,,,,,,,,,,,,,,,,,,,,,,,,,,2,1.4836343000642955,185.9092441999819,None,ScrollUp,정답입니다,185.9092441999819,None,185.9092441999819,None,185.9092441999819,None,185.9092441999819,None,187.27671910007484,None,187.27671910007484,187.78027400001884,,,,,,,,,,,,,,,,126,2022-05-10_17h41.58.680,FishGame,2022.1.1,59.90197639861314,
,18,넌 의리있어,1,Orange,B,5.833333333333334,5.633333333333334,ScrollUp,ScrollDown,Orange.png,1,Positive,Incongruent,,,,,0,0,0,0,,,,,,,,,,,,,0,17,17,17,,,,,,,,,,,,,,,,,,,,,,,,,,,,,,,,,,,,,,,,,,,,,,,,,,,,,,,,,,,,,,,,,,,,,,,,,,,,,,,,,2,1.3830514999572188,188.4210916000884,None,ScrollUp,정답입니다,188.4210916000884,None,188.4210916000884,None,188.4210916000884,None,188.4210916000884,None,189.693567099981,None,189.693567099981,190.1969402000541,,,,,,,,,,,,,,,,126,2022-05-10_17h41.58.680,FishGame,2022.1.1,59.90197639861314,
,19,넌 신경과민이야,5,Green,A,2.541666666666667,2.166666666666667,ScrollDown,ScrollUp,Green.png,1,Negative,Incongruent,,,,,0,0,0,0,,,,,,,,,,,,,0,18,18,18,,,,,,,,,,,,,,,,,,,,,,,,,,,,,,,,,,,,,,,,,,,,,,,,,,,,,,,,,,,,,,,,,,,,,,,,,,,,,,,,,1,1.370066300034523,190.85202400002163,None,ScrollDown,정답입니다,190.85202400002163,None,190.85202400002163,None,190.85202400002163,None,190.85202400002163,None,192.09365960001014,None,192.09365960001014,192.5969444999937,,,,,,,,,,,,,,,,126,2022-05-10_17h41.58.680,FishGame,2022.1.1,59.90197639861314,
,20,넌 편안해,1,Green,A,5.916666666666666,5.866666666666666,ScrollDown,ScrollUp,Green.png,1,Positive,Congruent,,,,,0,0,0,0,,,,,,,,,,,,,0,19,19,19,,,,,,,,,,,,,,,,,,,,,,,,,,,,,,,,,,,,,,,,,,,,,,,,,,,,,,,,,,,,,,,,,,,,,,,,,,,,,,,,,1,1.2516325999749824,193.2372800000012,None,ScrollDown,정답입니다,193.2372800000012,None,193.2372800000012,None,193.2372800000012,None,193.2372800000012,None,194.37701000005472,None,194.37701000005472,194.88052450004034,,,,,,,,,,,,,,,,126,2022-05-10_17h41.58.680,FishGame,2022.1.1,59.90197639861314,
,21,넌 품위있어,2,Orange,B,5.291666666666666,4.466666666666667,ScrollUp,ScrollDown,Orange.png,1,Positive,Incongruent,,,,,0,0,0,0,,,,,,,,,,,,,0,20,20,20,,,,,,,,,,,,,,,,,,,,,,,,,,,,,,,,,,,,,,,,,,,,,,,,,,,,,,,,,,,,,,,,,,,,,,,,,,,,,,,,,2,1.3018242999678478,195.5278707999969,None,ScrollUp,정답입니다,195.5278707999969,None,195.5278707999969,None,195.5278707999969,None,195.5278707999969,None,196.71039950009435,None,196.71039950009435,197.2141685000388,,,,,,,,,,,,,,,,126,2022-05-10_17h41.58.680,FishGame,2022.1.1,59.90197639861314,
,22,넌 빈틈없어,3,Green,A,4.833333333333333,3.966666666666667,ScrollDown,ScrollUp,Green.png,1,Neutral,Neutral,,,,,0,0,0,0,,,,,,,,,,,,,0,21,21,21,,,,,,,,,,,,,,,,,,,,,,,,,,,,,,,,,,,,,,,,,,,,,,,,,,,,,,,,,,,,,,,,,,,,,,,,,,,,,,,,,1,1.3379737000213936,197.85498449997976,None,ScrollDown,정답입니다,197.85498449997976,None,197.85498449997976,None,197.85498449997976,None,197.85498449997976,None,199.0770438000327,None,199.0770438000327,199.58055409998633,,,,,,,,,,,,,,,,126,2022-05-10_17h41.58.680,FishGame,2022.1.1,59.90197639861314,
,23,넌 상상력없어,4,Orange,B,2.833333333333333,3.133333333333333,ScrollUp,ScrollDown,Orange.png,1,Negative,Congruent,,,,,0,0,0,0,,,,,,,,,,,,,0,22,22,22,,,,,,,,,,,,,,,,,,,,,,,,,,,,,,,,,,,,,,,,,,,,,,,,,,,,,,,,,,,,,,,,,,,,,,,,,,,,,,,,,2,1.2772895999951288,200.22288980009034,None,ScrollUp,정답입니다,200.22288980009034,None,200.22288980009034,None,200.22288980009034,None,200.22288980009034,None,201.38035049999598,None,201.38035049999598,201.88098090002313,,,,,,,,,,,,,,,,126,2022-05-10_17h41.58.680,FishGame,2022.1.1,59.90197639861314,
,24,넌 지혜로워,2,Orange,B,6.333333333333334,4.633333333333334,ScrollUp,ScrollDown,Orange.png,1,Positive,Incongruent,,,,,0,0,0,0,,,,,,,,,,,,,0,23,23,23,,,,,,,,,,,,,,,,,,,,,,,,,,,,,,,,,,,,,,,,,,,,,,,,,,,,,,,,,,,,,,,,,,,,,,,,,,,,,,,,,2,1.5539325999561697,202.53016070008744,None,ScrollUp,정답입니다,202.53016070008744,None,202.53016070008744,None,202.53016070008744,None,202.53016070008744,None,203.96065570006613,None,203.96065570006613,204.4641250000568,,,,,,,,,,,,,,,,126,2022-05-10_17h41.58.680,FishGame,2022.1.1,59.90197639861314,
,25,넌 시끄러워,4,Green,A,2.833333333333333,3.033333333333333,ScrollDown,ScrollUp,Green.png,1,Negative,Incongruent,,,,,0,0,0,0,,,,,,,,,,,,,0,24,24,24,,,,,,,,,,,,,,,,,,,,,,,,,,,,,,,,,,,,,,,,,,,,,,,,,,,,,,,,,,,,,,,,,,,,,,,,,,,,,,,,,1,1.2623592999298126,205.10535219998565,None,ScrollDown,정답입니다,205.10535219998565,None,205.10535219998565,None,205.10535219998565,None,205.10535219998565,None,206.25137090007775,None,206.25137090007775,206.76444850000553,,,,,,,,,,,,,,,,126,2022-05-10_17h41.58.680,FishGame,2022.1.1,59.90197639861314,
,26,넌 만사태평이야,3,Orange,B,4,4.333333333333333,ScrollUp,ScrollDown,Orange.png,1,Neutral,Neutral,,,,,0,0,0,0,,,,,,,,,,,,,0,25,25,25,,,,,,,,,,,,,,,,,,,,,,,,,,,,,,,,,,,,,,,,,,,,,,,,,,,,,,,,,,,,,,,,,,,,,,,,,,,,,,,,,2,1.317431699950248,207.420167400036,None,ScrollUp,정답입니다,207.420167400036,None,207.420167400036,None,207.420167400036,None,207.420167400036,None,208.61024840001483,None,208.61024840001483,209.1142466000747,,,,,,,,,,,,,,,,126,2022-05-10_17h41.58.680,FishGame,2022.1.1,59.90197639861314,
,27,넌 붙임성있어,1,Green,A,5.708333333333333,5.633333333333334,ScrollDown,ScrollUp,Green.png,1,Positive,Congruent,,,,,0,0,0,0,,,,,,,,,,,,,0,26,26,26,,,,,,,,,,,,,,,,,,,,,,,,,,,,,,,,,,,,,,,,,,,,,,,,,,,,,,,,,,,,,,,,,,,,,,,,,,,,,,,,,1,1.3225778999039903,209.75813960004598,None,ScrollDown,정답입니다,209.75813960004598,None,209.75813960004598,None,209.75813960004598,None,209.75813960004598,None,210.96404810005333,None,210.96404810005333,211.4641845000442,,,,,,,,,,,,,,,,126,2022-05-10_17h41.58.680,FishGame,2022.1.1,59.90197639861314,
,28,넌 영리해,2,Green,A,6,4.033333333333333,ScrollDown,ScrollUp,Green.png,1,Positive,Congruent,,,,,0,0,0,0,,,,,,,,,,,,,0,27,27,27,,,,,,,,,,,,,,,,,,,,,,,,,,,,,,,,,,,,,,,,,,,,,,,,,,,,,,,,,,,,,,,,,,,,,,,,,,,,,,,,,1,1.270290600019507,212.0997954000486,None,ScrollDown,정답입니다,212.0997954000486,None,212.0997954000486,None,212.0997954000486,None,212.0997954000486,None,213.2605294000823,None,213.2605294000823,213.76433570007794,,,,,,,,,,,,,,,,126,2022-05-10_17h41.58.680,FishGame,2022.1.1,59.90197639861314,
,29,넌 열심이야,1,Orange,B,6.041666666666667,5.833333333333333,ScrollUp,ScrollDown,Orange.png,1,Positive,Incongruent,,,,,0,0,0,0,,,,,,,,,,,,,0,28,28,28,,,,,,,,,,,,,,,,,,,,,,,,,,,,,,,,,,,,,,,,,,,,,,,,,,,,,,,,,,,,,,,,,,,,,,,,,,,,,,,,,2,1.2677672998979688,214.40758770005777,None,ScrollUp,정답입니다,214.40758770005777,None,214.40758770005777,None,214.40758770005777,None,214.40758770005777,None,215.56068860006053,None,215.56068860006053,216.0642842000816,,,,,,,,,,,,,,,,126,2022-05-10_17h41.58.680,FishGame,2022.1.1,59.90197639861314,
,30,넌 인기없어,4,Orange,B,3,3.3,ScrollUp,ScrollDown,Orange.png,1,Negative,Congruent,,,,,0,0,0,0,,,,,,,,,,,,,0,29,29,29,,,,,,,,,,,,,,,,,,,,,,,,,,,,,,,,,,,,,,,,,,,,,,,,,,,,,,,,,,,,,,,,,,,,,,,,,,,,,,,,,2,1.3438824000768363,216.70373270008713,None,ScrollUp,정답입니다,216.70373270008713,None,216.70373270008713,None,216.70373270008713,None,216.70373270008713,None,217.932589400094,None,217.932589400094,218.4473597999895,,,,,,,,,,,,,,,,126,2022-05-10_17h41.58.680,FishGame,2022.1.1,59.90197639861314,
,31,넌 익살스러워,3,Green,A,4.708333333333334,4.833333333333333,ScrollDown,ScrollUp,Green.png,1,Neutral,Neutral,,,,,0,0,0,0,,,,,,,,,,,,,0,30,30,30,,,,,,,,,,,,,,,,,,,,,,,,,,,,,,,,,,,,,,,,,,,,,,,,,,,,,,,,,,,,,,,,,,,,,,,,,,,,,,,,,1,1.3137841999996454,219.10805000003893,None,ScrollDown,정답입니다,219.10805000003893,None,219.10805000003893,None,219.10805000003893,None,219.10805000003893,None,220.2856336000841,None,220.2856336000841,220.79765960003715,,,,,,,,,,,,,,,,126,2022-05-10_17h41.58.680,FishGame,2022.1.1,59.90197639861314,
,32,넌 이기적이야,5,Orange,B,2.291666666666667,2.333333333333333,ScrollUp,ScrollDown,Orange.png,1,Negative,Congruent,,,,,0,0,0,0,,,,,,,,,,,,,0,31,31,31,,,,,,,,,,,,,,,,,,,,,,,,,,,,,,,,,,,,,,,,,,,,,,,,,,,,,,,,,,,,,,,,,,,,,,,,,,,,,,,,,2,1.2561389999464154,221.43146820005495,None,ScrollUp,정답입니다,221.43146820005495,None,221.43146820005495,None,221.43146820005495,None,221.43146820005495,None,222.57743659999687,None,222.57743659999687,223.08109280001372,,,,,,,,,,,,,,,,126,2022-05-10_17h41.58.680,FishGame,2022.1.1,59.90197639861314,
,33,나를 데려가줘,6,Orange,B,0,0,ScrollDown,ScrollUp,Orange.png,1,NonTarget,NonTarget,,,,,0,0,0,0,,,,,,,,,,,,,0,32,32,32,,,,,,,,,,,,,,,,,,,,,,,,,,,,,,,,,,,,,,,,,,,,,,,,,,,,,,,,,,,,,,,,,,,,,,,,,,,,,,,,,1,1.4544834999833256,223.71763070009183,None,ScrollDown,정답입니다,223.71763070009183,None,223.71763070009183,None,223.71763070009183,None,223.71763070009183,None,225.06124050007202,None,225.06124050007202,225.56419820000883,,,,,,,,,,,,,,,,126,2022-05-10_17h41.58.680,FishGame,2022.1.1,59.90197639861314,
,34,넌 기회주의자야,5,Green,A,2.875,2.133333333333333,ScrollDown,ScrollUp,Green.png,1,Negative,Incongruent,,,,,0,0,0,0,,,,,,,,,,,,,0,33,33,33,,,,,,,,,,,,,,,,,,,,,,,,,,,,,,,,,,,,,,,,,,,,,,,,,,,,,,,,,,,,,,,,,,,,,,,,,,,,,,,,,1,1.3750024000182748,226.20677450008225,None,ScrollDown,정답입니다,226.20677450008225,None,226.20677450008225,None,226.20677450008225,None,226.20677450008225,None,227.4644236000022,None,227.4644236000022,227.9639237000374,,,,,,,,,,,,,,,,126,2022-05-10_17h41.58.680,FishGame,2022.1.1,59.90197639861314,
,1,넌 미성숙해,4,Green,A,3,3.2,ScrollDown,ScrollUp,Green.png,2,Negative,Incongruent,,,,,0,0,0,0,,,,,,,,,,,,,,,,,0,0,0,0,,,,,,,,,,,,,,,,,,,,,,,,,,,,,,,,,,,,264.4484855000628,265.94882920000236,265.98216560005676,266.93199650000315,266.9826353000244,267.9323596000904,267.9323596000904,None,,,,,,,,,,,,,,,,,,,,,,,,,,,,,,,,,,1,1.3885892999824136,269.10206589999143,None,ScrollDown,정답입니다,269.10206589999143,None,269.10206589999143,None,269.10206589999143,None,269.10206589999143,None,270.3151258000871,None,270.3151258000871,270.8150304000592,228.4644377999939,None,228.4644377999939,None,0.26203704,-0.11296296,1,0,0,0.01575381006114185,None,258.46538360009436,None,,,126,2022-05-10_17h41.58.680,FishGame,2022.1.1,59.90197639861314,
,2,넌 반사회적이야,5,Orange,B,2.416666666666667,2.033333333333333,ScrollUp,ScrollDown,Orange.png,2,Negative,Congruent,,,,,0,0,0,0,,,,,,,,,,,,,,,,,0,1,1,1,,,,,,,,,,,,,,,,,,,,,,,,,,,,,,,,,,,,,,,,,,,,,,,,,,,,,,,,,,,,,,,,,,,,,,,,,,,,,2,1.2712324999738485,271.45560570003,None,ScrollUp,정답입니다,271.45560570003,None,271.45560570003,None,271.45560570003,None,271.45560570003,None,272.6118683000095,None,272.6118683000095,273.1159489999991,,,,,,,,,,,,,,,,126,2022-05-10_17h41.58.680,FishGame,2022.1.1,59.90197639861314,
,3,넌 유능해,2,Green,A,6.208333333333333,4.433333333333334,ScrollDown,ScrollUp,Green.png,2,Positive,Congruent,,,,,0,0,0,0,,,,,,,,,,,,,,,,,0,2,2,2,,,,,,,,,,,,,,,,,,,,,,,,,,,,,,,,,,,,,,,,,,,,,,,,,,,,,,,,,,,,,,,,,,,,,,,,,,,,,1,1.2355405000271276,273.7597933000652,None,ScrollDown,정답입니다,273.7597933000652,None,273.7597933000652,None,273.7597933000652,None,273.7597933000652,None,274.8785312999971,None,274.8785312999971,275.3829646999948,,,,,,,,,,,,,,,,126,2022-05-10_17h41.58.680,FishGame,2022.1.1,59.90197639861314,
,4,넌 능숙해,2,Orange,B,5.666666666666667,4.733333333333333,ScrollUp,ScrollDown,Orange.png,2,Positive,Incongruent,,,,,0,0,0,0,,,,,,,,,,,,,,,,,0,3,3,3,,,,,,,,,,,,,,,,,,,,,,,,,,,,,,,,,,,,,,,,,,,,,,,,,,,,,,,,,,,,,,,,,,,,,,,,,,,,,2,1.211760799982585,276.01994360005483,None,ScrollUp,정답입니다,276.01994360005483,None,276.01994360005483,None,276.01994360005483,None,276.01994360005483,None,277.11947869998403,None,277.11947869998403,277.6322703000624,,,,,,,,,,,,,,,,126,2022-05-10_17h41.58.680,FishGame,2022.1.1,59.90197639861314,
,5,넌 진부해,4,Orange,B,2.458333333333333,3.166666666666667,ScrollUp,ScrollDown,Orange.png,2,Negative,Congruent,,,,,0,0,0,0,,,,,,,,,,,,,,,,,0,4,4,4,,,,,,,,,,,,,,,,,,,,,,,,,,,,,,,,,,,,,,,,,,,,,,,,,,,,,,,,,,,,,,,,,,,,,,,,,,,,,1.9691357910633087,1.2442733000498265,278.27237480005715,None,ScrollUp,정답입니다,278.27237480005715,None,278.27237480005715,None,278.27237480005715,None,278.27237480005715,None,279.3989935000427,None,279.3989935000427,279.89933929999825,,,,,,,,,,,,,,,,126,2022-05-10_17h41.58.680,FishGame,2022.1.1,59.90197639861314,
,6,나를 보내줘,6,Green,A,0,0,ScrollUp,ScrollDown,Green.png,2,NonTarget,NonTarget,,,,,0,0,0,0,,,,,,,,,,,,,,,,,0,5,5,5,,,,,,,,,,,,,,,,,,,,,,,,,,,,,,,,,,,,,,,,,,,,,,,,,,,,,,,,,,,,,,,,,,,,,,,,,,,,,1.9922839502493541,1.4220107999863103,280.54894060001243,None,ScrollUp,정답입니다,280.54894060001243,None,280.54894060001243,None,280.54894060001243,None,280.54894060001243,None,281.84913159999996,None,281.84913159999996,282.34957379999105,,,,,,,,,,,,,,,,126,2022-05-10_17h41.58.680,FishGame,2022.1.1,59.90197639861314,
,7,넌 엄격해,3,Green,A,4.166666666666666,4.1,ScrollDown,ScrollUp,Green.png,2,Neutral,Neutral,,,,,0,0,0,0,,,,,,,,,,,,,,,,,0,6,6,6,,,,,,,,,,,,,,,,,,,,,,,,,,,,,,,,,,,,,,,,,,,,,,,,,,,,,,,,,,,,,,,,,,,,,,,,,,,,,1,1.241696699988097,282.99082080007065,None,ScrollDown,정답입니다,282.99082080007065,None,282.99082080007065,None,282.99082080007065,None,282.99082080007065,None,284.1155144000659,None,284.1155144000659,284.6162714000093,,,,,,,,,,,,,,,,126,2022-05-10_17h41.58.680,FishGame,2022.1.1,59.90197639861314,
,8,나를 보내줘,6,Green,A,0,0,ScrollUp,ScrollDown,Green.png,2,NonTarget,NonTarget,,,,,0,0,0,0,,,,,,,,,,,,,,,,,0,7,7,7,,,,,,,,,,,,,,,,,,,,,,,,,,,,,,,,,,,,,,,,,,,,,,,,,,,,,,,,,,,,,,,,,,,,,,,,,,,,,1.8101851791143417,1.1909005000488833,285.25073060009163,None,ScrollUp,정답입니다,285.25073060009163,None,285.25073060009163,None,285.25073060009163,None,285.25073060009163,None,286.3325055000605,None,286.3325055000605,286.83254550001584,,,,,,,,,,,,,,,,126,2022-05-10_17h41.58.680,FishGame,2022.1.1,59.90197639861314,
,9,넌 대담해,3,Orange,B,4.875,4.866666666666666,ScrollUp,ScrollDown,Orange.png,2,Neutral,Neutral,,,,,0,0,0,0,,,,,,,,,,,,,,,,,0,8,8,8,,,,,,,,,,,,,,,,,,,,,,,,,,,,,,,,,,,,,,,,,,,,,,,,,,,,,,,,,,,,,,,,,,,,,,,,,,,,,2,1.294520299998112,287.48239850008395,None,ScrollUp,정답입니다,287.48239850008395,None,287.48239850008395,None,287.48239850008395,None,287.48239850008395,None,288.65228150004987,None,288.65228150004987,289.16623129998334,,,,,,,,,,,,,,,,126,2022-05-10_17h41.58.680,FishGame,2022.1.1,59.90197639861314,
,10,넌 꾸준해,1,Green,A,5.916666666666668,5.8,ScrollDown,ScrollUp,Green.png,2,Positive,Congruent,,,,,0,0,0,0,,,,,,,,,,,,,,,,,0,9,9,9,,,,,,,,,,,,,,,,,,,,,,,,,,,,,,,,,,,,,,,,,,,,,,,,,,,,,,,,,,,,,,,,,,,,,,,,,,,,,1,1.1974272000370547,289.812302300008,None,ScrollDown,정답입니다,289.812302300008,None,289.812302300008,None,289.812302300008,None,289.812302300008,None,290.88717420003377,None,290.88717420003377,291.3990652000066,,,,,,,,,,,,,,,,126,2022-05-10_17h41.58.680,FishGame,2022.1.1,59.90197639861314,
,11,나를 데려가줘,6,Orange,B,0,0,ScrollDown,ScrollUp,Orange.png,2,NonTarget,NonTarget,,,,,0,0,0,0,,,,,,,,,,,,,,,,,0,10,10,10,,,,,,,,,,,,,,,,,,,,,,,,,,,,,,,,,,,,,,,,,,,,,,,,,,,,,,,,,,,,,,,,,,,,,,,,,,,,,1.0092592636744182,1.2563029000302777,292.04021010000724,None,ScrollDown,정답입니다,292.04021010000724,None,292.04021010000724,None,292.04021010000724,None,292.04021010000724,None,293.1823237000499,None,293.1823237000499,293.6826331000775,,,,,,,,,,,,,,,,126,2022-05-10_17h41.58.680,FishGame,2022.1.1,59.90197639861314,
,12,넌 독선적이야,5,Green,A,2.458333333333333,1.933333333333333,ScrollDown,ScrollUp,Green.png,2,Negative,Incongruent,,,,,0,0,0,0,,,,,,,,,,,,,,,,,0,11,11,11,,,,,,,,,,,,,,,,,,,,,,,,,,,,,,,,,,,,,,,,,,,,,,,,,,,,,,,,,,,,,,,,,,,,,,,,,,,,,1,1.21587900002487,294.3256395000499,None,ScrollDown,정답입니다,294.3256395000499,None,294.3256395000499,None,294.3256395000499,None,294.3256395000499,None,295.42081949999556,None,295.42081949999556,295.9323131000856,,,,,,,,,,,,,,,,126,2022-05-10_17h41.58.680,FishGame,2022.1.1,59.90197639861314,
,13,나를 보내줘,6,Green,A,0,0,ScrollUp,ScrollDown,Green.png,2,NonTarget,NonTarget,,,,,0,0,0,0,,,,,,,,,,,,,,,,,0,12,12,12,,,,,,,,,,,,,,,,,,,,,,,,,,,,,,,,,,,,,,,,,,,,,,,,,,,,,,,,,,,,,,,,,,,,,,,,,,,,,2,1.2655850999290124,296.56501210003626,None,ScrollUp,정답입니다,296.56501210003626,None,296.56501210003626,None,296.56501210003626,None,296.56501210003626,None,297.72031700005755,None,297.72031700005755,298.23271540005226,,,,,,,,,,,,,,,,126,2022-05-10_17h41.58.680,FishGame,2022.1.1,59.90197639861314,
,14,넌 책임감있어,1,Orange,B,6.347826086956522,6,ScrollUp,ScrollDown,Orange.png,2,Positive,Incongruent,,,,,0,0,0,0,,,,,,,,,,,,,,,,,0,13,13,13,,,,,,,,,,,,,,,,,,,,,,,,,,,,,,,,,,,,,,,,,,,,,,,,,,,,,,,,,,,,,,,,,,,,,,,,,,,,,2,1.3184874000726268,298.8795540999854,None,ScrollUp,정답입니다,298.8795540999854,None,298.8795540999854,None,298.8795540999854,None,298.8795540999854,None,300.0790803000564,None,300.0790803000564,300.5825855000876,,,,,,,,,,,,,,,,126,2022-05-10_17h41.58.680,FishGame,2022.1.1,59.90197639861314,
,15,넌 문학적이야,3,Green,A,4.708333333333334,4.333333333333333,ScrollDown,ScrollUp,Green.png,2,Neutral,Neutral,,,,,0,0,0,0,,,,,,,,,,,,,,,,,0,14,14,14,,,,,,,,,,,,,,,,,,,,,,,,,,,,,,,,,,,,,,,,,,,,,,,,,,,,,,,,,,,,,,,,,,,,,,,,,,,,,1,1.1540493000065908,301.22039820009377,None,ScrollDown,정답입니다,301.22039820009377,None,301.22039820009377,None,301.22039820009377,None,301.22039820009377,None,302.2626828000648,None,302.2626828000648,302.7665200000629,,,,,,,,,,,,,,,,126,2022-05-10_17h41.58.680,FishGame,2022.1.1,59.90197639861314,
,16,넌 재미있어,1,Orange,B,5.875,5.7,ScrollUp,ScrollDown,Orange.png,2,Positive,Incongruent,,,,,0,0,0,0,,,,,,,,,,,,,,,,,0,15,15,15,,,,,,,,,,,,,,,,,,,,,,,,,,,,,,,,,,,,,,,,,,,,,,,,,,,,,,,,,,,,,,,,,,,,,,,,,,,,,2,1.2552250000881031,303.39679470006377,None,ScrollUp,정답입니다,303.39679470006377,None,303.39679470006377,None,303.39679470006377,None,303.39679470006377,None,304.5459412999917,None,304.5459412999917,305.04961170000024,,,,,,,,,,,,,,,,126,2022-05-10_17h41.58.680,FishGame,2022.1.1,59.90197639861314,
,17,나를 데려가줘,6,Orange,B,0,0,ScrollDown,ScrollUp,Orange.png,2,NonTarget,NonTarget,,,,,0,0,0,0,,,,,,,,,,,,,,,,,0,16,16,16,,,,,,,,,,,,,,,,,,,,,,,,,,,,,,,,,,,,,,,,,,,,,,,,,,,,,,,,,,,,,,,,,,,,,,,,,,,,,1,1.1260803000768647,305.687148099998,None,ScrollDown,정답입니다,305.687148099998,None,305.687148099998,None,305.687148099998,None,305.687148099998,None,306.6994889000198,None,306.6994889000198,307.1996130000334,,,,,,,,,,,,,,,,126,2022-05-10_17h41.58.680,FishGame,2022.1.1,59.90197639861314,
,18,넌 협력적이야,1,Green,A,5.625,5.633333333333334,ScrollDown,ScrollUp,Green.png,2,Positive,Congruent,,,,,0,0,0,0,,,,,,,,,,,,,,,,,0,17,17,17,,,,,,,,,,,,,,,,,,,,,,,,,,,,,,,,,,,,,,,,,,,,,,,,,,,,,,,,,,,,,,,,,,,,,,,,,,,,,1,1.2611495000310242,307.8331265000161,None,ScrollDown,정답입니다,307.8331265000161,None,307.8331265000161,None,307.8331265000161,None,307.8331265000161,None,308.9871067000786,None,308.9871067000786,309.4996415000642,,,,,,,,,,,,,,,,126,2022-05-10_17h41.58.680,FishGame,2022.1.1,59.90197639861314,
,19,넌 평범해,3,Orange,B,4.333333333333332,4.233333333333333,ScrollUp,ScrollDown,Orange.png,2,Neutral,Neutral,,,,,0,0,0,0,,,,,,,,,,,,,,,,,0,18,18,18,,,,,,,,,,,,,,,,,,,,,,,,,,,,,,,,,,,,,,,,,,,,,,,,,,,,,,,,,,,,,,,,,,,,,,,,,,,,,2,1.2194678999949247,310.13672020006925,None,ScrollUp,정답입니다,310.13672020006925,None,310.13672020006925,None,310.13672020006925,None,310.13672020006925,None,311.24623230006546,None,311.24623230006546,311.74973979999777,,,,,,,,,,,,,,,,126,2022-05-10_17h41.58.680,FishGame,2022.1.1,59.90197639861314,
,20,넌 오만해,5,Green,A,2.333333333333333,2,ScrollDown,ScrollUp,Green.png,2,Negative,Incongruent,,,,,0,0,0,0,,,,,,,,,,,,,,,,,0,19,19,19,,,,,,,,,,,,,,,,,,,,,,,,,,,,,,,,,,,,,,,,,,,,,,,,,,,,,,,,,,,,,,,,,,,,,,,,,,,,,1,1.0689994000131264,312.3852713999804,None,ScrollDown,정답입니다,312.3852713999804,None,312.3852713999804,None,312.3852713999804,None,312.3852713999804,None,313.34627270000055,None,313.34627270000055,313.8503518999787,,,,,,,,,,,,,,,,126,2022-05-10_17h41.58.680,FishGame,2022.1.1,59.90197639861314,
,21,넌 운이없어,4,Orange,B,3,3.466666666666667,ScrollUp,ScrollDown,Orange.png,2,Negative,Congruent,,,,,0,0,0,0,,,,,,,,,,,,,,,,,0,20,20,20,,,,,,,,,,,,,,,,,,,,,,,,,,,,,,,,,,,,,,,,,,,,,,,,,,,,,,,,,,,,,,,,,,,,,,,,,,,,,2,1.223920000018552,314.4863556000637,None,ScrollUp,정답입니다,314.4863556000637,None,314.4863556000637,None,314.4863556000637,None,314.4863556000637,None,315.5995039000409,None,315.5995039000409,316.0997396000894,,,,,,,,,,,,,,,,126,2022-05-10_17h41.58.680,FishGame,2022.1.1,59.90197639861314,
,22,넌 창조적이야,2,Orange,B,6.125,4.633333333333334,ScrollUp,ScrollDown,Orange.png,2,Positive,Incongruent,,,,,0,0,0,0,,,,,,,,,,,,,,,,,0,21,21,21,,,,,,,,,,,,,,,,,,,,,,,,,,,,,,,,,,,,,,,,,,,,,,,,,,,,,,,,,,,,,,,,,,,,,,,,,,,,,2,1.1248264000751078,316.7385619999841,None,ScrollUp,정답입니다,316.7385619999841,None,316.7385619999841,None,316.7385619999841,None,316.7385619999841,None,317.74954170000274,None,317.74954170000274,318.25005760008935,,,,,,,,,,,,,,,,126,2022-05-10_17h41.58.680,FishGame,2022.1.1,59.90197639861314,
,23,나를 보내줘,6,Green,A,0,0,ScrollUp,ScrollDown,Green.png,2,NonTarget,NonTarget,,,,,0,0,0,0,,,,,,,,,,,,,,,,,0,22,22,22,,,,,,,,,,,,,,,,,,,,,,,,,,,,,,,,,,,,,,,,,,,,,,,,,,,,,,,,,,,,,,,,,,,,,,,,,,,,,2,1.239826700068079,318.8792569000507,None,ScrollUp,정답입니다,318.8792569000507,None,318.8792569000507,None,318.8792569000507,None,318.8792569000507,None,320.01636510004755,None,320.01636510004755,320.51638729998376,,,,,,,,,,,,,,,,126,2022-05-10_17h41.58.680,FishGame,2022.1.1,59.90197639861314,
,24,넌 통찰력있어,2,Green,A,6.5,4.8,ScrollDown,ScrollUp,Green.png,2,Positive,Congruent,,,,,0,0,0,0,,,,,,,,,,,,,,,,,0,23,23,23,,,,,,,,,,,,,,,,,,,,,,,,,,,,,,,,,,,,,,,,,,,,,,,,,,,,,,,,,,,,,,,,,,,,,,,,,,,,,1,1.1842154000187293,321.15986140002497,None,ScrollDown,정답입니다,321.15986140002497,None,321.15986140002497,None,321.15986140002497,None,321.15986140002497,None,322.2297301000217,None,322.2297301000217,322.7328801000258,,,,,,,,,,,,,,,,126,2022-05-10_17h41.58.680,FishGame,2022.1.1,59.90197639861314,
,25,넌 경솔해,5,Orange,B,2.458333333333333,2.266666666666667,ScrollUp,ScrollDown,Orange.png,2,Negative,Congruent,,,,,0,0,0,0,,,,,,,,,,,,,,,,,0,24,24,24,,,,,,,,,,,,,,,,,,,,,,,,,,,,,,,,,,,,,,,,,,,,,,,,,,,,,,,,,,,,,,,,,,,,,,,,,,,,,2,1.1484577999217436,323.37186620000284,None,ScrollUp,정답입니다,323.37186620000284,None,323.37186620000284,None,323.37186620000284,None,323.37186620000284,None,324.404321399983,None,324.404321399983,324.9165376999881,,,,,,,,,,,,,,,,126,2022-05-10_17h41.58.680,FishGame,2022.1.1,59.90197639861314,
,26,넌 초조해,4,Green,A,2.916666666666667,3.133333333333333,ScrollDown,ScrollUp,Green.png,2,Negative,Incongruent,,,,,0,0,0,0,,,,,,,,,,,,,,,,,0,25,25,25,,,,,,,,,,,,,,,,,,,,,,,,,,,,,,,,,,,,,,,,,,,,,,,,,,,,,,,,,,,,,,,,,,,,,,,,,,,,,1,1.1402071999618784,325.54806729999837,None,ScrollDown,정답입니다,325.54806729999837,None,325.54806729999837,None,325.54806729999837,None,325.54806729999837,None,326.5829956000671,None,326.5829956000671,327.0830820000265,,,,,,,,,,,,,,,,126,2022-05-10_17h41.58.680,FishGame,2022.1.1,59.90197639861314,
,27,넌 무관심해,4,Orange,B,2.833333333333333,2.9,ScrollUp,ScrollDown,Orange.png,2,Negative,Congruent,,,,,0,0,0,0,,,,,,,,,,,,,,,,,0,26,26,26,,,,,,,,,,,,,,,,,,,,,,,,,,,,,,,,,,,,,,,,,,,,,,,,,,,,,,,,,,,,,,,,,,,,,,,,,,,,,2,1.1709049999481067,327.7224610000849,None,ScrollUp,정답입니다,327.7224610000849,None,327.7224610000849,None,327.7224610000849,None,327.7224610000849,None,328.779825399979,None,328.779825399979,329.28314810001757,,,,,,,,,,,,,,,,126,2022-05-10_17h41.58.680,FishGame,2022.1.1,59.90197639861314,
,28,넌 감성적이야,3,Orange,B,4.125,4.166666666666667,ScrollUp,ScrollDown,Orange.png,2,Neutral,Neutral,,,,,0,0,0,0,,,,,,,,,,,,,,,,,0,27,27,27,,,,,,,,,,,,,,,,,,,,,,,,,,,,,,,,,,,,,,,,,,,,,,,,,,,,,,,,,,,,,,,,,,,,,,,,,,,,,2,1.1308266998967156,329.9175879000686,None,ScrollUp,정답입니다,329.9175879000686,None,329.9175879000686,None,329.9175879000686,None,329.9175879000686,None,330.9380016999785,None,330.9380016999785,331.45003030006774,,,,,,,,,,,,,,,,126,2022-05-10_17h41.58.680,FishGame,2022.1.1,59.90197639861314,
,29,넌 배려심있어,1,Green,A,6.083333333333333,5.5,ScrollDown,ScrollUp,Green.png,2,Positive,Congruent,,,,,0,0,0,0,,,,,,,,,,,,,,,,,0,28,28,28,,,,,,,,,,,,,,,,,,,,,,,,,,,,,,,,,,,,,,,,,,,,,,,,,,,,,,,,,,,,,,,,,,,,,,,,,,,,,1,1.2010111999697983,332.09237470000517,None,ScrollDown,정답입니다,332.09237470000517,None,332.09237470000517,None,332.09237470000517,None,332.09237470000517,None,333.17999089998193,None,333.17999089998193,333.68353540007956,,,,,,,,,,,,,,,,126,2022-05-10_17h41.58.680,FishGame,2022.1.1,59.90197639861314,
,30,넌 숨김없어,3,Green,A,4.5,4.933333333333334,ScrollDown,ScrollUp,Green.png,2,Neutral,Neutral,,,,,0,0,0,0,,,,,,,,,,,,,,,,,0,29,29,29,,,,,,,,,,,,,,,,,,,,,,,,,,,,,,,,,,,,,,,,,,,,,,,,,,,,,,,,,,,,,,,,,,,,,,,,,,,,,1,1.3039495000848547,334.3182610999793,None,ScrollDown,정답입니다,334.3182610999793,None,334.3182610999793,None,334.3182610999793,None,334.3182610999793,None,335.513061500038,None,335.513061500038,336.01729630003683,,,,,,,,,,,,,,,,126,2022-05-10_17h41.58.680,FishGame,2022.1.1,59.90197639861314,
,31,넌 훌륭해,2,Orange,B,5.916666666666667,4.033333333333333,ScrollUp,ScrollDown,Orange.png,2,Positive,Incongruent,,,,,0,0,0,0,,,,,,,,,,,,,,,,,0,30,30,30,,,,,,,,,,,,,,,,,,,,,,,,,,,,,,,,,,,,,,,,,,,,,,,,,,,,,,,,,,,,,,,,,,,,,,,,,,,,,2,1.244895500014536,336.6694596000016,None,ScrollUp,정답입니다,336.6694596000016,None,336.6694596000016,None,336.6694596000016,None,336.6694596000016,None,337.78325920004863,None,337.78325920004863,338.28327180002816,,,,,,,,,,,,,,,,126,2022-05-10_17h41.58.680,FishGame,2022.1.1,59.90197639861314,
,32,넌 슬기로워,2,Green,A,6.166666666666667,4.1,ScrollDown,ScrollUp,Green.png,2,Positive,Congruent,,,,,0,0,0,0,,,,,,,,,,,,,,,,,0,31,31,31,,,,,,,,,,,,,,,,,,,,,,,,,,,,,,,,,,,,,,,,,,,,,,,,,,,,,,,,,,,,,,,,,,,,,,,,,,,,,1,1.122649100027047,338.9146134000039,None,ScrollDown,정답입니다,338.9146134000039,None,338.9146134000039,None,338.9146134000039,None,338.9146134000039,None,339.932997600059,None,339.932997600059,340.43322340003215,,,,,,,,,,,,,,,,126,2022-05-10_17h41.58.680,FishGame,2022.1.1,59.90197639861314,
,33,넌 냉혹해,5,Green,A,2.583333333333333,2.1,ScrollDown,ScrollUp,Green.png,2,Negative,Incongruent,,,,,0,0,0,0,,,,,,,,,,,,,,,,,0,32,32,32,,,,,,,,,,,,,,,,,,,,,,,,,,,,,,,,,,,,,,,,,,,,,,,,,,,,,,,,,,,,,,,,,,,,,,,,,,,,,1,1.3163891999283805,341.0751505000517,None,ScrollDown,정답입니다,341.0751505000517,None,341.0751505000517,None,341.0751505000517,None,341.0751505000517,None,342.2712940000929,None,342.2712940000929,342.7834807999898,,,,,,,,,,,,,,,,126,2022-05-10_17h41.58.680,FishGame,2022.1.1,59.90197639861314,
,34,나를 데려가줘,6,Orange,B,0,0,ScrollDown,ScrollUp,Orange.png,2,NonTarget,NonTarget,,,,,0,0,0,0,,,,,,,,,,,,,,,,,0,33,33,33,,,,,,,,,,,,,,,,,,,,,,,,,,,,,,,,,,,,,,,,,,,,,,,,,,,,,,,,,,,,,,,,,,,,,,,,,,,,,1,1.4062562000472099,343.41681080008857,None,ScrollDown,정답입니다,343.41681080008857,None,343.41681080008857,None,343.41681080008857,None,343.41681080008857,None,344.71698850009125,None,344.71698850009125,345.21685500000603,,,,,,,,,,,,,,,,126,2022-05-10_17h41.58.680,FishGame,2022.1.1,59.90197639861314,
,35,넌 편파적이야,5,Orange,B,2.125,2,ScrollUp,ScrollDown,Orange.png,2,Negative,Congruent,,,,,0,0,0,0,,,,,,,,,,,,,,,,,0,34,34,34,,,,,,,,,,,,,,,,,,,,,,,,,,,,,,,,,,,,,,,,,,,,,,,,,,,,,,,,,,,,,,,,,,,,,,,,,,,,,2,1.2649832000024617,345.8549032000592,None,ScrollUp,정답입니다,345.8549032000592,None,345.8549032000592,None,345.8549032000592,None,345.8549032000592,None,347.0045143000316,None,347.0045143000316,347.5172237000661,,,,,,,,,,,,,,,,126,2022-05-10_17h41.58.680,FishGame,2022.1.1,59.90197639861314,
,36,넌 슬퍼,4,Green,A,2.583333333333333,3.066666666666667,ScrollDown,ScrollUp,Green.png,2,Negative,Incongruent,,,,,0,0,0,0,,,,,,,,,,,,,,,,,0,35,35,35,,,,,,,,,,,,,,,,,,,,,,,,,,,,,,,,,,,,,,,,,,,,,,,,,,,,,,,,,,,,,,,,,,,,,,,,,,,,,1,1.2145630000159144,348.14856340002734,None,ScrollDown,정답입니다,348.14856340002734,None,348.14856340002734,None,348.14856340002734,None,348.14856340002734,None,349.2558783000568,None,349.2558783000568,349.76704790000804,,,,,,,,,,,,,,,,126,2022-05-10_17h41.58.680,FishGame,2022.1.1,59.90197639861314,
,37,나를 데려가줘,6,Orange,B,0,0,ScrollDown,ScrollUp,Orange.png,2,NonTarget,NonTarget,,,,,0,0,0,0,,,,,,,,,,,,,,,,,0,36,36,36,,,,,,,,,,,,,,,,,,,,,,,,,,,,,,,,,,,,,,,,,,,,,,,,,,,,,,,,,,,,,,,,,,,,,,,,,,,,,1,1.2906985000008717,350.39785469998606,None,ScrollDown,정답입니다,350.39785469998606,None,350.39785469998606,None,350.39785469998606,None,350.39785469998606,None,351.58364269998856,None,351.58364269998856,352.08389420004096,,,,,,,,,,,,,,,,126,2022-05-10_17h41.58.680,FishGame,2022.1.1,59.90197639861314,
,38,넌 친절해,1,Orange,B,6.041666666666667,5.533333333333333,ScrollUp,ScrollDown,Orange.png,2,Positive,Incongruent,,,,,0,0,0,0,,,,,,,,,,,,,,,,,0,37,37,37,,,,,,,,,,,,,,,,,,,,,,,,,,,,,,,,,,,,,,,,,,,,,,,,,,,,,,,,,,,,,,,,,,,,,,,,,,,,,2,1.1902044999878854,352.728891100036,None,ScrollUp,정답입니다,352.728891100036,None,352.728891100036,None,352.728891100036,None,352.728891100036,None,353.80040750000626,None,353.80040750000626,354.30070590006653,,,,,,,,,,,,,,,,126,2022-05-10_17h41.58.680,FishGame,2022.1.1,59.90197639861314,
,1,넌 엉성해,4,Green,A,3,3.3,ScrollDown,ScrollUp,Green.png,3,Negative,Incongruent,,,,,0,0,0,0,,,,,,,,,,,,,,,,,,,,,0,0,0,0,,,,,,,,,,,,,,,,,,,,,,,,,,,,,,,,388.6344586000778,390.13476550008636,390.16811189998407,391.118793200003,391.16789590008557,392.11865930003114,392.11865930003114,None,,,,,,,,,,,,,,,,,,,,,,,,,,,,,,,,,,1,1.2820018000202253,393.2745510999812,None,ScrollDown,정답입니다,393.2745510999812,None,393.2745510999812,None,393.2745510999812,None,393.2745510999812,None,394.39813049999066,None,394.39813049999066,394.90208260004874,354.80117520003114,None,354.80117520003114,None,0.27685186,-0.10462963,1,0,0,0.016271210042759776,None,384.80160080001224,None,,,126,2022-05-10_17h41.58.680,FishGame,2022.1.1,59.90197639861314,
,2,나를 보내줘,6,Green,A,0,0,ScrollUp,ScrollDown,Green.png,3,NonTarget,NonTarget,,,,,0,0,0,0,,,,,,,,,,,,,,,,,,,,,0,1,1,1,,,,,,,,,,,,,,,,,,,,,,,,,,,,,,,,,,,,,,,,,,,,,,,,,,,,,,,,,,,,,,,,,,,,,,,,,1.6604938258727393,1.1818757998989895,395.5327512000222,None,ScrollUp,정답입니다,395.5327512000222,None,395.5327512000222,None,395.5327512000222,None,395.5327512000222,None,396.6059857000364,None,396.6059857000364,397.11822200007737,,,,,,,,,,,,,,,,126,2022-05-10_17h41.58.680,FishGame,2022.1.1,59.90197639861314,
,3,넌 활발해,1,Orange,B,5.666666666666667,5.6,ScrollUp,ScrollDown,Orange.png,3,Positive,Incongruent,,,,,0,0,0,0,,,,,,,,,,,,,,,,,,,,,0,2,2,2,,,,,,,,,,,,,,,,,,,,,,,,,,,,,,,,,,,,,,,,,,,,,,,,,,,,,,,,,,,,,,,,,,,,,,,,,2,1.1377838000189513,397.7609145999886,None,ScrollUp,정답입니다,397.7609145999886,None,397.7609145999886,None,397.7609145999886,None,397.7609145999886,None,398.7849775000941,None,398.7849775000941,399.28515780007,,,,,,,,,,,,,,,,126,2022-05-10_17h41.58.680,FishGame,2022.1.1,59.90197639861314,
,4,넌 논리적이야,2,Green,A,5.666666666666666,4.633333333333334,ScrollDown,ScrollUp,Green.png,3,Positive,Congruent,,,,,0,0,0,0,,,,,,,,,,,,,,,,,,,,,0,3,3,3,,,,,,,,,,,,,,,,,,,,,,,,,,,,,,,,,,,,,,,,,,,,,,,,,,,,,,,,,,,,,,,,,,,,,,,,,1,1.1186737000243738,399.9178854000056,None,ScrollDown,정답입니다,399.9178854000056,None,399.9178854000056,None,399.9178854000056,None,399.9178854000056,None,400.9242106000893,None,400.9242106000893,401.4352429000428,,,,,,,,,,,,,,,,126,2022-05-10_17h41.58.680,FishGame,2022.1.1,59.90197639861314,
,5,넌 과묵해,3,Green,A,3.875,4.4,ScrollDown,ScrollUp,Green.png,3,Neutral,Neutral,,,,,0,0,0,0,,,,,,,,,,,,,,,,,,,,,0,4,4,4,,,,,,,,,,,,,,,,,,,,,,,,,,,,,,,,,,,,,,,,,,,,,,,,,,,,,,,,,,,,,,,,,,,,,,,,,1.0432098706563313,1.1502254999941215,402.0700498999795,None,ScrollDown,정답입니다,402.0700498999795,None,402.0700498999795,None,402.0700498999795,None,402.0700498999795,None,403.1149979000911,None,403.1149979000911,403.6184072000906,,,,,,,,,,,,,,,,126,2022-05-10_17h41.58.680,FishGame,2022.1.1,59.90197639861314,
,6,나를 데려가줘,6,Orange,B,0,0,ScrollDown,ScrollUp,Orange.png,3,NonTarget,NonTarget,,,,,0,0,0,0,,,,,,,,,,,,,,,,,,,,,0,5,5,5,,,,,,,,,,,,,,,,,,,,,,,,,,,,,,,,,,,,,,,,,,,,,,,,,,,,,,,,,,,,,,,,,,,,,,,,,1,1.2500886000925675,404.2511118000839,None,ScrollDown,정답입니다,404.2511118000839,None,404.2511118000839,None,404.2511118000839,None,404.2511118000839,None,405.38955820002593,None,405.38955820002593,405.9020367000485,,,,,,,,,,,,,,,,126,2022-05-10_17h41.58.680,FishGame,2022.1.1,59.90197639861314,
,7,넌 미숙해,4,Orange,B,3,3,ScrollUp,ScrollDown,Orange.png,3,Negative,Congruent,,,,,0,0,0,0,,,,,,,,,,,,,,,,,,,,,0,6,6,6,,,,,,,,,,,,,,,,,,,,,,,,,,,,,,,,,,,,,,,,,,,,,,,,,,,,,,,,,,,,,,,,,,,,,,,,,2,1.2404425999848172,406.54209570004605,None,ScrollUp,정답입니다,406.54209570004605,None,406.54209570004605,None,406.54209570004605,None,406.54209570004605,None,407.66847570007667,None,407.66847570007667,408.16822690004483,,,,,,,,,,,,,,,,126,2022-05-10_17h41.58.680,FishGame,2022.1.1,59.90197639861314,
,8,나를 보내줘,6,Green,A,0,0,ScrollUp,ScrollDown,Green.png,3,NonTarget,NonTarget,,,,,0,0,0,0,,,,,,,,,,,,,,,,,,,,,0,7,7,7,,,,,,,,,,,,,,,,,,,,,,,,,,,,,,,,,,,,,,,,,,,,,,,,,,,,,,,,,,,,,,,,,,,,,,,,,1.9351851840813954,1.1900159999495372,408.7969731000485,None,ScrollUp,정답입니다,408.7969731000485,None,408.7969731000485,None,408.7969731000485,None,408.7969731000485,None,409.88520590006374,None,409.88520590006374,410.3852431999985,,,,,,,,,,,,,,,,126,2022-05-10_17h41.58.680,FishGame,2022.1.1,59.90197639861314,
,9,넌 자신만만해,3,Orange,B,4.833333333333334,4.333333333333333,ScrollUp,ScrollDown,Orange.png,3,Neutral,Neutral,,,,,0,0,0,0,,,,,,,,,,,,,,,,,,,,,0,8,8,8,,,,,,,,,,,,,,,,,,,,,,,,,,,,,,,,,,,,,,,,,,,,,,,,,,,,,,,,,,,,,,,,,,,,,,,,,2,1.290910099982284,411.0186333000893,None,ScrollUp,정답입니다,411.0186333000893,None,411.0186333000893,None,411.0186333000893,None,411.0186333000893,None,412.2020612000488,None,412.2020612000488,412.701692200033,,,,,,,,,,,,,,,,126,2022-05-10_17h41.58.680,FishGame,2022.1.1,59.90197639861314,
,10,넌 탐욕스러워,5,Green,A,2.25,2.1,ScrollDown,ScrollUp,Green.png,3,Negative,Incongruent,,,,,0,0,0,0,,,,,,,,,,,,,,,,,,,,,0,9,9,9,,,,,,,,,,,,,,,,,,,,,,,,,,,,,,,,,,,,,,,,,,,,,,,,,,,,,,,,,,,,,,,,,,,,,,,,,1,1.093359399936162,413.34435939998366,None,ScrollDown,정답입니다,413.34435939998366,None,413.34435939998366,None,413.34435939998366,None,413.34435939998366,None,414.3227456000168,None,414.3227456000168,414.83521170006134,,,,,,,,,,,,,,,,126,2022-05-10_17h41.58.680,FishGame,2022.1.1,59.90197639861314,
,11,넌 인기있어,2,Green,A,5.458333333333333,4.5,ScrollDown,ScrollUp,Green.png,3,Positive,Congruent,,,,,0,0,0,0,,,,,,,,,,,,,,,,,,,,,0,10,10,10,,,,,,,,,,,,,,,,,,,,,,,,,,,,,,,,,,,,,,,,,,,,,,,,,,,,,,,,,,,,,,,,,,,,,,,,,1,1.0952766999835148,415.4629017000552,None,ScrollDown,정답입니다,415.4629017000552,None,415.4629017000552,None,415.4629017000552,None,415.4629017000552,None,416.4515259000473,None,416.4515259000473,416.9520214999793,,,,,,,,,,,,,,,,126,2022-05-10_17h41.58.680,FishGame,2022.1.1,59.90197639861314,
,12,나를 데려가줘,6,Orange,B,0,0,ScrollDown,ScrollUp,Orange.png,3,NonTarget,NonTarget,,,,,0,0,0,0,,,,,,,,,,,,,,,,,,,,,0,11,11,11,,,,,,,,,,,,,,,,,,,,,,,,,,,,,,,,,,,,,,,,,,,,,,,,,,,,,,,,,,,,,,,,,,,,,,,,,1,1.271336300065741,417.59312820003834,None,ScrollDown,정답입니다,417.59312820003834,None,417.59312820003834,None,417.59312820003834,None,417.59312820003834,None,418.75188060000073,None,418.75188060000073,419.2520240000449,,,,,,,,,,,,,,,,126,2022-05-10_17h41.58.680,FishGame,2022.1.1,59.90197639861314,
,13,넌 뛰어나,2,Orange,B,6.166666666666667,4,ScrollUp,ScrollDown,Orange.png,3,Positive,Incongruent,,,,,0,0,0,0,,,,,,,,,,,,,,,,,,,,,0,12,12,12,,,,,,,,,,,,,,,,,,,,,,,,,,,,,,,,,,,,,,,,,,,,,,,,,,,,,,,,,,,,,,,,,,,,,,,,,2,1.2311847999226302,419.8895291000372,None,ScrollUp,정답입니다,419.8895291000372,None,419.8895291000372,None,419.8895291000372,None,419.8895291000372,None,421.00674069998786,None,421.00674069998786,421.5189240000909,,,,,,,,,,,,,,,,126,2022-05-10_17h41.58.680,FishGame,2022.1.1,59.90197639861314,
,14,넌 낙관적이야,1,Green,A,5.75,5.8,ScrollDown,ScrollUp,Green.png,3,Positive,Congruent,,,,,0,0,0,0,,,,,,,,,,,,,,,,,,,,,0,13,13,13,,,,,,,,,,,,,,,,,,,,,,,,,,,,,,,,,,,,,,,,,,,,,,,,,,,,,,,,,,,,,,,,,,,,,,,,,1.1250000099341075,1.086020200047642,422.1599334999919,None,ScrollDown,정답입니다,422.1599334999919,None,422.1599334999919,None,422.1599334999919,None,422.1599334999919,None,423.1250085000647,None,423.1250085000647,423.63539890001994,,,,,,,,,,,,,,,,126,2022-05-10_17h41.58.680,FishGame,2022.1.1,59.90197639861314,
,15,넌 산만해,4,Orange,B,2.695652173913043,3.033333333333333,ScrollUp,ScrollDown,Orange.png,3,Negative,Congruent,,,,,0,0,0,0,,,,,,,,,,,,,,,,,,,,,0,14,14,14,,,,,,,,,,,,,,,,,,,,,,,,,,,,,,,,,,,,,,,,,,,,,,,,,,,,,,,,,,,,,,,,,,,,,,,,,2,1.2524778000079095,424.27440400002524,None,ScrollUp,정답입니다,424.27440400002524,None,424.27440400002524,None,424.27440400002524,None,424.27440400002524,None,425.4155303000007,None,425.4155303000007,425.91879610007163,,,,,,,,,,,,,,,,126,2022-05-10_17h41.58.680,FishGame,2022.1.1,59.90197639861314,
,16,나를 보내줘,6,Green,A,0,0,ScrollUp,ScrollDown,Green.png,3,NonTarget,NonTarget,,,,,0,0,0,0,,,,,,,,,,,,,,,,,,,,,0,15,15,15,,,,,,,,,,,,,,,,,,,,,,,,,,,,,,,,,,,,,,,,,,,,,,,,,,,,,,,,,,,,,,,,,,,,,,,,,2,1.5580850000260398,426.5482822000049,None,ScrollUp,정답입니다,426.5482822000049,None,426.5482822000049,None,426.5482822000049,None,426.5482822000049,None,428.00205680006184,None,428.00205680006184,428.5021730000153,,,,,,,,,,,,,,,,126,2022-05-10_17h41.58.680,FishGame,2022.1.1,59.90197639861314,
,17,넌 교활해,5,Orange,B,2.333333333333333,2.133333333333333,ScrollUp,ScrollDown,Orange.png,3,Negative,Congruent,,,,,0,0,0,0,,,,,,,,,,,,,,,,,,,,,0,16,16,16,,,,,,,,,,,,,,,,,,,,,,,,,,,,,,,,,,,,,,,,,,,,,,,,,,,,,,,,,,,,,,,,,,,,,,,,,2,1.2555471999803558,429.13972530001774,None,ScrollUp,정답입니다,429.13972530001774,None,429.13972530001774,None,429.13972530001774,None,429.13972530001774,None,430.28539049997926,None,430.28539049997926,430.7856000000611,,,,,,,,,,,,,,,,126,2022-05-10_17h41.58.680,FishGame,2022.1.1,59.90197639861314,
,18,나를 보내줘,6,Green,A,0,0,ScrollUp,ScrollDown,Green.png,3,NonTarget,NonTarget,,,,,0,0,0,0,,,,,,,,,,,,,,,,,,,,,0,17,17,17,,,,,,,,,,,,,,,,,,,,,,,,,,,,,,,,,,,,,,,,,,,,,,,,,,,,,,,,,,,,,,,,,,,,,,,,,2,1.2050382000161335,431.41387759998906,None,ScrollUp,정답입니다,431.41387759998906,None,431.41387759998906,None,431.41387759998906,None,431.41387759998906,None,432.51787990005687,None,432.51787990005687,433.0192902000854,,,,,,,,,,,,,,,,126,2022-05-10_17h41.58.680,FishGame,2022.1.1,59.90197639861314,
,19,넌 불친절해,5,Orange,B,2.208333333333333,2.033333333333333,ScrollUp,ScrollDown,Orange.png,3,Negative,Congruent,,,,,0,0,0,0,,,,,,,,,,,,,,,,,,,,,0,18,18,18,,,,,,,,,,,,,,,,,,,,,,,,,,,,,,,,,,,,,,,,,,,,,,,,,,,,,,,,,,,,,,,,,,,,,,,,,2,1.161394999944605,433.6567499000812,None,ScrollUp,정답입니다,433.6567499000812,None,433.6567499000812,None,433.6567499000812,None,433.6567499000812,None,434.7065674000187,None,434.7065674000187,435.21928670001216,,,,,,,,,,,,,,,,126,2022-05-10_17h41.58.680,FishGame,2022.1.1,59.90197639861314,
,20,넌 지적이야,2,Orange,B,5.75,4.366666666666666,ScrollUp,ScrollDown,Orange.png,3,Positive,Incongruent,,,,,0,0,0,0,,,,,,,,,,,,,,,,,,,,,0,19,19,19,,,,,,,,,,,,,,,,,,,,,,,,,,,,,,,,,,,,,,,,,,,,,,,,,,,,,,,,,,,,,,,,,,,,,,,,,2,1.2339191999053583,435.84998360008467,None,ScrollUp,정답입니다,435.84998360008467,None,435.84998360008467,None,435.84998360008467,None,435.84998360008467,None,436.9823171000462,None,436.9823171000462,437.4858508000616,,,,,,,,,,,,,,,,126,2022-05-10_17h41.58.680,FishGame,2022.1.1,59.90197639861314,
,21,넌 우유부단해,4,Green,A,2.666666666666667,3.166666666666667,ScrollDown,ScrollUp,Green.png,3,Negative,Incongruent,,,,,0,0,0,0,,,,,,,,,,,,,,,,,,,,,0,20,20,20,,,,,,,,,,,,,,,,,,,,,,,,,,,,,,,,,,,,,,,,,,,,,,,,,,,,,,,,,,,,,,,,,,,,,,,,,1,1.0735394998919219,438.126266199979,None,ScrollDown,정답입니다,438.126266199979,None,438.126266199979,None,438.126266199979,None,438.126266199979,None,439.08573920000345,None,439.08573920000345,439.58589860005304,,,,,,,,,,,,,,,,126,2022-05-10_17h41.58.680,FishGame,2022.1.1,59.90197639861314,
,22,나를 데려가줘,6,Orange,B,0,0,ScrollDown,ScrollUp,Orange.png,3,NonTarget,NonTarget,,,,,0,0,0,0,,,,,,,,,,,,,,,,,,,,,0,21,21,21,,,,,,,,,,,,,,,,,,,,,,,,,,,,,,,,,,,,,,,,,,,,,,,,,,,,,,,,,,,,,,,,,,,,,,,,,1,1.2334378000814468,440.2252976000309,None,ScrollDown,정답입니다,440.2252976000309,None,440.2252976000309,None,440.2252976000309,None,440.2252976000309,None,441.3401875999989,None,441.3401875999989,441.8525829000864,,,,,,,,,,,,,,,,126,2022-05-10_17h41.58.680,FishGame,2022.1.1,59.90197639861314,
,23,넌 성실해,1,Orange,B,6.041666666666666,5.7,ScrollUp,ScrollDown,Orange.png,3,Positive,Incongruent,,,,,0,0,0,0,,,,,,,,,,,,,,,,,,,,,0,22,22,22,,,,,,,,,,,,,,,,,,,,,,,,,,,,,,,,,,,,,,,,,,,,,,,,,,,,,,,,,,,,,,,,,,,,,,,,,2,1.1846618000417948,442.4887160999933,None,ScrollUp,정답입니다,442.4887160999933,None,442.4887160999933,None,442.4887160999933,None,442.4887160999933,None,443.5682104000589,None,443.5682104000589,444.06912850006483,,,,,,,,,,,,,,,,126,2022-05-10_17h41.58.680,FishGame,2022.1.1,59.90197639861314,
,24,넌 현실주의적이야,3,Green,A,4.625,4.4,ScrollDown,ScrollUp,Green.png,3,Neutral,Neutral,,,,,0,0,0,0,,,,,,,,,,,,,,,,,,,,,0,23,23,23,,,,,,,,,,,,,,,,,,,,,,,,,,,,,,,,,,,,,,,,,,,,,,,,,,,,,,,,,,,,,,,,,,,,,,,,,1,1.1411817000480369,444.69853559997864,None,ScrollDown,정답입니다,444.69853559997864,None,444.69853559997864,None,444.69853559997864,None,444.69853559997864,None,445.7354871000862,None,445.7354871000862,446.2361316999886,,,,,,,,,,,,,,,,126,2022-05-10_17h41.58.680,FishGame,2022.1.1,59.90197639861314,
,25,넌 진실돼,1,Green,A,6.625,5.566666666666666,ScrollDown,ScrollUp,Green.png,3,Positive,Congruent,,,,,0,0,0,0,,,,,,,,,,,,,,,,,,,,,0,24,24,24,,,,,,,,,,,,,,,,,,,,,,,,,,,,,,,,,,,,,,,,,,,,,,,,,,,,,,,,,,,,,,,,,,,,,,,,,1,1.2092953999526799,446.8764606000623,None,ScrollDown,정답입니다,446.8764606000623,None,446.8764606000623,None,446.8764606000623,None,446.8764606000623,None,447.96940699999686,None,447.96940699999686,448.46933620003983,,,,,,,,,,,,,,,,126,2022-05-10_17h41.58.680,FishGame,2022.1.1,59.90197639861314,
,26,넌 천진난만해,3,Orange,B,4.958333333333334,4.833333333333333,ScrollUp,ScrollDown,Orange.png,3,Neutral,Neutral,,,,,0,0,0,0,,,,,,,,,,,,,,,,,,,,,0,25,25,25,,,,,,,,,,,,,,,,,,,,,,,,,,,,,,,,,,,,,,,,,,,,,,,,,,,,,,,,,,,,,,,,,,,,,,,,,2,1.120753200026229,449.1113985000411,None,ScrollUp,정답입니다,449.1113985000411,None,449.1113985000411,None,449.1113985000411,None,449.1113985000411,None,450.1159265000606,None,450.1159265000606,450.6196185000008,,,,,,,,,,,,,,,,126,2022-05-10_17h41.58.680,FishGame,2022.1.1,59.90197639861314,
,27,넌 교양없어,5,Green,A,2.416666666666667,2.2,ScrollDown,ScrollUp,Green.png,3,Negative,Incongruent,,,,,0,0,0,0,,,,,,,,,,,,,,,,,,,,,0,26,26,26,,,,,,,,,,,,,,,,,,,,,,,,,,,,,,,,,,,,,,,,,,,,,,,,,,,,,,,,,,,,,,,,,,,,,,,,,1,1.0568691999651492,451.2545953000663,None,ScrollDown,정답입니다,451.2545953000663,None,451.2545953000663,None,451.2545953000663,None,451.2545953000663,None,452.20246410008986,None,452.20246410008986,452.7024572000373,,,,,,,,,,,,,,,,126,2022-05-10_17h41.58.680,FishGame,2022.1.1,59.90197639861314,
,28,나를 보내줘,6,Green,A,0,0,ScrollUp,ScrollDown,Green.png,3,NonTarget,NonTarget,,,,,0,0,0,0,,,,,,,,,,,,,,,,,,,,,0,27,27,27,,,,,,,,,,,,,,,,,,,,,,,,,,,,,,,,,,,,,,,,,,,,,,,,,,,,,,,,,,,,,,,,,,,,,,,,,2,1.189695299952291,453.3372975999955,None,ScrollUp,정답입니다,453.3372975999955,None,453.3372975999955,None,453.3372975999955,None,453.3372975999955,None,454.41945480008144,None,454.41945480008144,454.91956830001436,,,,,,,,,,,,,,,,126,2022-05-10_17h41.58.680,FishGame,2022.1.1,59.90197639861314,
,29,넌 엉뚱스러워,3,Green,A,4.166666666666667,4.133333333333334,ScrollDown,ScrollUp,Green.png,3,Neutral,Neutral,,,,,0,0,0,0,,,,,,,,,,,,,,,,,,,,,0,28,28,28,,,,,,,,,,,,,,,,,,,,,,,,,,,,,,,,,,,,,,,,,,,,,,,,,,,,,,,,,,,,,,,,,,,,,,,,,1,1.2584405000088736,455.57193099998403,None,ScrollDown,정답입니다,455.57193099998403,None,455.57193099998403,None,455.57193099998403,None,455.57193099998403,None,456.70253370003775,None,456.70253370003775,457.20257870003115,,,,,,,,,,,,,,,,126,2022-05-10_17h41.58.680,FishGame,2022.1.1,59.90197639861314,
,30,넌 무지해,4,Orange,B,2.541666666666667,3.066666666666667,ScrollUp,ScrollDown,Orange.png,3,Negative,Congruent,,,,,0,0,0,0,,,,,,,,,,,,,,,,,,,,,0,29,29,29,,,,,,,,,,,,,,,,,,,,,,,,,,,,,,,,,,,,,,,,,,,,,,,,,,,,,,,,,,,,,,,,,,,,,,,,,1.9845678806304932,1.2991654999786988,457.8367006999906,None,ScrollUp,정답입니다,457.8367006999906,None,457.8367006999906,None,457.8367006999906,None,457.8367006999906,None,459.02394500002265,None,459.02394500002265,459.5363403999945,,,,,,,,,,,,,,,,126,2022-05-10_17h41.58.680,FishGame,2022.1.1,59.90197639861314,
,31,넌 음울해,5,Orange,B,2.25,2.233333333333333,ScrollUp,ScrollDown,Orange.png,3,Negative,Congruent,,,,,0,0,0,0,,,,,,,,,,,,,,,,,,,,,0,30,30,30,,,,,,,,,,,,,,,,,,,,,,,,,,,,,,,,,,,,,,,,,,,,,,,,,,,,,,,,,,,,,,,,,,,,,,,,,2,1.2022517999866977,460.1803987000603,None,ScrollUp,정답입니다,460.1803987000603,None,460.1803987000603,None,460.1803987000603,None,460.1803987000603,None,461.26634570001625,None,461.26634570001625,461.769607800059,,,,,,,,,,,,,,,,126,2022-05-10_17h41.58.680,FishGame,2022.1.1,59.90197639861314,
,32,넌 냉소적이야,5,Green,A,2.916666666666667,2.4,ScrollDown,ScrollUp,Green.png,3,Negative,Incongruent,,,,,0,0,0,0,,,,,,,,,,,,,,,,,,,,,0,31,31,31,,,,,,,,,,,,,,,,,,,,,,,,,,,,,,,,,,,,,,,,,,,,,,,,,,,,,,,,,,,,,,,,,,,,,,,,,1,1.2581735999556258,462.403561300016,None,ScrollDown,정답입니다,462.403561300016,None,462.403561300016,None,462.403561300016,None,462.403561300016,None,463.5527828000486,None,463.5527828000486,464.05273840005975,,,,,,,,,,,,,,,,126,2022-05-10_17h41.58.680,FishGame,2022.1.1,59.90197639861314,
,33,나를 데려가줘,6,Orange,B,0,0,ScrollDown,ScrollUp,Orange.png,3,NonTarget,NonTarget,,,,,0,0,0,0,,,,,,,,,,,,,,,,,,,,,0,32,32,32,,,,,,,,,,,,,,,,,,,,,,,,,,,,,,,,,,,,,,,,,,,,,,,,,,,,,,,,,,,,,,,,,,,,,,,,,1,1.2481965000042692,464.6845468999818,None,ScrollDown,정답입니다,464.6845468999818,None,464.6845468999818,None,464.6845468999818,None,464.6845468999818,None,465.8239956999896,None,465.8239956999896,466.3365823000204,,,,,,,,,,,,,,,,126,2022-05-10_17h41.58.680,FishGame,2022.1.1,59.90197639861314,
,34,넌 쾌활해,1,Green,A,5.541666666666666,5.733333333333333,ScrollDown,ScrollUp,Green.png,3,Positive,Congruent,,,,,0,0,0,0,,,,,,,,,,,,,,,,,,,,,0,33,33,33,,,,,,,,,,,,,,,,,,,,,,,,,,,,,,,,,,,,,,,,,,,,,,,,,,,,,,,,,,,,,,,,,,,,,,,,,1,1.202896700007841,466.97349290002603,None,ScrollDown,정답입니다,466.97349290002603,None,466.97349290002603,None,466.97349290002603,None,466.97349290002603,None,468.0664665000513,None,468.0664665000513,468.5702726000454,,,,,,,,,,,,,,,,126,2022-05-10_17h41.58.680,FishGame,2022.1.1,59.90197639861314,
,35,나를 보내줘,6,Green,A,0,0,ScrollUp,ScrollDown,Green.png,3,NonTarget,NonTarget,,,,,0,0,0,0,,,,,,,,,,,,,,,,,,,,,0,34,34,34,,,,,,,,,,,,,,,,,,,,,,,,,,,,,,,,,,,,,,,,,,,,,,,,,,,,,,,,,,,,,,,,,,,,,,,,,2,1.168444100068882,469.19968930003233,None,ScrollUp,정답입니다,469.19968930003233,None,469.19968930003233,None,469.19968930003233,None,469.19968930003233,None,470.26654260000214,None,470.26654260000214,470.76979920000304,,,,,,,,,,,,,,,,126,2022-05-10_17h41.58.680,FishGame,2022.1.1,59.90197639861314,
,36,넌 명랑해,1,Orange,B,5.739130434782609,5.666666666666667,ScrollUp,ScrollDown,Orange.png,3,Positive,Incongruent,,,,,0,0,0,0,,,,,,,,,,,,,,,,,,,,,0,35,35,35,,,,,,,,,,,,,,,,,,,,,,,,,,,,,,,,,,,,,,,,,,,,,,,,,,,,,,,,,,,,,,,,,,,,,,,,,2,1.1248103000689298,471.41864290006924,None,ScrollUp,정답입니다,471.41864290006924,None,471.41864290006924,None,471.41864290006924,None,471.41864290006924,None,472.41977580008097,None,472.41977580008097,472.9199804000091,,,,,,,,,,,,,,,,126,2022-05-10_17h41.58.680,FishGame,2022.1.1,59.90197639861314,
,37,넌 멍해,4,Green,A,2.833333333333333,3.4,ScrollDown,ScrollUp,Green.png,3,Negative,Incongruent,,,,,0,0,0,0,,,,,,,,,,,,,,,,,,,,,0,36,36,36,,,,,,,,,,,,,,,,,,,,,,,,,,,,,,,,,,,,,,,,,,,,,,,,,,,,,,,,,,,,,,,,,,,,,,,,,1,1.1573807999957353,473.55619500007015,None,ScrollDown,정답입니다,473.55619500007015,None,473.55619500007015,None,473.55619500007015,None,473.55619500007015,None,474.60287930001505,None,474.60287930001505,475.1037621999858,,,,,,,,,,,,,,,,126,2022-05-10_17h41.58.680,FishGame,2022.1.1,59.90197639861314,
,38,나를 데려가줘,6,Orange,B,0,0,ScrollDown,ScrollUp,Orange.png,3,NonTarget,NonTarget,,,,,0,0,0,0,,,,,,,,,,,,,,,,,,,,,0,37,37,37,,,,,,,,,,,,,,,,,,,,,,,,,,,,,,,,,,,,,,,,,,,,,,,,,,,,,,,,,,,,,,,,,,,,,,,,,1,1.2135726999258623,475.7351351000834,None,ScrollDown,정답입니다,475.7351351000834,None,475.7351351000834,None,475.7351351000834,None,475.7351351000834,None,476.8408520000521,None,476.8408520000521,477.35347620001994,,,,,,,,,,,,,,,,126,2022-05-10_17h41.58.680,FishGame,2022.1.1,59.90197639861314,
,39,넌 현명해,2,Green,A,6.541666666666666,4.533333333333333,ScrollDown,ScrollUp,Green.png,3,Positive,Congruent,,,,,0,0,0,0,,,,,,,,,,,,,,,,,,,,,0,38,38,38,,,,,,,,,,,,,,,,,,,,,,,,,,,,,,,,,,,,,,,,,,,,,,,,,,,,,,,,,,,,,,,,,,,,,,,,,1,1.1018948999699205,477.98263470001984,None,ScrollDown,정답입니다,477.98263470001984,None,477.98263470001984,None,477.98263470001984,None,477.98263470001984,None,478.9833070000168,None,478.9833070000168,479.4877894000383,,,,,,,,,,,,,,,,126,2022-05-10_17h41.58.680,FishGame,2022.1.1,59.90197639861314,
,40,넌 수줍어,3,Orange,B,3.541666666666666,4.366666666666666,ScrollUp,ScrollDown,Orange.png,3,Neutral,Neutral,,,,,0,0,0,0,,,,,,,,,,,,,,,,,,,,,0,39,39,39,,,,,,,,,,,,,,,,,,,,,,,,,,,,,,,,,,,,,,,,,,,,,,,,,,,,,,,,,,,,,,,,,,,,,,,,,2,1.147645500022918,480.1260179000674,None,ScrollUp,정답입니다,480.1260179000674,None,480.1260179000674,None,480.1260179000674,None,480.1260179000674,None,481.1578472000547,None,481.1578472000547,481.67049170006067,,,,,,,,,,,,,,,,126,2022-05-10_17h41.58.680,FishGame,2022.1.1,59.90197639861314,
,41,나를 데려가줘,6,Orange,B,0,0,ScrollDown,ScrollUp,Orange.png,3,NonTarget,NonTarget,,,,,0,0,0,0,,,,,,,,,,,,,,,,,,,,,0,40,40,40,,,,,,,,,,,,,,,,,,,,,,,,,,,,,,,,,,,,,,,,,,,,,,,,,,,,,,,,,,,,,,,,,,,,,,,,,1,1.2102906999643892,482.30378489999566,None,ScrollDown,정답입니다,482.30378489999566,None,482.30378489999566,None,482.30378489999566,None,482.30378489999566,None,483.4057065000525,None,483.4057065000525,483.9202510000905,,,,,,,,,,,,,,,,126,2022-05-10_17h41.58.680,FishGame,2022.1.1,59.90197639861314,
,42,넌 성숙해,2,Orange,B,5.833333333333333,4.533333333333333,ScrollUp,ScrollDown,Orange.png,3,Positive,Incongruent,,,,,0,0,0,0,,,,,,,,,,,,,,,,,,,,,0,41,41,41,,,,,,,,,,,,,,,,,,,,,,,,,,,,,,,,,,,,,,,,,,,,,,,,,,,,,,,,,,,,,,,,,,,,,,,,,2,1.182697799988091,484.5589901000494,None,ScrollUp,정답입니다,484.5589901000494,None,484.5589901000494,None,484.5589901000494,None,484.5589901000494,None,485.6335298999911,None,485.6335298999911,486.13686870003585,,,,,,,,,,,,,,,,126,2022-05-10_17h41.58.680,FishGame,2022.1.1,59.90197639861314,
,1,넌 매력적이야,2,Orange,B,6.125,4.666666666666667,ScrollUp,ScrollDown,Orange.png,4,Positive,Incongruent,,,,,0,0,0,0,,,,,,,,,,,,,,,,,,,,,,,,,0,0,0,0,,,,,,,,,,,,,,,,,,,,,,,,,,,,519.153940499993,520.6541039000731,520.6876791000832,521.6375257000327,521.6884718000656,522.6380695999833,522.6380695999833,None,,,,,,,,,,,,,,,,,,,,,,,,,,,,,,,,,,2,1.2638635999755934,523.8065878000343,None,ScrollUp,정답입니다,523.8065878000343,None,523.8065878000343,None,523.8065878000343,None,523.8065878000343,None,524.9011250000913,None,524.9011250000913,525.4044850000646,486.6370396000566,None,486.6370396000566,None,0.26481482,-0.11203704,1,0,0,0.016205709893256426,None,516.6372745999834,None,,,126,2022-05-10_17h41.58.680,FishGame,2022.1.1,59.90197639861314,
,2,나를 보내줘,6,Green,A,0,0,ScrollUp,ScrollDown,Green.png,4,NonTarget,NonTarget,,,,,0,0,0,0,,,,,,,,,,,,,,,,,,,,,,,,,0,1,1,1,,,,,,,,,,,,,,,,,,,,,,,,,,,,,,,,,,,,,,,,,,,,,,,,,,,,,,,,,,,,,,,,,,,,,2,1.2491426999913529,526.0349337999942,None,ScrollUp,정답입니다,526.0349337999942,None,526.0349337999942,None,526.0349337999942,None,526.0349337999942,None,527.1754401000217,None,527.1754401000217,527.6880116000539,,,,,,,,,,,,,,,,126,2022-05-10_17h41.58.680,FishGame,2022.1.1,59.90197639861314,
,3,넌 조심스러워,3,Green,A,4.791666666666666,4.666666666666667,ScrollDown,ScrollUp,Green.png,4,Neutral,Neutral,,,,,0,0,0,0,,,,,,,,,,,,,,,,,,,,,,,,,0,2,2,2,,,,,,,,,,,,,,,,,,,,,,,,,,,,,,,,,,,,,,,,,,,,,,,,,,,,,,,,,,,,,,,,,,,,,1,1.0119221999775618,528.3164860000834,None,ScrollDown,정답입니다,528.3164860000834,None,528.3164860000834,None,528.3164860000834,None,528.3164860000834,None,529.2245029000333,None,529.2245029000333,529.7381432000548,,,,,,,,,,,,,,,,126,2022-05-10_17h41.58.680,FishGame,2022.1.1,59.90197639861314,
,4,넌 철학적이야,3,Orange,B,4.5,4.266666666666667,ScrollUp,ScrollDown,Orange.png,4,Neutral,Neutral,,,,,0,0,0,0,,,,,,,,,,,,,,,,,,,,,,,,,0,3,3,3,,,,,,,,,,,,,,,,,,,,,,,,,,,,,,,,,,,,,,,,,,,,,,,,,,,,,,,,,,,,,,,,,,,,,1.9104938358068466,1.115455299965106,530.3806856999872,None,ScrollUp,정답입니다,530.3806856999872,None,530.3806856999872,None,530.3806856999872,None,530.3806856999872,None,531.3769943000516,None,531.3769943000516,531.8884773000609,,,,,,,,,,,,,,,,126,2022-05-10_17h41.58.680,FishGame,2022.1.1,59.90197639861314,
,5,넌 쩨쩨해,5,Green,A,2.375,2.133333333333333,ScrollDown,ScrollUp,Green.png,4,Negative,Incongruent,,,,,0,0,0,0,,,,,,,,,,,,,,,,,,,,,,,,,0,4,4,4,,,,,,,,,,,,,,,,,,,,,,,,,,,,,,,,,,,,,,,,,,,,,,,,,,,,,,,,,,,,,,,,,,,,,1.09413580596447,1.0156714000040665,532.5153917000862,None,ScrollDown,정답입니다,532.5153917000862,None,532.5153917000862,None,532.5153917000862,None,532.5153917000862,None,533.4260960000101,None,533.4260960000101,533.9379366000649,,,,,,,,,,,,,,,,126,2022-05-10_17h41.58.680,FishGame,2022.1.1,59.90197639861314,
,6,나를 데려가줘,6,Orange,B,0,0,ScrollDown,ScrollUp,Orange.png,4,NonTarget,NonTarget,,,,,0,0,0,0,,,,,,,,,,,,,,,,,,,,,,,,,0,5,5,5,,,,,,,,,,,,,,,,,,,,,,,,,,,,,,,,,,,,,,,,,,,,,,,,,,,,,,,,,,,,,,,,,,,,,1,1.2465081999544054,534.5699935000157,None,ScrollDown,정답입니다,534.5699935000157,None,534.5699935000157,None,534.5699935000157,None,534.5699935000157,None,535.709054499981,None,535.709054499981,536.2217616999988,,,,,,,,,,,,,,,,126,2022-05-10_17h41.58.680,FishGame,2022.1.1,59.90197639861314,
,7,넌 고집불통이야,5,Orange,B,2.875,2,ScrollUp,ScrollDown,Orange.png,4,Negative,Congruent,,,,,0,0,0,0,,,,,,,,,,,,,,,,,,,,,,,,,0,6,6,6,,,,,,,,,,,,,,,,,,,,,,,,,,,,,,,,,,,,,,,,,,,,,,,,,,,,,,,,,,,,,,,,,,,,,2,1.3572749000741169,536.8722481000004,None,ScrollUp,정답입니다,536.8722481000004,None,536.8722481000004,None,536.8722481000004,None,536.8722481000004,None,538.1045115999877,None,538.1045115999877,538.6048148000846,,,,,,,,,,,,,,,,126,2022-05-10_17h41.58.680,FishGame,2022.1.1,59.90197639861314,
,8,넌 무심해,4,Green,A,2.875,3.2,ScrollDown,ScrollUp,Green.png,4,Negative,Incongruent,,,,,0,0,0,0,,,,,,,,,,,,,,,,,,,,,,,,,0,7,7,7,,,,,,,,,,,,,,,,,,,,,,,,,,,,,,,,,,,,,,,,,,,,,,,,,,,,,,,,,,,,,,,,,,,,,1.0370370149612427,1.7694903999799863,539.2347900000168,None,ScrollDown,정답입니다,539.2347900000168,None,539.2347900000168,None,539.2347900000168,None,539.2347900000168,None,540.9013509000652,None,540.9013509000652,541.4048433999997,,,,,,,,,,,,,,,,126,2022-05-10_17h41.58.680,FishGame,2022.1.1,59.90197639861314,
,9,넌 정겨워,1,Green,A,5.791666666666667,5.666666666666667,ScrollDown,ScrollUp,Green.png,4,Positive,Congruent,,,,,0,0,0,0,,,,,,,,,,,,,,,,,,,,,,,,,0,8,8,8,,,,,,,,,,,,,,,,,,,,,,,,,,,,,,,,,,,,,,,,,,,,,,,,,,,,,,,,,,,,,,,,,,,,,1,1.1599949999945238,542.0431141000008,None,ScrollDown,정답입니다,542.0431141000008,None,542.0431141000008,None,542.0431141000008,None,542.0431141000008,None,543.0911996000214,None,543.0911996000214,543.604838600033,,,,,,,,,,,,,,,,126,2022-05-10_17h41.58.680,FishGame,2022.1.1,59.90197639861314,
,10,나를 데려가줘,6,Orange,B,0,0,ScrollDown,ScrollUp,Orange.png,4,NonTarget,NonTarget,,,,,0,0,0,0,,,,,,,,,,,,,,,,,,,,,,,,,0,9,9,9,,,,,,,,,,,,,,,,,,,,,,,,,,,,,,,,,,,,,,,,,,,,,,,,,,,,,,,,,,,,,,,,,,,,,1,1.289454000070691,544.2331094000256,None,ScrollDown,정답입니다,544.2331094000256,None,544.2331094000256,None,544.2331094000256,None,544.2331094000256,None,545.4214348000241,None,545.4214348000241,545.9215970999794,,,,,,,,,,,,,,,,126,2022-05-10_17h41.58.680,FishGame,2022.1.1,59.90197639861314,
,11,넌 체제순응적이야,4,Orange,B,3,3.6,ScrollUp,ScrollDown,Orange.png,4,Negative,Congruent,,,,,0,0,0,0,,,,,,,,,,,,,,,,,,,,,,,,,0,10,10,10,,,,,,,,,,,,,,,,,,,,,,,,,,,,,,,,,,,,,,,,,,,,,,,,,,,,,,,,,,,,,,,,,,,,,2,1.296491999994032,546.5762755000032,None,ScrollUp,정답입니다,546.5762755000032,None,546.5762755000032,None,546.5762755000032,None,546.5762755000032,None,547.742652600049,None,547.742652600049,548.2548588000936,,,,,,,,,,,,,,,,126,2022-05-10_17h41.58.680,FishGame,2022.1.1,59.90197639861314,
,12,나를 보내줘,6,Green,A,0,0,ScrollUp,ScrollDown,Green.png,4,NonTarget,NonTarget,,,,,0,0,0,0,,,,,,,,,,,,,,,,,,,,,,,,,0,11,11,11,,,,,,,,,,,,,,,,,,,,,,,,,,,,,,,,,,,,,,,,,,,,,,,,,,,,,,,,,,,,,,,,,,,,,2,1.1940534999594092,548.8914593000663,None,ScrollUp,정답입니다,548.8914593000663,None,548.8914593000663,None,548.8914593000663,None,548.8914593000663,None,549.974157800083,None,549.974157800083,550.4880817000521,,,,,,,,,,,,,,,,126,2022-05-10_17h41.58.680,FishGame,2022.1.1,59.90197639861314,
,13,넌 박식해,2,Green,A,5.625,3.933333333333333,ScrollDown,ScrollUp,Green.png,4,Positive,Congruent,,,,,0,0,0,0,,,,,,,,,,,,,,,,,,,,,,,,,0,12,12,12,,,,,,,,,,,,,,,,,,,,,,,,,,,,,,,,,,,,,,,,,,,,,,,,,,,,,,,,,,,,,,,,,,,,,1,1.2523394000018016,551.1343222000869,None,ScrollDown,정답입니다,551.1343222000869,None,551.1343222000869,None,551.1343222000869,None,551.1343222000869,None,552.2678464000346,None,552.2678464000346,552.7718307999894,,,,,,,,,,,,,,,,126,2022-05-10_17h41.58.680,FishGame,2022.1.1,59.90197639861314,
,14,나를 보내줘,6,Green,A,0,0,ScrollUp,ScrollDown,Green.png,4,NonTarget,NonTarget,,,,,0,0,0,0,,,,,,,,,,,,,,,,,,,,,,,,,0,13,13,13,,,,,,,,,,,,,,,,,,,,,,,,,,,,,,,,,,,,,,,,,,,,,,,,,,,,,,,,,,,,,,,,,,,,,2,1.1639408000046387,553.3958776000654,None,ScrollUp,정답입니다,553.3958776000654,None,553.3958776000654,None,553.3958776000654,None,553.3958776000654,None,554.4599326000316,None,554.4599326000316,554.9716539999936,,,,,,,,,,,,,,,,126,2022-05-10_17h41.58.680,FishGame,2022.1.1,59.90197639861314,
,15,넌 침착해,1,Orange,B,5.458333333333333,5.566666666666666,ScrollUp,ScrollDown,Orange.png,4,Positive,Incongruent,,,,,0,0,0,0,,,,,,,,,,,,,,,,,,,,,,,,,0,14,14,14,,,,,,,,,,,,,,,,,,,,,,,,,,,,,,,,,,,,,,,,,,,,,,,,,,,,,,,,,,,,,,,,,,,,,2,1.267623000079766,555.6151012000628,None,ScrollUp,정답입니다,555.6151012000628,None,555.6151012000628,None,555.6151012000628,None,555.6151012000628,None,556.7683649000246,None,556.7683649000246,557.2714053000091,,,,,,,,,,,,,,,,126,2022-05-10_17h41.58.680,FishGame,2022.1.1,59.90197639861314,
,16,나를 데려가줘,6,Orange,B,0,0,ScrollDown,ScrollUp,Orange.png,4,NonTarget,NonTarget,,,,,0,0,0,0,,,,,,,,,,,,,,,,,,,,,,,,,0,15,15,15,,,,,,,,,,,,,,,,,,,,,,,,,,,,,,,,,,,,,,,,,,,,,,,,,,,,,,,,,,,,,,,,,,,,,1,1.2366106000263244,557.9053224000381,None,ScrollDown,정답입니다,557.9053224000381,None,557.9053224000381,None,557.9053224000381,None,557.9053224000381,None,559.0347672000062,None,559.0347672000062,559.5391725000227,,,,,,,,,,,,,,,,126,2022-05-10_17h41.58.680,FishGame,2022.1.1,59.90197639861314,
,17,넌 행복해,1,Green,A,6.416666666666666,6.166666666666667,ScrollDown,ScrollUp,Green.png,4,Positive,Congruent,,,,,0,0,0,0,,,,,,,,,,,,,,,,,,,,,,,,,0,16,16,16,,,,,,,,,,,,,,,,,,,,,,,,,,,,,,,,,,,,,,,,,,,,,,,,,,,,,,,,,,,,,,,,,,,,,1,1.1522735999897122,560.1741858000169,None,ScrollDown,정답입니다,560.1741858000169,None,560.1741858000169,None,560.1741858000169,None,560.1741858000169,None,561.2179876000155,None,561.2179876000155,561.7219584999839,,,,,,,,,,,,,,,,126,2022-05-10_17h41.58.680,FishGame,2022.1.1,59.90197639861314,
,18,넌 겸손해,2,Orange,B,5.791666666666667,4.766666666666667,ScrollUp,ScrollDown,Orange.png,4,Positive,Incongruent,,,,,0,0,0,0,,,,,,,,,,,,,,,,,,,,,,,,,0,17,17,17,,,,,,,,,,,,,,,,,,,,,,,,,,,,,,,,,,,,,,,,,,,,,,,,,,,,,,,,,,,,,,,,,,,,,2,1.226499699987471,562.3753814999945,None,ScrollUp,정답입니다,562.3753814999945,None,562.3753814999945,None,562.3753814999945,None,562.3753814999945,None,563.4714763000375,None,563.4714763000375,563.9720329000847,,,,,,,,,,,,,,,,126,2022-05-10_17h41.58.680,FishGame,2022.1.1,59.90197639861314,
,19,나를 보내줘,6,Green,A,0,0,ScrollUp,ScrollDown,Green.png,4,NonTarget,NonTarget,,,,,0,0,0,0,,,,,,,,,,,,,,,,,,,,,,,,,0,18,18,18,,,,,,,,,,,,,,,,,,,,,,,,,,,,,,,,,,,,,,,,,,,,,,,,,,,,,,,,,,,,,,,,,,,,,2,1.2688489999854937,564.5986527000787,None,ScrollUp,정답입니다,564.5986527000787,None,564.5986527000787,None,564.5986527000787,None,564.5986527000787,None,565.7685640000273,None,565.7685640000273,566.2721077000024,,,,,,,,,,,,,,,,126,2022-05-10_17h41.58.680,FishGame,2022.1.1,59.90197639861314,
,20,넌 의심없어,3,Green,A,4.166666666666667,4.6,ScrollDown,ScrollUp,Green.png,4,Neutral,Neutral,,,,,0,0,0,0,,,,,,,,,,,,,,,,,,,,,,,,,0,19,19,19,,,,,,,,,,,,,,,,,,,,,,,,,,,,,,,,,,,,,,,,,,,,,,,,,,,,,,,,,,,,,,,,,,,,,1,1.1229419000446796,566.9094869000837,None,ScrollDown,정답입니다,566.9094869000837,None,566.9094869000837,None,566.9094869000837,None,566.9094869000837,None,567.922081500059,None,567.922081500059,568.4220368000679,,,,,,,,,,,,,,,,126,2022-05-10_17h41.58.680,FishGame,2022.1.1,59.90197639861314,
,21,넌 시시해,4,Green,A,2.666666666666667,2.966666666666667,ScrollDown,ScrollUp,Green.png,4,Negative,Incongruent,,,,,0,0,0,0,,,,,,,,,,,,,,,,,,,,,,,,,0,20,20,20,,,,,,,,,,,,,,,,,,,,,,,,,,,,,,,,,,,,,,,,,,,,,,,,,,,,,,,,,,,,,,,,,,,,,1,1.0240338000003248,569.0531270999927,None,ScrollDown,정답입니다,569.0531270999927,None,569.0531270999927,None,569.0531270999927,None,569.0531270999927,None,569.9719719000859,None,569.9719719000859,570.4718700000085,,,,,,,,,,,,,,,,126,2022-05-10_17h41.58.680,FishGame,2022.1.1,59.90197639861314,
,22,나를 데려가줘,6,Orange,B,0,0,ScrollDown,ScrollUp,Orange.png,4,NonTarget,NonTarget,,,,,0,0,0,0,,,,,,,,,,,,,,,,,,,,,,,,,0,21,21,21,,,,,,,,,,,,,,,,,,,,,,,,,,,,,,,,,,,,,,,,,,,,,,,,,,,,,,,,,,,,,,,,,,,,,1,1.2143953000195324,571.1078519000439,None,ScrollDown,정답입니다,571.1078519000439,None,571.1078519000439,None,571.1078519000439,None,571.1078519000439,None,572.2097208000487,None,572.2097208000487,572.7226713000564,,,,,,,,,,,,,,,,126,2022-05-10_17h41.58.680,FishGame,2022.1.1,59.90197639861314,
,23,넌 무정해,5,Green,A,2.5,2.2,ScrollDown,ScrollUp,Green.png,4,Negative,Incongruent,,,,,0,0,0,0,,,,,,,,,,,,,,,,,,,,,,,,,0,22,22,22,,,,,,,,,,,,,,,,,,,,,,,,,,,,,,,,,,,,,,,,,,,,,,,,,,,,,,,,,,,,,,,,,,,,,1,1.139787400024943,573.3571577999974,None,ScrollDown,정답입니다,573.3571577999974,None,573.3571577999974,None,573.3571577999974,None,573.3571577999974,None,574.3888807999901,None,574.3888807999901,574.8887627000222,,,,,,,,,,,,,,,,126,2022-05-10_17h41.58.680,FishGame,2022.1.1,59.90197639861314,
,24,넌 긍정적이야,1,Orange,B,6.041666666666667,6.066666666666666,ScrollUp,ScrollDown,Orange.png,4,Positive,Incongruent,,,,,0,0,0,0,,,,,,,,,,,,,,,,,,,,,,,,,0,23,23,23,,,,,,,,,,,,,,,,,,,,,,,,,,,,,,,,,,,,,,,,,,,,,,,,,,,,,,,,,,,,,,,,,,,,,2,1.2530312000308186,575.5296847000718,None,ScrollUp,정답입니다,575.5296847000718,None,575.5296847000718,None,575.5296847000718,None,575.5296847000718,None,576.6686577000655,None,576.6686577000655,577.1723476999905,,,,,,,,,,,,,,,,126,2022-05-10_17h41.58.680,FishGame,2022.1.1,59.90197639861314,
,25,나를 보내줘,6,Green,A,0,0,ScrollUp,ScrollDown,Green.png,4,NonTarget,NonTarget,,,,,0,0,0,0,,,,,,,,,,,,,,,,,,,,,,,,,0,24,24,24,,,,,,,,,,,,,,,,,,,,,,,,,,,,,,,,,,,,,,,,,,,,,,,,,,,,,,,,,,,,,,,,,,,,,2,1.1423721000319347,577.8017489000922,None,ScrollUp,정답입니다,577.8017489000922,None,577.8017489000922,None,577.8017489000922,None,577.8017489000922,None,578.8388047000626,None,578.8388047000626,579.3390684000915,,,,,,,,,,,,,,,,126,2022-05-10_17h41.58.680,FishGame,2022.1.1,59.90197639861314,
,26,넌 시기심이 많아,5,Orange,B,2.458333333333333,2.233333333333333,ScrollUp,ScrollDown,Orange.png,4,Negative,Congruent,,,,,0,0,0,0,,,,,,,,,,,,,,,,,,,,,,,,,0,25,25,25,,,,,,,,,,,,,,,,,,,,,,,,,,,,,,,,,,,,,,,,,,,,,,,,,,,,,,,,,,,,,,,,,,,,,2,1.0995186000363901,579.9881936000893,None,ScrollUp,정답입니다,579.9881936000893,None,579.9881936000893,None,579.9881936000893,None,579.9881936000893,None,580.9688929000404,None,580.9688929000404,581.472197700059,,,,,,,,,,,,,,,,126,2022-05-10_17h41.58.680,FishGame,2022.1.1,59.90197639861314,
,27,넌 탁월해,2,Green,A,5.708333333333334,4.5,ScrollDown,ScrollUp,Green.png,4,Positive,Congruent,,,,,0,0,0,0,,,,,,,,,,,,,,,,,,,,,,,,,0,26,26,26,,,,,,,,,,,,,,,,,,,,,,,,,,,,,,,,,,,,,,,,,,,,,,,,,,,,,,,,,,,,,,,,,,,,,1,0.9796513000037521,582.1051805000752,None,ScrollDown,정답입니다,582.1051805000752,None,582.1051805000752,None,582.1051805000752,None,582.1051805000752,None,582.9777147000423,None,582.9777147000423,583.4890902000479,,,,,,,,,,,,,,,,126,2022-05-10_17h41.58.680,FishGame,2022.1.1,59.90197639861314,
,28,나를 데려가줘,6,Orange,B,0,0,ScrollDown,ScrollUp,Orange.png,4,NonTarget,NonTarget,,,,,0,0,0,0,,,,,,,,,,,,,,,,,,,,,,,,,0,27,27,27,,,,,,,,,,,,,,,,,,,,,,,,,,,,,,,,,,,,,,,,,,,,,,,,,,,,,,,,,,,,,,,,,,,,,1,1.1950645999750122,584.1314703000244,None,ScrollDown,정답입니다,584.1314703000244,None,584.1314703000244,None,584.1314703000244,None,584.1314703000244,None,585.2112079000799,None,585.2112079000799,585.7224359000102,,,,,,,,,,,,,,,,126,2022-05-10_17h41.58.680,FishGame,2022.1.1,59.90197639861314,
,29,넌 조용해,3,Orange,B,4.333333333333333,4.166666666666667,ScrollUp,ScrollDown,Orange.png,4,Neutral,Neutral,,,,,0,0,0,0,,,,,,,,,,,,,,,,,,,,,,,,,0,28,28,28,,,,,,,,,,,,,,,,,,,,,,,,,,,,,,,,,,,,,,,,,,,,,,,,,,,,,,,,,,,,,,,,,,,,,2,1.2019515000283718,586.3638338000746,None,ScrollUp,정답입니다,586.3638338000746,None,586.3638338000746,None,586.3638338000746,None,586.3638338000746,None,587.4525305000134,None,587.4525305000134,587.9557964000851,,,,,,,,,,,,,,,,126,2022-05-10_17h41.58.680,FishGame,2022.1.1,59.90197639861314,
,30,넌 다정해,1,Green,A,5.833333333333334,5.7,ScrollDown,ScrollUp,Green.png,4,Positive,Congruent,,,,,0,0,0,0,,,,,,,,,,,,,,,,,,,,,,,,,0,29,29,29,,,,,,,,,,,,,,,,,,,,,,,,,,,,,,,,,,,,,,,,,,,,,,,,,,,,,,,,,,,,,,,,,,,,,1,1.0360405000392348,588.5857645000797,None,ScrollDown,정답입니다,588.5857645000797,None,588.5857645000797,None,588.5857645000797,None,588.5857645000797,None,589.5189360000659,None,589.5189360000659,590.0225612000795,,,,,,,,,,,,,,,,126,2022-05-10_17h41.58.680,FishGame,2022.1.1,59.90197639861314,
,31,넌 능력있어,2,Orange,B,6.166666666666666,4.6,ScrollUp,ScrollDown,Orange.png,4,Positive,Incongruent,,,,,0,0,0,0,,,,,,,,,,,,,,,,,,,,,,,,,0,30,30,30,,,,,,,,,,,,,,,,,,,,,,,,,,,,,,,,,,,,,,,,,,,,,,,,,,,,,,,,,,,,,,,,,,,,,2,1.3538081999868155,590.6595401000232,None,ScrollUp,정답입니다,590.6595401000232,None,590.6595401000232,None,590.6595401000232,None,590.6595401000232,None,591.9023800999857,None,591.9023800999857,592.4058891000459,,,,,,,,,,,,,,,,126,2022-05-10_17h41.58.680,FishGame,2022.1.1,59.90197639861314,
,32,넌 불쾌해,5,Green,A,2.125,1.933333333333333,ScrollDown,ScrollUp,Green.png,4,Negative,Incongruent,,,,,0,0,0,0,,,,,,,,,,,,,,,,,,,,,,,,,0,31,31,31,,,,,,,,,,,,,,,,,,,,,,,,,,,,,,,,,,,,,,,,,,,,,,,,,,,,,,,,,,,,,,,,,,,,,1,1.033319600042887,593.0324949000496,None,ScrollDown,정답입니다,593.0324949000496,None,593.0324949000496,None,593.0324949000496,None,593.0324949000496,None,593.9603458000347,None,593.9603458000347,594.4724922000896,,,,,,,,,,,,,,,,126,2022-05-10_17h41.58.680,FishGame,2022.1.1,59.90197639861314,
,33,나를 데려가줘,6,Orange,B,0,0,ScrollDown,ScrollUp,Orange.png,4,NonTarget,NonTarget,,,,,0,0,0,0,,,,,,,,,,,,,,,,,,,,,,,,,0,32,32,32,,,,,,,,,,,,,,,,,,,,,,,,,,,,,,,,,,,,,,,,,,,,,,,,,,,,,,,,,,,,,,,,,,,,,1,1.2832928999559954,595.1046716000419,None,ScrollDown,정답입니다,595.1046716000419,None,595.1046716000419,None,595.1046716000419,None,595.1046716000419,None,596.2765772000421,None,596.2765772000421,596.7888455000939,,,,,,,,,,,,,,,,126,2022-05-10_17h41.58.680,FishGame,2022.1.1,59.90197639861314,
,34,넌 유순해,3,Green,A,4.458333333333333,5,ScrollDown,ScrollUp,Green.png,4,Neutral,Neutral,,,,,0,0,0,0,,,,,,,,,,,,,,,,,,,,,,,,,0,33,33,33,,,,,,,,,,,,,,,,,,,,,,,,,,,,,,,,,,,,,,,,,,,,,,,,,,,,,,,,,,,,,,,,,,,,,1,1.1226163000101224,597.424737000023,None,ScrollDown,정답입니다,597.424737000023,None,597.424737000023,None,597.424737000023,None,597.424737000023,None,598.4393498999998,None,598.4393498999998,598.9398318000603,,,,,,,,,,,,,,,,126,2022-05-10_17h41.58.680,FishGame,2022.1.1,59.90197639861314,
,35,넌 근심스러워,4,Orange,B,2.708333333333333,3.133333333333333,ScrollUp,ScrollDown,Orange.png,4,Negative,Congruent,,,,,0,0,0,0,,,,,,,,,,,,,,,,,,,,,,,,,0,34,34,34,,,,,,,,,,,,,,,,,,,,,,,,,,,,,,,,,,,,,,,,,,,,,,,,,,,,,,,,,,,,,,,,,,,,,2,1.1479196000145748,599.582873800071,None,ScrollUp,정답입니다,599.582873800071,None,599.582873800071,None,599.582873800071,None,599.582873800071,None,600.6105981000001,None,600.6105981000001,601.1230202000588,,,,,,,,,,,,,,,,126,2022-05-10_17h41.58.680,FishGame,2022.1.1,59.90197639861314,
,36,넌 세련되었어,2,Green,A,5.5,4.6,ScrollDown,ScrollUp,Green.png,4,Positive,Congruent,,,,,0,0,0,0,,,,,,,,,,,,,,,,,,,,,,,,,0,35,35,35,,,,,,,,,,,,,,,,,,,,,,,,,,,,,,,,,,,,,,,,,,,,,,,,,,,,,,,,,,,,,,,,,,,,,1,0.9975964999757707,601.7747822999954,None,ScrollDown,정답입니다,601.7747822999954,None,601.7747822999954,None,601.7747822999954,None,601.7747822999954,None,602.6439370000735,None,602.6439370000735,603.156495800009,,,,,,,,,,,,,,,,126,2022-05-10_17h41.58.680,FishGame,2022.1.1,59.90197639861314,
,37,나를 보내줘,6,Green,A,0,0,ScrollUp,ScrollDown,Green.png,4,NonTarget,NonTarget,,,,,0,0,0,0,,,,,,,,,,,,,,,,,,,,,,,,,0,36,36,36,,,,,,,,,,,,,,,,,,,,,,,,,,,,,,,,,,,,,,,,,,,,,,,,,,,,,,,,,,,,,,,,,,,,,2,1.234472000040114,603.7809201000491,None,ScrollUp,정답입니다,603.7809201000491,None,603.7809201000491,None,603.7809201000491,None,603.7809201000491,None,604.9192905999953,None,604.9192905999953,605.4224720000057,,,,,,,,,,,,,,,,126,2022-05-10_17h41.58.680,FishGame,2022.1.1,59.90197639861314,
,38,넌 확고해,3,Orange,B,4.708333333333334,4.566666666666666,ScrollUp,ScrollDown,Orange.png,4,Neutral,Neutral,,,,,0,0,0,0,,,,,,,,,,,,,,,,,,,,,,,,,0,37,37,37,,,,,,,,,,,,,,,,,,,,,,,,,,,,,,,,,,,,,,,,,,,,,,,,,,,,,,,,,,,,,,,,,,,,,2,1.1837883999105543,606.059418000048,None,ScrollUp,정답입니다,606.059418000048,None,606.059418000048,None,606.059418000048,None,606.059418000048,None,607.1359462999972,None,607.1359462999972,607.6396229000529,,,,,,,,,,,,,,,,126,2022-05-10_17h41.58.680,FishGame,2022.1.1,59.90197639861314,
,39,넌 이해심이 많아,1,Orange,B,6.041666666666668,5.533333333333333,ScrollUp,ScrollDown,Orange.png,4,Positive,Incongruent,,,,,0,0,0,0,,,,,,,,,,,,,,,,,,,,,,,,,0,38,38,38,,,,,,,,,,,,,,,,,,,,,,,,,,,,,,,,,,,,,,,,,,,,,,,,,,,,,,,,,,,,,,,,,,,,,2,1.165399800054729,608.2838893000735,None,ScrollUp,정답입니다,608.2838893000735,None,608.2838893000735,None,608.2838893000735,None,608.2838893000735,None,609.3271814000327,None,609.3271814000327,609.8402441000799,,,,,,,,,,,,,,,,126,2022-05-10_17h41.58.680,FishGame,2022.1.1,59.90197639861314,
,40,나를 보내줘,6,Green,A,0,0,ScrollUp,ScrollDown,Green.png,4,NonTarget,NonTarget,,,,,0,0,0,0,,,,,,,,,,,,,,,,,,,,,,,,,0,39,39,39,,,,,,,,,,,,,,,,,,,,,,,,,,,,,,,,,,,,,,,,,,,,,,,,,,,,,,,,,,,,,,,,,,,,,2,1.1680075000040233,610.4818143000593,None,ScrollUp,정답입니다,610.4818143000593,None,610.4818143000593,None,610.4818143000593,None,610.4818143000593,None,611.5362820000155,None,611.5362820000155,612.0402572000166,,,,,,,,,,,,,,,,126,2022-05-10_17h41.58.680,FishGame,2022.1.1,59.90197639861314,
,41,넌 거칠어,4,Green,A,2.625,3.033333333333333,ScrollDown,ScrollUp,Green.png,4,Negative,Incongruent,,,,,0,0,0,0,,,,,,,,,,,,,,,,,,,,,,,,,0,40,40,40,,,,,,,,,,,,,,,,,,,,,,,,,,,,,,,,,,,,,,,,,,,,,,,,,,,,,,,,,,,,,,,,,,,,,1,1.0894312999444082,612.6746607000241,None,ScrollDown,정답입니다,612.6746607000241,None,612.6746607000241,None,612.6746607000241,None,612.6746607000241,None,613.6560337999836,None,613.6560337999836,614.1566640000092,,,,,,,,,,,,,,,,126,2022-05-10_17h41.58.680,FishGame,2022.1.1,59.90197639861314,
,42,넌 변덕맞아,5,Orange,B,2.75,2.166666666666667,ScrollUp,ScrollDown,Orange.png,4,Negative,Congruent,,,,,0,0,0,0,,,,,,,,,,,,,,,,,,,,,,,,,0,41,41,41,,,,,,,,,,,,,,,,,,,,,,,,,,,,,,,,,,,,,,,,,,,,,,,,,,,,,,,,,,,,,,,,,,,,,1.8132716069618862,1.0387920999201015,614.8021314999787,None,ScrollUp,정답입니다,614.8021314999787,None,614.8021314999787,None,614.8021314999787,None,614.8021314999787,None,615.7195349000394,None,615.7195349000394,616.2229271000251,,,,,,,,,,,,,,,,126,2022-05-10_17h41.58.680,FishGame,2022.1.1,59.90197639861314,
,43,나를 데려가줘,6,Orange,B,0,0,ScrollDown,ScrollUp,Orange.png,4,NonTarget,NonTarget,,,,,0,0,0,0,,,,,,,,,,,,,,,,,,,,,,,,,0,42,42,42,,,,,,,,,,,,,,,,,,,,,,,,,,,,,,,,,,,,,,,,,,,,,,,,,,,,,,,,,,,,,,,,,,,,,1,1.1026788000017405,616.8557858000277,None,ScrollDown,정답입니다,616.8557858000277,None,616.8557858000277,None,616.8557858000277,None,616.8557858000277,None,617.8527624000562,None,617.8527624000562,618.3561953000026,,,,,,,,,,,,,,,,126,2022-05-10_17h41.58.680,FishGame,2022.1.1,59.90197639861314,
,44,넌 외로워,4,Orange,B,2.833333333333333,3.3,ScrollUp,ScrollDown,Orange.png,4,Negative,Congruent,,,,,0,0,0,0,,,,,,,,,,,,,,,,,,,,,,,,,0,43,43,43,,,,,,,,,,,,,,,,,,,,,,,,,,,,,,,,,,,,,,,,,,,,,,,,,,,,,,,,,,,,,,,,,,,,,2,1.154873999999836,618.9936395999976,None,ScrollUp,정답입니다,618.9936395999976,None,618.9936395999976,None,618.9936395999976,None,618.9936395999976,None,620.0365684999852,None,620.0365684999852,620.5397960999981,,,,,,,,,,,,,,,,126,2022-05-10_17h41.58.680,FishGame,2022.1.1,59.90197639861314,
,1,넌 불평스러워,5,Green,A,2.25,2.066666666666667,ScrollDown,ScrollUp,Green.png,5,Negative,Incongruent,,,,,0,0,0,0,,,,,,,,,,,,,,,,,,,,,,,,,,,,,0,0,0,0,,,,,,,,,,,,,,,,,,,,,,,,653.3570787000936,654.8578595999861,654.8908830999862,655.8410202000523,655.890793300001,656.8408618000103,656.8408618000103,None,,,,,,,,,,,,,,,,,,,,,,,,,,,,,,,,,,1,1.0829957000678405,658.0455624000169,None,ScrollDown,정답입니다,658.0455624000169,None,658.0455624000169,None,658.0455624000169,None,658.0455624000169,None,658.9739218000323,None,658.9739218000323,659.4740867000073,621.040273200022,None,621.040273200022,None,0.25277779,-0.12037037,1,0,0,0.01620940992143005,None,651.0409181000432,None,,,126,2022-05-10_17h41.58.680,FishGame,2022.1.1,59.90197639861314,
,2,나를 보내줘,6,Green,A,0,0,ScrollUp,ScrollDown,Green.png,5,NonTarget,NonTarget,,,,,0,0,0,0,,,,,,,,,,,,,,,,,,,,,,,,,,,,,0,1,1,1,,,,,,,,,,,,,,,,,,,,,,,,,,,,,,,,,,,,,,,,,,,,,,,,,,,,,,,,,,,,,,,,,2,1.1580118000274524,660.0983985000057,None,ScrollUp,정답입니다,660.0983985000057,None,660.0983985000057,None,660.0983985000057,None,660.0983985000057,None,661.1570770000108,None,661.1570770000108,661.657277100021,,,,,,,,,,,,,,,,126,2022-05-10_17h41.58.680,FishGame,2022.1.1,59.90197639861314,
,3,넌 다재다능해,2,Orange,B,6.208333333333333,4.5,ScrollUp,ScrollDown,Orange.png,5,Positive,Incongruent,,,,,0,0,0,0,,,,,,,,,,,,,,,,,,,,,,,,,,,,,0,2,2,2,,,,,,,,,,,,,,,,,,,,,,,,,,,,,,,,,,,,,,,,,,,,,,,,,,,,,,,,,,,,,,,,,2,1.6128040999174118,662.2955701000756,None,ScrollUp,정답입니다,662.2955701000756,None,662.2955701000756,None,662.2955701000756,None,662.2955701000756,None,663.7951841000468,None,663.7951841000468,664.3071586000733,,,,,,,,,,,,,,,,126,2022-05-10_17h41.58.680,FishGame,2022.1.1,59.90197639861314,
,4,넌 과감해,3,Green,A,4.833333333333334,4.6,ScrollDown,ScrollUp,Green.png,5,Neutral,Neutral,,,,,0,0,0,0,,,,,,,,,,,,,,,,,,,,,,,,,,,,,0,3,3,3,,,,,,,,,,,,,,,,,,,,,,,,,,,,,,,,,,,,,,,,,,,,,,,,,,,,,,,,,,,,,,,,,1,1.2075801000464708,664.9403374000685,None,ScrollDown,정답입니다,664.9403374000685,None,664.9403374000685,None,664.9403374000685,None,664.9403374000685,None,666.0405551000731,None,666.0405551000731,666.5409115999937,,,,,,,,,,,,,,,,126,2022-05-10_17h41.58.680,FishGame,2022.1.1,59.90197639861314,
,5,넌 고분고분해,3,Orange,B,3.75,4.033333333333333,ScrollUp,ScrollDown,Orange.png,5,Neutral,Neutral,,,,,0,0,0,0,,,,,,,,,,,,,,,,,,,,,,,,,,,,,0,4,4,4,,,,,,,,,,,,,,,,,,,,,,,,,,,,,,,,,,,,,,,,,,,,,,,,,,,,,,,,,,,,,,,,,2,1.4336334000108764,667.1795709000435,None,ScrollUp,정답입니다,667.1795709000435,None,667.1795709000435,None,667.1795709000435,None,667.1795709000435,None,668.5041594000068,None,668.5041594000068,669.0076259000925,,,,,,,,,,,,,,,,126,2022-05-10_17h41.58.680,FishGame,2022.1.1,59.90197639861314,
,6,나를 보내줘,6,Green,A,0,0,ScrollUp,ScrollDown,Green.png,5,NonTarget,NonTarget,,,,,0,0,0,0,,,,,,,,,,,,,,,,,,,,,,,,,,,,,0,5,5,5,,,,,,,,,,,,,,,,,,,,,,,,,,,,,,,,,,,,,,,,,,,,,,,,,,,,,,,,,,,,,,,,,2,1.2815847999881953,669.6418293000897,None,ScrollUp,정답입니다,669.6418293000897,None,669.6418293000897,None,669.6418293000897,None,669.6418293000897,None,670.8119255000493,None,670.8119255000493,671.324286499992,,,,,,,,,,,,,,,,126,2022-05-10_17h41.58.680,FishGame,2022.1.1,59.90197639861314,
,7,넌 잘 잊어,4,Green,A,3,3.7,ScrollDown,ScrollUp,Green.png,5,Negative,Incongruent,,,,,0,0,0,0,,,,,,,,,,,,,,,,,,,,,,,,,,,,,0,6,6,6,,,,,,,,,,,,,,,,,,,,,,,,,,,,,,,,,,,,,,,,,,,,,,,,,,,,,,,,,,,,,,,,,1,1.5738740999950096,671.9647089000791,None,ScrollDown,정답입니다,671.9647089000791,None,671.9647089000791,None,671.9647089000791,None,671.9647089000791,None,673.4240194000304,None,673.4240194000304,673.9241662999848,,,,,,,,,,,,,,,,126,2022-05-10_17h41.58.680,FishGame,2022.1.1,59.90197639861314,
,8,넌 탐구심이없어,4,Orange,B,2.833333333333333,3.066666666666667,ScrollUp,ScrollDown,Orange.png,5,Negative,Congruent,,,,,0,0,0,0,,,,,,,,,,,,,,,,,,,,,,,,,,,,,0,7,7,7,,,,,,,,,,,,,,,,,,,,,,,,,,,,,,,,,,,,,,,,,,,,,,,,,,,,,,,,,,,,,,,,,2,1.0945897999918088,674.565093100071,None,ScrollUp,정답입니다,674.565093100071,None,674.565093100071,None,674.565093100071,None,674.565093100071,None,675.541085200035,None,675.541085200035,676.0407844000729,,,,,,,,,,,,,,,,126,2022-05-10_17h41.58.680,FishGame,2022.1.1,59.90197639861314,
,9,나를 데려가줘,6,Orange,B,0,0,ScrollDown,ScrollUp,Orange.png,5,NonTarget,NonTarget,,,,,0,0,0,0,,,,,,,,,,,,,,,,,,,,,,,,,,,,,0,8,8,8,,,,,,,,,,,,,,,,,,,,,,,,,,,,,,,,,,,,,,,,,,,,,,,,,,,,,,,,,,,,,,,,,1.0123456915219624,1.2401546000037342,676.678869000054,None,ScrollDown,정답입니다,676.678869000054,None,676.678869000054,None,676.678869000054,None,676.678869000054,None,677.807768000057,None,677.807768000057,678.3079428999918,,,,,,,,,,,,,,,,126,2022-05-10_17h41.58.680,FishGame,2022.1.1,59.90197639861314,
,10,넌 참되어,2,Green,A,6.041666666666664,4.733333333333333,ScrollDown,ScrollUp,Green.png,5,Positive,Congruent,,,,,0,0,0,0,,,,,,,,,,,,,,,,,,,,,,,,,,,,,0,9,9,9,,,,,,,,,,,,,,,,,,,,,,,,,,,,,,,,,,,,,,,,,,,,,,,,,,,,,,,,,,,,,,,,,1,1.2480168000329286,678.9449610000011,None,ScrollDown,정답입니다,678.9449610000011,None,678.9449610000011,None,678.9449610000011,None,678.9449610000011,None,680.078881100053,None,680.078881100053,680.5909370000008,,,,,,,,,,,,,,,,126,2022-05-10_17h41.58.680,FishGame,2022.1.1,59.90197639861314,
,11,넌 생기있어,1,Orange,B,5.875,5.633333333333334,ScrollUp,ScrollDown,Orange.png,5,Positive,Incongruent,,,,,0,0,0,0,,,,,,,,,,,,,,,,,,,,,,,,,,,,,0,10,10,10,,,,,,,,,,,,,,,,,,,,,,,,,,,,,,,,,,,,,,,,,,,,,,,,,,,,,,,,,,,,,,,,,2,1.2672055000439286,681.2355749000562,None,ScrollUp,정답입니다,681.2355749000562,None,681.2355749000562,None,681.2355749000562,None,681.2355749000562,None,682.3879315999802,None,682.3879315999802,682.8910581000382,,,,,,,,,,,,,,,,126,2022-05-10_17h41.58.680,FishGame,2022.1.1,59.90197639861314,
,12,넌 비사교적이야,4,Orange,B,2.875,2.9,ScrollUp,ScrollDown,Orange.png,5,Negative,Congruent,,,,,0,0,0,0,,,,,,,,,,,,,,,,,,,,,,,,,,,,,0,11,11,11,,,,,,,,,,,,,,,,,,,,,,,,,,,,,,,,,,,,,,,,,,,,,,,,,,,,,,,,,,,,,,,,,2,1.473387600039132,683.5275091000367,None,ScrollUp,정답입니다,683.5275091000367,None,683.5275091000367,None,683.5275091000367,None,683.5275091000367,None,684.8912130000535,None,684.8912130000535,685.3913375000702,,,,,,,,,,,,,,,,126,2022-05-10_17h41.58.680,FishGame,2022.1.1,59.90197639861314,
,13,나를 데려가줘,6,Orange,B,0,0,ScrollDown,ScrollUp,Orange.png,5,NonTarget,NonTarget,,,,,0,0,0,0,,,,,,,,,,,,,,,,,,,,,,,,,,,,,0,12,12,12,,,,,,,,,,,,,,,,,,,,,,,,,,,,,,,,,,,,,,,,,,,,,,,,,,,,,,,,,,,,,,,,,1,1.09802989999298,686.0234981999965,None,ScrollDown,정답입니다,686.0234981999965,None,686.0234981999965,None,686.0234981999965,None,686.0234981999965,None,687.0128805000568,None,687.0128805000568,687.5246104000835,,,,,,,,,,,,,,,,126,2022-05-10_17h41.58.680,FishGame,2022.1.1,59.90197639861314,
,14,넌 고독해,4,Green,A,2.916666666666667,3.233333333333333,ScrollDown,ScrollUp,Green.png,5,Negative,Incongruent,,,,,0,0,0,0,,,,,,,,,,,,,,,,,,,,,,,,,,,,,0,13,13,13,,,,,,,,,,,,,,,,,,,,,,,,,,,,,,,,,,,,,,,,,,,,,,,,,,,,,,,,,,,,,,,,,1,1.2661557999672368,688.1541364000877,None,ScrollDown,정답입니다,688.1541364000877,None,688.1541364000877,None,688.1541364000877,None,688.1541364000877,None,689.3124678999884,None,689.3124678999884,689.8248523999937,,,,,,,,,,,,,,,,126,2022-05-10_17h41.58.680,FishGame,2022.1.1,59.90197639861314,
,15,넌 신경질적이야,5,Orange,B,2.375,2.233333333333333,ScrollUp,ScrollDown,Orange.png,5,Negative,Congruent,,,,,0,0,0,0,,,,,,,,,,,,,,,,,,,,,,,,,,,,,0,14,14,14,,,,,,,,,,,,,,,,,,,,,,,,,,,,,,,,,,,,,,,,,,,,,,,,,,,,,,,,,,,,,,,,,1.9120370248953502,1.2486943999538198,690.4674345999956,None,ScrollUp,정답입니다,690.4674345999956,None,690.4674345999956,None,690.4674345999956,None,690.4674345999956,None,691.5955910000484,None,691.5955910000484,692.1079705000157,,,,,,,,,,,,,,,,126,2022-05-10_17h41.58.680,FishGame,2022.1.1,59.90197639861314,
,16,넌 똑똑해,2,Orange,B,5.666666666666667,3.966666666666667,ScrollUp,ScrollDown,Orange.png,5,Positive,Incongruent,,,,,0,0,0,0,,,,,,,,,,,,,,,,,,,,,,,,,,,,,0,15,15,15,,,,,,,,,,,,,,,,,,,,,,,,,,,,,,,,,,,,,,,,,,,,,,,,,,,,,,,,,,,,,,,,,2,1.3706334000453353,692.7447156000417,None,ScrollUp,정답입니다,692.7447156000417,None,692.7447156000417,None,692.7447156000417,None,692.7447156000417,None,694.0044223000295,None,694.0044223000295,694.5080737000098,,,,,,,,,,,,,,,,126,2022-05-10_17h41.58.680,FishGame,2022.1.1,59.90197639861314,
,17,나를 보내줘,6,Green,A,0,0,ScrollUp,ScrollDown,Green.png,5,NonTarget,NonTarget,,,,,0,0,0,0,,,,,,,,,,,,,,,,,,,,,,,,,,,,,0,16,16,16,,,,,,,,,,,,,,,,,,,,,,,,,,,,,,,,,,,,,,,,,,,,,,,,,,,,,,,,,,,,,,,,,2,1.2606392999878153,695.1371934000636,None,ScrollUp,정답입니다,695.1371934000636,None,695.1371934000636,None,695.1371934000636,None,695.1371934000636,None,696.2915831999853,None,696.2915831999853,696.7918330000248,,,,,,,,,,,,,,,,126,2022-05-10_17h41.58.680,FishGame,2022.1.1,59.90197639861314,
,18,넌 협조적이야,1,Green,A,5.625,5.666666666666667,ScrollDown,ScrollUp,Green.png,5,Positive,Congruent,,,,,0,0,0,0,,,,,,,,,,,,,,,,,,,,,,,,,,,,,0,17,17,17,,,,,,,,,,,,,,,,,,,,,,,,,,,,,,,,,,,,,,,,,,,,,,,,,,,,,,,,,,,,,,,,,1,1.0992721000220627,697.4257480000379,None,ScrollDown,정답입니다,697.4257480000379,None,697.4257480000379,None,697.4257480000379,None,697.4257480000379,None,698.4126624000492,None,698.4126624000492,698.9245287000667,,,,,,,,,,,,,,,,126,2022-05-10_17h41.58.680,FishGame,2022.1.1,59.90197639861314,
,19,나를 데려가줘,6,Orange,B,0,0,ScrollDown,ScrollUp,Orange.png,5,NonTarget,NonTarget,,,,,0,0,0,0,,,,,,,,,,,,,,,,,,,,,,,,,,,,,0,18,18,18,,,,,,,,,,,,,,,,,,,,,,,,,,,,,,,,,,,,,,,,,,,,,,,,,,,,,,,,,,,,,,,,,1,1.188155300100334,699.5612946000183,None,ScrollDown,정답입니다,699.5612946000183,None,699.5612946000183,None,699.5612946000183,None,699.5612946000183,None,700.635426199995,None,700.635426199995,701.141895800014,,,,,,,,,,,,,,,,126,2022-05-10_17h41.58.680,FishGame,2022.1.1,59.90197639861314,
,20,넌 몰인정해,5,Orange,B,2.541666666666667,2.066666666666667,ScrollUp,ScrollDown,Orange.png,5,Negative,Congruent,,,,,0,0,0,0,,,,,,,,,,,,,,,,,,,,,,,,,,,,,0,19,19,19,,,,,,,,,,,,,,,,,,,,,,,,,,,,,,,,,,,,,,,,,,,,,,,,,,,,,,,,,,,,,,,,,2,1.2013092000270262,701.7839994999813,None,ScrollUp,정답입니다,701.7839994999813,None,701.7839994999813,None,701.7839994999813,None,701.7839994999813,None,702.871345099993,None,702.871345099993,703.3750346000306,,,,,,,,,,,,,,,,126,2022-05-10_17h41.58.680,FishGame,2022.1.1,59.90197639861314,
,21,나를 데려가줘,6,Orange,B,0,0,ScrollDown,ScrollUp,Orange.png,5,NonTarget,NonTarget,,,,,0,0,0,0,,,,,,,,,,,,,,,,,,,,,,,,,,,,,0,20,20,20,,,,,,,,,,,,,,,,,,,,,,,,,,,,,,,,,,,,,,,,,,,,,,,,,,,,,,,,,,,,,,,,,1,1.213689099997282,704.0137806000421,None,ScrollDown,정답입니다,704.0137806000421,None,704.0137806000421,None,704.0137806000421,None,704.0137806000421,None,705.1129125000443,None,705.1129125000443,705.6252097000834,,,,,,,,,,,,,,,,126,2022-05-10_17h41.58.680,FishGame,2022.1.1,59.90197639861314,
,22,넌 순진해,3,Orange,B,4.125,4.166666666666667,ScrollUp,ScrollDown,Orange.png,5,Neutral,Neutral,,,,,0,0,0,0,,,,,,,,,,,,,,,,,,,,,,,,,,,,,0,21,21,21,,,,,,,,,,,,,,,,,,,,,,,,,,,,,,,,,,,,,,,,,,,,,,,,,,,,,,,,,,,,,,,,,2,1.5119277000194415,706.255869399989,None,ScrollUp,정답입니다,706.255869399989,None,706.255869399989,None,706.255869399989,None,706.255869399989,None,707.6625217000255,None,707.6625217000255,708.1749458999839,,,,,,,,,,,,,,,,126,2022-05-10_17h41.58.680,FishGame,2022.1.1,59.90197639861314,
,23,넌 신뢰할만해,1,Green,A,6.625,5.533333333333333,ScrollDown,ScrollUp,Green.png,5,Positive,Congruent,,,,,0,0,0,0,,,,,,,,,,,,,,,,,,,,,,,,,,,,,0,22,22,22,,,,,,,,,,,,,,,,,,,,,,,,,,,,,,,,,,,,,,,,,,,,,,,,,,,,,,,,,,,,,,,,,1,1.1534527000039816,708.8167269000551,None,ScrollDown,정답입니다,708.8167269000551,None,708.8167269000551,None,708.8167269000551,None,708.8167269000551,None,709.8550561000593,None,709.8550561000593,710.3589734000852,,,,,,,,,,,,,,,,126,2022-05-10_17h41.58.680,FishGame,2022.1.1,59.90197639861314,
,24,나를 보내줘,6,Green,A,0,0,ScrollUp,ScrollDown,Green.png,5,NonTarget,NonTarget,,,,,0,0,0,0,,,,,,,,,,,,,,,,,,,,,,,,,,,,,0,23,23,23,,,,,,,,,,,,,,,,,,,,,,,,,,,,,,,,,,,,,,,,,,,,,,,,,,,,,,,,,,,,,,,,,2,1.3081685999641195,710.9869898000034,None,ScrollUp,정답입니다,710.9869898000034,None,710.9869898000034,None,710.9869898000034,None,710.9869898000034,None,712.1918623000383,None,712.1918623000383,712.6923953000223,,,,,,,,,,,,,,,,126,2022-05-10_17h41.58.680,FishGame,2022.1.1,59.90197639861314,
,25,넌 인색해,5,Green,A,2.625,2.233333333333333,ScrollDown,ScrollUp,Green.png,5,Negative,Incongruent,,,,,0,0,0,0,,,,,,,,,,,,,,,,,,,,,,,,,,,,,0,24,24,24,,,,,,,,,,,,,,,,,,,,,,,,,,,,,,,,,,,,,,,,,,,,,,,,,,,,,,,,,,,,,,,,,1,1.0992326000705361,713.3352203000104,None,ScrollDown,정답입니다,713.3352203000104,None,713.3352203000104,None,713.3352203000104,None,713.3352203000104,None,714.313087400049,None,714.313087400049,714.8255971000763,,,,,,,,,,,,,,,,126,2022-05-10_17h41.58.680,FishGame,2022.1.1,59.90197639861314,
,26,넌 유쾌해,1,Orange,B,5.833333333333333,5.766666666666667,ScrollUp,ScrollDown,Orange.png,5,Positive,Incongruent,,,,,0,0,0,0,,,,,,,,,,,,,,,,,,,,,,,,,,,,,0,25,25,25,,,,,,,,,,,,,,,,,,,,,,,,,,,,,,,,,,,,,,,,,,,,,,,,,,,,,,,,,,,,,,,,,2,1.1715759000508115,715.463225100073,None,ScrollUp,정답입니다,715.463225100073,None,715.463225100073,None,715.463225100073,None,715.463225100073,None,716.5252937000478,None,716.5252937000478,717.0253111000638,,,,,,,,,,,,,,,,126,2022-05-10_17h41.58.680,FishGame,2022.1.1,59.90197639861314,
,27,나를 보내줘,6,Green,A,0,0,ScrollUp,ScrollDown,Green.png,5,NonTarget,NonTarget,,,,,0,0,0,0,,,,,,,,,,,,,,,,,,,,,,,,,,,,,0,26,26,26,,,,,,,,,,,,,,,,,,,,,,,,,,,,,,,,,,,,,,,,,,,,,,,,,,,,,,,,,,,,,,,,,2,1.33562449994497,717.6550581000047,None,ScrollUp,정답입니다,717.6550581000047,None,717.6550581000047,None,717.6550581000047,None,717.6550581000047,None,718.888509600074,None,718.888509600074,719.3924782000249,,,,,,,,,,,,,,,,126,2022-05-10_17h41.58.680,FishGame,2022.1.1,59.90197639861314,
