name,TrialNum,Word,WordCategory,FishType,WordList,WordValence,WordReputation,CorrectResp,IncorrectResp,FishTypeFile,Round,WordType,Condition,LoopforOrange.thisRepN,LoopforOrange.thisTrialN,LoopforOrange.thisN,LoopforOrange.thisIndex,OrangeInstLoop.thisRepN,OrangeInstLoop.thisTrialN,OrangeInstLoop.thisN,OrangeInstLoop.thisIndex,OrangePrac.thisRepN,OrangePrac.thisTrialN,OrangePrac.thisN,OrangePrac.thisIndex,temp1.thisRepN,temp1.thisTrialN,temp1.thisN,temp1.thisIndex,OrangeRound1.thisRepN,OrangeRound1.thisTrialN,OrangeRound1.thisN,OrangeRound1.thisIndex,OrangeRound2.thisRepN,OrangeRound2.thisTrialN,OrangeRound2.thisN,OrangeRound2.thisIndex,OrangeRound3.thisRepN,OrangeRound3.thisTrialN,OrangeRound3.thisN,OrangeRound3.thisIndex,OrangeRound4.thisRepN,OrangeRound4.thisTrialN,OrangeRound4.thisN,OrangeRound4.thisIndex,OrangeRound5.thisRepN,OrangeRound5.thisTrialN,OrangeRound5.thisN,OrangeRound5.thisIndex,LoopForGreen.thisRepN,LoopForGreen.thisTrialN,LoopForGreen.thisN,LoopForGreen.thisIndex,text_2.started,text_2.stopped,text_3.started,text_3.stopped,key_resp.keys,key_resp.rt,key_resp.started,key_resp.stopped,PassI_2.started,PassI_2.stopped,PassInst_2.keys,PassInst_2.rt,PassInst_2.started,PassInst_2.stopped,mouse_2.x,mouse_2.y,mouse_2.leftButton,mouse_2.midButton,mouse_2.rightButton,mouse_2.started,mouse_2.stopped,image.started,image.stopped,text_5.started,text_5.stopped,text_6.started,text_6.stopped,text_7.started,text_7.stopped,text_8.started,text_8.stopped,slider_2.response,slider_2.rt,slider_2.started,slider_2.stopped,Response_2,Feedback_2,BackGround_2.started,BackGround_2.stopped,Fish_2.started,Fish_2.stopped,WordBox_2.started,WordBox_2.stopped,Words_2.started,Words_2.stopped,BackGround_Feedback_2.started,BackGround_Feedback_2.stopped,Feedbacks_2.started,Feedbacks_2.stopped,Continue_or_not.keys,Continue_or_not.rt,Continue_or_not.started,Continue_or_not.stopped,image_3.started,image_3.stopped,mouse_3.x,mouse_3.y,mouse_3.leftButton,mouse_3.midButton,mouse_3.rightButton,mouse_3.started,mouse_3.stopped,startmain.started,startmain.stopped,slider.response,slider.rt,slider.started,slider.stopped,Response,Feedback,BackGround.started,BackGround.stopped,Fish.started,Fish.stopped,WordBox.started,WordBox.stopped,Words.started,Words.stopped,BackGround_Feedback.started,BackGround_Feedback.stopped,Feedbacks.started,Feedbacks.stopped,text.started,text.stopped,break_interval.started,break_interval.stopped,mouse.x,mouse.y,mouse.leftButton,mouse.midButton,mouse.rightButton,mouse.started,mouse.stopped,stratnextround.started,stratnextround.stopped,endgame.started,endgame.stopped,participant,date,expName,psychopyVersion,frameRate,
,,,,,,,,,,,,,,,,,,,,,,,,,,,,,,,,,,,,,,,,,,,,,,,,,,,,,,21.279679200029932,None,21.279679200029932,None,space,1.6018584999255836,21.74695379997138,None,,,,,,,,,,,,,,,,,,,,,,,,,,,,,,,,,,,,,,,,,,,,,,,,,,,,,,,,,,,,,,,,,,,,,,,,,,,,,,,,,,,,,,,,,,127,2022-05-11_09h22.07.795,FishGame,2022.1.1,60.01395925540378,
물고기과제_instruction(참가자용)OrangeVersion.mp4,,,,,,,,,,,,,,0,0,0,0,0,0,0,0,,,,,,,,,,,,,,,,,,,,,,,,,,,,,,,,,,,,,,,,,89.66101530008018,None,n,30.67140859994106,89.66101530008018,None,,,,,,,,,,,,,,,,,,,,,,,,,,,,,,,,,,,,,,,,,,,,,,,,,,,,,,,,,,,,,,,,,,,,,,,,,,,,,,,,,,,,127,2022-05-11_09h22.07.795,FishGame,2022.1.1,60.01395925540378,
,1,넌 교활해,5,Green,B,2.333333333333333,2.133333333333333,ScrollUp,ScrollDown,Green.png,practice,,,0,0,0,0,,,,,0,0,0,0,0,0,0,0,,,,,,,,,,,,,,,,,,,,,,,,,,,,,,,,,,,,,,,0.009259259,-0.23888889,1,0,0,0.5122302498202771,None,120.34906869998667,None,122.69966220005881,124.19996160001028,124.23283140000422,125.18253590003587,125.232569099986,126.18297369999345,126.18297369999345,None,1.9212963084379833,1.4495099999476224,127.31163520005066,None,ScrollUp,정답입니다,127.31163520005066,None,127.31163520005066,None,127.31163520005066,None,127.31163520005066,None,128.62897630000953,None,128.62897630000953,129.13210470008198,,,,,,,,,,,,,,,,,,,,,,,,,,,,,,,,,,,,,,,,,,,,,,,,,127,2022-05-11_09h22.07.795,FishGame,2022.1.1,60.01395925540378,
,2,넌 슬기로워,2,Orange,A,6.166666666666667,4.1,ScrollDown,ScrollUp,Orange.png,practice,,,0,0,0,0,,,,,0,0,0,0,0,1,1,1,,,,,,,,,,,,,,,,,,,,,,,,,,,,,,,,,,,,,,,,,,,,,,,,,,,,,,,,1.1712963034709294,1.1349644999718294,129.78156030003447,None,ScrollDown,정답입니다,129.78156030003447,None,129.78156030003447,None,129.78156030003447,None,129.78156030003447,None,130.7871778999688,None,130.7871778999688,131.29898219997995,,,,,,,,,,,,,,,,,,,,,,,,,,,,,,,,,,,,,,,,,,,,,,,,,127,2022-05-11_09h22.07.795,FishGame,2022.1.1,60.01395925540378,
,3,나를 보내줘,6,Orange,A,0,0,ScrollUp,ScrollDown,Orange.png,practice,,,0,0,0,0,,,,,0,0,0,0,0,2,2,2,,,,,,,,,,,,,,,,,,,,,,,,,,,,,,,,,,,,,,,,,,,,,,,,,,,,,,,,2,1.8448778999736533,131.94503250007983,None,ScrollUp,정답입니다,131.94503250007983,None,131.94503250007983,None,131.94503250007983,None,131.94503250007983,None,133.66991729999427,None,133.66991729999427,134.18322000000626,,,,,,,,,,,,,,,,,,,,,,,,,,,,,,,,,,,,,,,,,,,,,,,,,127,2022-05-11_09h22.07.795,FishGame,2022.1.1,60.01395925540378,
,4,나를 데려가줘,6,Green,B,0,0,ScrollDown,ScrollUp,Green.png,practice,,,0,0,0,0,,,,,0,0,0,0,0,3,3,3,,,,,,,,,,,,,,,,,,,,,,,,,,,,,,,,,,,,,,,,,,,,,,,,,,,,,,,,1.1080246816078823,1.3385108999209478,134.81358399998862,None,ScrollDown,정답입니다,134.81358399998862,None,134.81358399998862,None,134.81358399998862,None,134.81358399998862,None,136.04567070002668,None,136.04567070002668,136.54962389997672,,,,,,,,,,,,,,,,,,,,,,,,,,,,,,,,,,,,,,,,,,,,,,,,,127,2022-05-11_09h22.07.795,FishGame,2022.1.1,60.01395925540378,
,1,넌 교활해,5,Green,B,2.333333333333333,2.133333333333333,ScrollUp,ScrollDown,Green.png,practice,,,0,0,0,0,,,,,0,0,0,0,,,,,,,,,,,,,,,,,,,,,,,,,,,,,,,,,,,,,,,,,,,,,,,,,,,,,,,,,,,,,,,,,,,,,,,,,,,,,,n,4.004493799991906,137.04920470004436,None,137.04920470004436,None,,,,,,,,,,,,,,,,,,,,,,,,,,,,,,,,,,,,,,,,,,,127,2022-05-11_09h22.07.795,FishGame,2022.1.1,60.01395925540378,
,1,넌 따뜻해,1,Green,B,6.083333333333333,5.6,ScrollUp,ScrollDown,Green.png,1,Positive,Incongruent,0,0,0,0,,,,,,,,,,,,,0,0,0,0,,,,,,,,,,,,,,,,,,,,,,,,,,,,,,,,,,,,,,,,,,,,151.6336487000808,153.13303430005908,153.18302700005006,154.13293219998013,154.18292200006545,155.1329996000277,155.1329996000277,None,,,,,,,,,,,,,,,,,,,,,,,,,-0.025925925,-0.096296296,1,0,0,0.31423394987359643,None,141.08273280004505,None,2,1.5658196000149474,156.31285770004615,None,ScrollUp,정답입니다,156.31285770004615,None,156.31285770004615,None,156.31285770004615,None,156.31285770004615,None,157.6990822000662,None,157.6990822000662,158.19965480000246,,,,,,,,,,,,,,,,127,2022-05-11_09h22.07.795,FishGame,2022.1.1,60.01395925540378,
,2,넌 기품있어,2,Green,B,5.791666666666668,4.5,ScrollUp,ScrollDown,Green.png,1,Positive,Incongruent,0,0,0,0,,,,,,,,,,,,,0,1,1,1,,,,,,,,,,,,,,,,,,,,,,,,,,,,,,,,,,,,,,,,,,,,,,,,,,,,,,,,,,,,,,,,,,,,,,,,,,,,,,,,,,,,,2,1.2197574999881908,158.84965300001204,None,ScrollUp,정답입니다,158.84965300001204,None,158.84965300001204,None,158.84965300001204,None,158.84965300001204,None,159.94618710002396,None,159.94618710002396,160.44949270004872,,,,,,,,,,,,,,,,127,2022-05-11_09h22.07.795,FishGame,2022.1.1,60.01395925540378,
,3,나를 보내줘,6,Orange,A,0,0,ScrollUp,ScrollDown,Orange.png,1,NonTarget,NonTarget,0,0,0,0,,,,,,,,,,,,,0,2,2,2,,,,,,,,,,,,,,,,,,,,,,,,,,,,,,,,,,,,,,,,,,,,,,,,,,,,,,,,,,,,,,,,,,,,,,,,,,,,,,,,,,,,,1.9753086467583973,1.148428599932231,161.10525500006042,None,ScrollUp,정답입니다,161.10525500006042,None,161.10525500006042,None,161.10525500006042,None,161.10525500006042,None,162.12211190001108,None,162.12211190001108,162.63328629999887,,,,,,,,,,,,,,,,127,2022-05-11_09h22.07.795,FishGame,2022.1.1,60.01395925540378,
,4,넌 수동적이야,4,Orange,A,2.833333333333333,2.933333333333333,ScrollDown,ScrollUp,Orange.png,1,Negative,Incongruent,0,0,0,0,,,,,,,,,,,,,0,3,3,3,,,,,,,,,,,,,,,,,,,,,,,,,,,,,,,,,,,,,,,,,,,,,,,,,,,,,,,,,,,,,,,,,,,,,,,,,,,,,,,,,,,,,1.1481481442848842,1.2528824999462813,163.28924710000865,None,ScrollDown,정답입니다,163.28924710000865,None,163.28924710000865,None,163.28924710000865,None,163.28924710000865,None,164.40615330007859,None,164.40615330007859,164.91681059997063,,,,,,,,,,,,,,,,127,2022-05-11_09h22.07.795,FishGame,2022.1.1,60.01395925540378,
,5,넌 사심이 없어,3,Green,B,4.916666666666666,4.333333333333333,ScrollUp,ScrollDown,Green.png,1,Neutral,Neutral,0,0,0,0,,,,,,,,,,,,,0,4,4,4,,,,,,,,,,,,,,,,,,,,,,,,,,,,,,,,,,,,,,,,,,,,,,,,,,,,,,,,,,,,,,,,,,,,,,,,,,,,,,,,,,,,,1.6944444452722869,1.0717211000155658,165.56329199997708,None,ScrollUp,정답입니다,165.56329199997708,None,165.56329199997708,None,165.56329199997708,None,165.56329199997708,None,166.51304099999834,None,166.51304099999834,167.0170458999928,,,,,,,,,,,,,,,,127,2022-05-11_09h22.07.795,FishGame,2022.1.1,60.01395925540378,
,6,넌 헤퍼,5,Orange,A,2.458333333333334,2.233333333333333,ScrollDown,ScrollUp,Orange.png,1,Negative,Incongruent,0,0,0,0,,,,,,,,,,,,,0,5,5,5,,,,,,,,,,,,,,,,,,,,,,,,,,,,,,,,,,,,,,,,,,,,,,,,,,,,,,,,,,,,,,,,,,,,,,,,,,,,,,,,,,,,,1.410493828356266,1.117771100020036,167.66599930007942,None,ScrollDown,정답입니다,167.66599930007942,None,167.66599930007942,None,167.66599930007942,None,167.66599930007942,None,168.66336200002115,None,168.66336200002115,169.16677960008383,,,,,,,,,,,,,,,,127,2022-05-11_09h22.07.795,FishGame,2022.1.1,60.01395925540378,
,7,넌 말쑥해,3,Orange,A,4.833333333333334,4.333333333333333,ScrollDown,ScrollUp,Orange.png,1,Neutral,Neutral,0,0,0,0,,,,,,,,,,,,,0,6,6,6,,,,,,,,,,,,,,,,,,,,,,,,,,,,,,,,,,,,,,,,,,,,,,,,,,,,,,,,,,,,,,,,,,,,,,,,,,,,,,,,,,,,,1,1.6996908999281004,169.80900970008224,None,ScrollDown,정답입니다,169.80900970008224,None,169.80900970008224,None,169.80900970008224,None,169.80900970008224,None,171.38813069998287,None,171.38813069998287,171.89992380002514,,,,,,,,,,,,,,,,127,2022-05-11_09h22.07.795,FishGame,2022.1.1,60.01395925540378,
,8,넌 투덜거려,5,Green,B,2.541666666666667,2.266666666666667,ScrollUp,ScrollDown,Green.png,1,Negative,Congruent,0,0,0,0,,,,,,,,,,,,,0,7,7,7,,,,,,,,,,,,,,,,,,,,,,,,,,,,,,,,,,,,,,,,,,,,,,,,,,,,,,,,,,,,,,,,,,,,,,,,,,,,,,,,,,,,,1.873456800977389,1.0230260000098497,172.53933589998633,None,ScrollUp,정답입니다,172.53933589998633,None,172.53933589998633,None,172.53933589998633,None,172.53933589998633,None,173.45019320002757,None,173.45019320002757,173.94971970003098,,,,,,,,,,,,,,,,127,2022-05-11_09h22.07.795,FishGame,2022.1.1,60.01395925540378,
,9,넌 적극적이야,1,Orange,A,5.708333333333333,5.533333333333333,ScrollDown,ScrollUp,Orange.png,1,Positive,Congruent,0,0,0,0,,,,,,,,,,,,,0,8,8,8,,,,,,,,,,,,,,,,,,,,,,,,,,,,,,,,,,,,,,,,,,,,,,,,,,,,,,,,,,,,,,,,,,,,,,,,,,,,,,,,,,,,,1,1.050183300045319,174.5885535000125,None,ScrollDown,정답입니다,174.5885535000125,None,174.5885535000125,None,174.5885535000125,None,174.5885535000125,None,175.52125420002267,None,175.52125420002267,176.033672700054,,,,,,,,,,,,,,,,127,2022-05-11_09h22.07.795,FishGame,2022.1.1,60.01395925540378,
,10,넌 재미없어,4,Green,B,2.625,2.966666666666667,ScrollUp,ScrollDown,Green.png,1,Negative,Congruent,0,0,0,0,,,,,,,,,,,,,0,9,9,9,,,,,,,,,,,,,,,,,,,,,,,,,,,,,,,,,,,,,,,,,,,,,,,,,,,,,,,,,,,,,,,,,,,,,,,,,,,,,,,,,,,,,1.9768518606821697,1.0379784000106156,176.6734090000391,None,ScrollUp,정답입니다,176.6734090000391,None,176.6734090000391,None,176.6734090000391,None,176.6734090000391,None,177.59704810008407,None,177.59704810008407,178.10034330002964,,,,,,,,,,,,,,,,127,2022-05-11_09h22.07.795,FishGame,2022.1.1,60.01395925540378,
,11,넌 명석해,2,Orange,A,5.875,4.033333333333333,ScrollDown,ScrollUp,Orange.png,1,Positive,Congruent,0,0,0,0,,,,,,,,,,,,,0,10,10,10,,,,,,,,,,,,,,,,,,,,,,,,,,,,,,,,,,,,,,,,,,,,,,,,,,,,,,,,,,,,,,,,,,,,,,,,,,,,,,,,,,,,,1,1.1394896999699995,178.74147840007208,None,ScrollDown,정답입니다,178.74147840007208,None,178.74147840007208,None,178.74147840007208,None,178.74147840007208,None,179.76693250006065,None,179.76693250006065,180.2668303999817,,,,,,,,,,,,,,,,127,2022-05-11_09h22.07.795,FishGame,2022.1.1,60.01395925540378,
,12,나를 데려가줘,6,Green,B,0,0,ScrollDown,ScrollUp,Green.png,1,NonTarget,NonTarget,0,0,0,0,,,,,,,,,,,,,0,11,11,11,,,,,,,,,,,,,,,,,,,,,,,,,,,,,,,,,,,,,,,,,,,,,,,,,,,,,,,,,,,,,,,,,,,,,,,,,,,,,,,,,,,,,1,1.1075603999197483,180.90349310007878,None,ScrollDown,정답입니다,180.90349310007878,None,180.90349310007878,None,180.90349310007878,None,180.90349310007878,None,181.90015610004775,None,181.90015610004775,182.40013020008337,,,,,,,,,,,,,,,,127,2022-05-11_09h22.07.795,FishGame,2022.1.1,60.01395925540378,
,13,넌 소심해,4,Orange,A,3,3.1,ScrollDown,ScrollUp,Orange.png,1,Negative,Incongruent,0,0,0,0,,,,,,,,,,,,,0,12,12,12,,,,,,,,,,,,,,,,,,,,,,,,,,,,,,,,,,,,,,,,,,,,,,,,,,,,,,,,,,,,,,,,,,,,,,,,,,,,,,,,,,,,,1.200617293516795,0.9426860999083146,183.0381174000213,None,ScrollDown,정답입니다,183.0381174000213,None,183.0381174000213,None,183.0381174000213,None,183.0381174000213,None,183.86713430006057,None,183.86713430006057,184.36699080001563,,,,,,,,,,,,,,,,127,2022-05-11_09h22.07.795,FishGame,2022.1.1,60.01395925540378,
,14,넌 합리적이야,2,Orange,A,5.583333333333333,4.733333333333333,ScrollDown,ScrollUp,Orange.png,1,Positive,Congruent,0,0,0,0,,,,,,,,,,,,,0,13,13,13,,,,,,,,,,,,,,,,,,,,,,,,,,,,,,,,,,,,,,,,,,,,,,,,,,,,,,,,,,,,,,,,,,,,,,,,,,,,,,,,,,,,,1.1466049303611119,0.936925399932079,185.01145170000382,None,ScrollDown,정답입니다,185.01145170000382,None,185.01145170000382,None,185.01145170000382,None,185.01145170000382,None,185.8239546000259,None,185.8239546000259,186.33372580003925,,,,,,,,,,,,,,,,127,2022-05-11_09h22.07.795,FishGame,2022.1.1,60.01395925540378,
,15,넌 무자비해,5,Green,B,2.333333333333333,2.1,ScrollUp,ScrollDown,Green.png,1,Negative,Congruent,0,0,0,0,,,,,,,,,,,,,0,14,14,14,,,,,,,,,,,,,,,,,,,,,,,,,,,,,,,,,,,,,,,,,,,,,,,,,,,,,,,,,,,,,,,,,,,,,,,,,,,,,,,,,,,,,1.8935185074806213,0.9007189000258222,186.9714573000092,None,ScrollUp,정답입니다,186.9714573000092,None,186.9714573000092,None,186.9714573000092,None,186.9714573000092,None,187.75574589997996,None,187.75574589997996,188.267133400077,,,,,,,,,,,,,,,,127,2022-05-11_09h22.07.795,FishGame,2022.1.1,60.01395925540378,
,16,나를 보내줘,6,Orange,A,0,0,ScrollUp,ScrollDown,Orange.png,1,NonTarget,NonTarget,0,0,0,0,,,,,,,,,,,,,0,15,15,15,,,,,,,,,,,,,,,,,,,,,,,,,,,,,,,,,,,,,,,,,,,,,,,,,,,,,,,,,,,,,,,,,,,,,,,,,,,,,,,,,,,,,1.89969136317571,0.9899475000565872,188.90678369998932,None,ScrollUp,정답입니다,188.90678369998932,None,188.90678369998932,None,188.90678369998932,None,188.90678369998932,None,189.7838030999992,None,189.7838030999992,190.28367500007153,,,,,,,,,,,,,,,,127,2022-05-11_09h22.07.795,FishGame,2022.1.1,60.01395925540378,
,17,넌 현실적이야,3,Green,B,4.608695652173913,4.766666666666667,ScrollUp,ScrollDown,Green.png,1,Neutral,Neutral,0,0,0,0,,,,,,,,,,,,,0,16,16,16,,,,,,,,,,,,,,,,,,,,,,,,,,,,,,,,,,,,,,,,,,,,,,,,,,,,,,,,,,,,,,,,,,,,,,,,,,,,,,,,,,,,,1.248456800977389,0.9994464999763295,190.92071680002846,None,ScrollDown,오답입니다,190.92071680002846,None,190.92071680002846,None,190.92071680002846,None,190.92071680002846,None,191.81020830001216,None,191.81020830001216,192.31784460006747,,,,,,,,,,,,,,,,127,2022-05-11_09h22.07.795,FishGame,2022.1.1,60.01395925540378,
,18,넌 의리있어,1,Green,B,5.833333333333334,5.633333333333334,ScrollUp,ScrollDown,Green.png,1,Positive,Incongruent,0,0,0,0,,,,,,,,,,,,,0,17,17,17,,,,,,,,,,,,,,,,,,,,,,,,,,,,,,,,,,,,,,,,,,,,,,,,,,,,,,,,,,,,,,,,,,,,,,,,,,,,,,,,,,,,,1.7685185273488362,1.1312097000190988,192.95872590004,None,ScrollUp,정답입니다,192.95872590004,None,192.95872590004,None,192.95872590004,None,192.95872590004,None,193.97365499997977,None,193.97365499997977,194.48369780008215,,,,,,,,,,,,,,,,127,2022-05-11_09h22.07.795,FishGame,2022.1.1,60.01395925540378,
,19,넌 신경과민이야,5,Orange,A,2.541666666666667,2.166666666666667,ScrollDown,ScrollUp,Orange.png,1,Negative,Incongruent,0,0,0,0,,,,,,,,,,,,,0,18,18,18,,,,,,,,,,,,,,,,,,,,,,,,,,,,,,,,,,,,,,,,,,,,,,,,,,,,,,,,,,,,,,,,,,,,,,,,,,,,,,,,,,,,,1.160493830839793,1.0108829999808222,195.1367546999827,None,ScrollDown,정답입니다,195.1367546999827,None,195.1367546999827,None,195.1367546999827,None,195.1367546999827,None,196.01761350000743,None,196.01761350000743,196.51745000004303,,,,,,,,,,,,,,,,127,2022-05-11_09h22.07.795,FishGame,2022.1.1,60.01395925540378,
,20,넌 편안해,1,Orange,A,5.916666666666666,5.866666666666666,ScrollDown,ScrollUp,Orange.png,1,Positive,Congruent,0,0,0,0,,,,,,,,,,,,,0,19,19,19,,,,,,,,,,,,,,,,,,,,,,,,,,,,,,,,,,,,,,,,,,,,,,,,,,,,,,,,,,,,,,,,,,,,,,,,,,,,,,,,,,,,,1.0895061641931534,0.9251349000260234,197.1757108999882,None,ScrollDown,정답입니다,197.1757108999882,None,197.1757108999882,None,197.1757108999882,None,197.1757108999882,None,197.96744709997438,None,197.96744709997438,198.4675264999969,,,,,,,,,,,,,,,,127,2022-05-11_09h22.07.795,FishGame,2022.1.1,60.01395925540378,
,21,넌 품위있어,2,Green,B,5.291666666666666,4.466666666666667,ScrollUp,ScrollDown,Green.png,1,Positive,Incongruent,0,0,0,0,,,,,,,,,,,,,0,20,20,20,,,,,,,,,,,,,,,,,,,,,,,,,,,,,,,,,,,,,,,,,,,,,,,,,,,,,,,,,,,,,,,,,,,,,,,,,,,,,,,,,,,,,1.9027777661879857,0.9902898999862373,199.09883020003326,None,ScrollUp,정답입니다,199.09883020003326,None,199.09883020003326,None,199.09883020003326,None,199.09883020003326,None,199.98440219997428,None,199.98440219997428,200.48398700007237,,,,,,,,,,,,,,,,127,2022-05-11_09h22.07.795,FishGame,2022.1.1,60.01395925540378,
,22,넌 빈틈없어,3,Orange,A,4.833333333333333,3.966666666666667,ScrollDown,ScrollUp,Orange.png,1,Neutral,Neutral,0,0,0,0,,,,,,,,,,,,,0,21,21,21,,,,,,,,,,,,,,,,,,,,,,,,,,,,,,,,,,,,,,,,,,,,,,,,,,,,,,,,,,,,,,,,,,,,,,,,,,,,,,,,,,,,,1.1990740795930226,1.0462599999736995,201.12182290002238,None,ScrollDown,정답입니다,201.12182290002238,None,201.12182290002238,None,201.12182290002238,None,201.12182290002238,None,202.05541240004823,None,202.05541240004823,202.5669876000611,,,,,,,,,,,,,,,,127,2022-05-11_09h22.07.795,FishGame,2022.1.1,60.01395925540378,
,23,넌 상상력없어,4,Green,B,2.833333333333333,3.133333333333333,ScrollUp,ScrollDown,Green.png,1,Negative,Congruent,0,0,0,0,,,,,,,,,,,,,0,22,22,22,,,,,,,,,,,,,,,,,,,,,,,,,,,,,,,,,,,,,,,,,,,,,,,,,,,,,,,,,,,,,,,,,,,,,,,,,,,,,,,,,,,,,1.879629631837209,0.9009758000029251,203.20154739997815,None,ScrollUp,정답입니다,203.20154739997815,None,203.20154739997815,None,203.20154739997815,None,203.20154739997815,None,203.98933550005313,None,203.98933550005313,204.50070440000854,,,,,,,,,,,,,,,,127,2022-05-11_09h22.07.795,FishGame,2022.1.1,60.01395925540378,
,24,넌 지혜로워,2,Green,B,6.333333333333334,4.633333333333334,ScrollUp,ScrollDown,Green.png,1,Positive,Incongruent,0,0,0,0,,,,,,,,,,,,,0,23,23,23,,,,,,,,,,,,,,,,,,,,,,,,,,,,,,,,,,,,,,,,,,,,,,,,,,,,,,,,,,,,,,,,,,,,,,,,,,,,,,,,,,,,,1.9413580397764842,0.8177674000617117,205.1478132000193,None,ScrollUp,정답입니다,205.1478132000193,None,205.1478132000193,None,205.1478132000193,None,205.1478132000193,None,205.83897869999055,None,205.83897869999055,206.35079679999035,,,,,,,,,,,,,,,,127,2022-05-11_09h22.07.795,FishGame,2022.1.1,60.01395925540378,
,25,넌 시끄러워,4,Orange,A,2.833333333333333,3.033333333333333,ScrollDown,ScrollUp,Orange.png,1,Negative,Incongruent,0,0,0,0,,,,,,,,,,,,,0,24,24,24,,,,,,,,,,,,,,,,,,,,,,,,,,,,,,,,,,,,,,,,,,,,,,,,,,,,,,,,,,,,,,,,,,,,,,,,,,,,,,,,,,,,,1.0864197611808777,0.8764963999856263,206.99476170004345,None,ScrollDown,정답입니다,206.99476170004345,None,206.99476170004345,None,206.99476170004345,None,206.99476170004345,None,207.75044650002383,None,207.75044650002383,208.25084440002684,,,,,,,,,,,,,,,,127,2022-05-11_09h22.07.795,FishGame,2022.1.1,60.01395925540378,
,26,넌 만사태평이야,3,Green,B,4,4.333333333333333,ScrollUp,ScrollDown,Green.png,1,Neutral,Neutral,0,0,0,0,,,,,,,,,,,,,0,25,25,25,,,,,,,,,,,,,,,,,,,,,,,,,,,,,,,,,,,,,,,,,,,,,,,,,,,,,,,,,,,,,,,,,,,,,,,,,,,,,,,,,,,,,2,0.7897501999977976,208.8946882999735,None,ScrollUp,정답입니다,208.8946882999735,None,208.8946882999735,None,208.8946882999735,None,208.8946882999735,None,209.56403260002844,None,209.56403260002844,210.0673395000631,,,,,,,,,,,,,,,,127,2022-05-11_09h22.07.795,FishGame,2022.1.1,60.01395925540378,
,27,넌 붙임성있어,1,Orange,A,5.708333333333333,5.633333333333334,ScrollDown,ScrollUp,Orange.png,1,Positive,Congruent,0,0,0,0,,,,,,,,,,,,,0,26,26,26,,,,,,,,,,,,,,,,,,,,,,,,,,,,,,,,,,,,,,,,,,,,,,,,,,,,,,,,,,,,,,,,,,,,,,,,,,,,,,,,,,,,,1.2407407313585281,0.9169199999887496,210.71140230004676,None,ScrollDown,정답입니다,210.71140230004676,None,210.71140230004676,None,210.71140230004676,None,210.71140230004676,None,211.50588459998835,None,211.50588459998835,212.01757899997756,,,,,,,,,,,,,,,,127,2022-05-11_09h22.07.795,FishGame,2022.1.1,60.01395925540378,
,28,넌 영리해,2,Orange,A,6,4.033333333333333,ScrollDown,ScrollUp,Orange.png,1,Positive,Congruent,0,0,0,0,,,,,,,,,,,,,0,27,27,27,,,,,,,,,,,,,,,,,,,,,,,,,,,,,,,,,,,,,,,,,,,,,,,,,,,,,,,,,,,,,,,,,,,,,,,,,,,,,,,,,,,,,1.141975313425064,0.879425200051628,212.6563199000666,None,ScrollDown,정답입니다,212.6563199000666,None,212.6563199000666,None,212.6563199000666,None,212.6563199000666,None,213.42235920007806,None,213.42235920007806,213.93418400001246,,,,,,,,,,,,,,,,127,2022-05-11_09h22.07.795,FishGame,2022.1.1,60.01395925540378,
,29,넌 열심이야,1,Green,B,6.041666666666667,5.833333333333333,ScrollUp,ScrollDown,Green.png,1,Positive,Incongruent,0,0,0,0,,,,,,,,,,,,,0,28,28,28,,,,,,,,,,,,,,,,,,,,,,,,,,,,,,,,,,,,,,,,,,,,,,,,,,,,,,,,,,,,,,,,,,,,,,,,,,,,,,,,,,,,,1.9783950746059418,1.0839609000831842,214.56822660006583,None,ScrollUp,정답입니다,214.56822660006583,None,214.56822660006583,None,214.56822660006583,None,214.56822660006583,None,215.5390496000182,None,215.5390496000182,216.05120109999552,,,,,,,,,,,,,,,,127,2022-05-11_09h22.07.795,FishGame,2022.1.1,60.01395925540378,
,30,넌 인기없어,4,Green,B,3,3.3,ScrollUp,ScrollDown,Green.png,1,Negative,Congruent,0,0,0,0,,,,,,,,,,,,,0,29,29,29,,,,,,,,,,,,,,,,,,,,,,,,,,,,,,,,,,,,,,,,,,,,,,,,,,,,,,,,,,,,,,,,,,,,,,,,,,,,,,,,,,,,,1.7978395173947017,0.8350126999430358,216.6834614999825,None,ScrollUp,정답입니다,216.6834614999825,None,216.6834614999825,None,216.6834614999825,None,216.6834614999825,None,217.40559820004273,None,217.40559820004273,217.91789290006272,,,,,,,,,,,,,,,,127,2022-05-11_09h22.07.795,FishGame,2022.1.1,60.01395925540378,
,31,넌 익살스러워,3,Orange,A,4.708333333333334,4.833333333333333,ScrollDown,ScrollUp,Orange.png,1,Neutral,Neutral,0,0,0,0,,,,,,,,,,,,,0,30,30,30,,,,,,,,,,,,,,,,,,,,,,,,,,,,,,,,,,,,,,,,,,,,,,,,,,,,,,,,,,,,,,,,,,,,,,,,,,,,,,,,,,,,,1.2021604826052983,0.9355385999660939,218.56365010002628,None,ScrollDown,정답입니다,218.56365010002628,None,218.56365010002628,None,218.56365010002628,None,218.56365010002628,None,219.3750639000209,None,219.3750639000209,219.88412609999068,,,,,,,,,,,,,,,,127,2022-05-11_09h22.07.795,FishGame,2022.1.1,60.01395925540378,
,32,넌 이기적이야,5,Green,B,2.291666666666667,2.333333333333333,ScrollUp,ScrollDown,Green.png,1,Negative,Congruent,0,0,0,0,,,,,,,,,,,,,0,31,31,31,,,,,,,,,,,,,,,,,,,,,,,,,,,,,,,,,,,,,,,,,,,,,,,,,,,,,,,,,,,,,,,,,,,,,,,,,,,,,,,,,,,,,1.7824074029922485,0.8755166999762878,220.51356049999595,None,ScrollUp,정답입니다,220.51356049999595,None,220.51356049999595,None,220.51356049999595,None,220.51356049999595,None,221.2840383000439,None,221.2840383000439,221.78484330000356,,,,,,,,,,,,,,,,127,2022-05-11_09h22.07.795,FishGame,2022.1.1,60.01395925540378,
,33,나를 데려가줘,6,Green,B,0,0,ScrollDown,ScrollUp,Green.png,1,NonTarget,NonTarget,0,0,0,0,,,,,,,,,,,,,0,32,32,32,,,,,,,,,,,,,,,,,,,,,,,,,,,,,,,,,,,,,,,,,,,,,,,,,,,,,,,,,,,,,,,,,,,,,,,,,,,,,,,,,,,,,1.1095678955316544,1.0602953000925481,222.4168208000483,None,ScrollDown,정답입니다,222.4168208000483,None,222.4168208000483,None,222.4168208000483,None,222.4168208000483,None,223.36744509998243,None,223.36744509998243,223.86804319999646,,,,,,,,,,,,,,,,127,2022-05-11_09h22.07.795,FishGame,2022.1.1,60.01395925540378,
,34,넌 기회주의자야,5,Orange,A,2.875,2.133333333333333,ScrollDown,ScrollUp,Orange.png,1,Negative,Incongruent,0,0,0,0,,,,,,,,,,,,,0,33,33,33,,,,,,,,,,,,,,,,,,,,,,,,,,,,,,,,,,,,,,,,,,,,,,,,,,,,,,,,,,,,,,,,,,,,,,,,,,,,,,,,,,,,,1.0432098706563313,1.0980323000112548,224.51492480002344,None,ScrollDown,정답입니다,224.51492480002344,None,224.51492480002344,None,224.51492480002344,None,224.51492480002344,None,225.48934840003494,None,225.48934840003494,226.00115700007882,,,,,,,,,,,,,,,,127,2022-05-11_09h22.07.795,FishGame,2022.1.1,60.01395925540378,
,1,넌 미성숙해,4,Orange,A,3,3.2,ScrollDown,ScrollUp,Orange.png,2,Negative,Incongruent,0,0,0,0,,,,,,,,,,,,,,,,,0,0,0,0,,,,,,,,,,,,,,,,,,,,,,,,,,,,,,,,,,,,,,,,257.6024112000596,259.10255120007787,259.136265499983,260.08615029999055,260.1356887000147,261.0859404000221,261.0859404000221,None,,,,,,,,,,,,,,,,,,,,,,,,,,,,,,,,,,1,1.1097402999876067,262.2505141000729,None,ScrollDown,정답입니다,262.2505141000729,None,262.2505141000729,None,262.2505141000729,None,262.2505141000729,None,263.1903356000548,None,263.1903356000548,263.702698100009,226.50097330007702,None,226.50097330007702,None,-0.06944445,-0.1287037,1,0,0,0.016195249976590276,None,256.5020491000032,None,,,127,2022-05-11_09h22.07.795,FishGame,2022.1.1,60.01395925540378,
,2,넌 반사회적이야,5,Green,B,2.416666666666667,2.033333333333333,ScrollUp,ScrollDown,Green.png,2,Negative,Congruent,0,0,0,0,,,,,,,,,,,,,,,,,0,1,1,1,,,,,,,,,,,,,,,,,,,,,,,,,,,,,,,,,,,,,,,,,,,,,,,,,,,,,,,,,,,,,,,,,,,,,,,,,,,,,,,,,1.9876543084780376,1.1231548000359908,264.33521110005677,None,ScrollUp,정답입니다,264.33521110005677,None,264.33521110005677,None,264.33521110005677,None,264.33521110005677,None,265.3525852999883,None,265.3525852999883,265.8523185000522,,,,,,,,,,,,,,,,127,2022-05-11_09h22.07.795,FishGame,2022.1.1,60.01395925540378,
,3,넌 유능해,2,Orange,A,6.208333333333333,4.433333333333334,ScrollDown,ScrollUp,Orange.png,2,Positive,Congruent,0,0,0,0,,,,,,,,,,,,,,,,,0,2,2,2,,,,,,,,,,,,,,,,,,,,,,,,,,,,,,,,,,,,,,,,,,,,,,,,,,,,,,,,,,,,,,,,,,,,,,,,,,,,,,,,,1.182098776102066,0.8087830999866128,266.4964725000318,None,ScrollDown,정답입니다,266.4964725000318,None,266.4964725000318,None,266.4964725000318,None,266.4964725000318,None,267.1856458000839,None,267.1856458000839,267.6852203999879,,,,,,,,,,,,,,,,127,2022-05-11_09h22.07.795,FishGame,2022.1.1,60.01395925540378,
,4,넌 능숙해,2,Green,B,5.666666666666667,4.733333333333333,ScrollUp,ScrollDown,Green.png,2,Positive,Incongruent,0,0,0,0,,,,,,,,,,,,,,,,,0,3,3,3,,,,,,,,,,,,,,,,,,,,,,,,,,,,,,,,,,,,,,,,,,,,,,,,,,,,,,,,,,,,,,,,,,,,,,,,,,,,,,,,,1.6651234552264214,0.7196275999303907,268.3140224000672,None,ScrollUp,정답입니다,268.3140224000672,None,268.3140224000672,None,268.3140224000672,None,268.3140224000672,None,268.93184640002437,None,268.93184640002437,269.43558789999224,,,,,,,,,,,,,,,,127,2022-05-11_09h22.07.795,FishGame,2022.1.1,60.01395925540378,
,5,넌 진부해,4,Green,B,2.458333333333333,3.166666666666667,ScrollUp,ScrollDown,Green.png,2,Negative,Congruent,0,0,0,0,,,,,,,,,,,,,,,,,0,4,4,4,,,,,,,,,,,,,,,,,,,,,,,,,,,,,,,,,,,,,,,,,,,,,,,,,,,,,,,,,,,,,,,,,,,,,,,,,,,,,,,,,2,0.8546170999761671,270.0829893000191,None,ScrollUp,정답입니다,270.0829893000191,None,270.0829893000191,None,270.0829893000191,None,270.0829893000191,None,270.8155273000011,None,270.8155273000011,271.3191654999973,,,,,,,,,,,,,,,,127,2022-05-11_09h22.07.795,FishGame,2022.1.1,60.01395925540378,
,6,나를 보내줘,6,Orange,A,0,0,ScrollUp,ScrollDown,Orange.png,2,NonTarget,NonTarget,0,0,0,0,,,,,,,,,,,,,,,,,0,5,5,5,,,,,,,,,,,,,,,,,,,,,,,,,,,,,,,,,,,,,,,,,,,,,,,,,,,,,,,,,,,,,,,,,,,,,,,,,,,,,,,,,2,0.9852952000219375,271.9503328000428,None,ScrollUp,정답입니다,271.9503328000428,None,271.9503328000428,None,271.9503328000428,None,271.9503328000428,None,272.8325050000567,None,272.8325050000567,273.3361536000157,,,,,,,,,,,,,,,,127,2022-05-11_09h22.07.795,FishGame,2022.1.1,60.01395925540378,
,7,넌 엄격해,3,Orange,A,4.166666666666666,4.1,ScrollDown,ScrollUp,Orange.png,2,Neutral,Neutral,0,0,0,0,,,,,,,,,,,,,,,,,0,6,6,6,,,,,,,,,,,,,,,,,,,,,,,,,,,,,,,,,,,,,,,,,,,,,,,,,,,,,,,,,,,,,,,,,,,,,,,,,,,,,,,,,1.2376543283462524,1.09552580001764,274.01538690004963,None,ScrollDown,정답입니다,274.01538690004963,None,274.01538690004963,None,274.01538690004963,None,274.01538690004963,None,274.95765080000274,None,274.95765080000274,275.46887410001364,,,,,,,,,,,,,,,,127,2022-05-11_09h22.07.795,FishGame,2022.1.1,60.01395925540378,
,8,나를 보내줘,6,Orange,A,0,0,ScrollUp,ScrollDown,Orange.png,2,NonTarget,NonTarget,0,0,0,0,,,,,,,,,,,,,,,,,0,7,7,7,,,,,,,,,,,,,,,,,,,,,,,,,,,,,,,,,,,,,,,,,,,,,,,,,,,,,,,,,,,,,,,,,,,,,,,,,,,,,,,,,1.9567901293436687,0.8554269000887871,276.1029237000039,None,ScrollUp,정답입니다,276.1029237000039,None,276.1029237000039,None,276.1029237000039,None,276.1029237000039,None,276.84904260002077,None,276.84904260002077,277.3524253000505,,,,,,,,,,,,,,,,127,2022-05-11_09h22.07.795,FishGame,2022.1.1,60.01395925540378,
,9,넌 대담해,3,Green,B,4.875,4.866666666666666,ScrollUp,ScrollDown,Green.png,2,Neutral,Neutral,0,0,0,0,,,,,,,,,,,,,,,,,0,8,8,8,,,,,,,,,,,,,,,,,,,,,,,,,,,,,,,,,,,,,,,,,,,,,,,,,,,,,,,,,,,,,,,,,,,,,,,,,,,,,,,,,1.799382706483205,0.8192885000025854,277.983983800048,None,ScrollUp,정답입니다,277.983983800048,None,277.983983800048,None,277.983983800048,None,277.983983800048,None,278.6916105999844,None,278.6916105999844,279.2024712000275,,,,,,,,,,,,,,,,127,2022-05-11_09h22.07.795,FishGame,2022.1.1,60.01395925540378,
,10,넌 꾸준해,1,Orange,A,5.916666666666668,5.8,ScrollDown,ScrollUp,Orange.png,2,Positive,Congruent,0,0,0,0,,,,,,,,,,,,,,,,,0,9,9,9,,,,,,,,,,,,,,,,,,,,,,,,,,,,,,,,,,,,,,,,,,,,,,,,,,,,,,,,,,,,,,,,,,,,,,,,,,,,,,,,,1,0.9081841999432072,279.8573776000412,None,ScrollDown,정답입니다,279.8573776000412,None,279.8573776000412,None,279.8573776000412,None,279.8573776000412,None,280.63590440002736,None,280.63590440002736,281.13613500003703,,,,,,,,,,,,,,,,127,2022-05-11_09h22.07.795,FishGame,2022.1.1,60.01395925540378,
,11,나를 데려가줘,6,Green,B,0,0,ScrollDown,ScrollUp,Green.png,2,NonTarget,NonTarget,0,0,0,0,,,,,,,,,,,,,,,,,0,10,10,10,,,,,,,,,,,,,,,,,,,,,,,,,,,,,,,,,,,,,,,,,,,,,,,,,,,,,,,,,,,,,,,,,,,,,,,,,,,,,,,,,1,1.0493871999206021,281.7689520000713,None,ScrollDown,정답입니다,281.7689520000713,None,281.7689520000713,None,281.7689520000713,None,281.7689520000713,None,282.70696520002093,None,282.70696520002093,283.21904430002905,,,,,,,,,,,,,,,,127,2022-05-11_09h22.07.795,FishGame,2022.1.1,60.01395925540378,
,12,넌 독선적이야,5,Orange,A,2.458333333333333,1.933333333333333,ScrollDown,ScrollUp,Orange.png,2,Negative,Incongruent,0,0,0,0,,,,,,,,,,,,,,,,,0,11,11,11,,,,,,,,,,,,,,,,,,,,,,,,,,,,,,,,,,,,,,,,,,,,,,,,,,,,,,,,,,,,,,,,,,,,,,,,,,,,,,,,,1.4583333327124517,0.8797571000177413,283.8601753000403,None,NoResponse,무응답입니다,283.8601753000403,None,283.8601753000403,None,283.8601753000403,None,283.8601753000403,None,284.62568519997876,None,284.62568519997876,285.1359724000795,,,,,,,,,,,,,,,,127,2022-05-11_09h22.07.795,FishGame,2022.1.1,60.01395925540378,
,13,나를 보내줘,6,Orange,A,0,0,ScrollUp,ScrollDown,Orange.png,2,NonTarget,NonTarget,0,0,0,0,,,,,,,,,,,,,,,,,0,12,12,12,,,,,,,,,,,,,,,,,,,,,,,,,,,,,,,,,,,,,,,,,,,,,,,,,,,,,,,,,,,,,,,,,,,,,,,,,,,,,,,,,2,1.0454249999020249,285.77071609999985,None,ScrollUp,정답입니다,285.77071609999985,None,285.77071609999985,None,285.77071609999985,None,285.77071609999985,None,286.70696830004454,None,286.70696830004454,287.21928099996876,,,,,,,,,,,,,,,,127,2022-05-11_09h22.07.795,FishGame,2022.1.1,60.01395925540378,
,14,넌 책임감있어,1,Green,B,6.347826086956522,6,ScrollUp,ScrollDown,Green.png,2,Positive,Incongruent,0,0,0,0,,,,,,,,,,,,,,,,,0,13,13,13,,,,,,,,,,,,,,,,,,,,,,,,,,,,,,,,,,,,,,,,,,,,,,,,,,,,,,,,,,,,,,,,,,,,,,,,,,,,,,,,,2,0.9436251999577507,287.8530871999683,None,ScrollUp,정답입니다,287.8530871999683,None,287.8530871999683,None,287.8530871999683,None,287.8530871999683,None,288.6858993000351,None,288.6858993000351,289.1861738000298,,,,,,,,,,,,,,,,127,2022-05-11_09h22.07.795,FishGame,2022.1.1,60.01395925540378,
,15,넌 문학적이야,3,Orange,A,4.708333333333334,4.333333333333333,ScrollDown,ScrollUp,Orange.png,2,Neutral,Neutral,0,0,0,0,,,,,,,,,,,,,,,,,0,14,14,14,,,,,,,,,,,,,,,,,,,,,,,,,,,,,,,,,,,,,,,,,,,,,,,,,,,,,,,,,,,,,,,,,,,,,,,,,,,,,,,,,1,0.8335002000676468,289.82923270005267,None,ScrollDown,정답입니다,289.82923270005267,None,289.82923270005267,None,289.82923270005267,None,289.82923270005267,None,290.5410151000833,None,290.5410151000833,291.05256139999256,,,,,,,,,,,,,,,,127,2022-05-11_09h22.07.795,FishGame,2022.1.1,60.01395925540378,
,16,넌 재미있어,1,Green,B,5.875,5.7,ScrollUp,ScrollDown,Green.png,2,Positive,Incongruent,0,0,0,0,,,,,,,,,,,,,,,,,0,15,15,15,,,,,,,,,,,,,,,,,,,,,,,,,,,,,,,,,,,,,,,,,,,,,,,,,,,,,,,,,,,,,,,,,,,,,,,,,,,,,,,,,1.746913582086563,0.8021680000238121,291.6839925000677,None,ScrollUp,정답입니다,291.6839925000677,None,291.6839925000677,None,291.6839925000677,None,291.6839925000677,None,292.3748112000758,None,292.3748112000758,292.88604670006316,,,,,,,,,,,,,,,,127,2022-05-11_09h22.07.795,FishGame,2022.1.1,60.01395925540378,
,17,나를 데려가줘,6,Green,B,0,0,ScrollDown,ScrollUp,Green.png,2,NonTarget,NonTarget,0,0,0,0,,,,,,,,,,,,,,,,,0,16,16,16,,,,,,,,,,,,,,,,,,,,,,,,,,,,,,,,,,,,,,,,,,,,,,,,,,,,,,,,,,,,,,,,,,,,,,,,,,,,,,,,,1.0848765472571056,1.0240521000232548,293.5184051999822,None,ScrollDown,정답입니다,293.5184051999822,None,293.5184051999822,None,293.5184051999822,None,293.5184051999822,None,294.4360588999698,None,294.4360588999698,294.9361040000804,,,,,,,,,,,,,,,,127,2022-05-11_09h22.07.795,FishGame,2022.1.1,60.01395925540378,
,18,넌 협력적이야,1,Orange,A,5.625,5.633333333333334,ScrollDown,ScrollUp,Orange.png,2,Positive,Congruent,0,0,0,0,,,,,,,,,,,,,,,,,0,17,17,17,,,,,,,,,,,,,,,,,,,,,,,,,,,,,,,,,,,,,,,,,,,,,,,,,,,,,,,,,,,,,,,,,,,,,,,,,,,,,,,,,1.0509259402751923,0.8343259000685066,295.5801429999992,None,ScrollDown,정답입니다,295.5801429999992,None,295.5801429999992,None,295.5801429999992,None,295.5801429999992,None,296.29119040002115,None,296.29119040002115,296.8029492000351,,,,,,,,,,,,,,,,127,2022-05-11_09h22.07.795,FishGame,2022.1.1,60.01395925540378,
,19,넌 평범해,3,Green,B,4.333333333333332,4.233333333333333,ScrollUp,ScrollDown,Green.png,2,Neutral,Neutral,0,0,0,0,,,,,,,,,,,,,,,,,0,18,18,18,,,,,,,,,,,,,,,,,,,,,,,,,,,,,,,,,,,,,,,,,,,,,,,,,,,,,,,,,,,,,,,,,,,,,,,,,,,,,,,,,1.7361111094554267,0.8034611999755725,297.43585180002265,None,ScrollUp,정답입니다,297.43585180002265,None,297.43585180002265,None,297.43585180002265,None,297.43585180002265,None,298.1257931999862,None,298.1257931999862,298.63630420004483,,,,,,,,,,,,,,,,127,2022-05-11_09h22.07.795,FishGame,2022.1.1,60.01395925540378,
,20,넌 오만해,5,Orange,A,2.333333333333333,2,ScrollDown,ScrollUp,Orange.png,2,Negative,Incongruent,0,0,0,0,,,,,,,,,,,,,,,,,0,19,19,19,,,,,,,,,,,,,,,,,,,,,,,,,,,,,,,,,,,,,,,,,,,,,,,,,,,,,,,,,,,,,,,,,,,,,,,,,,,,,,,,,1.0679012437661488,0.7844083000672981,299.2676902000094,None,ScrollDown,정답입니다,299.2676902000094,None,299.2676902000094,None,299.2676902000094,None,299.2676902000094,None,299.9415393000236,None,299.9415393000236,300.45250010001473,,,,,,,,,,,,,,,,127,2022-05-11_09h22.07.795,FishGame,2022.1.1,60.01395925540378,
,21,넌 운이없어,4,Green,B,3,3.466666666666667,ScrollUp,ScrollDown,Green.png,2,Negative,Congruent,0,0,0,0,,,,,,,,,,,,,,,,,0,20,20,20,,,,,,,,,,,,,,,,,,,,,,,,,,,,,,,,,,,,,,,,,,,,,,,,,,,,,,,,,,,,,,,,,,,,,,,,,,,,,,,,,2,1.0928578999591991,301.09012559999246,None,ScrollUp,정답입니다,301.09012559999246,None,301.09012559999246,None,301.09012559999246,None,301.09012559999246,None,302.0694502000697,None,302.0694502000697,302.5697158999974,,,,,,,,,,,,,,,,127,2022-05-11_09h22.07.795,FishGame,2022.1.1,60.01395925540378,
,22,넌 창조적이야,2,Green,B,6.125,4.633333333333334,ScrollUp,ScrollDown,Green.png,2,Positive,Incongruent,0,0,0,0,,,,,,,,,,,,,,,,,0,21,21,21,,,,,,,,,,,,,,,,,,,,,,,,,,,,,,,,,,,,,,,,,,,,,,,,,,,,,,,,,,,,,,,,,,,,,,,,,,,,,,,,,1.7391975373029709,0.8524183999979869,303.2124695000239,None,ScrollUp,정답입니다,303.2124695000239,None,303.2124695000239,None,303.2124695000239,None,303.2124695000239,None,303.9493449999718,None,303.9493449999718,304.4530762999784,,,,,,,,,,,,,,,,127,2022-05-11_09h22.07.795,FishGame,2022.1.1,60.01395925540378,
,23,나를 보내줘,6,Orange,A,0,0,ScrollUp,ScrollDown,Orange.png,2,NonTarget,NonTarget,0,0,0,0,,,,,,,,,,,,,,,,,0,22,22,22,,,,,,,,,,,,,,,,,,,,,,,,,,,,,,,,,,,,,,,,,,,,,,,,,,,,,,,,,,,,,,,,,,,,,,,,,,,,,,,,,1.6496913532416024,1.1688733000773937,305.08627089997754,None,ScrollUp,정답입니다,305.08627089997754,None,305.08627089997754,None,305.08627089997754,None,305.08627089997754,None,306.14171670004725,None,306.14171670004725,306.6533878999762,,,,,,,,,,,,,,,,127,2022-05-11_09h22.07.795,FishGame,2022.1.1,60.01395925540378,
,24,넌 통찰력있어,2,Orange,A,6.5,4.8,ScrollDown,ScrollUp,Orange.png,2,Positive,Congruent,0,0,0,0,,,,,,,,,,,,,,,,,0,23,23,23,,,,,,,,,,,,,,,,,,,,,,,,,,,,,,,,,,,,,,,,,,,,,,,,,,,,,,,,,,,,,,,,,,,,,,,,,,,,,,,,,1.0509259402751923,1.0668616999173537,307.31493240001146,None,ScrollDown,정답입니다,307.31493240001146,None,307.31493240001146,None,307.31493240001146,None,307.31493240001146,None,308.24135220004246,None,308.24135220004246,308.75285569997504,,,,,,,,,,,,,,,,127,2022-05-11_09h22.07.795,FishGame,2022.1.1,60.01395925540378,
,25,넌 경솔해,5,Green,B,2.458333333333333,2.266666666666667,ScrollUp,ScrollDown,Green.png,2,Negative,Congruent,0,0,0,0,,,,,,,,,,,,,,,,,0,24,24,24,,,,,,,,,,,,,,,,,,,,,,,,,,,,,,,,,,,,,,,,,,,,,,,,,,,,,,,,,,,,,,,,,,,,,,,,,,,,,,,,,1.8348765522241592,0.8656709999777377,309.3839420999866,None,ScrollUp,정답입니다,309.3839420999866,None,309.3839420999866,None,309.3839420999866,None,309.3839420999866,None,310.14121690008324,None,310.14121690008324,310.6531812000321,,,,,,,,,,,,,,,,127,2022-05-11_09h22.07.795,FishGame,2022.1.1,60.01395925540378,
,26,넌 초조해,4,Orange,A,2.916666666666667,3.133333333333333,ScrollDown,ScrollUp,Orange.png,2,Negative,Incongruent,0,0,0,0,,,,,,,,,,,,,,,,,0,25,25,25,,,,,,,,,,,,,,,,,,,,,,,,,,,,,,,,,,,,,,,,,,,,,,,,,,,,,,,,,,,,,,,,,,,,,,,,,,,,,,,,,1.0833333333333333,1.011354000074789,311.28997260006145,None,ScrollDown,정답입니다,311.28997260006145,None,311.28997260006145,None,311.28997260006145,None,311.28997260006145,None,312.1862411000766,None,312.1862411000766,312.6865699000191,,,,,,,,,,,,,,,,127,2022-05-11_09h22.07.795,FishGame,2022.1.1,60.01395925540378,
,27,넌 무관심해,4,Green,B,2.833333333333333,2.9,ScrollUp,ScrollDown,Green.png,2,Negative,Congruent,0,0,0,0,,,,,,,,,,,,,,,,,0,26,26,26,,,,,,,,,,,,,,,,,,,,,,,,,,,,,,,,,,,,,,,,,,,,,,,,,,,,,,,,,,,,,,,,,,,,,,,,,,,,,,,,,1.8904321044683456,0.8384606000036001,313.3212135999929,None,ScrollUp,정답입니다,313.3212135999929,None,313.3212135999929,None,313.3212135999929,None,313.3212135999929,None,314.0529616000131,None,314.0529616000131,314.55317690002266,,,,,,,,,,,,,,,,127,2022-05-11_09h22.07.795,FishGame,2022.1.1,60.01395925540378,
,28,넌 감성적이야,3,Green,B,4.125,4.166666666666667,ScrollUp,ScrollDown,Green.png,2,Neutral,Neutral,0,0,0,0,,,,,,,,,,,,,,,,,0,27,27,27,,,,,,,,,,,,,,,,,,,,,,,,,,,,,,,,,,,,,,,,,,,,,,,,,,,,,,,,,,,,,,,,,,,,,,,,,,,,,,,,,1.8240740795930226,0.8267716999398544,315.1878202999942,None,ScrollUp,정답입니다,315.1878202999942,None,315.1878202999942,None,315.1878202999942,None,315.1878202999942,None,315.9029675000347,None,315.9029675000347,316.4036307000788,,,,,,,,,,,,,,,,127,2022-05-11_09h22.07.795,FishGame,2022.1.1,60.01395925540378,
,29,넌 배려심있어,1,Orange,A,6.083333333333333,5.5,ScrollDown,ScrollUp,Orange.png,2,Positive,Congruent,0,0,0,0,,,,,,,,,,,,,,,,,0,28,28,28,,,,,,,,,,,,,,,,,,,,,,,,,,,,,,,,,,,,,,,,,,,,,,,,,,,,,,,,,,,,,,,,,,,,,,,,,,,,,,,,,1.0725308855374653,0.7827637000009418,317.0415937000653,None,ScrollDown,정답입니다,317.0415937000653,None,317.0415937000653,None,317.0415937000653,None,317.0415937000653,None,317.7077285000123,None,317.7077285000123,318.21999000001233,,,,,,,,,,,,,,,,127,2022-05-11_09h22.07.795,FishGame,2022.1.1,60.01395925540378,
,30,넌 숨김없어,3,Orange,A,4.5,4.933333333333334,ScrollDown,ScrollUp,Orange.png,2,Neutral,Neutral,0,0,0,0,,,,,,,,,,,,,,,,,0,29,29,29,,,,,,,,,,,,,,,,,,,,,,,,,,,,,,,,,,,,,,,,,,,,,,,,,,,,,,,,,,,,,,,,,,,,,,,,,,,,,,,,,1.2407407313585281,0.8434431999921799,318.8622873000568,None,ScrollDown,정답입니다,318.8622873000568,None,318.8622873000568,None,318.8622873000568,None,318.8622873000568,None,319.5867129000835,None,319.5867129000835,320.08705269999336,,,,,,,,,,,,,,,,127,2022-05-11_09h22.07.795,FishGame,2022.1.1,60.01395925540378,
,31,넌 훌륭해,2,Green,B,5.916666666666667,4.033333333333333,ScrollUp,ScrollDown,Green.png,2,Positive,Incongruent,0,0,0,0,,,,,,,,,,,,,,,,,0,30,30,30,,,,,,,,,,,,,,,,,,,,,,,,,,,,,,,,,,,,,,,,,,,,,,,,,,,,,,,,,,,,,,,,,,,,,,,,,,,,,,,,,1.9367283980051677,0.8560165000380948,320.7197179000359,None,ScrollUp,정답입니다,320.7197179000359,None,320.7197179000359,None,320.7197179000359,None,320.7197179000359,None,321.47004659997765,None,321.47004659997765,321.9700139000779,,,,,,,,,,,,,,,,127,2022-05-11_09h22.07.795,FishGame,2022.1.1,60.01395925540378,
,32,넌 슬기로워,2,Orange,A,6.166666666666667,4.1,ScrollDown,ScrollUp,Orange.png,2,Positive,Congruent,0,0,0,0,,,,,,,,,,,,,,,,,0,31,31,31,,,,,,,,,,,,,,,,,,,,,,,,,,,,,,,,,,,,,,,,,,,,,,,,,,,,,,,,,,,,,,,,,,,,,,,,,,,,,,,,,1.0632716019948323,0.9008473999565467,322.60576100007165,None,ScrollDown,정답입니다,322.60576100007165,None,322.60576100007165,None,322.60576100007165,None,322.60576100007165,None,323.3916979000205,None,323.3916979000205,323.90330140001606,,,,,,,,,,,,,,,,127,2022-05-11_09h22.07.795,FishGame,2022.1.1,60.01395925540378,
,33,넌 냉혹해,5,Orange,A,2.583333333333333,2.1,ScrollDown,ScrollUp,Orange.png,2,Negative,Incongruent,0,0,0,0,,,,,,,,,,,,,,,,,0,32,32,32,,,,,,,,,,,,,,,,,,,,,,,,,,,,,,,,,,,,,,,,,,,,,,,,,,,,,,,,,,,,,,,,,,,,,,,,,,,,,,,,,1.1867283930381138,0.794122299994342,324.556437500054,None,ScrollDown,정답입니다,324.556437500054,None,324.556437500054,None,324.556437500054,None,324.556437500054,None,325.22026520001236,None,325.22026520001236,325.71992679999676,,,,,,,,,,,,,,,,127,2022-05-11_09h22.07.795,FishGame,2022.1.1,60.01395925540378,
,34,나를 데려가줘,6,Green,B,0,0,ScrollDown,ScrollUp,Green.png,2,NonTarget,NonTarget,0,0,0,0,,,,,,,,,,,,,,,,,0,33,33,33,,,,,,,,,,,,,,,,,,,,,,,,,,,,,,,,,,,,,,,,,,,,,,,,,,,,,,,,,,,,,,,,,,,,,,,,,,,,,,,,,1,0.8719370000762865,326.3492162000621,None,ScrollDown,정답입니다,326.3492162000621,None,326.3492162000621,None,326.3492162000621,None,326.3492162000621,None,327.1203701000195,None,327.1203701000195,327.6200335000176,,,,,,,,,,,,,,,,127,2022-05-11_09h22.07.795,FishGame,2022.1.1,60.01395925540378,
,35,넌 편파적이야,5,Green,B,2.125,2,ScrollUp,ScrollDown,Green.png,2,Negative,Congruent,0,0,0,0,,,,,,,,,,,,,,,,,0,34,34,34,,,,,,,,,,,,,,,,,,,,,,,,,,,,,,,,,,,,,,,,,,,,,,,,,,,,,,,,,,,,,,,,,,,,,,,,,,,,,,,,,1.9922839502493541,0.9753900000359863,328.2517374000745,None,ScrollUp,정답입니다,328.2517374000745,None,328.2517374000745,None,328.2517374000745,None,328.2517374000745,None,329.12059559999034,None,329.12059559999034,329.62052960006986,,,,,,,,,,,,,,,,127,2022-05-11_09h22.07.795,FishGame,2022.1.1,60.01395925540378,
,36,넌 슬퍼,4,Orange,A,2.583333333333333,3.066666666666667,ScrollDown,ScrollUp,Orange.png,2,Negative,Incongruent,0,0,0,0,,,,,,,,,,,,,,,,,0,35,35,35,,,,,,,,,,,,,,,,,,,,,,,,,,,,,,,,,,,,,,,,,,,,,,,,,,,,,,,,,,,,,,,,,,,,,,,,,,,,,,,,,1.1327160547176998,0.8157150000333786,330.2508705999935,None,ScrollDown,정답입니다,330.2508705999935,None,330.2508705999935,None,330.2508705999935,None,330.2508705999935,None,330.95804360008333,None,330.95804360008333,331.4705329000717,,,,,,,,,,,,,,,,127,2022-05-11_09h22.07.795,FishGame,2022.1.1,60.01395925540378,
,37,나를 데려가줘,6,Green,B,0,0,ScrollDown,ScrollUp,Green.png,2,NonTarget,NonTarget,0,0,0,0,,,,,,,,,,,,,,,,,0,36,36,36,,,,,,,,,,,,,,,,,,,,,,,,,,,,,,,,,,,,,,,,,,,,,,,,,,,,,,,,,,,,,,,,,,,,,,,,,,,,,,,,,1.0972222338120143,0.8973518999991938,332.0930757999886,None,ScrollDown,정답입니다,332.0930757999886,None,332.0930757999886,None,332.0930757999886,None,332.0930757999886,None,332.8914289000677,None,332.8914289000677,333.4041641000658,,,,,,,,,,,,,,,,127,2022-05-11_09h22.07.795,FishGame,2022.1.1,60.01395925540378,
,38,넌 친절해,1,Green,B,6.041666666666667,5.533333333333333,ScrollUp,ScrollDown,Green.png,2,Positive,Incongruent,0,0,0,0,,,,,,,,,,,,,,,,,0,37,37,37,,,,,,,,,,,,,,,,,,,,,,,,,,,,,,,,,,,,,,,,,,,,,,,,,,,,,,,,,,,,,,,,,,,,,,,,,,,,,,,,,1.5925925932824612,0.9183603000128642,334.03814000007696,None,ScrollUp,정답입니다,334.03814000007696,None,334.03814000007696,None,334.03814000007696,None,334.03814000007696,None,334.8500187000027,None,334.8500187000027,335.35363430005964,,,,,,,,,,,,,,,,127,2022-05-11_09h22.07.795,FishGame,2022.1.1,60.01395925540378,
,1,넌 엉성해,4,Orange,A,3,3.3,ScrollDown,ScrollUp,Orange.png,3,Negative,Incongruent,0,0,0,0,,,,,,,,,,,,,,,,,,,,,0,0,0,0,,,,,,,,,,,,,,,,,,,,,,,,,,,,,,,,,,,,366.80615540000144,368.3211298000533,368.35419600002933,369.30417740007397,369.3542313000653,370.304316499969,370.304316499969,None,,,,,,,,,,,,,,,,,,,,,,,,,,,,,,,,,,1.9274691144625347,1.1333032000111416,371.46898300002795,None,ScrollUp,오답입니다,371.46898300002795,None,371.46898300002795,None,371.46898300002795,None,371.46898300002795,None,372.42813090002164,None,372.42813090002164,372.9378955999855,335.85402670002077,None,335.85402670002077,None,-0.15925926,-0.17592593,1,0,0,0.016359549830667675,None,365.8545879999874,None,,,127,2022-05-11_09h22.07.795,FishGame,2022.1.1,60.01395925540378,
,2,나를 보내줘,6,Orange,A,0,0,ScrollUp,ScrollDown,Orange.png,3,NonTarget,NonTarget,0,0,0,0,,,,,,,,,,,,,,,,,,,,,0,1,1,1,,,,,,,,,,,,,,,,,,,,,,,,,,,,,,,,,,,,,,,,,,,,,,,,,,,,,,,,,,,,,,,,,,,,,,,,,,,,,1.8935185074806213,0.9773283000104129,373.56932120001875,None,ScrollUp,정답입니다,373.56932120001875,None,373.56932120001875,None,373.56932120001875,None,373.56932120001875,None,374.43787909997627,None,374.43787909997627,374.93803489999846,,,,,,,,,,,,,,,,127,2022-05-11_09h22.07.795,FishGame,2022.1.1,60.01395925540378,
,3,넌 활발해,1,Green,B,5.666666666666667,5.6,ScrollUp,ScrollDown,Green.png,3,Positive,Incongruent,0,0,0,0,,,,,,,,,,,,,,,,,,,,,0,2,2,2,,,,,,,,,,,,,,,,,,,,,,,,,,,,,,,,,,,,,,,,,,,,,,,,,,,,,,,,,,,,,,,,,,,,,,,,,,,,,1.939814825852712,0.8909071000525728,375.57839649997186,None,ScrollUp,정답입니다,375.57839649997186,None,375.57839649997186,None,375.57839649997186,None,375.57839649997186,None,376.3547312000301,None,376.3547312000301,376.854923899984,,,,,,,,,,,,,,,,127,2022-05-11_09h22.07.795,FishGame,2022.1.1,60.01395925540378,
,4,넌 논리적이야,2,Orange,A,5.666666666666666,4.633333333333334,ScrollDown,ScrollUp,Orange.png,3,Positive,Congruent,0,0,0,0,,,,,,,,,,,,,,,,,,,,,0,3,3,3,,,,,,,,,,,,,,,,,,,,,,,,,,,,,,,,,,,,,,,,,,,,,,,,,,,,,,,,,,,,,,,,,,,,,,,,,,,,,1.0154321193695068,0.8431190000846982,377.49656610004604,None,ScrollDown,정답입니다,377.49656610004604,None,377.49656610004604,None,377.49656610004604,None,377.49656610004604,None,378.22099399997387,None,378.22099399997387,378.7211349999998,,,,,,,,,,,,,,,,127,2022-05-11_09h22.07.795,FishGame,2022.1.1,60.01395925540378,
,5,넌 과묵해,3,Orange,A,3.875,4.4,ScrollDown,ScrollUp,Orange.png,3,Neutral,Neutral,0,0,0,0,,,,,,,,,,,,,,,,,,,,,0,4,4,4,,,,,,,,,,,,,,,,,,,,,,,,,,,,,,,,,,,,,,,,,,,,,,,,,,,,,,,,,,,,,,,,,,,,,,,,,,,,,1.0061728358268738,0.8314712999854237,379.3598739000736,None,ScrollDown,정답입니다,379.3598739000736,None,379.3598739000736,None,379.3598739000736,None,379.3598739000736,None,380.07595550001133,None,380.07595550001133,380.5885592000559,,,,,,,,,,,,,,,,127,2022-05-11_09h22.07.795,FishGame,2022.1.1,60.01395925540378,
,6,나를 데려가줘,6,Green,B,0,0,ScrollDown,ScrollUp,Green.png,3,NonTarget,NonTarget,0,0,0,0,,,,,,,,,,,,,,,,,,,,,0,5,5,5,,,,,,,,,,,,,,,,,,,,,,,,,,,,,,,,,,,,,,,,,,,,,,,,,,,,,,,,,,,,,,,,,,,,,,,,,,,,,1.1327160547176998,0.8478569000726566,381.2109516999917,None,ScrollDown,정답입니다,381.2109516999917,None,381.2109516999917,None,381.2109516999917,None,381.2109516999917,None,381.9594460000517,None,381.9594460000517,382.4721292000031,,,,,,,,,,,,,,,,127,2022-05-11_09h22.07.795,FishGame,2022.1.1,60.01395925540378,
,7,넌 미숙해,4,Green,B,3,3,ScrollUp,ScrollDown,Green.png,3,Negative,Congruent,0,0,0,0,,,,,,,,,,,,,,,,,,,,,0,6,6,6,,,,,,,,,,,,,,,,,,,,,,,,,,,,,,,,,,,,,,,,,,,,,,,,,,,,,,,,,,,,,,,,,,,,,,,,,,,,,2,1.39199830009602,383.0998770999722,None,ScrollUp,정답입니다,383.0998770999722,None,383.0998770999722,None,383.0998770999722,None,383.0998770999722,None,384.38808990002144,None,384.38808990002144,384.88826630008407,,,,,,,,,,,,,,,,127,2022-05-11_09h22.07.795,FishGame,2022.1.1,60.01395925540378,
,8,나를 보내줘,6,Orange,A,0,0,ScrollUp,ScrollDown,Orange.png,3,NonTarget,NonTarget,0,0,0,0,,,,,,,,,,,,,,,,,,,,,0,7,7,7,,,,,,,,,,,,,,,,,,,,,,,,,,,,,,,,,,,,,,,,,,,,,,,,,,,,,,,,,,,,,,,,,,,,,,,,,,,,,2,1.454920700052753,385.5246067000553,None,ScrollUp,정답입니다,385.5246067000553,None,385.5246067000553,None,385.5246067000553,None,385.5246067000553,None,386.87048919999506,None,386.87048919999506,387.371532500023,,,,,,,,,,,,,,,,127,2022-05-11_09h22.07.795,FishGame,2022.1.1,60.01395925540378,
,9,넌 자신만만해,3,Green,B,4.833333333333334,4.333333333333333,ScrollUp,ScrollDown,Green.png,3,Neutral,Neutral,0,0,0,0,,,,,,,,,,,,,,,,,,,,,0,8,8,8,,,,,,,,,,,,,,,,,,,,,,,,,,,,,,,,,,,,,,,,,,,,,,,,,,,,,,,,,,,,,,,,,,,,,,,,,,,,,2,0.9244281999999657,388.00265879998915,None,ScrollUp,정답입니다,388.00265879998915,None,388.00265879998915,None,388.00265879998915,None,388.00265879998915,None,388.82165519997943,None,388.82165519997943,389.32161840004846,,,,,,,,,,,,,,,,127,2022-05-11_09h22.07.795,FishGame,2022.1.1,60.01395925540378,
,10,넌 탐욕스러워,5,Orange,A,2.25,2.1,ScrollDown,ScrollUp,Orange.png,3,Negative,Incongruent,0,0,0,0,,,,,,,,,,,,,,,,,,,,,0,9,9,9,,,,,,,,,,,,,,,,,,,,,,,,,,,,,,,,,,,,,,,,,,,,,,,,,,,,,,,,,,,,,,,,,,,,,,,,,,,,,1.0617283880710602,0.8428473999956623,389.96775870001875,None,ScrollDown,정답입니다,389.96775870001875,None,389.96775870001875,None,389.96775870001875,None,389.96775870001875,None,390.6882926999824,None,390.6882926999824,391.1884319999954,,,,,,,,,,,,,,,,127,2022-05-11_09h22.07.795,FishGame,2022.1.1,60.01395925540378,
,11,넌 인기있어,2,Orange,A,5.458333333333333,4.5,ScrollDown,ScrollUp,Orange.png,3,Positive,Congruent,0,0,0,0,,,,,,,,,,,,,,,,,,,,,0,10,10,10,,,,,,,,,,,,,,,,,,,,,,,,,,,,,,,,,,,,,,,,,,,,,,,,,,,,,,,,,,,,,,,,,,,,,,,,,,,,,1.0308642089366913,0.9290141999954358,391.82656730001327,None,ScrollDown,정답입니다,391.82656730001327,None,391.82656730001327,None,391.82656730001327,None,391.82656730001327,None,392.6422343000304,None,392.6422343000304,393.155056299991,,,,,,,,,,,,,,,,127,2022-05-11_09h22.07.795,FishGame,2022.1.1,60.01395925540378,
,12,나를 데려가줘,6,Green,B,0,0,ScrollDown,ScrollUp,Green.png,3,NonTarget,NonTarget,0,0,0,0,,,,,,,,,,,,,,,,,,,,,0,11,11,11,,,,,,,,,,,,,,,,,,,,,,,,,,,,,,,,,,,,,,,,,,,,,,,,,,,,,,,,,,,,,,,,,,,,,,,,,,,,,1.0817901194095612,0.9585231000091881,393.7848615000257,None,ScrollDown,정답입니다,393.7848615000257,None,393.7848615000257,None,393.7848615000257,None,393.7848615000257,None,394.6389590000035,None,394.6389590000035,395.1386222000001,,,,,,,,,,,,,,,,127,2022-05-11_09h22.07.795,FishGame,2022.1.1,60.01395925540378,
,13,넌 뛰어나,2,Green,B,6.166666666666667,4,ScrollUp,ScrollDown,Green.png,3,Positive,Incongruent,0,0,0,0,,,,,,,,,,,,,,,,,,,,,0,12,12,12,,,,,,,,,,,,,,,,,,,,,,,,,,,,,,,,,,,,,,,,,,,,,,,,,,,,,,,,,,,,,,,,,,,,,,,,,,,,,1.71296297510465,0.8780483000446111,395.77434760006145,None,ScrollUp,정답입니다,395.77434760006145,None,395.77434760006145,None,395.77434760006145,None,395.77434760006145,None,396.5384655999951,None,396.5384655999951,397.03861789999064,,,,,,,,,,,,,,,,127,2022-05-11_09h22.07.795,FishGame,2022.1.1,60.01395925540378,
,14,넌 낙관적이야,1,Orange,A,5.75,5.8,ScrollDown,ScrollUp,Orange.png,3,Positive,Congruent,0,0,0,0,,,,,,,,,,,,,,,,,,,,,0,13,13,13,,,,,,,,,,,,,,,,,,,,,,,,,,,,,,,,,,,,,,,,,,,,,,,,,,,,,,,,,,,,,,,,,,,,,,,,,,,,,1.1141975373029709,0.7822793000377715,397.67970129998866,None,ScrollDown,정답입니다,397.67970129998866,None,397.67970129998866,None,397.67970129998866,None,397.67970129998866,None,398.34346550004557,None,398.34346550004557,398.8550884000724,,,,,,,,,,,,,,,,127,2022-05-11_09h22.07.795,FishGame,2022.1.1,60.01395925540378,
,15,넌 산만해,4,Green,B,2.695652173913043,3.033333333333333,ScrollUp,ScrollDown,Green.png,3,Negative,Congruent,0,0,0,0,,,,,,,,,,,,,,,,,,,,,0,14,14,14,,,,,,,,,,,,,,,,,,,,,,,,,,,,,,,,,,,,,,,,,,,,,,,,,,,,,,,,,,,,,,,,,,,,,,,,,,,,,1.7762345721324284,0.812817299971357,399.4897932000458,None,ScrollUp,정답입니다,399.4897932000458,None,399.4897932000458,None,399.4897932000458,None,399.4897932000458,None,400.19332670001313,None,400.19332670001313,400.7059373999946,,,,,,,,,,,,,,,,127,2022-05-11_09h22.07.795,FishGame,2022.1.1,60.01395925540378,
,16,나를 보내줘,6,Orange,A,0,0,ScrollUp,ScrollDown,Orange.png,3,NonTarget,NonTarget,0,0,0,0,,,,,,,,,,,,,,,,,,,,,0,15,15,15,,,,,,,,,,,,,,,,,,,,,,,,,,,,,,,,,,,,,,,,,,,,,,,,,,,,,,,,,,,,,,,,,,,,,,,,,,,,,1.8904321044683456,1.5840281000128016,401.339390499983,None,ScrollUp,정답입니다,401.339390499983,None,401.339390499983,None,401.339390499983,None,401.339390499983,None,402.8102007000707,None,402.8102007000707,403.321712300065,,,,,,,,,,,,,,,,127,2022-05-11_09h22.07.795,FishGame,2022.1.1,60.01395925540378,
,17,넌 교활해,5,Green,B,2.333333333333333,2.133333333333333,ScrollUp,ScrollDown,Green.png,3,Negative,Congruent,0,0,0,0,,,,,,,,,,,,,,,,,,,,,0,16,16,16,,,,,,,,,,,,,,,,,,,,,,,,,,,,,,,,,,,,,,,,,,,,,,,,,,,,,,,,,,,,,,,,,,,,,,,,,,,,,1.6558641965190568,0.8362599000101909,403.9581037000753,None,ScrollUp,정답입니다,403.9581037000753,None,403.9581037000753,None,403.9581037000753,None,403.9581037000753,None,404.68546269997023,None,404.68546269997023,405.1887936000712,,,,,,,,,,,,,,,,127,2022-05-11_09h22.07.795,FishGame,2022.1.1,60.01395925540378,
,18,나를 보내줘,6,Orange,A,0,0,ScrollUp,ScrollDown,Orange.png,3,NonTarget,NonTarget,0,0,0,0,,,,,,,,,,,,,,,,,,,,,0,17,17,17,,,,,,,,,,,,,,,,,,,,,,,,,,,,,,,,,,,,,,,,,,,,,,,,,,,,,,,,,,,,,,,,,,,,,,,,,,,,,2,1.0004484999226406,405.82294310000725,None,ScrollUp,정답입니다,405.82294310000725,None,405.82294310000725,None,405.82294310000725,None,405.82294310000725,None,406.7101921000285,None,406.7101921000285,407.2219110999722,,,,,,,,,,,,,,,,127,2022-05-11_09h22.07.795,FishGame,2022.1.1,60.01395925540378,
,19,넌 불친절해,5,Green,B,2.208333333333333,2.033333333333333,ScrollUp,ScrollDown,Green.png,3,Negative,Congruent,0,0,0,0,,,,,,,,,,,,,,,,,,,,,0,18,18,18,,,,,,,,,,,,,,,,,,,,,,,,,,,,,,,,,,,,,,,,,,,,,,,,,,,,,,,,,,,,,,,,,,,,,,,,,,,,,1.983024666706721,0.8696869000559673,407.84866850008257,None,ScrollUp,정답입니다,407.84866850008257,None,407.84866850008257,None,407.84866850008257,None,407.84866850008257,None,408.61855450004805,None,408.61855450004805,409.1219447000185,,,,,,,,,,,,,,,,127,2022-05-11_09h22.07.795,FishGame,2022.1.1,60.01395925540378,
,20,넌 지적이야,2,Green,B,5.75,4.366666666666666,ScrollUp,ScrollDown,Green.png,3,Positive,Incongruent,0,0,0,0,,,,,,,,,,,,,,,,,,,,,0,19,19,19,,,,,,,,,,,,,,,,,,,,,,,,,,,,,,,,,,,,,,,,,,,,,,,,,,,,,,,,,,,,,,,,,,,,,,,,,,,,,1.8811728457609813,0.7399383001029491,409.7512942000758,None,ScrollUp,정답입니다,409.7512942000758,None,409.7512942000758,None,409.7512942000758,None,409.7512942000758,None,410.3886747000506,None,410.3886747000506,410.8887584999902,,,,,,,,,,,,,,,,127,2022-05-11_09h22.07.795,FishGame,2022.1.1,60.01395925540378,
,21,넌 우유부단해,4,Orange,A,2.666666666666667,3.166666666666667,ScrollDown,ScrollUp,Orange.png,3,Negative,Incongruent,0,0,0,0,,,,,,,,,,,,,,,,,,,,,0,20,20,20,,,,,,,,,,,,,,,,,,,,,,,,,,,,,,,,,,,,,,,,,,,,,,,,,,,,,,,,,,,,,,,,,,,,,,,,,,,,,1,0.9342770000221208,411.52853720006533,None,ScrollDown,정답입니다,411.52853720006533,None,411.52853720006533,None,411.52853720006533,None,411.52853720006533,None,412.34444120002445,None,412.34444120002445,412.85546240000986,,,,,,,,,,,,,,,,127,2022-05-11_09h22.07.795,FishGame,2022.1.1,60.01395925540378,
,22,나를 데려가줘,6,Green,B,0,0,ScrollDown,ScrollUp,Green.png,3,NonTarget,NonTarget,0,0,0,0,,,,,,,,,,,,,,,,,,,,,0,21,21,21,,,,,,,,,,,,,,,,,,,,,,,,,,,,,,,,,,,,,,,,,,,,,,,,,,,,,,,,,,,,,,,,,,,,,,,,,,,,,1.1790123482545216,1.0517962001031265,413.4848293000832,None,ScrollDown,정답입니다,413.4848293000832,None,413.4848293000832,None,413.4848293000832,None,413.4848293000832,None,414.4271228000289,None,414.4271228000289,414.9391905000666,,,,,,,,,,,,,,,,127,2022-05-11_09h22.07.795,FishGame,2022.1.1,60.01395925540378,
,23,넌 성실해,1,Green,B,6.041666666666666,5.7,ScrollUp,ScrollDown,Green.png,3,Positive,Incongruent,0,0,0,0,,,,,,,,,,,,,,,,,,,,,0,22,22,22,,,,,,,,,,,,,,,,,,,,,,,,,,,,,,,,,,,,,,,,,,,,,,,,,,,,,,,,,,,,,,,,,,,,,,,,,,,,,1.6604938258727393,0.8817807000596076,415.5641621000832,None,ScrollUp,정답입니다,415.5641621000832,None,415.5641621000832,None,415.5641621000832,None,415.5641621000832,None,416.3438608000288,None,416.3438608000288,416.85558580001816,,,,,,,,,,,,,,,,127,2022-05-11_09h22.07.795,FishGame,2022.1.1,60.01395925540378,
,24,넌 현실주의적이야,3,Orange,A,4.625,4.4,ScrollDown,ScrollUp,Orange.png,3,Neutral,Neutral,0,0,0,0,,,,,,,,,,,,,,,,,,,,,0,23,23,23,,,,,,,,,,,,,,,,,,,,,,,,,,,,,,,,,,,,,,,,,,,,,,,,,,,,,,,,,,,,,,,,,,,,,,,,,,,,,1.212962955236435,0.7964290999807417,417.4993123000022,None,ScrollDown,정답입니다,417.4993123000022,None,417.4993123000022,None,417.4993123000022,None,417.4993123000022,None,418.1773742000805,None,418.1773742000805,418.6889908000594,,,,,,,,,,,,,,,,127,2022-05-11_09h22.07.795,FishGame,2022.1.1,60.01395925540378,
,25,넌 진실돼,1,Orange,A,6.625,5.566666666666666,ScrollDown,ScrollUp,Orange.png,3,Positive,Congruent,0,0,0,0,,,,,,,,,,,,,,,,,,,,,0,24,24,24,,,,,,,,,,,,,,,,,,,,,,,,,,,,,,,,,,,,,,,,,,,,,,,,,,,,,,,,,,,,,,,,,,,,,,,,,,,,,1.0910493781169255,0.7230344000272453,419.32639220007695,None,ScrollDown,정답입니다,419.32639220007695,None,419.32639220007695,None,419.32639220007695,None,419.32639220007695,None,419.9388300999999,None,419.9388300999999,420.4393188999966,,,,,,,,,,,,,,,,127,2022-05-11_09h22.07.795,FishGame,2022.1.1,60.01395925540378,
,26,넌 천진난만해,3,Green,B,4.958333333333334,4.833333333333333,ScrollUp,ScrollDown,Green.png,3,Neutral,Neutral,0,0,0,0,,,,,,,,,,,,,,,,,,,,,0,25,25,25,,,,,,,,,,,,,,,,,,,,,,,,,,,,,,,,,,,,,,,,,,,,,,,,,,,,,,,,,,,,,,,,,,,,,,,,,,,,,1.6234567910432816,0.7534302000422031,421.0792443000246,None,ScrollUp,정답입니다,421.0792443000246,None,421.0792443000246,None,421.0792443000246,None,421.0792443000246,None,421.71871519996785,None,421.71871519996785,422.2221533000702,,,,,,,,,,,,,,,,127,2022-05-11_09h22.07.795,FishGame,2022.1.1,60.01395925540378,
,27,넌 교양없어,5,Orange,A,2.416666666666667,2.2,ScrollDown,ScrollUp,Orange.png,3,Negative,Incongruent,0,0,0,0,,,,,,,,,,,,,,,,,,,,,0,26,26,26,,,,,,,,,,,,,,,,,,,,,,,,,,,,,,,,,,,,,,,,,,,,,,,,,,,,,,,,,,,,,,,,,,,,,,,,,,,,,1,0.8562319000484422,422.86312560003716,None,ScrollDown,정답입니다,422.86312560003716,None,422.86312560003716,None,422.86312560003716,None,422.86312560003716,None,423.60561640001833,None,423.60561640001833,424.10595190001186,,,,,,,,,,,,,,,,127,2022-05-11_09h22.07.795,FishGame,2022.1.1,60.01395925540378,
,28,나를 보내줘,6,Orange,A,0,0,ScrollUp,ScrollDown,Orange.png,3,NonTarget,NonTarget,0,0,0,0,,,,,,,,,,,,,,,,,,,,,0,27,27,27,,,,,,,,,,,,,,,,,,,,,,,,,,,,,,,,,,,,,,,,,,,,,,,,,,,,,,,,,,,,,,,,,,,,,,,,,,,,,1.9722222189108531,0.862083200016059,424.7384375000838,None,ScrollUp,정답입니다,424.7384375000838,None,424.7384375000838,None,424.7384375000838,None,424.7384375000838,None,425.49337729997933,None,425.49337729997933,426.0060434000334,,,,,,,,,,,,,,,,127,2022-05-11_09h22.07.795,FishGame,2022.1.1,60.01395925540378,
,29,넌 엉뚱스러워,3,Orange,A,4.166666666666667,4.133333333333334,ScrollDown,ScrollUp,Orange.png,3,Neutral,Neutral,0,0,0,0,,,,,,,,,,,,,,,,,,,,,0,28,28,28,,,,,,,,,,,,,,,,,,,,,,,,,,,,,,,,,,,,,,,,,,,,,,,,,,,,,,,,,,,,,,,,,,,,,,,,,,,,,1.0108024775981903,0.9606277999700978,426.6412074000109,None,ScrollDown,정답입니다,426.6412074000109,None,426.6412074000109,None,426.6412074000109,None,426.6412074000109,None,427.48918120004237,None,427.48918120004237,427.98926689999644,,,,,,,,,,,,,,,,127,2022-05-11_09h22.07.795,FishGame,2022.1.1,60.01395925540378,
,30,넌 무지해,4,Green,B,2.541666666666667,3.066666666666667,ScrollUp,ScrollDown,Green.png,3,Negative,Congruent,0,0,0,0,,,,,,,,,,,,,,,,,,,,,0,29,29,29,,,,,,,,,,,,,,,,,,,,,,,,,,,,,,,,,,,,,,,,,,,,,,,,,,,,,,,,,,,,,,,,,,,,,,,,,,,,,1.7777777860562007,0.6915147000690922,428.61652070004493,None,ScrollUp,정답입니다,428.61652070004493,None,428.61652070004493,None,428.61652070004493,None,428.61652070004493,None,429.2054738000734,None,429.2054738000734,429.70585450006183,,,,,,,,,,,,,,,,127,2022-05-11_09h22.07.795,FishGame,2022.1.1,60.01395925540378,
,31,넌 음울해,5,Green,B,2.25,2.233333333333333,ScrollUp,ScrollDown,Green.png,3,Negative,Congruent,0,0,0,0,,,,,,,,,,,,,,,,,,,,,0,30,30,30,,,,,,,,,,,,,,,,,,,,,,,,,,,,,,,,,,,,,,,,,,,,,,,,,,,,,,,,,,,,,,,,,,,,,,,,,,,,,1.7932098756233852,0.7561531999381259,430.34369660005905,None,ScrollUp,정답입니다,430.34369660005905,None,430.34369660005905,None,430.34369660005905,None,430.34369660005905,None,430.9893925000215,None,430.9893925000215,431.48935360007454,,,,,,,,,,,,,,,,127,2022-05-11_09h22.07.795,FishGame,2022.1.1,60.01395925540378,
,32,넌 냉소적이야,5,Orange,A,2.916666666666667,2.4,ScrollDown,ScrollUp,Orange.png,3,Negative,Incongruent,0,0,0,0,,,,,,,,,,,,,,,,,,,,,0,31,31,31,,,,,,,,,,,,,,,,,,,,,,,,,,,,,,,,,,,,,,,,,,,,,,,,,,,,,,,,,,,,,,,,,,,,,,,,,,,,,1,0.7787718999898061,432.1205305000767,None,ScrollDown,정답입니다,432.1205305000767,None,432.1205305000767,None,432.1205305000767,None,432.1205305000767,None,432.78902799997013,None,432.78902799997013,433.2890556000639,,,,,,,,,,,,,,,,127,2022-05-11_09h22.07.795,FishGame,2022.1.1,60.01395925540378,
,33,나를 데려가줘,6,Green,B,0,0,ScrollDown,ScrollUp,Green.png,3,NonTarget,NonTarget,0,0,0,0,,,,,,,,,,,,,,,,,,,,,0,32,32,32,,,,,,,,,,,,,,,,,,,,,,,,,,,,,,,,,,,,,,,,,,,,,,,,,,,,,,,,,,,,,,,,,,,,,,,,,,,,,1,0.8996557000791654,433.9198698999826,None,ScrollDown,정답입니다,433.9198698999826,None,433.9198698999826,None,433.9198698999826,None,433.9198698999826,None,434.71063159999903,None,434.71063159999903,435.2224226000253,,,,,,,,,,,,,,,,127,2022-05-11_09h22.07.795,FishGame,2022.1.1,60.01395925540378,
,34,넌 쾌활해,1,Orange,A,5.541666666666666,5.733333333333333,ScrollDown,ScrollUp,Orange.png,3,Positive,Congruent,0,0,0,0,,,,,,,,,,,,,,,,,,,,,0,33,33,33,,,,,,,,,,,,,,,,,,,,,,,,,,,,,,,,,,,,,,,,,,,,,,,,,,,,,,,,,,,,,,,,,,,,,,,,,,,,,1.095679019888242,0.8518698000116274,435.861928600003,None,ScrollDown,정답입니다,435.861928600003,None,435.861928600003,None,435.861928600003,None,435.861928600003,None,436.6023322000401,None,436.6023322000401,437.1063300999813,,,,,,,,,,,,,,,,127,2022-05-11_09h22.07.795,FishGame,2022.1.1,60.01395925540378,
,35,나를 보내줘,6,Orange,A,0,0,ScrollUp,ScrollDown,Orange.png,3,NonTarget,NonTarget,0,0,0,0,,,,,,,,,,,,,,,,,,,,,0,34,34,34,,,,,,,,,,,,,,,,,,,,,,,,,,,,,,,,,,,,,,,,,,,,,,,,,,,,,,,,,,,,,,,,,,,,,,,,,,,,,1.8441358109315236,0.811822000076063,437.7390066999942,None,ScrollUp,정답입니다,437.7390066999942,None,437.7390066999942,None,437.7390066999942,None,437.7390066999942,None,438.4393380000256,None,438.4393380000256,438.93931739998516,,,,,,,,,,,,,,,,127,2022-05-11_09h22.07.795,FishGame,2022.1.1,60.01395925540378,
,36,넌 명랑해,1,Green,B,5.739130434782609,5.666666666666667,ScrollUp,ScrollDown,Green.png,3,Positive,Incongruent,0,0,0,0,,,,,,,,,,,,,,,,,,,,,0,35,35,35,,,,,,,,,,,,,,,,,,,,,,,,,,,,,,,,,,,,,,,,,,,,,,,,,,,,,,,,,,,,,,,,,,,,,,,,,,,,,2,0.9006751999258995,439.5720002000453,None,ScrollUp,정답입니다,439.5720002000453,None,439.5720002000453,None,439.5720002000453,None,439.5720002000453,None,440.3692018999718,None,440.3692018999718,440.8732516000746,,,,,,,,,,,,,,,,127,2022-05-11_09h22.07.795,FishGame,2022.1.1,60.01395925540378,
,37,넌 멍해,4,Orange,A,2.833333333333333,3.4,ScrollDown,ScrollUp,Orange.png,3,Negative,Incongruent,0,0,0,0,,,,,,,,,,,,,,,,,,,,,0,36,36,36,,,,,,,,,,,,,,,,,,,,,,,,,,,,,,,,,,,,,,,,,,,,,,,,,,,,,,,,,,,,,,,,,,,,,,,,,,,,,1.2114197413126628,0.7544027999974787,441.50155300006736,None,ScrollDown,정답입니다,441.50155300006736,None,441.50155300006736,None,441.50155300006736,None,441.50155300006736,None,442.1528586000204,None,442.1528586000204,442.6567144000437,,,,,,,,,,,,,,,,127,2022-05-11_09h22.07.795,FishGame,2022.1.1,60.01395925540378,
,38,나를 데려가줘,6,Green,B,0,0,ScrollDown,ScrollUp,Green.png,3,NonTarget,NonTarget,0,0,0,0,,,,,,,,,,,,,,,,,,,,,0,37,37,37,,,,,,,,,,,,,,,,,,,,,,,,,,,,,,,,,,,,,,,,,,,,,,,,,,,,,,,,,,,,,,,,,,,,,,,,,,,,,1.0216049253940582,0.9102059999713674,443.28144930000417,None,ScrollDown,정답입니다,443.28144930000417,None,443.28144930000417,None,443.28144930000417,None,443.28144930000417,None,444.089255400002,None,444.089255400002,444.58926180005074,,,,,,,,,,,,,,,,127,2022-05-11_09h22.07.795,FishGame,2022.1.1,60.01395925540378,
,39,넌 현명해,2,Orange,A,6.541666666666666,4.533333333333333,ScrollDown,ScrollUp,Orange.png,3,Positive,Congruent,0,0,0,0,,,,,,,,,,,,,,,,,,,,,0,38,38,38,,,,,,,,,,,,,,,,,,,,,,,,,,,,,,,,,,,,,,,,,,,,,,,,,,,,,,,,,,,,,,,,,,,,,,,,,,,,,1.2901234527428946,0.8095374999102205,445.223132800078,None,ScrollDown,정답입니다,445.223132800078,None,445.223132800078,None,445.223132800078,None,445.223132800078,None,445.9226623000577,None,445.9226623000577,446.42258920008317,,,,,,,,,,,,,,,,127,2022-05-11_09h22.07.795,FishGame,2022.1.1,60.01395925540378,
,40,넌 수줍어,3,Green,B,3.541666666666666,4.366666666666666,ScrollUp,ScrollDown,Green.png,3,Neutral,Neutral,0,0,0,0,,,,,,,,,,,,,,,,,,,,,0,39,39,39,,,,,,,,,,,,,,,,,,,,,,,,,,,,,,,,,,,,,,,,,,,,,,,,,,,,,,,,,,,,,,,,,,,,,,,,,,,,,1.6558641965190568,0.7823585999431089,447.05897370004095,None,ScrollUp,정답입니다,447.05897370004095,None,447.05897370004095,None,447.05897370004095,None,447.05897370004095,None,447.72748190001585,None,447.72748190001585,448.23962290002964,,,,,,,,,,,,,,,,127,2022-05-11_09h22.07.795,FishGame,2022.1.1,60.01395925540378,
,41,나를 데려가줘,6,Green,B,0,0,ScrollDown,ScrollUp,Green.png,3,NonTarget,NonTarget,0,0,0,0,,,,,,,,,,,,,,,,,,,,,0,40,40,40,,,,,,,,,,,,,,,,,,,,,,,,,,,,,,,,,,,,,,,,,,,,,,,,,,,,,,,,,,,,,,,,,,,,,,,,,,,,,1.1342592686414719,0.8673979999730363,448.8633824000135,None,ScrollDown,정답입니다,448.8633824000135,None,448.8633824000135,None,448.8633824000135,None,448.8633824000135,None,449.6281376000261,None,449.6281376000261,450.13947200006805,,,,,,,,,,,,,,,,127,2022-05-11_09h22.07.795,FishGame,2022.1.1,60.01395925540378,
,42,넌 성숙해,2,Green,B,5.833333333333333,4.533333333333333,ScrollUp,ScrollDown,Green.png,3,Positive,Incongruent,0,0,0,0,,,,,,,,,,,,,,,,,,,,,0,41,41,41,,,,,,,,,,,,,,,,,,,,,,,,,,,,,,,,,,,,,,,,,,,,,,,,,,,,,,,,,,,,,,,,,,,,,,,,,,,,,1.0570987462997437,0.765625,450.76542080007493,None,ScrollDown,오답입니다,450.76542080007493,None,450.76542080007493,None,450.76542080007493,None,450.76542080007493,None,451.4281761000166,None,451.4281761000166,451.9391335999826,,,,,,,,,,,,,,,,127,2022-05-11_09h22.07.795,FishGame,2022.1.1,60.01395925540378,
,1,넌 매력적이야,2,Green,B,6.125,4.666666666666667,ScrollUp,ScrollDown,Green.png,4,Positive,Incongruent,0,0,0,0,,,,,,,,,,,,,,,,,,,,,,,,,0,0,0,0,,,,,,,,,,,,,,,,,,,,,,,,,,,,,,,,483.75810139998794,485.27358250005636,485.2900614000391,486.2404543000739,486.2904495000839,487.24013420008123,487.24013420008123,None,,,,,,,,,,,,,,,,,,,,,,,,,,,,,,,,,,2,1.120429000002332,488.3901999000227,None,ScrollUp,정답입니다,488.3901999000227,None,488.3901999000227,None,488.3901999000227,None,488.3901999000227,None,489.35715659998823,None,489.35715659998823,489.8570329999784,452.4394293000223,None,452.4394293000223,None,-0.15555556,-0.15462963,1,0,0,0.01631035003811121,None,482.44013890007045,None,,,127,2022-05-11_09h22.07.795,FishGame,2022.1.1,60.01395925540378,
,2,나를 보내줘,6,Orange,A,0,0,ScrollUp,ScrollDown,Orange.png,4,NonTarget,NonTarget,0,0,0,0,,,,,,,,,,,,,,,,,,,,,,,,,0,1,1,1,,,,,,,,,,,,,,,,,,,,,,,,,,,,,,,,,,,,,,,,,,,,,,,,,,,,,,,,,,,,,,,,,,,,,,,,,2,0.9510588999837637,490.4918985000113,None,ScrollUp,정답입니다,490.4918985000113,None,490.4918985000113,None,490.4918985000113,None,490.4918985000113,None,491.3287240000209,None,491.3287240000209,491.84053030004725,,,,,,,,,,,,,,,,127,2022-05-11_09h22.07.795,FishGame,2022.1.1,60.01395925540378,
,3,넌 조심스러워,3,Orange,A,4.791666666666666,4.666666666666667,ScrollDown,ScrollUp,Orange.png,4,Neutral,Neutral,0,0,0,0,,,,,,,,,,,,,,,,,,,,,,,,,0,2,2,2,,,,,,,,,,,,,,,,,,,,,,,,,,,,,,,,,,,,,,,,,,,,,,,,,,,,,,,,,,,,,,,,,,,,,,,,,1,1.3912890000501648,492.4791308999993,None,ScrollDown,정답입니다,492.4791308999993,None,492.4791308999993,None,492.4791308999993,None,492.4791308999993,None,493.75095100002363,None,493.75095100002363,494.25788659998216,,,,,,,,,,,,,,,,127,2022-05-11_09h22.07.795,FishGame,2022.1.1,60.01395925540378,
,4,넌 철학적이야,3,Green,B,4.5,4.266666666666667,ScrollUp,ScrollDown,Green.png,4,Neutral,Neutral,0,0,0,0,,,,,,,,,,,,,,,,,,,,,,,,,0,3,3,3,,,,,,,,,,,,,,,,,,,,,,,,,,,,,,,,,,,,,,,,,,,,,,,,,,,,,,,,,,,,,,,,,,,,,,,,,1.537037037933866,0.7736223000101745,494.88407700008247,None,NoResponse,무응답입니다,494.88407700008247,None,494.88407700008247,None,494.88407700008247,None,494.88407700008247,None,495.5507107999874,None,495.5507107999874,496.05733860004693,,,,,,,,,,,,,,,,127,2022-05-11_09h22.07.795,FishGame,2022.1.1,60.01395925540378,
,5,넌 쩨쩨해,5,Orange,A,2.375,2.133333333333333,ScrollDown,ScrollUp,Orange.png,4,Negative,Incongruent,0,0,0,0,,,,,,,,,,,,,,,,,,,,,,,,,0,4,4,4,,,,,,,,,,,,,,,,,,,,,,,,,,,,,,,,,,,,,,,,,,,,,,,,,,,,,,,,,,,,,,,,,,,,,,,,,1.0833333333333333,0.8170097999973223,496.6959924000548,None,ScrollDown,정답입니다,496.6959924000548,None,496.6959924000548,None,496.6959924000548,None,496.6959924000548,None,497.3988548000343,None,497.3988548000343,497.9073361000046,,,,,,,,,,,,,,,,127,2022-05-11_09h22.07.795,FishGame,2022.1.1,60.01395925540378,
,6,나를 데려가줘,6,Green,B,0,0,ScrollDown,ScrollUp,Green.png,4,NonTarget,NonTarget,0,0,0,0,,,,,,,,,,,,,,,,,,,,,,,,,0,5,5,5,,,,,,,,,,,,,,,,,,,,,,,,,,,,,,,,,,,,,,,,,,,,,,,,,,,,,,,,,,,,,,,,,,,,,,,,,1.0108024775981903,0.9347226000390947,498.5314218000276,None,ScrollDown,정답입니다,498.5314218000276,None,498.5314218000276,None,498.5314218000276,None,498.5314218000276,None,499.36301670002285,None,499.36301670002285,499.8738975999877,,,,,,,,,,,,,,,,127,2022-05-11_09h22.07.795,FishGame,2022.1.1,60.01395925540378,
,7,넌 고집불통이야,5,Green,B,2.875,2,ScrollUp,ScrollDown,Green.png,4,Negative,Congruent,0,0,0,0,,,,,,,,,,,,,,,,,,,,,,,,,0,6,6,6,,,,,,,,,,,,,,,,,,,,,,,,,,,,,,,,,,,,,,,,,,,,,,,,,,,,,,,,,,,,,,,,,,,,,,,,,1.8317901243766148,0.8594421000452712,500.50718810001854,None,ScrollUp,정답입니다,500.50718810001854,None,500.50718810001854,None,500.50718810001854,None,500.50718810001854,None,501.2575237000128,None,501.2575237000128,501.75755109998863,,,,,,,,,,,,,,,,127,2022-05-11_09h22.07.795,FishGame,2022.1.1,60.01395925540378,
,8,넌 무심해,4,Orange,A,2.875,3.2,ScrollDown,ScrollUp,Orange.png,4,Negative,Incongruent,0,0,0,0,,,,,,,,,,,,,,,,,,,,,,,,,0,7,7,7,,,,,,,,,,,,,,,,,,,,,,,,,,,,,,,,,,,,,,,,,,,,,,,,,,,,,,,,,,,,,,,,,,,,,,,,,1.1851851791143417,0.7966758999973536,502.39197520003654,None,ScrollDown,정답입니다,502.39197520003654,None,502.39197520003654,None,502.39197520003654,None,502.39197520003654,None,503.0792640000582,None,503.0792640000582,503.5910996000748,,,,,,,,,,,,,,,,127,2022-05-11_09h22.07.795,FishGame,2022.1.1,60.01395925540378,
,9,넌 정겨워,1,Orange,A,5.791666666666667,5.666666666666667,ScrollDown,ScrollUp,Orange.png,4,Positive,Congruent,0,0,0,0,,,,,,,,,,,,,,,,,,,,,,,,,0,8,8,8,,,,,,,,,,,,,,,,,,,,,,,,,,,,,,,,,,,,,,,,,,,,,,,,,,,,,,,,,,,,,,,,,,,,,,,,,1.160493830839793,0.8983913999982178,504.2212364000734,None,ScrollDown,정답입니다,504.2212364000734,None,504.2212364000734,None,504.2212364000734,None,504.2212364000734,None,505.01260500005446,None,505.01260500005446,505.52384719997644,,,,,,,,,,,,,,,,127,2022-05-11_09h22.07.795,FishGame,2022.1.1,60.01395925540378,
,10,나를 데려가줘,6,Green,B,0,0,ScrollDown,ScrollUp,Green.png,4,NonTarget,NonTarget,0,0,0,0,,,,,,,,,,,,,,,,,,,,,,,,,0,9,9,9,,,,,,,,,,,,,,,,,,,,,,,,,,,,,,,,,,,,,,,,,,,,,,,,,,,,,,,,,,,,,,,,,,,,,,,,,1.0339506367842357,0.9175680000334978,506.15531740000006,None,ScrollDown,정답입니다,506.15531740000006,None,506.15531740000006,None,506.15531740000006,None,506.15531740000006,None,506.96231870003976,None,506.96231870003976,507.4742232999997,,,,,,,,,,,,,,,,127,2022-05-11_09h22.07.795,FishGame,2022.1.1,60.01395925540378,
,11,넌 체제순응적이야,4,Green,B,3,3.6,ScrollUp,ScrollDown,Green.png,4,Negative,Congruent,0,0,0,0,,,,,,,,,,,,,,,,,,,,,,,,,0,10,10,10,,,,,,,,,,,,,,,,,,,,,,,,,,,,,,,,,,,,,,,,,,,,,,,,,,,,,,,,,,,,,,,,,,,,,,,,,1.6435185223817825,0.7916064999299124,508.11617860000115,None,ScrollUp,정답입니다,508.11617860000115,None,508.11617860000115,None,508.11617860000115,None,508.11617860000115,None,508.79082920006476,None,508.79082920006476,509.2909895000048,,,,,,,,,,,,,,,,127,2022-05-11_09h22.07.795,FishGame,2022.1.1,60.01395925540378,
,12,나를 보내줘,6,Orange,A,0,0,ScrollUp,ScrollDown,Orange.png,4,NonTarget,NonTarget,0,0,0,0,,,,,,,,,,,,,,,,,,,,,,,,,0,11,11,11,,,,,,,,,,,,,,,,,,,,,,,,,,,,,,,,,,,,,,,,,,,,,,,,,,,,,,,,,,,,,,,,,,,,,,,,,1.8611111144224803,0.9818831000011414,509.9208450000733,None,ScrollUp,정답입니다,509.9208450000733,None,509.9208450000733,None,509.9208450000733,None,509.9208450000733,None,510.7958883000538,None,510.7958883000538,511.3079224000685,,,,,,,,,,,,,,,,127,2022-05-11_09h22.07.795,FishGame,2022.1.1,60.01395925540378,
,13,넌 박식해,2,Orange,A,5.625,3.933333333333333,ScrollDown,ScrollUp,Orange.png,4,Positive,Congruent,0,0,0,0,,,,,,,,,,,,,,,,,,,,,,,,,0,12,12,12,,,,,,,,,,,,,,,,,,,,,,,,,,,,,,,,,,,,,,,,,,,,,,,,,,,,,,,,,,,,,,,,,,,,,,,,,1.0293209950129192,0.7514750000555068,511.94558840000536,None,ScrollDown,정답입니다,511.94558840000536,None,511.94558840000536,None,511.94558840000536,None,511.94558840000536,None,512.5873234000755,None,512.5873234000755,513.0917364000343,,,,,,,,,,,,,,,,127,2022-05-11_09h22.07.795,FishGame,2022.1.1,60.01395925540378,
,14,나를 보내줘,6,Orange,A,0,0,ScrollUp,ScrollDown,Orange.png,4,NonTarget,NonTarget,0,0,0,0,,,,,,,,,,,,,,,,,,,,,,,,,0,13,13,13,,,,,,,,,,,,,,,,,,,,,,,,,,,,,,,,,,,,,,,,,,,,,,,,,,,,,,,,,,,,,,,,,,,,,,,,,1.8487654278675716,0.8594474999699742,513.7183137000538,None,ScrollUp,정답입니다,513.7183137000538,None,513.7183137000538,None,513.7183137000538,None,513.7183137000538,None,514.4743307000026,None,514.4743307000026,514.9742082000012,,,,,,,,,,,,,,,,127,2022-05-11_09h22.07.795,FishGame,2022.1.1,60.01395925540378,
,15,넌 침착해,1,Green,B,5.458333333333333,5.566666666666666,ScrollUp,ScrollDown,Green.png,4,Positive,Incongruent,0,0,0,0,,,,,,,,,,,,,,,,,,,,,,,,,0,14,14,14,,,,,,,,,,,,,,,,,,,,,,,,,,,,,,,,,,,,,,,,,,,,,,,,,,,,,,,,,,,,,,,,,,,,,,,,,1.9660493632157643,0.9730620000045747,515.6124997000443,None,ScrollUp,정답입니다,515.6124997000443,None,515.6124997000443,None,515.6124997000443,None,515.6124997000443,None,516.474968799972,None,516.474968799972,516.9741858000634,,,,,,,,,,,,,,,,127,2022-05-11_09h22.07.795,FishGame,2022.1.1,60.01395925540378,
,16,나를 데려가줘,6,Green,B,0,0,ScrollDown,ScrollUp,Green.png,4,NonTarget,NonTarget,0,0,0,0,,,,,,,,,,,,,,,,,,,,,,,,,0,15,15,15,,,,,,,,,,,,,,,,,,,,,,,,,,,,,,,,,,,,,,,,,,,,,,,,,,,,,,,,,,,,,,,,,,,,,,,,,1,0.883786499965936,517.6041082000593,None,ScrollDown,정답입니다,517.6041082000593,None,517.6041082000593,None,517.6041082000593,None,517.6041082000593,None,518.3793309000321,None,518.3793309000321,518.8915575999999,,,,,,,,,,,,,,,,127,2022-05-11_09h22.07.795,FishGame,2022.1.1,60.01395925540378,
,17,넌 행복해,1,Orange,A,6.416666666666666,6.166666666666667,ScrollDown,ScrollUp,Orange.png,4,Positive,Congruent,0,0,0,0,,,,,,,,,,,,,,,,,,,,,,,,,0,16,16,16,,,,,,,,,,,,,,,,,,,,,,,,,,,,,,,,,,,,,,,,,,,,,,,,,,,,,,,,,,,,,,,,,,,,,,,,,1.120370368162791,0.8361038999864832,519.5339925000444,None,ScrollDown,정답입니다,519.5339925000444,None,519.5339925000444,None,519.5339925000444,None,519.5339925000444,None,520.246954399976,None,520.246954399976,520.7580717999954,,,,,,,,,,,,,,,,127,2022-05-11_09h22.07.795,FishGame,2022.1.1,60.01395925540378,
,18,넌 겸손해,2,Green,B,5.791666666666667,4.766666666666667,ScrollUp,ScrollDown,Green.png,4,Positive,Incongruent,0,0,0,0,,,,,,,,,,,,,,,,,,,,,,,,,0,17,17,17,,,,,,,,,,,,,,,,,,,,,,,,,,,,,,,,,,,,,,,,,,,,,,,,,,,,,,,,,,,,,,,,,,,,,,,,,2,0.7554423999972641,521.3897290000459,None,ScrollUp,정답입니다,521.3897290000459,None,521.3897290000459,None,521.3897290000459,None,521.3897290000459,None,522.0376930000493,None,522.0376930000493,522.541610400076,,,,,,,,,,,,,,,,127,2022-05-11_09h22.07.795,FishGame,2022.1.1,60.01395925540378,
,19,나를 보내줘,6,Orange,A,0,0,ScrollUp,ScrollDown,Orange.png,4,NonTarget,NonTarget,0,0,0,0,,,,,,,,,,,,,,,,,,,,,,,,,0,18,18,18,,,,,,,,,,,,,,,,,,,,,,,,,,,,,,,,,,,,,,,,,,,,,,,,,,,,,,,,,,,,,,,,,,,,,,,,,1.959876557191213,0.9163776999339461,523.1692810000386,None,ScrollUp,정답입니다,523.1692810000386,None,523.1692810000386,None,523.1692810000386,None,523.1692810000386,None,523.9793757000007,None,523.9793757000007,524.4910634000553,,,,,,,,,,,,,,,,127,2022-05-11_09h22.07.795,FishGame,2022.1.1,60.01395925540378,
,20,넌 의심없어,3,Orange,A,4.166666666666667,4.6,ScrollDown,ScrollUp,Orange.png,4,Neutral,Neutral,0,0,0,0,,,,,,,,,,,,,,,,,,,,,,,,,0,19,19,19,,,,,,,,,,,,,,,,,,,,,,,,,,,,,,,,,,,,,,,,,,,,,,,,,,,,,,,,,,,,,,,,,,,,,,,,,1.1666666616996129,1.1068400000222027,525.1210031000664,None,ScrollDown,정답입니다,525.1210031000664,None,525.1210031000664,None,525.1210031000664,None,525.1210031000664,None,526.1248984000413,None,526.1248984000413,526.6244939999888,,,,,,,,,,,,,,,,127,2022-05-11_09h22.07.795,FishGame,2022.1.1,60.01395925540378,
,21,넌 시시해,4,Orange,A,2.666666666666667,2.966666666666667,ScrollDown,ScrollUp,Orange.png,4,Negative,Incongruent,0,0,0,0,,,,,,,,,,,,,,,,,,,,,,,,,0,20,20,20,,,,,,,,,,,,,,,,,,,,,,,,,,,,,,,,,,,,,,,,,,,,,,,,,,,,,,,,,,,,,,,,,,,,,,,,,1.0509259402751923,0.6682374998927116,527.2549037999706,None,ScrollDown,정답입니다,527.2549037999706,None,527.2549037999706,None,527.2549037999706,None,527.2549037999706,None,527.8209154000506,None,527.8209154000506,528.3251407999778,,,,,,,,,,,,,,,,127,2022-05-11_09h22.07.795,FishGame,2022.1.1,60.01395925540378,
,22,나를 데려가줘,6,Green,B,0,0,ScrollDown,ScrollUp,Green.png,4,NonTarget,NonTarget,0,0,0,0,,,,,,,,,,,,,,,,,,,,,,,,,0,21,21,21,,,,,,,,,,,,,,,,,,,,,,,,,,,,,,,,,,,,,,,,,,,,,,,,,,,,,,,,,,,,,,,,,,,,,,,,,1.1543209999799728,0.9674845999106765,528.9486126999836,None,ScrollDown,정답입니다,528.9486126999836,None,528.9486126999836,None,528.9486126999836,None,528.9486126999836,None,529.8128262000391,None,529.8128262000391,530.3247539000586,,,,,,,,,,,,,,,,127,2022-05-11_09h22.07.795,FishGame,2022.1.1,60.01395925540378,
,23,넌 무정해,5,Orange,A,2.5,2.2,ScrollDown,ScrollUp,Orange.png,4,Negative,Incongruent,0,0,0,0,,,,,,,,,,,,,,,,,,,,,,,,,0,22,22,22,,,,,,,,,,,,,,,,,,,,,,,,,,,,,,,,,,,,,,,,,,,,,,,,,,,,,,,,,,,,,,,,,,,,,,,,,1.297839509944121,0.7586598000489175,530.9594673999818,None,ScrollDown,정답입니다,530.9594673999818,None,530.9594673999818,None,530.9594673999818,None,530.9594673999818,None,531.6082125999965,None,531.6082125999965,532.1085460999748,,,,,,,,,,,,,,,,127,2022-05-11_09h22.07.795,FishGame,2022.1.1,60.01395925540378,
,24,넌 긍정적이야,1,Green,B,6.041666666666667,6.066666666666666,ScrollUp,ScrollDown,Green.png,4,Positive,Incongruent,0,0,0,0,,,,,,,,,,,,,,,,,,,,,,,,,0,23,23,23,,,,,,,,,,,,,,,,,,,,,,,,,,,,,,,,,,,,,,,,,,,,,,,,,,,,,,,,,,,,,,,,,,,,,,,,,1.5864197500050068,0.7861878999974579,532.7363880000776,None,ScrollUp,정답입니다,532.7363880000776,None,532.7363880000776,None,532.7363880000776,None,532.7363880000776,None,533.4232612000778,None,533.4232612000778,533.9250039000763,,,,,,,,,,,,,,,,127,2022-05-11_09h22.07.795,FishGame,2022.1.1,60.01395925540378,
,25,나를 보내줘,6,Orange,A,0,0,ScrollUp,ScrollDown,Orange.png,4,NonTarget,NonTarget,0,0,0,0,,,,,,,,,,,,,,,,,,,,,,,,,0,24,24,24,,,,,,,,,,,,,,,,,,,,,,,,,,,,,,,,,,,,,,,,,,,,,,,,,,,,,,,,,,,,,,,,,,,,,,,,,1.4228395087023575,0.9776690999278799,534.5608629999915,None,ScrollDown,오답입니다,534.5608629999915,None,534.5608629999915,None,534.5608629999915,None,534.5608629999915,None,535.425938499975,None,535.425938499975,535.9414013000205,,,,,,,,,,,,,,,,127,2022-05-11_09h22.07.795,FishGame,2022.1.1,60.01395925540378,
,26,넌 시기심이 많아,5,Green,B,2.458333333333333,2.233333333333333,ScrollUp,ScrollDown,Green.png,4,Negative,Congruent,0,0,0,0,,,,,,,,,,,,,,,,,,,,,,,,,0,25,25,25,,,,,,,,,,,,,,,,,,,,,,,,,,,,,,,,,,,,,,,,,,,,,,,,,,,,,,,,,,,,,,,,,,,,,,,,,1.6172839477658272,1.2443869999842718,536.5777420999948,None,ScrollUp,정답입니다,536.5777420999948,None,536.5777420999948,None,536.5777420999948,None,536.5777420999948,None,537.703873099992,None,537.703873099992,538.2083435000386,,,,,,,,,,,,,,,,127,2022-05-11_09h22.07.795,FishGame,2022.1.1,60.01395925540378,
,27,넌 탁월해,2,Orange,A,5.708333333333334,4.5,ScrollDown,ScrollUp,Orange.png,4,Positive,Congruent,0,0,0,0,,,,,,,,,,,,,,,,,,,,,,,,,0,26,26,26,,,,,,,,,,,,,,,,,,,,,,,,,,,,,,,,,,,,,,,,,,,,,,,,,,,,,,,,,,,,,,,,,,,,,,,,,1.214506169160207,1.0332676999969408,538.845901499968,None,ScrollDown,정답입니다,538.845901499968,None,538.845901499968,None,538.845901499968,None,538.845901499968,None,539.7635963000357,None,539.7635963000357,540.2749886000529,,,,,,,,,,,,,,,,127,2022-05-11_09h22.07.795,FishGame,2022.1.1,60.01395925540378,
,28,나를 데려가줘,6,Green,B,0,0,ScrollDown,ScrollUp,Green.png,4,NonTarget,NonTarget,0,0,0,0,,,,,,,,,,,,,,,,,,,,,,,,,0,27,27,27,,,,,,,,,,,,,,,,,,,,,,,,,,,,,,,,,,,,,,,,,,,,,,,,,,,,,,,,,,,,,,,,,,,,,,,,,1.0787036915620167,1.034769400022924,540.8996942000231,None,ScrollDown,정답입니다,540.8996942000231,None,540.8996942000231,None,540.8996942000231,None,540.8996942000231,None,541.837907499983,None,541.837907499983,542.3418325000675,,,,,,,,,,,,,,,,127,2022-05-11_09h22.07.795,FishGame,2022.1.1,60.01395925540378,
,29,넌 조용해,3,Green,B,4.333333333333333,4.166666666666667,ScrollUp,ScrollDown,Green.png,4,Neutral,Neutral,0,0,0,0,,,,,,,,,,,,,,,,,,,,,,,,,0,28,28,28,,,,,,,,,,,,,,,,,,,,,,,,,,,,,,,,,,,,,,,,,,,,,,,,,,,,,,,,,,,,,,,,,,,,,,,,,1.09413580596447,0.9192311000078917,542.9747072000755,None,ScrollDown,오답입니다,542.9747072000755,None,542.9747072000755,None,542.9747072000755,None,542.9747072000755,None,543.7813181000529,None,543.7813181000529,544.2919038999826,,,,,,,,,,,,,,,,127,2022-05-11_09h22.07.795,FishGame,2022.1.1,60.01395925540378,
,30,넌 다정해,1,Orange,A,5.833333333333334,5.7,ScrollDown,ScrollUp,Orange.png,4,Positive,Congruent,0,0,0,0,,,,,,,,,,,,,,,,,,,,,,,,,0,29,29,29,,,,,,,,,,,,,,,,,,,,,,,,,,,,,,,,,,,,,,,,,,,,,,,,,,,,,,,,,,,,,,,,,,,,,,,,,1.1095678955316544,0.9563801999902353,544.9237599000335,None,ScrollDown,정답입니다,544.9237599000335,None,544.9237599000335,None,544.9237599000335,None,544.9237599000335,None,545.7748968000524,None,545.7748968000524,546.2751421000576,,,,,,,,,,,,,,,,127,2022-05-11_09h22.07.795,FishGame,2022.1.1,60.01395925540378,
,31,넌 능력있어,2,Green,B,6.166666666666666,4.6,ScrollUp,ScrollDown,Green.png,4,Positive,Incongruent,0,0,0,0,,,,,,,,,,,,,,,,,,,,,,,,,0,30,30,30,,,,,,,,,,,,,,,,,,,,,,,,,,,,,,,,,,,,,,,,,,,,,,,,,,,,,,,,,,,,,,,,,,,,,,,,,1.9861110945542653,0.8186495000263676,546.9044323000126,None,ScrollUp,정답입니다,546.9044323000126,None,546.9044323000126,None,546.9044323000126,None,546.9044323000126,None,547.6213419999694,None,547.6213419999694,548.1251607000595,,,,,,,,,,,,,,,,127,2022-05-11_09h22.07.795,FishGame,2022.1.1,60.01395925540378,
,32,넌 불쾌해,5,Orange,A,2.125,1.933333333333333,ScrollDown,ScrollUp,Orange.png,4,Negative,Incongruent,0,0,0,0,,,,,,,,,,,,,,,,,,,,,,,,,0,31,31,31,,,,,,,,,,,,,,,,,,,,,,,,,,,,,,,,,,,,,,,,,,,,,,,,,,,,,,,,,,,,,,,,,,,,,,,,,1.2391975422700245,0.7615472000325099,548.7527881000424,None,ScrollDown,정답입니다,548.7527881000424,None,548.7527881000424,None,548.7527881000424,None,548.7527881000424,None,549.4122775000287,None,549.4122775000287,549.9251257000724,,,,,,,,,,,,,,,,127,2022-05-11_09h22.07.795,FishGame,2022.1.1,60.01395925540378,
,33,나를 데려가줘,6,Green,B,0,0,ScrollDown,ScrollUp,Green.png,4,NonTarget,NonTarget,0,0,0,0,,,,,,,,,,,,,,,,,,,,,,,,,0,32,32,32,,,,,,,,,,,,,,,,,,,,,,,,,,,,,,,,,,,,,,,,,,,,,,,,,,,,,,,,,,,,,,,,,,,,,,,,,1.0030864079793294,0.9907849000301212,550.5530017999699,None,ScrollDown,정답입니다,550.5530017999699,None,550.5530017999699,None,550.5530017999699,None,550.5530017999699,None,551.4417933999794,None,551.4417933999794,551.9416959000519,,,,,,,,,,,,,,,,127,2022-05-11_09h22.07.795,FishGame,2022.1.1,60.01395925540378,
,34,넌 유순해,3,Orange,A,4.458333333333333,5,ScrollDown,ScrollUp,Orange.png,4,Neutral,Neutral,0,0,0,0,,,,,,,,,,,,,,,,,,,,,,,,,0,33,33,33,,,,,,,,,,,,,,,,,,,,,,,,,,,,,,,,,,,,,,,,,,,,,,,,,,,,,,,,,,,,,,,,,,,,,,,,,1.0462962985038757,0.8337420000461861,552.5749868999701,None,ScrollDown,정답입니다,552.5749868999701,None,552.5749868999701,None,552.5749868999701,None,552.5749868999701,None,553.2971904000733,None,553.2971904000733,553.8085158000467,,,,,,,,,,,,,,,,127,2022-05-11_09h22.07.795,FishGame,2022.1.1,60.01395925540378,
,35,넌 근심스러워,4,Green,B,2.708333333333333,3.133333333333333,ScrollUp,ScrollDown,Green.png,4,Negative,Congruent,0,0,0,0,,,,,,,,,,,,,,,,,,,,,,,,,0,34,34,34,,,,,,,,,,,,,,,,,,,,,,,,,,,,,,,,,,,,,,,,,,,,,,,,,,,,,,,,,,,,,,,,,,,,,,,,,1.8086419651905696,0.7763106999918818,554.4386560000712,None,ScrollUp,정답입니다,554.4386560000712,None,554.4386560000712,None,554.4386560000712,None,554.4386560000712,None,555.1085027999943,None,555.1085027999943,555.6088963000802,,,,,,,,,,,,,,,,127,2022-05-11_09h22.07.795,FishGame,2022.1.1,60.01395925540378,
,36,넌 세련되었어,2,Orange,A,5.5,4.6,ScrollDown,ScrollUp,Orange.png,4,Positive,Congruent,0,0,0,0,,,,,,,,,,,,,,,,,,,,,,,,,0,35,35,35,,,,,,,,,,,,,,,,,,,,,,,,,,,,,,,,,,,,,,,,,,,,,,,,,,,,,,,,,,,,,,,,,,,,,,,,,1.160493830839793,0.7695349999703467,556.2573966999771,None,ScrollDown,정답입니다,556.2573966999771,None,556.2573966999771,None,556.2573966999771,None,556.2573966999771,None,556.9056495999685,None,556.9056495999685,557.4091237999965,,,,,,,,,,,,,,,,127,2022-05-11_09h22.07.795,FishGame,2022.1.1,60.01395925540378,
,37,나를 보내줘,6,Orange,A,0,0,ScrollUp,ScrollDown,Orange.png,4,NonTarget,NonTarget,0,0,0,0,,,,,,,,,,,,,,,,,,,,,,,,,0,36,36,36,,,,,,,,,,,,,,,,,,,,,,,,,,,,,,,,,,,,,,,,,,,,,,,,,,,,,,,,,,,,,,,,,,,,,,,,,1.819444437821706,0.8926610000198707,558.0398742000107,None,ScrollUp,정답입니다,558.0398742000107,None,558.0398742000107,None,558.0398742000107,None,558.0398742000107,None,558.8251954000443,None,558.8251954000443,559.3260799000273,,,,,,,,,,,,,,,,127,2022-05-11_09h22.07.795,FishGame,2022.1.1,60.01395925540378,
,38,넌 확고해,3,Green,B,4.708333333333334,4.566666666666666,ScrollUp,ScrollDown,Green.png,4,Neutral,Neutral,0,0,0,0,,,,,,,,,,,,,,,,,,,,,,,,,0,37,37,37,,,,,,,,,,,,,,,,,,,,,,,,,,,,,,,,,,,,,,,,,,,,,,,,,,,,,,,,,,,,,,,,,,,,,,,,,1.589506171643734,0.8711709000635892,559.9556603999808,None,ScrollUp,정답입니다,559.9556603999808,None,559.9556603999808,None,559.9556603999808,None,559.9556603999808,None,560.7198564000428,None,560.7198564000428,561.2258057000581,,,,,,,,,,,,,,,,127,2022-05-11_09h22.07.795,FishGame,2022.1.1,60.01395925540378,
,39,넌 이해심이 많아,1,Green,B,6.041666666666668,5.533333333333333,ScrollUp,ScrollDown,Green.png,4,Positive,Incongruent,0,0,0,0,,,,,,,,,,,,,,,,,,,,,,,,,0,38,38,38,,,,,,,,,,,,,,,,,,,,,,,,,,,,,,,,,,,,,,,,,,,,,,,,,,,,,,,,,,,,,,,,,,,,,,,,,1.7561728407939274,0.6723296999698505,561.8529139000457,None,ScrollUp,정답입니다,561.8529139000457,None,561.8529139000457,None,561.8529139000457,None,561.8529139000457,None,562.4250477000605,None,562.4250477000605,562.9251374000451,,,,,,,,,,,,,,,,127,2022-05-11_09h22.07.795,FishGame,2022.1.1,60.01395925540378,
,40,나를 보내줘,6,Orange,A,0,0,ScrollUp,ScrollDown,Orange.png,4,NonTarget,NonTarget,0,0,0,0,,,,,,,,,,,,,,,,,,,,,,,,,0,39,39,39,,,,,,,,,,,,,,,,,,,,,,,,,,,,,,,,,,,,,,,,,,,,,,,,,,,,,,,,,,,,,,,,,,,,,,,,,1.6419753084580102,0.9005015000002459,563.5534346000059,None,ScrollUp,정답입니다,563.5534346000059,None,563.5534346000059,None,563.5534346000059,None,563.5534346000059,None,564.3468253000174,None,564.3468253000174,564.859281299985,,,,,,,,,,,,,,,,127,2022-05-11_09h22.07.795,FishGame,2022.1.1,60.01395925540378,
,41,넌 거칠어,4,Orange,A,2.625,3.033333333333333,ScrollDown,ScrollUp,Orange.png,4,Negative,Incongruent,0,0,0,0,,,,,,,,,,,,,,,,,,,,,,,,,0,40,40,40,,,,,,,,,,,,,,,,,,,,,,,,,,,,,,,,,,,,,,,,,,,,,,,,,,,,,,,,,,,,,,,,,,,,,,,,,1.3626543208956718,0.8149656999157742,565.4896464999765,None,ScrollDown,정답입니다,565.4896464999765,None,565.4896464999765,None,565.4896464999765,None,565.4896464999765,None,566.1969031000044,None,566.1969031000044,566.7090166000417,,,,,,,,,,,,,,,,127,2022-05-11_09h22.07.795,FishGame,2022.1.1,60.01395925540378,
,42,넌 변덕맞아,5,Green,B,2.75,2.166666666666667,ScrollUp,ScrollDown,Green.png,4,Negative,Congruent,0,0,0,0,,,,,,,,,,,,,,,,,,,,,,,,,0,41,41,41,,,,,,,,,,,,,,,,,,,,,,,,,,,,,,,,,,,,,,,,,,,,,,,,,,,,,,,,,,,,,,,,,,,,,,,,,1.90586419403553,0.7180416999617592,567.3466466000536,None,ScrollUp,정답입니다,567.3466466000536,None,567.3466466000536,None,567.3466466000536,None,567.3466466000536,None,567.9552278000629,None,567.9552278000629,568.4588916000212,,,,,,,,,,,,,,,,127,2022-05-11_09h22.07.795,FishGame,2022.1.1,60.01395925540378,
,43,나를 데려가줘,6,Green,B,0,0,ScrollDown,ScrollUp,Green.png,4,NonTarget,NonTarget,0,0,0,0,,,,,,,,,,,,,,,,,,,,,,,,,0,42,42,42,,,,,,,,,,,,,,,,,,,,,,,,,,,,,,,,,,,,,,,,,,,,,,,,,,,,,,,,,,,,,,,,,,,,,,,,,1,0.9048929000273347,569.083713100059,None,ScrollDown,정답입니다,569.083713100059,None,569.083713100059,None,569.083713100059,None,569.083713100059,None,569.888461100054,None,569.888461100054,570.3917871000012,,,,,,,,,,,,,,,,127,2022-05-11_09h22.07.795,FishGame,2022.1.1,60.01395925540378,
,44,넌 외로워,4,Green,B,2.833333333333333,3.3,ScrollUp,ScrollDown,Green.png,4,Negative,Congruent,0,0,0,0,,,,,,,,,,,,,,,,,,,,,,,,,0,43,43,43,,,,,,,,,,,,,,,,,,,,,,,,,,,,,,,,,,,,,,,,,,,,,,,,,,,,,,,,,,,,,,,,,,,,,,,,,1.879629631837209,0.9575755000114441,571.0318967000348,None,ScrollUp,정답입니다,571.0318967000348,None,571.0318967000348,None,571.0318967000348,None,571.0318967000348,None,571.8761743999785,None,571.8761743999785,572.3756025000475,,,,,,,,,,,,,,,,127,2022-05-11_09h22.07.795,FishGame,2022.1.1,60.01395925540378,
,1,넌 불평스러워,5,Orange,A,2.25,2.066666666666667,ScrollDown,ScrollUp,Orange.png,5,Negative,Incongruent,0,0,0,0,,,,,,,,,,,,,,,,,,,,,,,,,,,,,0,0,0,0,,,,,,,,,,,,,,,,,,,,,,,,,,,,604.3601518999785,605.8598674000241,605.8929577000672,606.8430015000049,606.8936107000336,607.8432217000518,607.8432217000518,None,,,,,,,,,,,,,,,,,,,,,,,,,,,,,,,,,,1.296296296020349,1.183076599962078,608.9897004000377,None,ScrollDown,정답입니다,608.9897004000377,None,608.9897004000377,None,608.9897004000377,None,608.9897004000377,None,610.0229362000246,None,610.0229362000246,610.5267870000098,572.8756081999745,None,572.8756081999745,None,-0.15925926,-0.108333334,1,0,0,0.01600215001963079,None,602.8766829000087,None,,,127,2022-05-11_09h22.07.795,FishGame,2022.1.1,60.01395925540378,
,2,나를 보내줘,6,Orange,A,0,0,ScrollUp,ScrollDown,Orange.png,5,NonTarget,NonTarget,0,0,0,0,,,,,,,,,,,,,,,,,,,,,,,,,,,,,0,1,1,1,,,,,,,,,,,,,,,,,,,,,,,,,,,,,,,,,,,,,,,,,,,,,,,,,,,,,,,,,,,,,,,,,,,,,1.9583333432674408,1.0345801999792457,611.1564041000092,None,ScrollUp,정답입니다,611.1564041000092,None,611.1564041000092,None,611.1564041000092,None,611.1564041000092,None,612.0897240000777,None,612.0897240000777,612.5928912999807,,,,,,,,,,,,,,,,127,2022-05-11_09h22.07.795,FishGame,2022.1.1,60.01395925540378,
,3,넌 다재다능해,2,Green,B,6.208333333333333,4.5,ScrollUp,ScrollDown,Green.png,5,Positive,Incongruent,0,0,0,0,,,,,,,,,,,,,,,,,,,,,,,,,,,,,0,2,2,2,,,,,,,,,,,,,,,,,,,,,,,,,,,,,,,,,,,,,,,,,,,,,,,,,,,,,,,,,,,,,,,,,,,,,1.9814815024534862,0.909062199993059,613.2229257000145,None,ScrollUp,정답입니다,613.2229257000145,None,613.2229257000145,None,613.2229257000145,None,613.2229257000145,None,614.0266894000815,None,614.0266894000815,614.5265022000531,,,,,,,,,,,,,,,,127,2022-05-11_09h22.07.795,FishGame,2022.1.1,60.01395925540378,
,4,넌 과감해,3,Orange,A,4.833333333333334,4.6,ScrollDown,ScrollUp,Orange.png,5,Neutral,Neutral,0,0,0,0,,,,,,,,,,,,,,,,,,,,,,,,,,,,,0,3,3,3,,,,,,,,,,,,,,,,,,,,,,,,,,,,,,,,,,,,,,,,,,,,,,,,,,,,,,,,,,,,,,,,,,,,,1,0.8249872999731451,615.1673672000179,None,ScrollDown,정답입니다,615.1673672000179,None,615.1673672000179,None,615.1673672000179,None,615.1673672000179,None,615.876767000067,None,615.876767000067,616.3765369000612,,,,,,,,,,,,,,,,127,2022-05-11_09h22.07.795,FishGame,2022.1.1,60.01395925540378,
,5,넌 고분고분해,3,Green,B,3.75,4.033333333333333,ScrollUp,ScrollDown,Green.png,5,Neutral,Neutral,0,0,0,0,,,,,,,,,,,,,,,,,,,,,,,,,,,,,0,4,4,4,,,,,,,,,,,,,,,,,,,,,,,,,,,,,,,,,,,,,,,,,,,,,,,,,,,,,,,,,,,,,,,,,,,,,1.8024691343307495,0.7737410999834538,617.0082230999833,None,ScrollUp,정답입니다,617.0082230999833,None,617.0082230999833,None,617.0082230999833,None,617.0082230999833,None,617.6767270000419,None,617.6767270000419,618.1763032000745,,,,,,,,,,,,,,,,127,2022-05-11_09h22.07.795,FishGame,2022.1.1,60.01395925540378,
,6,나를 보내줘,6,Orange,A,0,0,ScrollUp,ScrollDown,Orange.png,5,NonTarget,NonTarget,0,0,0,0,,,,,,,,,,,,,,,,,,,,,,,,,,,,,0,5,5,5,,,,,,,,,,,,,,,,,,,,,,,,,,,,,,,,,,,,,,,,,,,,,,,,,,,,,,,,,,,,,,,,,,,,,1.634259263674418,0.9021204999880865,618.8151252000825,None,ScrollUp,정답입니다,618.8151252000825,None,618.8151252000825,None,618.8151252000825,None,618.8151252000825,None,619.5981739000417,None,619.5981739000417,620.1096253000433,,,,,,,,,,,,,,,,127,2022-05-11_09h22.07.795,FishGame,2022.1.1,60.01395925540378,
,7,넌 잘 잊어,4,Orange,A,3,3.7,ScrollDown,ScrollUp,Orange.png,5,Negative,Incongruent,0,0,0,0,,,,,,,,,,,,,,,,,,,,,,,,,,,,,0,6,6,6,,,,,,,,,,,,,,,,,,,,,,,,,,,,,,,,,,,,,,,,,,,,,,,,,,,,,,,,,,,,,,,,,,,,,1.0509259402751923,0.8754076000768691,620.7493224000791,None,ScrollDown,정답입니다,620.7493224000791,None,620.7493224000791,None,620.7493224000791,None,620.7493224000791,None,621.5097153000534,None,621.5097153000534,622.0099555000197,,,,,,,,,,,,,,,,127,2022-05-11_09h22.07.795,FishGame,2022.1.1,60.01395925540378,
,8,넌 탐구심이없어,4,Green,B,2.833333333333333,3.066666666666667,ScrollUp,ScrollDown,Green.png,5,Negative,Congruent,0,0,0,0,,,,,,,,,,,,,,,,,,,,,,,,,,,,,0,7,7,7,,,,,,,,,,,,,,,,,,,,,,,,,,,,,,,,,,,,,,,,,,,,,,,,,,,,,,,,,,,,,,,,,,,,,1.699074074625969,0.7212698999792337,622.6489388999762,None,ScrollUp,정답입니다,622.6489388999762,None,622.6489388999762,None,622.6489388999762,None,622.6489388999762,None,623.2517738000024,None,623.2517738000024,623.7598423999734,,,,,,,,,,,,,,,,127,2022-05-11_09h22.07.795,FishGame,2022.1.1,60.01395925540378,
,9,나를 데려가줘,6,Green,B,0,0,ScrollDown,ScrollUp,Green.png,5,NonTarget,NonTarget,0,0,0,0,,,,,,,,,,,,,,,,,,,,,,,,,,,,,0,8,8,8,,,,,,,,,,,,,,,,,,,,,,,,,,,,,,,,,,,,,,,,,,,,,,,,,,,,,,,,,,,,,,,,,,,,,1.28703702489535,0.9098589000059292,624.3839275999926,None,ScrollDown,정답입니다,624.3839275999926,None,624.3839275999926,None,624.3839275999926,None,624.3839275999926,None,625.193229699973,None,625.193229699973,625.6938721999759,,,,,,,,,,,,,,,,127,2022-05-11_09h22.07.795,FishGame,2022.1.1,60.01395925540378,
,10,넌 참되어,2,Orange,A,6.041666666666664,4.733333333333333,ScrollDown,ScrollUp,Orange.png,5,Positive,Congruent,0,0,0,0,,,,,,,,,,,,,,,,,,,,,,,,,,,,,0,9,9,9,,,,,,,,,,,,,,,,,,,,,,,,,,,,,,,,,,,,,,,,,,,,,,,,,,,,,,,,,,,,,,,,,,,,,1.1836419651905696,0.7696029000217095,626.3231913000345,None,ScrollDown,정답입니다,626.3231913000345,None,626.3231913000345,None,626.3231913000345,None,626.3231913000345,None,626.9820095000323,None,626.9820095000323,627.4932235999731,,,,,,,,,,,,,,,,127,2022-05-11_09h22.07.795,FishGame,2022.1.1,60.01395925540378,
,11,넌 생기있어,1,Green,B,5.875,5.633333333333334,ScrollUp,ScrollDown,Green.png,5,Positive,Incongruent,0,0,0,0,,,,,,,,,,,,,,,,,,,,,,,,,,,,,0,10,10,10,,,,,,,,,,,,,,,,,,,,,,,,,,,,,,,,,,,,,,,,,,,,,,,,,,,,,,,,,,,,,,,,,,,,,1.8348765522241592,0.7338169999420643,628.12805509998,None,ScrollUp,정답입니다,628.12805509998,None,628.12805509998,None,628.12805509998,None,628.12805509998,None,628.7487530000508,None,628.7487530000508,629.2601802999852,,,,,,,,,,,,,,,,127,2022-05-11_09h22.07.795,FishGame,2022.1.1,60.01395925540378,
,12,넌 비사교적이야,4,Green,B,2.875,2.9,ScrollUp,ScrollDown,Green.png,5,Negative,Congruent,0,0,0,0,,,,,,,,,,,,,,,,,,,,,,,,,,,,,0,11,11,11,,,,,,,,,,,,,,,,,,,,,,,,,,,,,,,,,,,,,,,,,,,,,,,,,,,,,,,,,,,,,,,,,,,,,1.8333333383003871,0.6931922000367194,629.88303180004,None,ScrollUp,정답입니다,629.88303180004,None,629.88303180004,None,629.88303180004,None,629.88303180004,None,630.4765776999993,None,630.4765776999993,630.9765111000743,,,,,,,,,,,,,,,,127,2022-05-11_09h22.07.795,FishGame,2022.1.1,60.01395925540378,
,13,나를 데려가줘,6,Green,B,0,0,ScrollDown,ScrollUp,Green.png,5,NonTarget,NonTarget,0,0,0,0,,,,,,,,,,,,,,,,,,,,,,,,,,,,,0,12,12,12,,,,,,,,,,,,,,,,,,,,,,,,,,,,,,,,,,,,,,,,,,,,,,,,,,,,,,,,,,,,,,,,,,,,,1.1064814925193787,0.8171344000147656,631.6006516000489,None,ScrollDown,정답입니다,631.6006516000489,None,631.6006516000489,None,631.6006516000489,None,631.6006516000489,None,632.3158227000386,None,632.3158227000386,632.8270018000621,,,,,,,,,,,,,,,,127,2022-05-11_09h22.07.795,FishGame,2022.1.1,60.01395925540378,
,14,넌 고독해,4,Orange,A,2.916666666666667,3.233333333333333,ScrollDown,ScrollUp,Orange.png,5,Negative,Incongruent,0,0,0,0,,,,,,,,,,,,,,,,,,,,,,,,,,,,,0,13,13,13,,,,,,,,,,,,,,,,,,,,,,,,,,,,,,,,,,,,,,,,,,,,,,,,,,,,,,,,,,,,,,,,,,,,,1.0015431940555573,0.8217382999137044,633.4721449000062,None,ScrollDown,정답입니다,633.4721449000062,None,633.4721449000062,None,633.4721449000062,None,633.4721449000062,None,634.176347300061,None,634.176347300061,634.6765818999847,,,,,,,,,,,,,,,,127,2022-05-11_09h22.07.795,FishGame,2022.1.1,60.01395925540378,
,15,넌 신경질적이야,5,Green,B,2.375,2.233333333333333,ScrollUp,ScrollDown,Green.png,5,Negative,Congruent,0,0,0,0,,,,,,,,,,,,,,,,,,,,,,,,,,,,,0,14,14,14,,,,,,,,,,,,,,,,,,,,,,,,,,,,,,,,,,,,,,,,,,,,,,,,,,,,,,,,,,,,,,,,,,,,,1.7283950646718345,0.7239514000248164,635.3230602999683,None,ScrollUp,정답입니다,635.3230602999683,None,635.3230602999683,None,635.3230602999683,None,635.3230602999683,None,635.9269763000775,None,635.9269763000775,636.4271333999932,,,,,,,,,,,,,,,,127,2022-05-11_09h22.07.795,FishGame,2022.1.1,60.01395925540378,
,16,넌 똑똑해,2,Green,B,5.666666666666667,3.966666666666667,ScrollUp,ScrollDown,Green.png,5,Positive,Incongruent,0,0,0,0,,,,,,,,,,,,,,,,,,,,,,,,,,,,,0,15,15,15,,,,,,,,,,,,,,,,,,,,,,,,,,,,,,,,,,,,,,,,,,,,,,,,,,,,,,,,,,,,,,,,,,,,,1.5231481483206153,0.7003039000555873,637.0602902000537,None,NoResponse,무응답입니다,637.0602902000537,None,637.0602902000537,None,637.0602902000537,None,637.0602902000537,None,637.6493718000129,None,637.6493718000129,638.1604795000749,,,,,,,,,,,,,,,,127,2022-05-11_09h22.07.795,FishGame,2022.1.1,60.01395925540378,
,17,나를 보내줘,6,Orange,A,0,0,ScrollUp,ScrollDown,Orange.png,5,NonTarget,NonTarget,0,0,0,0,,,,,,,,,,,,,,,,,,,,,,,,,,,,,0,16,16,16,,,,,,,,,,,,,,,,,,,,,,,,,,,,,,,,,,,,,,,,,,,,,,,,,,,,,,,,,,,,,,,,,,,,,1.7839506169160206,0.9332539000315592,638.7927695000544,None,ScrollUp,정답입니다,638.7927695000544,None,638.7927695000544,None,638.7927695000544,None,638.7927695000544,None,639.6172463999828,None,639.6172463999828,640.1270365000237,,,,,,,,,,,,,,,,127,2022-05-11_09h22.07.795,FishGame,2022.1.1,60.01395925540378,
,18,넌 협조적이야,1,Orange,A,5.625,5.666666666666667,ScrollDown,ScrollUp,Orange.png,5,Positive,Congruent,0,0,0,0,,,,,,,,,,,,,,,,,,,,,,,,,,,,,0,17,17,17,,,,,,,,,,,,,,,,,,,,,,,,,,,,,,,,,,,,,,,,,,,,,,,,,,,,,,,,,,,,,,,,,,,,,1.1141975373029709,1.08356780000031,640.7569426000118,None,ScrollDown,정답입니다,640.7569426000118,None,640.7569426000118,None,640.7569426000118,None,640.7569426000118,None,641.7323773000389,None,641.7323773000389,642.2440375000006,,,,,,,,,,,,,,,,127,2022-05-11_09h22.07.795,FishGame,2022.1.1,60.01395925540378,
,19,나를 데려가줘,6,Green,B,0,0,ScrollDown,ScrollUp,Green.png,5,NonTarget,NonTarget,0,0,0,0,,,,,,,,,,,,,,,,,,,,,,,,,,,,,0,18,18,18,,,,,,,,,,,,,,,,,,,,,,,,,,,,,,,,,,,,,,,,,,,,,,,,,,,,,,,,,,,,,,,,,,,,,1,1.0063058000523597,642.872042400064,None,ScrollDown,정답입니다,642.872042400064,None,642.872042400064,None,642.872042400064,None,642.872042400064,None,643.7774915000191,None,643.7774915000191,644.277372600045,,,,,,,,,,,,,,,,127,2022-05-11_09h22.07.795,FishGame,2022.1.1,60.01395925540378,
,20,넌 몰인정해,5,Green,B,2.541666666666667,2.066666666666667,ScrollUp,ScrollDown,Green.png,5,Negative,Congruent,0,0,0,0,,,,,,,,,,,,,,,,,,,,,,,,,,,,,0,19,19,19,,,,,,,,,,,,,,,,,,,,,,,,,,,,,,,,,,,,,,,,,,,,,,,,,,,,,,,,,,,,,,,,,,,,,2,0.9508339000167325,644.9150601000292,None,ScrollUp,정답입니다,644.9150601000292,None,644.9150601000292,None,644.9150601000292,None,644.9150601000292,None,645.7486802000785,None,645.7486802000785,646.2604796000523,,,,,,,,,,,,,,,,127,2022-05-11_09h22.07.795,FishGame,2022.1.1,60.01395925540378,
,21,나를 데려가줘,6,Green,B,0,0,ScrollDown,ScrollUp,Green.png,5,NonTarget,NonTarget,0,0,0,0,,,,,,,,,,,,,,,,,,,,,,,,,,,,,0,20,20,20,,,,,,,,,,,,,,,,,,,,,,,,,,,,,,,,,,,,,,,,,,,,,,,,,,,,,,,,,,,,,,,,,,,,,1.2777777661879859,1.042818499961868,646.8990142999683,None,ScrollDown,정답입니다,646.8990142999683,None,646.8990142999683,None,646.8990142999683,None,646.8990142999683,None,647.8269814000232,None,647.8269814000232,648.3278179999907,,,,,,,,,,,,,,,,127,2022-05-11_09h22.07.795,FishGame,2022.1.1,60.01395925540378,
,22,넌 순진해,3,Green,B,4.125,4.166666666666667,ScrollUp,ScrollDown,Green.png,5,Neutral,Neutral,0,0,0,0,,,,,,,,,,,,,,,,,,,,,,,,,,,,,0,21,21,21,,,,,,,,,,,,,,,,,,,,,,,,,,,,,,,,,,,,,,,,,,,,,,,,,,,,,,,,,,,,,,,,,,,,,1.564814817160368,0.7702738000079989,648.9571456999984,None,ScrollUp,정답입니다,648.9571456999984,None,648.9571456999984,None,648.9571456999984,None,648.9571456999984,None,649.6237850000616,None,649.6237850000616,650.1277171000838,,,,,,,,,,,,,,,,127,2022-05-11_09h22.07.795,FishGame,2022.1.1,60.01395925540378,
