name,TrialNum,Word,WordCategory,FishType,WordList,WordValence,WordReputation,CorrectResp,IncorrectResp,FishTypeFile,Round,WordType,Condition,LoopforOrange.thisRepN,LoopforOrange.thisTrialN,LoopforOrange.thisN,LoopforOrange.thisIndex,LoopForGreen.thisRepN,LoopForGreen.thisTrialN,LoopForGreen.thisN,LoopForGreen.thisIndex,GreenInstLoop.thisRepN,GreenInstLoop.thisTrialN,GreenInstLoop.thisN,GreenInstLoop.thisIndex,GreenPrac.thisRepN,GreenPrac.thisTrialN,GreenPrac.thisN,GreenPrac.thisIndex,trials_2.thisRepN,trials_2.thisTrialN,trials_2.thisN,trials_2.thisIndex,GreenRound1.thisRepN,GreenRound1.thisTrialN,GreenRound1.thisN,GreenRound1.thisIndex,GreenRound2.thisRepN,GreenRound2.thisTrialN,GreenRound2.thisN,GreenRound2.thisIndex,GreenRound3.thisRepN,GreenRound3.thisTrialN,GreenRound3.thisN,GreenRound3.thisIndex,GreenRound4.thisRepN,GreenRound4.thisTrialN,GreenRound4.thisN,GreenRound4.thisIndex,GreenRound5.thisRepN,GreenRound5.thisTrialN,GreenRound5.thisN,GreenRound5.thisIndex,text_2.started,text_2.stopped,text_3.started,text_3.stopped,key_resp.keys,key_resp.rt,key_resp.started,key_resp.stopped,PassI.started,PassI.stopped,PassInst.keys,PassInst.rt,PassInst.started,PassInst.stopped,mouse_2.x,mouse_2.y,mouse_2.leftButton,mouse_2.midButton,mouse_2.rightButton,mouse_2.started,mouse_2.stopped,image.started,image.stopped,text_5.started,text_5.stopped,text_6.started,text_6.stopped,text_7.started,text_7.stopped,text_8.started,text_8.stopped,slider_3.response,slider_3.rt,slider_3.started,slider_3.stopped,Response_3,Feedback_3,BackGround_3.started,BackGround_3.stopped,Fish_3.started,Fish_3.stopped,WordBox_3.started,WordBox_3.stopped,Words_3.started,Words_3.stopped,BackGround_Feedback_3.started,BackGround_Feedback_3.stopped,Feedbacks_3.started,Feedbacks_3.stopped,Continue_or_not_2.keys,Continue_or_not_2.rt,Continue_or_not_2.started,Continue_or_not_2.stopped,image_4.started,image_4.stopped,mouse_3.x,mouse_3.y,mouse_3.leftButton,mouse_3.midButton,mouse_3.rightButton,mouse_3.started,mouse_3.stopped,startmain.started,startmain.stopped,slider_4.response,slider_4.rt,slider_4.started,slider_4.stopped,Response_4,Feedback_4,BackGround_4.started,BackGround_4.stopped,Fish_4.started,Fish_4.stopped,WordBox_4.started,WordBox_4.stopped,Words_4.started,Words_4.stopped,BackGround_Feedback_4.started,BackGround_Feedback_4.stopped,Feedbacks_4.started,Feedbacks_4.stopped,text.started,text.stopped,break_interval.started,break_interval.stopped,mouse.x,mouse.y,mouse.leftButton,mouse.midButton,mouse.rightButton,mouse.started,mouse.stopped,stratnextround.started,stratnextround.stopped,endgame.started,endgame.stopped,participant,date,expName,psychopyVersion,frameRate,
,,,,,,,,,,,,,,,,,,,,,,,,,,,,,,,,,,,,,,,,,,,,,,,,,,,,,,26.414253299939446,None,26.414253299939446,None,space,2.3982741000363603,26.876889499952085,None,,,,,,,,,,,,,,,,,,,,,,,,,,,,,,,,,,,,,,,,,,,,,,,,,,,,,,,,,,,,,,,,,,,,,,,,,,,,,,,,,,,,,,,,,,128,2022-05-11_10h51.02.866,FishGame,2022.1.1,59.93356961400923,
물고기과제_instruction(참가자용)GreenVersion.mp4,,,,,,,,,,,,,,,,,,0,0,0,0,0,0,0,0,,,,,,,,,,,,,,,,,,,,,,,,,,,,,,,,,,,,,95.97294969996437,None,n,11.639170699985698,95.97294969996437,None,,,,,,,,,,,,,,,,,,,,,,,,,,,,,,,,,,,,,,,,,,,,,,,,,,,,,,,,,,,,,,,,,,,,,,,,,,,,,,,,,,,,128,2022-05-11_10h51.02.866,FishGame,2022.1.1,59.93356961400923,
,1,넌 교활해,5,Orange,B,2.333333333333333,2.133333333333333,ScrollUp,ScrollDown,Orange.png,practice,,,,,,,0,0,0,0,,,,,0,0,0,0,0,0,0,0,,,,,,,,,,,,,,,,,,,,,,,,,,,,,,,,,,,0.11666667,-0.21481481,1,0,0,0.5129701300757006,None,107.6289346999256,None,134.62952870002482,136.12945709994528,136.16254309995566,137.11240579991136,137.1626482999418,138.11258559999987,138.11258559999987,None,2,2.379802200011909,139.26826379995327,None,ScrollUp,정답입니다,139.26826379995327,None,139.26826379995327,None,139.26826379995327,None,139.26826379995327,None,141.4853698000079,None,141.4853698000079,141.99569719994906,,,,,,,,,,,,,,,,,,,,,,,,,,,,,,,,,,,,,,,,,,,,,,,,,128,2022-05-11_10h51.02.866,FishGame,2022.1.1,59.93356961400923,
,2,넌 슬기로워,2,Green,A,6.166666666666667,4.1,ScrollDown,ScrollUp,Green.png,practice,,,,,,,0,0,0,0,,,,,0,0,0,0,0,1,1,1,,,,,,,,,,,,,,,,,,,,,,,,,,,,,,,,,,,,,,,,,,,,,,,,,,,,1,1.78606920002494,142.626434899983,None,ScrollDown,정답입니다,142.626434899983,None,142.626434899983,None,142.626434899983,None,142.626434899983,None,144.30914129992016,None,144.30914129992016,144.81254379998427,,,,,,,,,,,,,,,,,,,,,,,,,,,,,,,,,,,,,,,,,,,,,,,,,128,2022-05-11_10h51.02.866,FishGame,2022.1.1,59.93356961400923,
,3,나를 보내줘,6,Green,A,0,0,ScrollUp,ScrollDown,Green.png,practice,,,,,,,0,0,0,0,,,,,0,0,0,0,0,2,2,2,,,,,,,,,,,,,,,,,,,,,,,,,,,,,,,,,,,,,,,,,,,,,,,,,,,,2,2.010296200052835,145.4447627000045,None,ScrollUp,정답입니다,145.4447627000045,None,145.4447627000045,None,145.4447627000045,None,145.4447627000045,None,147.34618789993692,None,147.34618789993692,147.84592629992403,,,,,,,,,,,,,,,,,,,,,,,,,,,,,,,,,,,,,,,,,,,,,,,,,128,2022-05-11_10h51.02.866,FishGame,2022.1.1,59.93356961400923,
,4,나를 데려가줘,6,Orange,B,0,0,ScrollDown,ScrollUp,Orange.png,practice,,,,,,,0,0,0,0,,,,,0,0,0,0,0,3,3,3,,,,,,,,,,,,,,,,,,,,,,,,,,,,,,,,,,,,,,,,,,,,,,,,,,,,1,1.7333811999997124,148.4848781999899,None,ScrollDown,정답입니다,148.4848781999899,None,148.4848781999899,None,148.4848781999899,None,148.4848781999899,None,150.10123199992813,None,150.10123199992813,150.61283529992215,,,,,,,,,,,,,,,,,,,,,,,,,,,,,,,,,,,,,,,,,,,,,,,,,128,2022-05-11_10h51.02.866,FishGame,2022.1.1,59.93356961400923,
,1,넌 교활해,5,Orange,B,2.333333333333333,2.133333333333333,ScrollUp,ScrollDown,Orange.png,practice,,,,,,,0,0,0,0,,,,,0,0,0,0,,,,,,,,,,,,,,,,,,,,,,,,,,,,,,,,,,,,,,,,,,,,,,,,,,,,,,,,,,,,,,,,,,,,,,,,,,n,15.572076300042681,151.11268529994413,None,151.11268529994413,None,,,,,,,,,,,,,,,,,,,,,,,,,,,,,,,,,,,,,,,,,,,128,2022-05-11_10h51.02.866,FishGame,2022.1.1,59.93356961400923,
,1,넌 따뜻해,1,Orange,B,6.083333333333333,5.6,ScrollUp,ScrollDown,Orange.png,1,Positive,Incongruent,,,,,0,0,0,0,,,,,,,,,,,,,0,0,0,0,,,,,,,,,,,,,,,,,,,,,,,,,,,,,,,,,,,,,,,,174.66341089992784,176.1628629999468,176.19612420001067,177.14616090001073,177.19629989995155,178.14624809997622,178.14624809997622,None,,,,,,,,,,,,,,,,,,,,,,,,,0.0712963,-0.11203704,1,0,0,0.3140233301091939,None,166.71311729995068,None,2,2.08553949999623,179.3593731999863,None,ScrollUp,정답입니다,179.3593731999863,None,179.3593731999863,None,179.3593731999863,None,179.3593731999863,None,181.22790719999466,None,181.22790719999466,181.73031649994664,,,,,,,,,,,,,,,,128,2022-05-11_10h51.02.866,FishGame,2022.1.1,59.93356961400923,
,2,넌 기품있어,2,Orange,B,5.791666666666668,4.5,ScrollUp,ScrollDown,Orange.png,1,Positive,Incongruent,,,,,0,0,0,0,,,,,,,,,,,,,0,1,1,1,,,,,,,,,,,,,,,,,,,,,,,,,,,,,,,,,,,,,,,,,,,,,,,,,,,,,,,,,,,,,,,,,,,,,,,,,,,,,,,,,2,1.6987477999646217,182.38075619994197,None,ScrollUp,정답입니다,182.38075619994197,None,182.38075619994197,None,182.38075619994197,None,182.38075619994197,None,183.95247259992175,None,183.95247259992175,184.46271869994234,,,,,,,,,,,,,,,,128,2022-05-11_10h51.02.866,FishGame,2022.1.1,59.93356961400923,
,3,나를 보내줘,6,Green,A,0,0,ScrollUp,ScrollDown,Green.png,1,NonTarget,NonTarget,,,,,0,0,0,0,,,,,,,,,,,,,0,2,2,2,,,,,,,,,,,,,,,,,,,,,,,,,,,,,,,,,,,,,,,,,,,,,,,,,,,,,,,,,,,,,,,,,,,,,,,,,,,,,,,,,2,1.728442499996163,185.10106329992414,None,ScrollUp,정답입니다,185.10106329992414,None,185.10106329992414,None,185.10106329992414,None,185.10106329992414,None,186.71331629995257,None,186.71331629995257,187.21411069994792,,,,,,,,,,,,,,,,128,2022-05-11_10h51.02.866,FishGame,2022.1.1,59.93356961400923,
,4,넌 수동적이야,4,Green,A,2.833333333333333,2.933333333333333,ScrollDown,ScrollUp,Green.png,1,Negative,Incongruent,,,,,0,0,0,0,,,,,,,,,,,,,0,3,3,3,,,,,,,,,,,,,,,,,,,,,,,,,,,,,,,,,,,,,,,,,,,,,,,,,,,,,,,,,,,,,,,,,,,,,,,,,,,,,,,,,1,1.5554782999679446,187.85306999995373,None,ScrollDown,정답입니다,187.85306999995373,None,187.85306999995373,None,187.85306999995373,None,187.85306999995373,None,189.29355589998886,None,189.29355589998886,189.7973800000036,,,,,,,,,,,,,,,,128,2022-05-11_10h51.02.866,FishGame,2022.1.1,59.93356961400923,
,5,넌 사심이 없어,3,Orange,B,4.916666666666666,4.333333333333333,ScrollUp,ScrollDown,Orange.png,1,Neutral,Neutral,,,,,0,0,0,0,,,,,,,,,,,,,0,4,4,4,,,,,,,,,,,,,,,,,,,,,,,,,,,,,,,,,,,,,,,,,,,,,,,,,,,,,,,,,,,,,,,,,,,,,,,,,,,,,,,,,2,1.7620650000171736,190.44105209992267,None,ScrollUp,정답입니다,190.44105209992267,None,190.44105209992267,None,190.44105209992267,None,190.44105209992267,None,192.08034789992962,None,192.08034789992962,192.5802340999944,,,,,,,,,,,,,,,,128,2022-05-11_10h51.02.866,FishGame,2022.1.1,59.93356961400923,
,6,넌 헤퍼,5,Green,A,2.458333333333334,2.233333333333333,ScrollDown,ScrollUp,Green.png,1,Negative,Incongruent,,,,,0,0,0,0,,,,,,,,,,,,,0,5,5,5,,,,,,,,,,,,,,,,,,,,,,,,,,,,,,,,,,,,,,,,,,,,,,,,,,,,,,,,,,,,,,,,,,,,,,,,,,,,,,,,,1,1.7349631000543013,193.21675449993927,None,ScrollDown,정답입니다,193.21675449993927,None,193.21675449993927,None,193.21675449993927,None,193.21675449993927,None,194.84376389998943,None,194.84376389998943,195.34702490002383,,,,,,,,,,,,,,,,128,2022-05-11_10h51.02.866,FishGame,2022.1.1,59.93356961400923,
,7,넌 말쑥해,3,Green,A,4.833333333333334,4.333333333333333,ScrollDown,ScrollUp,Green.png,1,Neutral,Neutral,,,,,0,0,0,0,,,,,,,,,,,,,0,6,6,6,,,,,,,,,,,,,,,,,,,,,,,,,,,,,,,,,,,,,,,,,,,,,,,,,,,,,,,,,,,,,,,,,,,,,,,,,,,,,,,,,1,1.5839981000171974,195.98911169997882,None,ScrollDown,정답입니다,195.98911169997882,None,195.98911169997882,None,195.98911169997882,None,195.98911169997882,None,197.4517896999605,None,197.4517896999605,197.96362920000684,,,,,,,,,,,,,,,,128,2022-05-11_10h51.02.866,FishGame,2022.1.1,59.93356961400923,
,8,넌 투덜거려,5,Orange,B,2.541666666666667,2.266666666666667,ScrollUp,ScrollDown,Orange.png,1,Negative,Congruent,,,,,0,0,0,0,,,,,,,,,,,,,0,7,7,7,,,,,,,,,,,,,,,,,,,,,,,,,,,,,,,,,,,,,,,,,,,,,,,,,,,,,,,,,,,,,,,,,,,,,,,,,,,,,,,,,2,1.5211416999809444,198.6163703999482,None,ScrollUp,정답입니다,198.6163703999482,None,198.6163703999482,None,198.6163703999482,None,198.6163703999482,None,200.0136053999886,None,200.0136053999886,200.5136706000194,,,,,,,,,,,,,,,,128,2022-05-11_10h51.02.866,FishGame,2022.1.1,59.93356961400923,
,9,넌 적극적이야,1,Green,A,5.708333333333333,5.533333333333333,ScrollDown,ScrollUp,Green.png,1,Positive,Congruent,,,,,0,0,0,0,,,,,,,,,,,,,0,8,8,8,,,,,,,,,,,,,,,,,,,,,,,,,,,,,,,,,,,,,,,,,,,,,,,,,,,,,,,,,,,,,,,,,,,,,,,,,,,,,,,,,1,1.534705999889411,201.14839899993967,None,ScrollDown,정답입니다,201.14839899993967,None,201.14839899993967,None,201.14839899993967,None,201.14839899993967,None,202.5692035999382,None,202.5692035999382,203.08065639995039,,,,,,,,,,,,,,,,128,2022-05-11_10h51.02.866,FishGame,2022.1.1,59.93356961400923,
,10,넌 재미없어,4,Orange,B,2.625,2.966666666666667,ScrollUp,ScrollDown,Orange.png,1,Negative,Congruent,,,,,0,0,0,0,,,,,,,,,,,,,0,9,9,9,,,,,,,,,,,,,,,,,,,,,,,,,,,,,,,,,,,,,,,,,,,,,,,,,,,,,,,,,,,,,,,,,,,,,,,,,,,,,,,,,2,1.4216602999949828,203.7229806999676,None,ScrollUp,정답입니다,203.7229806999676,None,203.7229806999676,None,203.7229806999676,None,203.7229806999676,None,205.0273708999157,None,205.0273708999157,205.5305505999131,,,,,,,,,,,,,,,,128,2022-05-11_10h51.02.866,FishGame,2022.1.1,59.93356961400923,
,11,넌 명석해,2,Green,A,5.875,4.033333333333333,ScrollDown,ScrollUp,Green.png,1,Positive,Congruent,,,,,0,0,0,0,,,,,,,,,,,,,0,10,10,10,,,,,,,,,,,,,,,,,,,,,,,,,,,,,,,,,,,,,,,,,,,,,,,,,,,,,,,,,,,,,,,,,,,,,,,,,,,,,,,,,1,1.375289799994789,206.1730122999288,None,ScrollDown,정답입니다,206.1730122999288,None,206.1730122999288,None,206.1730122999288,None,206.1730122999288,None,207.43028470000718,None,207.43028470000718,207.93096489994787,,,,,,,,,,,,,,,,128,2022-05-11_10h51.02.866,FishGame,2022.1.1,59.93356961400923,
,12,나를 데려가줘,6,Orange,B,0,0,ScrollDown,ScrollUp,Orange.png,1,NonTarget,NonTarget,,,,,0,0,0,0,,,,,,,,,,,,,0,11,11,11,,,,,,,,,,,,,,,,,,,,,,,,,,,,,,,,,,,,,,,,,,,,,,,,,,,,,,,,,,,,,,,,,,,,,,,,,,,,,,,,,1,1.377016199985519,208.57289890001994,None,ScrollDown,정답입니다,208.57289890001994,None,208.57289890001994,None,208.57289890001994,None,208.57289890001994,None,209.83073779998813,None,209.83073779998813,210.33039129991084,,,,,,,,,,,,,,,,128,2022-05-11_10h51.02.866,FishGame,2022.1.1,59.93356961400923,
,13,넌 소심해,4,Green,A,3,3.1,ScrollDown,ScrollUp,Green.png,1,Negative,Incongruent,,,,,0,0,0,0,,,,,,,,,,,,,0,12,12,12,,,,,,,,,,,,,,,,,,,,,,,,,,,,,,,,,,,,,,,,,,,,,,,,,,,,,,,,,,,,,,,,,,,,,,,,,,,,,,,,,1,1.6710917999735102,210.9635153999552,None,ScrollDown,정답입니다,210.9635153999552,None,210.9635153999552,None,210.9635153999552,None,210.9635153999552,None,212.52762609999627,None,212.52762609999627,213.03052909998223,,,,,,,,,,,,,,,,128,2022-05-11_10h51.02.866,FishGame,2022.1.1,59.93356961400923,
,14,넌 합리적이야,2,Green,A,5.583333333333333,4.733333333333333,ScrollDown,ScrollUp,Green.png,1,Positive,Congruent,,,,,0,0,0,0,,,,,,,,,,,,,0,13,13,13,,,,,,,,,,,,,,,,,,,,,,,,,,,,,,,,,,,,,,,,,,,,,,,,,,,,,,,,,,,,,,,,,,,,,,,,,,,,,,,,,1,1.4508345000213012,213.67113359994255,None,ScrollDown,정답입니다,213.67113359994255,None,213.67113359994255,None,213.67113359994255,None,213.67113359994255,None,215.00213699997403,None,215.00213699997403,215.5140094999224,,,,,,,,,,,,,,,,128,2022-05-11_10h51.02.866,FishGame,2022.1.1,59.93356961400923,
,15,넌 무자비해,5,Orange,B,2.333333333333333,2.1,ScrollUp,ScrollDown,Orange.png,1,Negative,Congruent,,,,,0,0,0,0,,,,,,,,,,,,,0,14,14,14,,,,,,,,,,,,,,,,,,,,,,,,,,,,,,,,,,,,,,,,,,,,,,,,,,,,,,,,,,,,,,,,,,,,,,,,,,,,,,,,,2,1.5117868999950588,216.16127169993706,None,ScrollUp,정답입니다,216.16127169993706,None,216.16127169993706,None,216.16127169993706,None,216.16127169993706,None,217.5474379999796,None,217.5474379999796,218.047574599972,,,,,,,,,,,,,,,,128,2022-05-11_10h51.02.866,FishGame,2022.1.1,59.93356961400923,
,16,나를 보내줘,6,Green,A,0,0,ScrollUp,ScrollDown,Green.png,1,NonTarget,NonTarget,,,,,0,0,0,0,,,,,,,,,,,,,0,15,15,15,,,,,,,,,,,,,,,,,,,,,,,,,,,,,,,,,,,,,,,,,,,,,,,,,,,,,,,,,,,,,,,,,,,,,,,,,,,,,,,,,2,1.5235700000775978,218.67944470001385,None,ScrollUp,정답입니다,218.67944470001385,None,218.67944470001385,None,218.67944470001385,None,218.67944470001385,None,220.09412259992678,None,220.09412259992678,220.5973074999638,,,,,,,,,,,,,,,,128,2022-05-11_10h51.02.866,FishGame,2022.1.1,59.93356961400923,
,17,넌 현실적이야,3,Orange,B,4.608695652173913,4.766666666666667,ScrollUp,ScrollDown,Orange.png,1,Neutral,Neutral,,,,,0,0,0,0,,,,,,,,,,,,,0,16,16,16,,,,,,,,,,,,,,,,,,,,,,,,,,,,,,,,,,,,,,,,,,,,,,,,,,,,,,,,,,,,,,,,,,,,,,,,,,,,,,,,,2,1.6491421000100672,221.23824079998303,None,ScrollUp,정답입니다,221.23824079998303,None,221.23824079998303,None,221.23824079998303,None,221.23824079998303,None,222.76945739996154,None,222.76945739996154,223.28140570002142,,,,,,,,,,,,,,,,128,2022-05-11_10h51.02.866,FishGame,2022.1.1,59.93356961400923,
,18,넌 의리있어,1,Orange,B,5.833333333333334,5.633333333333334,ScrollUp,ScrollDown,Orange.png,1,Positive,Incongruent,,,,,0,0,0,0,,,,,,,,,,,,,0,17,17,17,,,,,,,,,,,,,,,,,,,,,,,,,,,,,,,,,,,,,,,,,,,,,,,,,,,,,,,,,,,,,,,,,,,,,,,,,,,,,,,,,2,1.3518456000601873,223.9193395000184,None,ScrollUp,정답입니다,223.9193395000184,None,223.9193395000184,None,223.9193395000184,None,223.9193395000184,None,225.15221159998327,None,225.15221159998327,225.6643969999859,,,,,,,,,,,,,,,,128,2022-05-11_10h51.02.866,FishGame,2022.1.1,59.93356961400923,
,19,넌 신경과민이야,5,Green,A,2.541666666666667,2.166666666666667,ScrollDown,ScrollUp,Green.png,1,Negative,Incongruent,,,,,0,0,0,0,,,,,,,,,,,,,0,18,18,18,,,,,,,,,,,,,,,,,,,,,,,,,,,,,,,,,,,,,,,,,,,,,,,,,,,,,,,,,,,,,,,,,,,,,,,,,,,,,,,,,1,1.4573924000142142,226.3073803000152,None,ScrollDown,정답입니다,226.3073803000152,None,226.3073803000152,None,226.3073803000152,None,226.3073803000152,None,227.64739619998727,None,227.64739619998727,228.14753459999338,,,,,,,,,,,,,,,,128,2022-05-11_10h51.02.866,FishGame,2022.1.1,59.93356961400923,
,20,넌 편안해,1,Green,A,5.916666666666666,5.866666666666666,ScrollDown,ScrollUp,Green.png,1,Positive,Congruent,,,,,0,0,0,0,,,,,,,,,,,,,0,19,19,19,,,,,,,,,,,,,,,,,,,,,,,,,,,,,,,,,,,,,,,,,,,,,,,,,,,,,,,,,,,,,,,,,,,,,,,,,,,,,,,,,1,1.2268861000193283,228.786818799912,None,ScrollDown,정답입니다,228.786818799912,None,228.786818799912,None,228.786818799912,None,228.786818799912,None,229.8978612999199,None,229.8978612999199,230.39807479991578,,,,,,,,,,,,,,,,128,2022-05-11_10h51.02.866,FishGame,2022.1.1,59.93356961400923,
,21,넌 품위있어,2,Orange,B,5.291666666666666,4.466666666666667,ScrollUp,ScrollDown,Orange.png,1,Positive,Incongruent,,,,,0,0,0,0,,,,,,,,,,,,,0,20,20,20,,,,,,,,,,,,,,,,,,,,,,,,,,,,,,,,,,,,,,,,,,,,,,,,,,,,,,,,,,,,,,,,,,,,,,,,,,,,,,,,,2,1.3211808999767527,231.03579749993514,None,ScrollUp,정답입니다,231.03579749993514,None,231.03579749993514,None,231.03579749993514,None,231.03579749993514,None,232.2447071999777,None,232.2447071999777,232.7477195999818,,,,,,,,,,,,,,,,128,2022-05-11_10h51.02.866,FishGame,2022.1.1,59.93356961400923,
,22,넌 빈틈없어,3,Green,A,4.833333333333333,3.966666666666667,ScrollDown,ScrollUp,Green.png,1,Neutral,Neutral,,,,,0,0,0,0,,,,,,,,,,,,,0,21,21,21,,,,,,,,,,,,,,,,,,,,,,,,,,,,,,,,,,,,,,,,,,,,,,,,,,,,,,,,,,,,,,,,,,,,,,,,,,,,,,,,,1,1.3892168999882415,233.38962729997002,None,ScrollDown,정답입니다,233.38962729997002,None,233.38962729997002,None,233.38962729997002,None,233.38962729997002,None,234.66450730001088,None,234.66450730001088,235.16447219997644,,,,,,,,,,,,,,,,128,2022-05-11_10h51.02.866,FishGame,2022.1.1,59.93356961400923,
,23,넌 상상력없어,4,Orange,B,2.833333333333333,3.133333333333333,ScrollUp,ScrollDown,Orange.png,1,Negative,Congruent,,,,,0,0,0,0,,,,,,,,,,,,,0,22,22,22,,,,,,,,,,,,,,,,,,,,,,,,,,,,,,,,,,,,,,,,,,,,,,,,,,,,,,,,,,,,,,,,,,,,,,,,,,,,,,,,,2,1.2272355000022799,235.80545210000128,None,ScrollUp,정답입니다,235.80545210000128,None,235.80545210000128,None,235.80545210000128,None,235.80545210000128,None,236.91461659991182,None,236.91461659991182,237.4145967999939,,,,,,,,,,,,,,,,128,2022-05-11_10h51.02.866,FishGame,2022.1.1,59.93356961400923,
,24,넌 지혜로워,2,Orange,B,6.333333333333334,4.633333333333334,ScrollUp,ScrollDown,Orange.png,1,Positive,Incongruent,,,,,0,0,0,0,,,,,,,,,,,,,0,23,23,23,,,,,,,,,,,,,,,,,,,,,,,,,,,,,,,,,,,,,,,,,,,,,,,,,,,,,,,,,,,,,,,,,,,,,,,,,,,,,,,,,2,1.3411736999405548,238.06113849999383,None,ScrollUp,정답입니다,238.06113849999383,None,238.06113849999383,None,238.06113849999383,None,238.06113849999383,None,239.2815953999525,None,239.2815953999525,239.78098589996807,,,,,,,,,,,,,,,,128,2022-05-11_10h51.02.866,FishGame,2022.1.1,59.93356961400923,
,25,넌 시끄러워,4,Green,A,2.833333333333333,3.033333333333333,ScrollDown,ScrollUp,Green.png,1,Negative,Incongruent,,,,,0,0,0,0,,,,,,,,,,,,,0,24,24,24,,,,,,,,,,,,,,,,,,,,,,,,,,,,,,,,,,,,,,,,,,,,,,,,,,,,,,,,,,,,,,,,,,,,,,,,,,,,,,,,,1,1.3908306000521407,240.42080209997948,None,ScrollDown,정답입니다,240.42080209997948,None,240.42080209997948,None,240.42080209997948,None,240.42080209997948,None,241.69840599992312,None,241.69840599992312,242.19819609995466,,,,,,,,,,,,,,,,128,2022-05-11_10h51.02.866,FishGame,2022.1.1,59.93356961400923,
,26,넌 만사태평이야,3,Orange,B,4,4.333333333333333,ScrollUp,ScrollDown,Orange.png,1,Neutral,Neutral,,,,,0,0,0,0,,,,,,,,,,,,,0,25,25,25,,,,,,,,,,,,,,,,,,,,,,,,,,,,,,,,,,,,,,,,,,,,,,,,,,,,,,,,,,,,,,,,,,,,,,,,,,,,,,,,,2,1.2708442999282852,242.8492254000157,None,ScrollUp,정답입니다,242.8492254000157,None,242.8492254000157,None,242.8492254000157,None,242.8492254000157,None,243.99467559996992,None,243.99467559996992,244.49832150002476,,,,,,,,,,,,,,,,128,2022-05-11_10h51.02.866,FishGame,2022.1.1,59.93356961400923,
,27,넌 붙임성있어,1,Green,A,5.708333333333333,5.633333333333334,ScrollDown,ScrollUp,Green.png,1,Positive,Congruent,,,,,0,0,0,0,,,,,,,,,,,,,0,26,26,26,,,,,,,,,,,,,,,,,,,,,,,,,,,,,,,,,,,,,,,,,,,,,,,,,,,,,,,,,,,,,,,,,,,,,,,,,,,,,,,,,1,1.2844216999365017,245.13722569996025,None,ScrollDown,정답입니다,245.13722569996025,None,245.13722569996025,None,245.13722569996025,None,245.13722569996025,None,246.30275519995485,None,246.30275519995485,246.81447390001267,,,,,,,,,,,,,,,,128,2022-05-11_10h51.02.866,FishGame,2022.1.1,59.93356961400923,
,28,넌 영리해,2,Green,A,6,4.033333333333333,ScrollDown,ScrollUp,Green.png,1,Positive,Congruent,,,,,0,0,0,0,,,,,,,,,,,,,0,27,27,27,,,,,,,,,,,,,,,,,,,,,,,,,,,,,,,,,,,,,,,,,,,,,,,,,,,,,,,,,,,,,,,,,,,,,,,,,,,,,,,,,1,1.2663295000093058,247.44539379992057,None,ScrollDown,정답입니다,247.44539379992057,None,247.44539379992057,None,247.44539379992057,None,247.44539379992057,None,248.60289510001894,None,248.60289510001894,249.11473949998617,,,,,,,,,,,,,,,,128,2022-05-11_10h51.02.866,FishGame,2022.1.1,59.93356961400923,
,29,넌 열심이야,1,Orange,B,6.041666666666667,5.833333333333333,ScrollUp,ScrollDown,Orange.png,1,Positive,Incongruent,,,,,0,0,0,0,,,,,,,,,,,,,0,28,28,28,,,,,,,,,,,,,,,,,,,,,,,,,,,,,,,,,,,,,,,,,,,,,,,,,,,,,,,,,,,,,,,,,,,,,,,,,,,,,,,,,2,1.2330690999515355,249.75387889996637,None,ScrollUp,정답입니다,249.75387889996637,None,249.75387889996637,None,249.75387889996637,None,249.75387889996637,None,250.8701167999534,None,250.8701167999534,251.3818005999783,,,,,,,,,,,,,,,,128,2022-05-11_10h51.02.866,FishGame,2022.1.1,59.93356961400923,
,30,넌 인기없어,4,Orange,B,3,3.3,ScrollUp,ScrollDown,Orange.png,1,Negative,Congruent,,,,,0,0,0,0,,,,,,,,,,,,,0,29,29,29,,,,,,,,,,,,,,,,,,,,,,,,,,,,,,,,,,,,,,,,,,,,,,,,,,,,,,,,,,,,,,,,,,,,,,,,,,,,,,,,,2,1.392498799948953,252.02178700000513,None,ScrollUp,정답입니다,252.02178700000513,None,252.02178700000513,None,252.02178700000513,None,252.02178700000513,None,253.29768989991862,None,253.29768989991862,253.79881379997823,,,,,,,,,,,,,,,,128,2022-05-11_10h51.02.866,FishGame,2022.1.1,59.93356961400923,
,31,넌 익살스러워,3,Green,A,4.708333333333334,4.833333333333333,ScrollDown,ScrollUp,Green.png,1,Neutral,Neutral,,,,,0,0,0,0,,,,,,,,,,,,,0,30,30,30,,,,,,,,,,,,,,,,,,,,,,,,,,,,,,,,,,,,,,,,,,,,,,,,,,,,,,,,,,,,,,,,,,,,,,,,,,,,,,,,,1,1.383682000101544,254.4398983999854,None,ScrollDown,정답입니다,254.4398983999854,None,254.4398983999854,None,254.4398983999854,None,254.4398983999854,None,255.7031123000197,None,255.7031123000197,256.21505110000726,,,,,,,,,,,,,,,,128,2022-05-11_10h51.02.866,FishGame,2022.1.1,59.93356961400923,
,32,넌 이기적이야,5,Orange,B,2.291666666666667,2.333333333333333,ScrollUp,ScrollDown,Orange.png,1,Negative,Congruent,,,,,0,0,0,0,,,,,,,,,,,,,0,31,31,31,,,,,,,,,,,,,,,,,,,,,,,,,,,,,,,,,,,,,,,,,,,,,,,,,,,,,,,,,,,,,,,,,,,,,,,,,,,,,,,,,2,1.1014594999141991,256.8483933999669,None,ScrollUp,정답입니다,256.8483933999669,None,256.8483933999669,None,256.8483933999669,None,256.8483933999669,None,257.8451097999932,None,257.8451097999932,258.3485224000178,,,,,,,,,,,,,,,,128,2022-05-11_10h51.02.866,FishGame,2022.1.1,59.93356961400923,
,33,나를 데려가줘,6,Orange,B,0,0,ScrollDown,ScrollUp,Orange.png,1,NonTarget,NonTarget,,,,,0,0,0,0,,,,,,,,,,,,,0,32,32,32,,,,,,,,,,,,,,,,,,,,,,,,,,,,,,,,,,,,,,,,,,,,,,,,,,,,,,,,,,,,,,,,,,,,,,,,,,,,,,,,,1,1.4497870000777766,258.98584779992234,None,ScrollDown,정답입니다,258.98584779992234,None,258.98584779992234,None,258.98584779992234,None,258.98584779992234,None,260.320129300002,None,260.320129300002,260.8316229999764,,,,,,,,,,,,,,,,128,2022-05-11_10h51.02.866,FishGame,2022.1.1,59.93356961400923,
,34,넌 기회주의자야,5,Green,A,2.875,2.133333333333333,ScrollDown,ScrollUp,Green.png,1,Negative,Incongruent,,,,,0,0,0,0,,,,,,,,,,,,,0,33,33,33,,,,,,,,,,,,,,,,,,,,,,,,,,,,,,,,,,,,,,,,,,,,,,,,,,,,,,,,,,,,,,,,,,,,,,,,,,,,,,,,,1,1.2840265000704676,261.4729827999836,None,ScrollDown,정답입니다,261.4729827999836,None,261.4729827999836,None,261.4729827999836,None,261.4729827999836,None,262.64845340000466,None,262.64845340000466,263.1487810999388,,,,,,,,,,,,,,,,128,2022-05-11_10h51.02.866,FishGame,2022.1.1,59.93356961400923,
,1,넌 미성숙해,4,Green,A,3,3.2,ScrollDown,ScrollUp,Green.png,2,Negative,Incongruent,,,,,0,0,0,0,,,,,,,,,,,,,,,,,0,0,0,0,,,,,,,,,,,,,,,,,,,,,,,,,,,,,,,,,,,,298.0990758999251,299.5992766999407,299.63298210001085,300.5825751000084,300.63270239997655,301.58245909994,301.58245909994,None,,,,,,,,,,,,,,,,,,,,,,,,,,,,,,,,,,1,1.373655500006862,302.7272035999922,None,ScrollDown,정답입니다,302.7272035999922,None,302.7272035999922,None,302.7272035999922,None,302.7272035999922,None,303.94945379998535,None,303.94945379998535,304.44924059999175,263.648136899923,None,263.648136899923,None,0.23796296,-0.10185185,1,0,0,0.016226629843004048,None,293.64963859994896,None,,,128,2022-05-11_10h51.02.866,FishGame,2022.1.1,59.93356961400923,
,2,넌 반사회적이야,5,Orange,B,2.416666666666667,2.033333333333333,ScrollUp,ScrollDown,Orange.png,2,Negative,Congruent,,,,,0,0,0,0,,,,,,,,,,,,,,,,,0,1,1,1,,,,,,,,,,,,,,,,,,,,,,,,,,,,,,,,,,,,,,,,,,,,,,,,,,,,,,,,,,,,,,,,,,,,,,,,,,,,,2,1.3305297000333667,305.0870297999354,None,ScrollUp,정답입니다,305.0870297999354,None,305.0870297999354,None,305.0870297999354,None,305.0870297999354,None,306.3036884999601,None,306.3036884999601,306.8162144999951,,,,,,,,,,,,,,,,128,2022-05-11_10h51.02.866,FishGame,2022.1.1,59.93356961400923,
,3,넌 유능해,2,Green,A,6.208333333333333,4.433333333333334,ScrollDown,ScrollUp,Green.png,2,Positive,Congruent,,,,,0,0,0,0,,,,,,,,,,,,,,,,,0,2,2,2,,,,,,,,,,,,,,,,,,,,,,,,,,,,,,,,,,,,,,,,,,,,,,,,,,,,,,,,,,,,,,,,,,,,,,,,,,,,,1,1.2241651000222191,307.4491641999921,None,ScrollDown,정답입니다,307.4491641999921,None,307.4491641999921,None,307.4491641999921,None,307.4491641999921,None,308.56587259995285,None,308.56587259995285,309.06599889998324,,,,,,,,,,,,,,,,128,2022-05-11_10h51.02.866,FishGame,2022.1.1,59.93356961400923,
,4,넌 능숙해,2,Orange,B,5.666666666666667,4.733333333333333,ScrollUp,ScrollDown,Orange.png,2,Positive,Incongruent,,,,,0,0,0,0,,,,,,,,,,,,,,,,,0,3,3,3,,,,,,,,,,,,,,,,,,,,,,,,,,,,,,,,,,,,,,,,,,,,,,,,,,,,,,,,,,,,,,,,,,,,,,,,,,,,,2,1.1906816000118852,309.7003368999576,None,ScrollUp,정답입니다,309.7003368999576,None,309.7003368999576,None,309.7003368999576,None,309.7003368999576,None,310.78275020001456,None,310.78275020001456,311.2828625999391,,,,,,,,,,,,,,,,128,2022-05-11_10h51.02.866,FishGame,2022.1.1,59.93356961400923,
,5,넌 진부해,4,Orange,B,2.458333333333333,3.166666666666667,ScrollUp,ScrollDown,Orange.png,2,Negative,Congruent,,,,,0,0,0,0,,,,,,,,,,,,,,,,,0,4,4,4,,,,,,,,,,,,,,,,,,,,,,,,,,,,,,,,,,,,,,,,,,,,,,,,,,,,,,,,,,,,,,,,,,,,,,,,,,,,,2,1.1138251000083983,311.9249076999258,None,ScrollUp,정답입니다,311.9249076999258,None,311.9249076999258,None,311.9249076999258,None,311.9249076999258,None,312.9215794999618,None,312.9215794999618,313.4330413999269,,,,,,,,,,,,,,,,128,2022-05-11_10h51.02.866,FishGame,2022.1.1,59.93356961400923,
,6,나를 보내줘,6,Green,A,0,0,ScrollUp,ScrollDown,Green.png,2,NonTarget,NonTarget,,,,,0,0,0,0,,,,,,,,,,,,,,,,,0,5,5,5,,,,,,,,,,,,,,,,,,,,,,,,,,,,,,,,,,,,,,,,,,,,,,,,,,,,,,,,,,,,,,,,,,,,,,,,,,,,,2,1.4814603000413626,314.06351399992127,None,ScrollUp,정답입니다,314.06351399992127,None,314.06351399992127,None,314.06351399992127,None,314.06351399992127,None,315.43789079994895,None,315.43789079994895,315.94991379999556,,,,,,,,,,,,,,,,128,2022-05-11_10h51.02.866,FishGame,2022.1.1,59.93356961400923,
,7,넌 엄격해,3,Green,A,4.166666666666666,4.1,ScrollDown,ScrollUp,Green.png,2,Neutral,Neutral,,,,,0,0,0,0,,,,,,,,,,,,,,,,,0,6,6,6,,,,,,,,,,,,,,,,,,,,,,,,,,,,,,,,,,,,,,,,,,,,,,,,,,,,,,,,,,,,,,,,,,,,,,,,,,,,,1,1.2682172999484465,316.5879113000119,None,ScrollDown,정답입니다,316.5879113000119,None,316.5879113000119,None,316.5879113000119,None,316.5879113000119,None,317.7383311999729,None,317.7383311999729,318.2498382999329,,,,,,,,,,,,,,,,128,2022-05-11_10h51.02.866,FishGame,2022.1.1,59.93356961400923,
,8,나를 보내줘,6,Green,A,0,0,ScrollUp,ScrollDown,Green.png,2,NonTarget,NonTarget,,,,,0,0,0,0,,,,,,,,,,,,,,,,,0,7,7,7,,,,,,,,,,,,,,,,,,,,,,,,,,,,,,,,,,,,,,,,,,,,,,,,,,,,,,,,,,,,,,,,,,,,,,,,,,,,,2,1.1291487000416964,318.8763295999961,None,ScrollUp,정답입니다,318.8763295999961,None,318.8763295999961,None,318.8763295999961,None,318.8763295999961,None,319.9025941999862,None,319.9025941999862,320.41640119999647,,,,,,,,,,,,,,,,128,2022-05-11_10h51.02.866,FishGame,2022.1.1,59.93356961400923,
,9,넌 대담해,3,Orange,B,4.875,4.866666666666666,ScrollUp,ScrollDown,Orange.png,2,Neutral,Neutral,,,,,0,0,0,0,,,,,,,,,,,,,,,,,0,8,8,8,,,,,,,,,,,,,,,,,,,,,,,,,,,,,,,,,,,,,,,,,,,,,,,,,,,,,,,,,,,,,,,,,,,,,,,,,,,,,2,1.422798200044781,321.05727049999405,None,ScrollUp,정답입니다,321.05727049999405,None,321.05727049999405,None,321.05727049999405,None,321.05727049999405,None,322.3631720999256,None,322.3631720999256,322.86615169991273,,,,,,,,,,,,,,,,128,2022-05-11_10h51.02.866,FishGame,2022.1.1,59.93356961400923,
,10,넌 꾸준해,1,Green,A,5.916666666666668,5.8,ScrollDown,ScrollUp,Green.png,2,Positive,Congruent,,,,,0,0,0,0,,,,,,,,,,,,,,,,,0,9,9,9,,,,,,,,,,,,,,,,,,,,,,,,,,,,,,,,,,,,,,,,,,,,,,,,,,,,,,,,,,,,,,,,,,,,,,,,,,,,,1,1.4243331999750808,323.50186059996486,None,ScrollDown,정답입니다,323.50186059996486,None,323.50186059996486,None,323.50186059996486,None,323.50186059996486,None,324.816438299953,None,324.816438299953,325.3168593000155,,,,,,,,,,,,,,,,128,2022-05-11_10h51.02.866,FishGame,2022.1.1,59.93356961400923,
,11,나를 데려가줘,6,Orange,B,0,0,ScrollDown,ScrollUp,Orange.png,2,NonTarget,NonTarget,,,,,0,0,0,0,,,,,,,,,,,,,,,,,0,10,10,10,,,,,,,,,,,,,,,,,,,,,,,,,,,,,,,,,,,,,,,,,,,,,,,,,,,,,,,,,,,,,,,,,,,,,,,,,,,,,1,1.5093871999997646,325.95205369999167,None,ScrollDown,정답입니다,325.95205369999167,None,325.95205369999167,None,325.95205369999167,None,325.95205369999167,None,327.34995780000463,None,327.34995780000463,327.84997889993247,,,,,,,,,,,,,,,,128,2022-05-11_10h51.02.866,FishGame,2022.1.1,59.93356961400923,
,12,넌 독선적이야,5,Green,A,2.458333333333333,1.933333333333333,ScrollDown,ScrollUp,Green.png,2,Negative,Incongruent,,,,,0,0,0,0,,,,,,,,,,,,,,,,,0,11,11,11,,,,,,,,,,,,,,,,,,,,,,,,,,,,,,,,,,,,,,,,,,,,,,,,,,,,,,,,,,,,,,,,,,,,,,,,,,,,,1,1.2998207000782713,328.4892796999775,None,ScrollDown,정답입니다,328.4892796999775,None,328.4892796999775,None,328.4892796999775,None,328.4892796999775,None,329.6716446999926,None,329.6716446999926,330.1832461999729,,,,,,,,,,,,,,,,128,2022-05-11_10h51.02.866,FishGame,2022.1.1,59.93356961400923,
,13,나를 보내줘,6,Green,A,0,0,ScrollUp,ScrollDown,Green.png,2,NonTarget,NonTarget,,,,,0,0,0,0,,,,,,,,,,,,,,,,,0,12,12,12,,,,,,,,,,,,,,,,,,,,,,,,,,,,,,,,,,,,,,,,,,,,,,,,,,,,,,,,,,,,,,,,,,,,,,,,,,,,,2,1.2669403000036255,330.81749249994755,None,ScrollUp,정답입니다,330.81749249994755,None,330.81749249994755,None,330.81749249994755,None,330.81749249994755,None,331.97189209994394,None,331.97189209994394,332.4831508999923,,,,,,,,,,,,,,,,128,2022-05-11_10h51.02.866,FishGame,2022.1.1,59.93356961400923,
,14,넌 책임감있어,1,Orange,B,6.347826086956522,6,ScrollUp,ScrollDown,Orange.png,2,Positive,Incongruent,,,,,0,0,0,0,,,,,,,,,,,,,,,,,0,13,13,13,,,,,,,,,,,,,,,,,,,,,,,,,,,,,,,,,,,,,,,,,,,,,,,,,,,,,,,,,,,,,,,,,,,,,,,,,,,,,2,1.273814299958758,333.1285011,None,ScrollUp,정답입니다,333.1285011,None,333.1285011,None,333.1285011,None,333.1285011,None,334.28325269999914,None,334.28325269999914,334.78319290000945,,,,,,,,,,,,,,,,128,2022-05-11_10h51.02.866,FishGame,2022.1.1,59.93356961400923,
,15,넌 문학적이야,3,Green,A,4.708333333333334,4.333333333333333,ScrollDown,ScrollUp,Green.png,2,Neutral,Neutral,,,,,0,0,0,0,,,,,,,,,,,,,,,,,0,14,14,14,,,,,,,,,,,,,,,,,,,,,,,,,,,,,,,,,,,,,,,,,,,,,,,,,,,,,,,,,,,,,,,,,,,,,,,,,,,,,1,1.2340265000239015,335.42277079995256,None,ScrollDown,정답입니다,335.42277079995256,None,335.42277079995256,None,335.42277079995256,None,335.42277079995256,None,336.53894759994,None,336.53894759994,337.05082459992263,,,,,,,,,,,,,,,,128,2022-05-11_10h51.02.866,FishGame,2022.1.1,59.93356961400923,
,16,넌 재미있어,1,Orange,B,5.875,5.7,ScrollUp,ScrollDown,Orange.png,2,Positive,Incongruent,,,,,0,0,0,0,,,,,,,,,,,,,,,,,0,15,15,15,,,,,,,,,,,,,,,,,,,,,,,,,,,,,,,,,,,,,,,,,,,,,,,,,,,,,,,,,,,,,,,,,,,,,,,,,,,,,2,1.1916620000265539,337.68503990001045,None,ScrollUp,정답입니다,337.68503990001045,None,337.68503990001045,None,337.68503990001045,None,337.68503990001045,None,338.7665793999331,None,338.7665793999331,339.26689730002545,,,,,,,,,,,,,,,,128,2022-05-11_10h51.02.866,FishGame,2022.1.1,59.93356961400923,
,17,나를 데려가줘,6,Orange,B,0,0,ScrollDown,ScrollUp,Orange.png,2,NonTarget,NonTarget,,,,,0,0,0,0,,,,,,,,,,,,,,,,,0,16,16,16,,,,,,,,,,,,,,,,,,,,,,,,,,,,,,,,,,,,,,,,,,,,,,,,,,,,,,,,,,,,,,,,,,,,,,,,,,,,,1,1.3019624999724329,339.90263419994153,None,ScrollDown,정답입니다,339.90263419994153,None,339.90263419994153,None,339.90263419994153,None,339.90263419994153,None,341.09668979991693,None,341.09668979991693,341.600125500001,,,,,,,,,,,,,,,,128,2022-05-11_10h51.02.866,FishGame,2022.1.1,59.93356961400923,
,18,넌 협력적이야,1,Green,A,5.625,5.633333333333334,ScrollDown,ScrollUp,Green.png,2,Positive,Congruent,,,,,0,0,0,0,,,,,,,,,,,,,,,,,0,17,17,17,,,,,,,,,,,,,,,,,,,,,,,,,,,,,,,,,,,,,,,,,,,,,,,,,,,,,,,,,,,,,,,,,,,,,,,,,,,,,1,1.3409021999686956,342.2314904999221,None,ScrollDown,정답입니다,342.2314904999221,None,342.2314904999221,None,342.2314904999221,None,342.2314904999221,None,343.46724609995726,None,343.46724609995726,343.9668633999536,,,,,,,,,,,,,,,,128,2022-05-11_10h51.02.866,FishGame,2022.1.1,59.93356961400923,
,19,넌 평범해,3,Orange,B,4.333333333333332,4.233333333333333,ScrollUp,ScrollDown,Orange.png,2,Neutral,Neutral,,,,,0,0,0,0,,,,,,,,,,,,,,,,,0,18,18,18,,,,,,,,,,,,,,,,,,,,,,,,,,,,,,,,,,,,,,,,,,,,,,,,,,,,,,,,,,,,,,,,,,,,,,,,,,,,,2,1.3697413000045344,344.6062216999708,None,ScrollUp,정답입니다,344.6062216999708,None,344.6062216999708,None,344.6062216999708,None,344.6062216999708,None,345.86341669992544,None,345.86341669992544,346.36682210001163,,,,,,,,,,,,,,,,128,2022-05-11_10h51.02.866,FishGame,2022.1.1,59.93356961400923,
,20,넌 오만해,5,Green,A,2.333333333333333,2,ScrollDown,ScrollUp,Green.png,2,Negative,Incongruent,,,,,0,0,0,0,,,,,,,,,,,,,,,,,0,19,19,19,,,,,,,,,,,,,,,,,,,,,,,,,,,,,,,,,,,,,,,,,,,,,,,,,,,,,,,,,,,,,,,,,,,,,,,,,,,,,1,1.192286100005731,346.9997900999151,None,ScrollDown,정답입니다,346.9997900999151,None,346.9997900999151,None,346.9997900999151,None,346.9997900999151,None,348.0835791999707,None,348.0835791999707,348.5836267999839,,,,,,,,,,,,,,,,128,2022-05-11_10h51.02.866,FishGame,2022.1.1,59.93356961400923,
,21,넌 운이없어,4,Orange,B,3,3.466666666666667,ScrollUp,ScrollDown,Orange.png,2,Negative,Congruent,,,,,0,0,0,0,,,,,,,,,,,,,,,,,0,20,20,20,,,,,,,,,,,,,,,,,,,,,,,,,,,,,,,,,,,,,,,,,,,,,,,,,,,,,,,,,,,,,,,,,,,,,,,,,,,,,2,1.2924580000108108,349.2398245999357,None,ScrollUp,정답입니다,349.2398245999357,None,349.2398245999357,None,349.2398245999357,None,349.2398245999357,None,350.4006061999826,None,350.4006061999826,350.9003902999684,,,,,,,,,,,,,,,,128,2022-05-11_10h51.02.866,FishGame,2022.1.1,59.93356961400923,
,22,넌 창조적이야,2,Orange,B,6.125,4.633333333333334,ScrollUp,ScrollDown,Orange.png,2,Positive,Incongruent,,,,,0,0,0,0,,,,,,,,,,,,,,,,,0,21,21,21,,,,,,,,,,,,,,,,,,,,,,,,,,,,,,,,,,,,,,,,,,,,,,,,,,,,,,,,,,,,,,,,,,,,,,,,,,,,,2,1.3162988999392837,351.5451696999371,None,ScrollUp,정답입니다,351.5451696999371,None,351.5451696999371,None,351.5451696999371,None,351.5451696999371,None,352.7390482999617,None,352.7390482999617,353.2504172999179,,,,,,,,,,,,,,,,128,2022-05-11_10h51.02.866,FishGame,2022.1.1,59.93356961400923,
,23,나를 보내줘,6,Green,A,0,0,ScrollUp,ScrollDown,Green.png,2,NonTarget,NonTarget,,,,,0,0,0,0,,,,,,,,,,,,,,,,,0,22,22,22,,,,,,,,,,,,,,,,,,,,,,,,,,,,,,,,,,,,,,,,,,,,,,,,,,,,,,,,,,,,,,,,,,,,,,,,,,,,,2,1.5402108998969197,353.87680680002086,None,ScrollUp,정답입니다,353.87680680002086,None,353.87680680002086,None,353.87680680002086,None,353.87680680002086,None,355.31690500001423,None,355.31690500001423,355.8179607000202,,,,,,,,,,,,,,,,128,2022-05-11_10h51.02.866,FishGame,2022.1.1,59.93356961400923,
,24,넌 통찰력있어,2,Green,A,6.5,4.8,ScrollDown,ScrollUp,Green.png,2,Positive,Congruent,,,,,0,0,0,0,,,,,,,,,,,,,,,,,0,23,23,23,,,,,,,,,,,,,,,,,,,,,,,,,,,,,,,,,,,,,,,,,,,,,,,,,,,,,,,,,,,,,,,,,,,,,,,,,,,,,1,1.1986593999899924,356.46841819991823,None,ScrollDown,정답입니다,356.46841819991823,None,356.46841819991823,None,356.46841819991823,None,356.46841819991823,None,357.5389343999559,None,357.5389343999559,358.0509454999119,,,,,,,,,,,,,,,,128,2022-05-11_10h51.02.866,FishGame,2022.1.1,59.93356961400923,
,25,넌 경솔해,5,Orange,B,2.458333333333333,2.266666666666667,ScrollUp,ScrollDown,Orange.png,2,Negative,Congruent,,,,,0,0,0,0,,,,,,,,,,,,,,,,,0,24,24,24,,,,,,,,,,,,,,,,,,,,,,,,,,,,,,,,,,,,,,,,,,,,,,,,,,,,,,,,,,,,,,,,,,,,,,,,,,,,,2,1.1944596000248566,358.69300690002274,None,ScrollUp,정답입니다,358.69300690002274,None,358.69300690002274,None,358.69300690002274,None,358.69300690002274,None,359.76824289991055,None,359.76824289991055,360.26722119993065,,,,,,,,,,,,,,,,128,2022-05-11_10h51.02.866,FishGame,2022.1.1,59.93356961400923,
,26,넌 초조해,4,Green,A,2.916666666666667,3.133333333333333,ScrollDown,ScrollUp,Green.png,2,Negative,Incongruent,,,,,0,0,0,0,,,,,,,,,,,,,,,,,0,25,25,25,,,,,,,,,,,,,,,,,,,,,,,,,,,,,,,,,,,,,,,,,,,,,,,,,,,,,,,,,,,,,,,,,,,,,,,,,,,,,1,1.2423607000382617,360.9039346999489,None,ScrollDown,정답입니다,360.9039346999489,None,360.9039346999489,None,360.9039346999489,None,360.9039346999489,None,362.03392039996106,None,362.03392039996106,362.5340042000171,,,,,,,,,,,,,,,,128,2022-05-11_10h51.02.866,FishGame,2022.1.1,59.93356961400923,
,27,넌 무관심해,4,Orange,B,2.833333333333333,2.9,ScrollUp,ScrollDown,Orange.png,2,Negative,Congruent,,,,,0,0,0,0,,,,,,,,,,,,,,,,,0,26,26,26,,,,,,,,,,,,,,,,,,,,,,,,,,,,,,,,,,,,,,,,,,,,,,,,,,,,,,,,,,,,,,,,,,,,,,,,,,,,,2,1.1247479999437928,363.1700869000051,None,ScrollUp,정답입니다,363.1700869000051,None,363.1700869000051,None,363.1700869000051,None,363.1700869000051,None,364.1839153999463,None,364.1839153999463,364.6840950999176,,,,,,,,,,,,,,,,128,2022-05-11_10h51.02.866,FishGame,2022.1.1,59.93356961400923,
,28,넌 감성적이야,3,Orange,B,4.125,4.166666666666667,ScrollUp,ScrollDown,Orange.png,2,Neutral,Neutral,,,,,0,0,0,0,,,,,,,,,,,,,,,,,0,27,27,27,,,,,,,,,,,,,,,,,,,,,,,,,,,,,,,,,,,,,,,,,,,,,,,,,,,,,,,,,,,,,,,,,,,,,,,,,,,,,2,1.5372040000511333,365.3217079999158,None,ScrollUp,정답입니다,365.3217079999158,None,365.3217079999158,None,365.3217079999158,None,365.3217079999158,None,366.74745089991484,None,366.74745089991484,367.25053489999846,,,,,,,,,,,,,,,,128,2022-05-11_10h51.02.866,FishGame,2022.1.1,59.93356961400923,
,29,넌 배려심있어,1,Green,A,6.083333333333333,5.5,ScrollDown,ScrollUp,Green.png,2,Positive,Congruent,,,,,0,0,0,0,,,,,,,,,,,,,,,,,0,28,28,28,,,,,,,,,,,,,,,,,,,,,,,,,,,,,,,,,,,,,,,,,,,,,,,,,,,,,,,,,,,,,,,,,,,,,,,,,,,,,1,1.0581644999329,367.8829378000228,None,ScrollDown,정답입니다,367.8829378000228,None,367.8829378000228,None,367.8829378000228,None,367.8829378000228,None,368.8339944999898,None,368.8339944999898,369.3341943999985,,,,,,,,,,,,,,,,128,2022-05-11_10h51.02.866,FishGame,2022.1.1,59.93356961400923,
,30,넌 숨김없어,3,Green,A,4.5,4.933333333333334,ScrollDown,ScrollUp,Green.png,2,Neutral,Neutral,,,,,0,0,0,0,,,,,,,,,,,,,,,,,0,29,29,29,,,,,,,,,,,,,,,,,,,,,,,,,,,,,,,,,,,,,,,,,,,,,,,,,,,,,,,,,,,,,,,,,,,,,,,,,,,,,1,1.1204518000595272,369.9696559999138,None,ScrollDown,정답입니다,369.9696559999138,None,369.9696559999138,None,369.9696559999138,None,369.9696559999138,None,370.98389879998285,None,370.98389879998285,371.4840931999497,,,,,,,,,,,,,,,,128,2022-05-11_10h51.02.866,FishGame,2022.1.1,59.93356961400923,
,31,넌 훌륭해,2,Orange,B,5.916666666666667,4.033333333333333,ScrollUp,ScrollDown,Orange.png,2,Positive,Incongruent,,,,,0,0,0,0,,,,,,,,,,,,,,,,,0,30,30,30,,,,,,,,,,,,,,,,,,,,,,,,,,,,,,,,,,,,,,,,,,,,,,,,,,,,,,,,,,,,,,,,,,,,,,,,,,,,,1.9675925771395366,0.9740400000009686,372.1267098999815,None,ScrollUp,정답입니다,372.1267098999815,None,372.1267098999815,None,372.1267098999815,None,372.1267098999815,None,372.98482809995767,None,372.98482809995767,373.48479239991866,,,,,,,,,,,,,,,,128,2022-05-11_10h51.02.866,FishGame,2022.1.1,59.93356961400923,
,32,넌 슬기로워,2,Green,A,6.166666666666667,4.1,ScrollDown,ScrollUp,Green.png,2,Positive,Congruent,,,,,0,0,0,0,,,,,,,,,,,,,,,,,0,31,31,31,,,,,,,,,,,,,,,,,,,,,,,,,,,,,,,,,,,,,,,,,,,,,,,,,,,,,,,,,,,,,,,,,,,,,,,,,,,,,1,0.9821544999722391,374.10942549991887,None,ScrollDown,정답입니다,374.10942549991887,None,374.10942549991887,None,374.10942549991887,None,374.10942549991887,None,374.98899859993253,None,374.98899859993253,375.501505299937,,,,,,,,,,,,,,,,128,2022-05-11_10h51.02.866,FishGame,2022.1.1,59.93356961400923,
,33,넌 냉혹해,5,Green,A,2.583333333333333,2.1,ScrollDown,ScrollUp,Green.png,2,Negative,Incongruent,,,,,0,0,0,0,,,,,,,,,,,,,,,,,0,32,32,32,,,,,,,,,,,,,,,,,,,,,,,,,,,,,,,,,,,,,,,,,,,,,,,,,,,,,,,,,,,,,,,,,,,,,,,,,,,,,1,0.9551594000076875,376.1356666999636,None,ScrollDown,정답입니다,376.1356666999636,None,376.1356666999636,None,376.1356666999636,None,376.1356666999636,None,376.98472099995706,None,376.98472099995706,377.48472850001417,,,,,,,,,,,,,,,,128,2022-05-11_10h51.02.866,FishGame,2022.1.1,59.93356961400923,
,34,나를 데려가줘,6,Orange,B,0,0,ScrollDown,ScrollUp,Orange.png,2,NonTarget,NonTarget,,,,,0,0,0,0,,,,,,,,,,,,,,,,,0,33,33,33,,,,,,,,,,,,,,,,,,,,,,,,,,,,,,,,,,,,,,,,,,,,,,,,,,,,,,,,,,,,,,,,,,,,,,,,,,,,,1,1.1155049999943003,378.1121156999143,None,ScrollDown,정답입니다,378.1121156999143,None,378.1121156999143,None,378.1121156999143,None,378.1121156999143,None,379.1228258999763,None,379.1228258999763,379.63436829997227,,,,,,,,,,,,,,,,128,2022-05-11_10h51.02.866,FishGame,2022.1.1,59.93356961400923,
,35,넌 편파적이야,5,Orange,B,2.125,2,ScrollUp,ScrollDown,Orange.png,2,Negative,Congruent,,,,,0,0,0,0,,,,,,,,,,,,,,,,,0,34,34,34,,,,,,,,,,,,,,,,,,,,,,,,,,,,,,,,,,,,,,,,,,,,,,,,,,,,,,,,,,,,,,,,,,,,,,,,,,,,,2,1.0556734999408945,380.2749834000133,None,ScrollUp,정답입니다,380.2749834000133,None,380.2749834000133,None,380.2749834000133,None,380.2749834000133,None,381.2181502999738,None,381.2181502999738,381.71841610001866,,,,,,,,,,,,,,,,128,2022-05-11_10h51.02.866,FishGame,2022.1.1,59.93356961400923,
,36,넌 슬퍼,4,Green,A,2.583333333333333,3.066666666666667,ScrollDown,ScrollUp,Green.png,2,Negative,Incongruent,,,,,0,0,0,0,,,,,,,,,,,,,,,,,0,35,35,35,,,,,,,,,,,,,,,,,,,,,,,,,,,,,,,,,,,,,,,,,,,,,,,,,,,,,,,,,,,,,,,,,,,,,,,,,,,,,1,0.9509577999124303,382.3450706999283,None,ScrollDown,정답입니다,382.3450706999283,None,382.3450706999283,None,382.3450706999283,None,382.3450706999283,None,383.18955050001387,None,383.18955050001387,383.7012434999924,,,,,,,,,,,,,,,,128,2022-05-11_10h51.02.866,FishGame,2022.1.1,59.93356961400923,
,37,나를 데려가줘,6,Orange,B,0,0,ScrollDown,ScrollUp,Orange.png,2,NonTarget,NonTarget,,,,,0,0,0,0,,,,,,,,,,,,,,,,,0,36,36,36,,,,,,,,,,,,,,,,,,,,,,,,,,,,,,,,,,,,,,,,,,,,,,,,,,,,,,,,,,,,,,,,,,,,,,,,,,,,,1,1.1267959999386221,384.33453609992284,None,ScrollDown,정답입니다,384.33453609992284,None,384.33453609992284,None,384.33453609992284,None,384.33453609992284,None,385.3513182000024,None,385.3513182000024,385.8512885000091,,,,,,,,,,,,,,,,128,2022-05-11_10h51.02.866,FishGame,2022.1.1,59.93356961400923,
,38,넌 친절해,1,Orange,B,6.041666666666667,5.533333333333333,ScrollUp,ScrollDown,Orange.png,2,Positive,Incongruent,,,,,0,0,0,0,,,,,,,,,,,,,,,,,0,37,37,37,,,,,,,,,,,,,,,,,,,,,,,,,,,,,,,,,,,,,,,,,,,,,,,,,,,,,,,,,,,,,,,,,,,,,,,,,,,,,2,1.2334844999713823,386.4914806999732,None,ScrollUp,정답입니다,386.4914806999732,None,386.4914806999732,None,386.4914806999732,None,386.4914806999732,None,387.6058828999521,None,387.6058828999521,388.1180026999209,,,,,,,,,,,,,,,,128,2022-05-11_10h51.02.866,FishGame,2022.1.1,59.93356961400923,
,1,넌 엉성해,4,Green,A,3,3.3,ScrollDown,ScrollUp,Green.png,3,Negative,Incongruent,,,,,0,0,0,0,,,,,,,,,,,,,,,,,,,,,0,0,0,0,,,,,,,,,,,,,,,,,,,,,,,,,,,,,,,,420.1687953999499,421.66897499992047,421.70262240001466,422.65210039995145,422.70241489994805,423.6524923000252,423.6524923000252,None,,,,,,,,,,,,,,,,,,,,,,,,,,,,,,,,,,1,1.248015100019984,424.8161648999667,None,ScrollDown,정답입니다,424.8161648999667,None,424.8161648999667,None,424.8161648999667,None,424.8161648999667,None,425.89082919992507,None,425.89082919992507,426.4025665000081,388.61824789992534,None,388.61824789992534,None,0.2212963,-0.09351852,1,0,0,0.016353629995137453,None,418.61921189993154,None,,,128,2022-05-11_10h51.02.866,FishGame,2022.1.1,59.93356961400923,
,2,나를 보내줘,6,Green,A,0,0,ScrollUp,ScrollDown,Green.png,3,NonTarget,NonTarget,,,,,0,0,0,0,,,,,,,,,,,,,,,,,,,,,0,1,1,1,,,,,,,,,,,,,,,,,,,,,,,,,,,,,,,,,,,,,,,,,,,,,,,,,,,,,,,,,,,,,,,,,,,,,,,,,2,1.165183800039813,427.0277808000101,None,ScrollUp,정답입니다,427.0277808000101,None,427.0277808000101,None,427.0277808000101,None,427.0277808000101,None,428.09007469995413,None,428.09007469995413,428.6020215000026,,,,,,,,,,,,,,,,128,2022-05-11_10h51.02.866,FishGame,2022.1.1,59.93356961400923,
,3,넌 활발해,1,Orange,B,5.666666666666667,5.6,ScrollUp,ScrollDown,Orange.png,3,Positive,Incongruent,,,,,0,0,0,0,,,,,,,,,,,,,,,,,,,,,0,2,2,2,,,,,,,,,,,,,,,,,,,,,,,,,,,,,,,,,,,,,,,,,,,,,,,,,,,,,,,,,,,,,,,,,,,,,,,,,2,1.0929856000002474,429.2420143999625,None,ScrollUp,정답입니다,429.2420143999625,None,429.2420143999625,None,429.2420143999625,None,429.2420143999625,None,430.218851899961,None,430.218851899961,430.7190022999421,,,,,,,,,,,,,,,,128,2022-05-11_10h51.02.866,FishGame,2022.1.1,59.93356961400923,
,4,넌 논리적이야,2,Green,A,5.666666666666666,4.633333333333334,ScrollDown,ScrollUp,Green.png,3,Positive,Congruent,,,,,0,0,0,0,,,,,,,,,,,,,,,,,,,,,0,3,3,3,,,,,,,,,,,,,,,,,,,,,,,,,,,,,,,,,,,,,,,,,,,,,,,,,,,,,,,,,,,,,,,,,,,,,,,,,1.0432098706563313,0.9760666000656784,431.3596184999915,None,ScrollDown,정답입니다,431.3596184999915,None,431.3596184999915,None,431.3596184999915,None,431.3596184999915,None,432.2191752999788,None,432.2191752999788,432.71852380002383,,,,,,,,,,,,,,,,128,2022-05-11_10h51.02.866,FishGame,2022.1.1,59.93356961400923,
,5,넌 과묵해,3,Green,A,3.875,4.4,ScrollDown,ScrollUp,Green.png,3,Neutral,Neutral,,,,,0,0,0,0,,,,,,,,,,,,,,,,,,,,,0,4,4,4,,,,,,,,,,,,,,,,,,,,,,,,,,,,,,,,,,,,,,,,,,,,,,,,,,,,,,,,,,,,,,,,,,,,,,,,,1,0.9398838999914005,433.3481703000143,None,ScrollDown,정답입니다,433.3481703000143,None,433.3481703000143,None,433.3481703000143,None,433.3481703000143,None,434.185566799948,None,434.185566799948,434.6855553999776,,,,,,,,,,,,,,,,128,2022-05-11_10h51.02.866,FishGame,2022.1.1,59.93356961400923,
,6,나를 데려가줘,6,Orange,B,0,0,ScrollDown,ScrollUp,Orange.png,3,NonTarget,NonTarget,,,,,0,0,0,0,,,,,,,,,,,,,,,,,,,,,0,5,5,5,,,,,,,,,,,,,,,,,,,,,,,,,,,,,,,,,,,,,,,,,,,,,,,,,,,,,,,,,,,,,,,,,,,,,,,,,1.0478395124276478,1.125439100083895,435.3157208999619,None,ScrollDown,정답입니다,435.3157208999619,None,435.3157208999619,None,435.3157208999619,None,435.3157208999619,None,436.335737699992,None,436.335737699992,436.83583360002376,,,,,,,,,,,,,,,,128,2022-05-11_10h51.02.866,FishGame,2022.1.1,59.93356961400923,
,7,넌 미숙해,4,Orange,B,3,3,ScrollUp,ScrollDown,Orange.png,3,Negative,Congruent,,,,,0,0,0,0,,,,,,,,,,,,,,,,,,,,,0,6,6,6,,,,,,,,,,,,,,,,,,,,,,,,,,,,,,,,,,,,,,,,,,,,,,,,,,,,,,,,,,,,,,,,,,,,,,,,,2,0.9831252999138087,437.4679372999817,None,ScrollUp,정답입니다,437.4679372999817,None,437.4679372999817,None,437.4679372999817,None,437.4679372999817,None,438.34041539998725,None,438.34041539998725,438.8522416999331,,,,,,,,,,,,,,,,128,2022-05-11_10h51.02.866,FishGame,2022.1.1,59.93356961400923,
,8,나를 보내줘,6,Green,A,0,0,ScrollUp,ScrollDown,Green.png,3,NonTarget,NonTarget,,,,,0,0,0,0,,,,,,,,,,,,,,,,,,,,,0,7,7,7,,,,,,,,,,,,,,,,,,,,,,,,,,,,,,,,,,,,,,,,,,,,,,,,,,,,,,,,,,,,,,,,,,,,,,,,,2,1.1987045999849215,439.4767464000033,None,ScrollUp,정답입니다,439.4767464000033,None,439.4767464000033,None,439.4767464000033,None,439.4767464000033,None,440.5757317999378,None,440.5757317999378,441.08546309999656,,,,,,,,,,,,,,,,128,2022-05-11_10h51.02.866,FishGame,2022.1.1,59.93356961400923,
,9,넌 자신만만해,3,Orange,B,4.833333333333334,4.333333333333333,ScrollUp,ScrollDown,Orange.png,3,Neutral,Neutral,,,,,0,0,0,0,,,,,,,,,,,,,,,,,,,,,0,8,8,8,,,,,,,,,,,,,,,,,,,,,,,,,,,,,,,,,,,,,,,,,,,,,,,,,,,,,,,,,,,,,,,,,,,,,,,,,2,1.341522500035353,441.72341239999514,None,ScrollUp,정답입니다,441.72341239999514,None,441.72341239999514,None,441.72341239999514,None,441.72341239999514,None,442.95255509996787,None,442.95255509996787,443.45241279993206,,,,,,,,,,,,,,,,128,2022-05-11_10h51.02.866,FishGame,2022.1.1,59.93356961400923,
,10,넌 탐욕스러워,5,Green,A,2.25,2.1,ScrollDown,ScrollUp,Green.png,3,Negative,Incongruent,,,,,0,0,0,0,,,,,,,,,,,,,,,,,,,,,0,9,9,9,,,,,,,,,,,,,,,,,,,,,,,,,,,,,,,,,,,,,,,,,,,,,,,,,,,,,,,,,,,,,,,,,,,,,,,,,1.040123442808787,0.9758890999946743,444.0888577000005,None,ScrollDown,정답입니다,444.0888577000005,None,444.0888577000005,None,444.0888577000005,None,444.0888577000005,None,444.95215849997476,None,444.95215849997476,445.4525425999891,,,,,,,,,,,,,,,,128,2022-05-11_10h51.02.866,FishGame,2022.1.1,59.93356961400923,
,11,넌 인기있어,2,Green,A,5.458333333333333,4.5,ScrollDown,ScrollUp,Green.png,3,Positive,Congruent,,,,,0,0,0,0,,,,,,,,,,,,,,,,,,,,,0,10,10,10,,,,,,,,,,,,,,,,,,,,,,,,,,,,,,,,,,,,,,,,,,,,,,,,,,,,,,,,,,,,,,,,,,,,,,,,,1,1.0329242000589147,446.07515990000684,None,ScrollDown,정답입니다,446.07515990000684,None,446.07515990000684,None,446.07515990000684,None,446.07515990000684,None,447.00738389999606,None,447.00738389999606,447.51942299993243,,,,,,,,,,,,,,,,128,2022-05-11_10h51.02.866,FishGame,2022.1.1,59.93356961400923,
,12,나를 데려가줘,6,Orange,B,0,0,ScrollDown,ScrollUp,Orange.png,3,NonTarget,NonTarget,,,,,0,0,0,0,,,,,,,,,,,,,,,,,,,,,0,11,11,11,,,,,,,,,,,,,,,,,,,,,,,,,,,,,,,,,,,,,,,,,,,,,,,,,,,,,,,,,,,,,,,,,,,,,,,,,1,1.0348686999641359,448.15384779998567,None,ScrollDown,정답입니다,448.15384779998567,None,448.15384779998567,None,448.15384779998567,None,448.15384779998567,None,449.07448409998324,None,449.07448409998324,449.5857426999137,,,,,,,,,,,,,,,,128,2022-05-11_10h51.02.866,FishGame,2022.1.1,59.93356961400923,
,13,넌 뛰어나,2,Orange,B,6.166666666666667,4,ScrollUp,ScrollDown,Orange.png,3,Positive,Incongruent,,,,,0,0,0,0,,,,,,,,,,,,,,,,,,,,,0,12,12,12,,,,,,,,,,,,,,,,,,,,,,,,,,,,,,,,,,,,,,,,,,,,,,,,,,,,,,,,,,,,,,,,,,,,,,,,,2,1.041525499895215,450.2202068999177,None,ScrollUp,정답입니다,450.2202068999177,None,450.2202068999177,None,450.2202068999177,None,450.2202068999177,None,451.1523854000261,None,451.1523854000261,451.65267739992123,,,,,,,,,,,,,,,,128,2022-05-11_10h51.02.866,FishGame,2022.1.1,59.93356961400923,
,14,넌 낙관적이야,1,Green,A,5.75,5.8,ScrollDown,ScrollUp,Green.png,3,Positive,Congruent,,,,,0,0,0,0,,,,,,,,,,,,,,,,,,,,,0,13,13,13,,,,,,,,,,,,,,,,,,,,,,,,,,,,,,,,,,,,,,,,,,,,,,,,,,,,,,,,,,,,,,,,,,,,,,,,,1,0.9557622000575066,452.28760239994153,None,ScrollDown,정답입니다,452.28760239994153,None,452.28760239994153,None,452.28760239994153,None,452.28760239994153,None,453.13654580002185,None,453.13654580002185,453.6361210999312,,,,,,,,,,,,,,,,128,2022-05-11_10h51.02.866,FishGame,2022.1.1,59.93356961400923,
,15,넌 산만해,4,Orange,B,2.695652173913043,3.033333333333333,ScrollUp,ScrollDown,Orange.png,3,Negative,Congruent,,,,,0,0,0,0,,,,,,,,,,,,,,,,,,,,,0,14,14,14,,,,,,,,,,,,,,,,,,,,,,,,,,,,,,,,,,,,,,,,,,,,,,,,,,,,,,,,,,,,,,,,,,,,,,,,,2,1.0431643999181688,454.27279860002454,None,ScrollUp,정답입니다,454.27279860002454,None,454.27279860002454,None,454.27279860002454,None,454.27279860002454,None,455.20275699999183,None,455.20275699999183,455.7030992999207,,,,,,,,,,,,,,,,128,2022-05-11_10h51.02.866,FishGame,2022.1.1,59.93356961400923,
,16,나를 보내줘,6,Green,A,0,0,ScrollUp,ScrollDown,Green.png,3,NonTarget,NonTarget,,,,,0,0,0,0,,,,,,,,,,,,,,,,,,,,,0,15,15,15,,,,,,,,,,,,,,,,,,,,,,,,,,,,,,,,,,,,,,,,,,,,,,,,,,,,,,,,,,,,,,,,,,,,,,,,,1,1.0594296000199392,456.32806839991827,None,ScrollDown,오답입니다,456.32806839991827,None,456.32806839991827,None,456.32806839991827,None,456.32806839991827,None,457.2865115000168,None,457.2865115000168,457.7858751999447,,,,,,,,,,,,,,,,128,2022-05-11_10h51.02.866,FishGame,2022.1.1,59.93356961400923,
,17,넌 교활해,5,Orange,B,2.333333333333333,2.133333333333333,ScrollUp,ScrollDown,Orange.png,3,Negative,Congruent,,,,,0,0,0,0,,,,,,,,,,,,,,,,,,,,,0,16,16,16,,,,,,,,,,,,,,,,,,,,,,,,,,,,,,,,,,,,,,,,,,,,,,,,,,,,,,,,,,,,,,,,,,,,,,,,,2,1.3733148999745026,458.4265085000079,None,ScrollUp,정답입니다,458.4265085000079,None,458.4265085000079,None,458.4265085000079,None,458.4265085000079,None,459.68633769999724,None,459.68633769999724,460.18621630000416,,,,,,,,,,,,,,,,128,2022-05-11_10h51.02.866,FishGame,2022.1.1,59.93356961400923,
,18,나를 보내줘,6,Green,A,0,0,ScrollUp,ScrollDown,Green.png,3,NonTarget,NonTarget,,,,,0,0,0,0,,,,,,,,,,,,,,,,,,,,,0,17,17,17,,,,,,,,,,,,,,,,,,,,,,,,,,,,,,,,,,,,,,,,,,,,,,,,,,,,,,,,,,,,,,,,,,,,,,,,,2,1.1161570000695065,460.8078436999349,None,ScrollUp,정답입니다,460.8078436999349,None,460.8078436999349,None,460.8078436999349,None,460.8078436999349,None,461.82406229991466,None,461.82406229991466,462.3364268000005,,,,,,,,,,,,,,,,128,2022-05-11_10h51.02.866,FishGame,2022.1.1,59.93356961400923,
,19,넌 불친절해,5,Orange,B,2.208333333333333,2.033333333333333,ScrollUp,ScrollDown,Orange.png,3,Negative,Congruent,,,,,0,0,0,0,,,,,,,,,,,,,,,,,,,,,0,18,18,18,,,,,,,,,,,,,,,,,,,,,,,,,,,,,,,,,,,,,,,,,,,,,,,,,,,,,,,,,,,,,,,,,,,,,,,,,2,1.076080699916929,462.968072699965,None,ScrollUp,정답입니다,462.968072699965,None,462.968072699965,None,462.968072699965,None,462.968072699965,None,463.93608769995626,None,463.93608769995626,464.4361975999782,,,,,,,,,,,,,,,,128,2022-05-11_10h51.02.866,FishGame,2022.1.1,59.93356961400923,
,20,넌 지적이야,2,Orange,B,5.75,4.366666666666666,ScrollUp,ScrollDown,Orange.png,3,Positive,Incongruent,,,,,0,0,0,0,,,,,,,,,,,,,,,,,,,,,0,19,19,19,,,,,,,,,,,,,,,,,,,,,,,,,,,,,,,,,,,,,,,,,,,,,,,,,,,,,,,,,,,,,,,,,,,,,,,,,1.9969135920206706,1.0693751000799239,465.06978020002134,None,ScrollUp,정답입니다,465.06978020002134,None,465.06978020002134,None,465.06978020002134,None,465.06978020002134,None,466.0329781000037,None,466.0329781000037,466.53702509996947,,,,,,,,,,,,,,,,128,2022-05-11_10h51.02.866,FishGame,2022.1.1,59.93356961400923,
,21,넌 우유부단해,4,Green,A,2.666666666666667,3.166666666666667,ScrollDown,ScrollUp,Green.png,3,Negative,Incongruent,,,,,0,0,0,0,,,,,,,,,,,,,,,,,,,,,0,20,20,20,,,,,,,,,,,,,,,,,,,,,,,,,,,,,,,,,,,,,,,,,,,,,,,,,,,,,,,,,,,,,,,,,,,,,,,,,1.0493827263514202,1.0270477999001741,467.1687784999376,None,ScrollDown,정답입니다,467.1687784999376,None,467.1687784999376,None,467.1687784999376,None,467.1687784999376,None,468.086475100019,None,468.086475100019,468.58636299998034,,,,,,,,,,,,,,,,128,2022-05-11_10h51.02.866,FishGame,2022.1.1,59.93356961400923,
,22,나를 데려가줘,6,Orange,B,0,0,ScrollDown,ScrollUp,Orange.png,3,NonTarget,NonTarget,,,,,0,0,0,0,,,,,,,,,,,,,,,,,,,,,0,21,21,21,,,,,,,,,,,,,,,,,,,,,,,,,,,,,,,,,,,,,,,,,,,,,,,,,,,,,,,,,,,,,,,,,,,,,,,,,1.0725308855374653,1.0904276999644935,469.22347209998406,None,ScrollDown,정답입니다,469.22347209998406,None,469.22347209998406,None,469.22347209998406,None,469.22347209998406,None,470.20347599999513,None,470.20347599999513,470.7028248999268,,,,,,,,,,,,,,,,128,2022-05-11_10h51.02.866,FishGame,2022.1.1,59.93356961400923,
,23,넌 성실해,1,Orange,B,6.041666666666666,5.7,ScrollUp,ScrollDown,Orange.png,3,Positive,Incongruent,,,,,0,0,0,0,,,,,,,,,,,,,,,,,,,,,0,22,22,22,,,,,,,,,,,,,,,,,,,,,,,,,,,,,,,,,,,,,,,,,,,,,,,,,,,,,,,,,,,,,,,,,,,,,,,,,1.9706790049870808,1.0455320000182837,471.3400420999387,None,ScrollUp,정답입니다,471.3400420999387,None,471.3400420999387,None,471.3400420999387,None,471.3400420999387,None,472.27198309998494,None,472.27198309998494,472.7864125999622,,,,,,,,,,,,,,,,128,2022-05-11_10h51.02.866,FishGame,2022.1.1,59.93356961400923,
,24,넌 현실주의적이야,3,Green,A,4.625,4.4,ScrollDown,ScrollUp,Green.png,3,Neutral,Neutral,,,,,0,0,0,0,,,,,,,,,,,,,,,,,,,,,0,23,23,23,,,,,,,,,,,,,,,,,,,,,,,,,,,,,,,,,,,,,,,,,,,,,,,,,,,,,,,,,,,,,,,,,,,,,,,,,1,1.0647873000707477,473.412504900014,None,ScrollDown,정답입니다,473.412504900014,None,473.412504900014,None,473.412504900014,None,473.412504900014,None,474.3746120999567,None,474.3746120999567,474.8862780999625,,,,,,,,,,,,,,,,128,2022-05-11_10h51.02.866,FishGame,2022.1.1,59.93356961400923,
,25,넌 진실돼,1,Green,A,6.625,5.566666666666666,ScrollDown,ScrollUp,Green.png,3,Positive,Congruent,,,,,0,0,0,0,,,,,,,,,,,,,,,,,,,,,0,24,24,24,,,,,,,,,,,,,,,,,,,,,,,,,,,,,,,,,,,,,,,,,,,,,,,,,,,,,,,,,,,,,,,,,,,,,,,,,1,1.0070603999774903,475.5200766000198,None,ScrollDown,정답입니다,475.5200766000198,None,475.5200766000198,None,475.5200766000198,None,475.5200766000198,None,476.4199164999882,None,476.4199164999882,476.92047689994797,,,,,,,,,,,,,,,,128,2022-05-11_10h51.02.866,FishGame,2022.1.1,59.93356961400923,
,26,넌 천진난만해,3,Orange,B,4.958333333333334,4.833333333333333,ScrollUp,ScrollDown,Orange.png,3,Neutral,Neutral,,,,,0,0,0,0,,,,,,,,,,,,,,,,,,,,,0,25,25,25,,,,,,,,,,,,,,,,,,,,,,,,,,,,,,,,,,,,,,,,,,,,,,,,,,,,,,,,,,,,,,,,,,,,,,,,,2,1.0097000999376178,477.55967480002437,None,ScrollUp,정답입니다,477.55967480002437,None,477.55967480002437,None,477.55967480002437,None,477.55967480002437,None,478.45323099999223,None,478.45323099999223,478.953125,,,,,,,,,,,,,,,,128,2022-05-11_10h51.02.866,FishGame,2022.1.1,59.93356961400923,
,27,넌 교양없어,5,Green,A,2.416666666666667,2.2,ScrollDown,ScrollUp,Green.png,3,Negative,Incongruent,,,,,0,0,0,0,,,,,,,,,,,,,,,,,,,,,0,26,26,26,,,,,,,,,,,,,,,,,,,,,,,,,,,,,,,,,,,,,,,,,,,,,,,,,,,,,,,,,,,,,,,,,,,,,,,,,1,1.0153848000336438,479.58276459993795,None,ScrollDown,정답입니다,479.58276459993795,None,479.58276459993795,None,479.58276459993795,None,479.58276459993795,None,480.4915841999464,None,480.4915841999464,481.00345309998374,,,,,,,,,,,,,,,,128,2022-05-11_10h51.02.866,FishGame,2022.1.1,59.93356961400923,
,28,나를 보내줘,6,Green,A,0,0,ScrollUp,ScrollDown,Green.png,3,NonTarget,NonTarget,,,,,0,0,0,0,,,,,,,,,,,,,,,,,,,,,0,27,27,27,,,,,,,,,,,,,,,,,,,,,,,,,,,,,,,,,,,,,,,,,,,,,,,,,,,,,,,,,,,,,,,,,,,,,,,,,1.9429012537002563,1.0993315998930484,481.63284500001464,None,ScrollUp,정답입니다,481.63284500001464,None,481.63284500001464,None,481.63284500001464,None,481.63284500001464,None,482.6253995000152,None,482.6253995000152,483.13679000001866,,,,,,,,,,,,,,,,128,2022-05-11_10h51.02.866,FishGame,2022.1.1,59.93356961400923,
,29,넌 엉뚱스러워,3,Green,A,4.166666666666667,4.133333333333334,ScrollDown,ScrollUp,Green.png,3,Neutral,Neutral,,,,,0,0,0,0,,,,,,,,,,,,,,,,,,,,,0,28,28,28,,,,,,,,,,,,,,,,,,,,,,,,,,,,,,,,,,,,,,,,,,,,,,,,,,,,,,,,,,,,,,,,,,,,,,,,,1,1.0700057999929413,483.7667506999569,None,ScrollDown,정답입니다,483.7667506999569,None,483.7667506999569,None,483.7667506999569,None,483.7667506999569,None,484.73343389993533,None,484.73343389993533,485.2369604000123,,,,,,,,,,,,,,,,128,2022-05-11_10h51.02.866,FishGame,2022.1.1,59.93356961400923,
,30,넌 무지해,4,Orange,B,2.541666666666667,3.066666666666667,ScrollUp,ScrollDown,Orange.png,3,Negative,Congruent,,,,,0,0,0,0,,,,,,,,,,,,,,,,,,,,,0,29,29,29,,,,,,,,,,,,,,,,,,,,,,,,,,,,,,,,,,,,,,,,,,,,,,,,,,,,,,,,,,,,,,,,,,,,,,,,,2,1.0509891000110656,485.87286769994535,None,ScrollUp,정답입니다,485.87286769994535,None,485.87286769994535,None,485.87286769994535,None,485.87286769994535,None,486.80835579999257,None,486.80835579999257,487.320137099945,,,,,,,,,,,,,,,,128,2022-05-11_10h51.02.866,FishGame,2022.1.1,59.93356961400923,
,31,넌 음울해,5,Orange,B,2.25,2.233333333333333,ScrollUp,ScrollDown,Orange.png,3,Negative,Congruent,,,,,0,0,0,0,,,,,,,,,,,,,,,,,,,,,0,30,30,30,,,,,,,,,,,,,,,,,,,,,,,,,,,,,,,,,,,,,,,,,,,,,,,,,,,,,,,,,,,,,,,,,,,,,,,,,2,1.0610642000101507,487.957330300007,None,ScrollUp,정답입니다,487.957330300007,None,487.957330300007,None,487.957330300007,None,487.957330300007,None,488.9039992999751,None,488.9039992999751,489.40367889998015,,,,,,,,,,,,,,,,128,2022-05-11_10h51.02.866,FishGame,2022.1.1,59.93356961400923,
,32,넌 냉소적이야,5,Green,A,2.916666666666667,2.4,ScrollDown,ScrollUp,Green.png,3,Negative,Incongruent,,,,,0,0,0,0,,,,,,,,,,,,,,,,,,,,,0,31,31,31,,,,,,,,,,,,,,,,,,,,,,,,,,,,,,,,,,,,,,,,,,,,,,,,,,,,,,,,,,,,,,,,,,,,,,,,,1,1.058547299937345,490.0288374000229,None,ScrollDown,정답입니다,490.0288374000229,None,490.0288374000229,None,490.0288374000229,None,490.0288374000229,None,490.98703249997925,None,490.98703249997925,491.4867890999885,,,,,,,,,,,,,,,,128,2022-05-11_10h51.02.866,FishGame,2022.1.1,59.93356961400923,
,33,나를 데려가줘,6,Orange,B,0,0,ScrollDown,ScrollUp,Orange.png,3,NonTarget,NonTarget,,,,,0,0,0,0,,,,,,,,,,,,,,,,,,,,,0,32,32,32,,,,,,,,,,,,,,,,,,,,,,,,,,,,,,,,,,,,,,,,,,,,,,,,,,,,,,,,,,,,,,,,,,,,,,,,,1,1.1838424999732524,492.1227301999461,None,ScrollDown,정답입니다,492.1227301999461,None,492.1227301999461,None,492.1227301999461,None,492.1227301999461,None,493.1913992000045,None,493.1913992000045,493.70363319991156,,,,,,,,,,,,,,,,128,2022-05-11_10h51.02.866,FishGame,2022.1.1,59.93356961400923,
,34,넌 쾌활해,1,Green,A,5.541666666666666,5.733333333333333,ScrollDown,ScrollUp,Green.png,3,Positive,Congruent,,,,,0,0,0,0,,,,,,,,,,,,,,,,,,,,,0,33,33,33,,,,,,,,,,,,,,,,,,,,,,,,,,,,,,,,,,,,,,,,,,,,,,,,,,,,,,,,,,,,,,,,,,,,,,,,,1,1.43624449998606,494.33531949995086,None,ScrollDown,정답입니다,494.33531949995086,None,494.33531949995086,None,494.33531949995086,None,494.33531949995086,None,495.66683230001945,None,495.66683230001945,496.1708217000123,,,,,,,,,,,,,,,,128,2022-05-11_10h51.02.866,FishGame,2022.1.1,59.93356961400923,
,35,나를 보내줘,6,Green,A,0,0,ScrollUp,ScrollDown,Green.png,3,NonTarget,NonTarget,,,,,0,0,0,0,,,,,,,,,,,,,,,,,,,,,0,34,34,34,,,,,,,,,,,,,,,,,,,,,,,,,,,,,,,,,,,,,,,,,,,,,,,,,,,,,,,,,,,,,,,,,,,,,,,,,2,1.1124533999245614,496.80028099997435,None,ScrollUp,정답입니다,496.80028099997435,None,496.80028099997435,None,496.80028099997435,None,496.80028099997435,None,497.8038504999131,None,497.8038504999131,498.3033858999843,,,,,,,,,,,,,,,,128,2022-05-11_10h51.02.866,FishGame,2022.1.1,59.93356961400923,
,36,넌 명랑해,1,Orange,B,5.739130434782609,5.666666666666667,ScrollUp,ScrollDown,Orange.png,3,Positive,Incongruent,,,,,0,0,0,0,,,,,,,,,,,,,,,,,,,,,0,35,35,35,,,,,,,,,,,,,,,,,,,,,,,,,,,,,,,,,,,,,,,,,,,,,,,,,,,,,,,,,,,,,,,,,,,,,,,,,1.9290123283863068,0.9081214999314398,498.943641699967,None,ScrollUp,정답입니다,498.943641699967,None,498.943641699967,None,498.943641699967,None,498.943641699967,None,499.7369692999637,None,499.7369692999637,500.23708659992553,,,,,,,,,,,,,,,,128,2022-05-11_10h51.02.866,FishGame,2022.1.1,59.93356961400923,
,37,넌 멍해,4,Green,A,2.833333333333333,3.4,ScrollDown,ScrollUp,Green.png,3,Negative,Incongruent,,,,,0,0,0,0,,,,,,,,,,,,,,,,,,,,,0,36,36,36,,,,,,,,,,,,,,,,,,,,,,,,,,,,,,,,,,,,,,,,,,,,,,,,,,,,,,,,,,,,,,,,,,,,,,,,,1,1.114208700018935,500.8657618999714,None,ScrollDown,정답입니다,500.8657618999714,None,500.8657618999714,None,500.8657618999714,None,500.8657618999714,None,501.87518049997743,None,501.87518049997743,502.3873641999671,,,,,,,,,,,,,,,,128,2022-05-11_10h51.02.866,FishGame,2022.1.1,59.93356961400923,
,38,나를 데려가줘,6,Orange,B,0,0,ScrollDown,ScrollUp,Orange.png,3,NonTarget,NonTarget,,,,,0,0,0,0,,,,,,,,,,,,,,,,,,,,,0,37,37,37,,,,,,,,,,,,,,,,,,,,,,,,,,,,,,,,,,,,,,,,,,,,,,,,,,,,,,,,,,,,,,,,,,,,,,,,,1.0540123681227367,1.022034200024791,503.0220454999944,None,ScrollDown,정답입니다,503.0220454999944,None,503.0220454999944,None,503.0220454999944,None,503.0220454999944,None,503.9338639000198,None,503.9338639000198,504.4370570000028,,,,,,,,,,,,,,,,128,2022-05-11_10h51.02.866,FishGame,2022.1.1,59.93356961400923,
,39,넌 현명해,2,Green,A,6.541666666666666,4.533333333333333,ScrollDown,ScrollUp,Green.png,3,Positive,Congruent,,,,,0,0,0,0,,,,,,,,,,,,,,,,,,,,,0,38,38,38,,,,,,,,,,,,,,,,,,,,,,,,,,,,,,,,,,,,,,,,,,,,,,,,,,,,,,,,,,,,,,,,,,,,,,,,,1,0.9664700999855995,505.0624874000205,None,ScrollDown,정답입니다,505.0624874000205,None,505.0624874000205,None,505.0624874000205,None,505.0624874000205,None,505.925671499921,None,505.925671499921,506.43711900000926,,,,,,,,,,,,,,,,128,2022-05-11_10h51.02.866,FishGame,2022.1.1,59.93356961400923,
,40,넌 수줍어,3,Orange,B,3.541666666666666,4.366666666666666,ScrollUp,ScrollDown,Orange.png,3,Neutral,Neutral,,,,,0,0,0,0,,,,,,,,,,,,,,,,,,,,,0,39,39,39,,,,,,,,,,,,,,,,,,,,,,,,,,,,,,,,,,,,,,,,,,,,,,,,,,,,,,,,,,,,,,,,,,,,,,,,,2,1.0177068000193685,507.0747271999717,None,ScrollUp,정답입니다,507.0747271999717,None,507.0747271999717,None,507.0747271999717,None,507.0747271999717,None,507.9757653999841,None,507.9757653999841,508.4874620999908,,,,,,,,,,,,,,,,128,2022-05-11_10h51.02.866,FishGame,2022.1.1,59.93356961400923,
,41,나를 데려가줘,6,Orange,B,0,0,ScrollDown,ScrollUp,Orange.png,3,NonTarget,NonTarget,,,,,0,0,0,0,,,,,,,,,,,,,,,,,,,,,0,40,40,40,,,,,,,,,,,,,,,,,,,,,,,,,,,,,,,,,,,,,,,,,,,,,,,,,,,,,,,,,,,,,,,,,,,,,,,,,1,1.1065412999596447,509.12192259996664,None,ScrollDown,정답입니다,509.12192259996664,None,509.12192259996664,None,509.12192259996664,None,509.12192259996664,None,510.1204934999114,None,510.1204934999114,510.62070530001074,,,,,,,,,,,,,,,,128,2022-05-11_10h51.02.866,FishGame,2022.1.1,59.93356961400923,
,42,넌 성숙해,2,Orange,B,5.833333333333333,4.533333333333333,ScrollUp,ScrollDown,Orange.png,3,Positive,Incongruent,,,,,0,0,0,0,,,,,,,,,,,,,,,,,,,,,0,41,41,41,,,,,,,,,,,,,,,,,,,,,,,,,,,,,,,,,,,,,,,,,,,,,,,,,,,,,,,,,,,,,,,,,,,,,,,,,2,1.180845099966973,511.24975750001613,None,ScrollUp,정답입니다,511.24975750001613,None,511.24975750001613,None,511.24975750001613,None,511.24975750001613,None,512.3253790999297,None,512.3253790999297,512.8379626999376,,,,,,,,,,,,,,,,128,2022-05-11_10h51.02.866,FishGame,2022.1.1,59.93356961400923,
,1,넌 매력적이야,2,Orange,B,6.125,4.666666666666667,ScrollUp,ScrollDown,Orange.png,4,Positive,Incongruent,,,,,0,0,0,0,,,,,,,,,,,,,,,,,,,,,,,,,0,0,0,0,,,,,,,,,,,,,,,,,,,,,,,,,,,,544.7548362999223,546.2555488999933,546.2891098000109,547.2383448999608,547.2886940999888,548.2386747999117,548.2386747999117,None,,,,,,,,,,,,,,,,,,,,,,,,,,,,,,,,,,2,1.2036373000591993,549.3943291999167,None,ScrollUp,정답입니다,549.3943291999167,None,549.3943291999167,None,549.3943291999167,None,549.3943291999167,None,550.4382672000211,None,550.4382672000211,550.938264299999,513.3374654999934,None,513.3374654999934,None,0.26296297,-0.08888889,1,0,0,0.016342729912139475,None,543.3388520999579,None,,,128,2022-05-11_10h51.02.866,FishGame,2022.1.1,59.93356961400923,
,2,나를 보내줘,6,Green,A,0,0,ScrollUp,ScrollDown,Green.png,4,NonTarget,NonTarget,,,,,0,0,0,0,,,,,,,,,,,,,,,,,,,,,,,,,0,1,1,1,,,,,,,,,,,,,,,,,,,,,,,,,,,,,,,,,,,,,,,,,,,,,,,,,,,,,,,,,,,,,,,,,,,,,1.9120370248953502,1.056239000055939,551.5670702999923,None,ScrollUp,정답입니다,551.5670702999923,None,551.5670702999923,None,551.5670702999923,None,551.5670702999923,None,552.5215602000244,None,552.5215602000244,553.0216635999968,,,,,,,,,,,,,,,,128,2022-05-11_10h51.02.866,FishGame,2022.1.1,59.93356961400923,
,3,넌 조심스러워,3,Green,A,4.791666666666666,4.666666666666667,ScrollDown,ScrollUp,Green.png,4,Neutral,Neutral,,,,,0,0,0,0,,,,,,,,,,,,,,,,,,,,,,,,,0,2,2,2,,,,,,,,,,,,,,,,,,,,,,,,,,,,,,,,,,,,,,,,,,,,,,,,,,,,,,,,,,,,,,,,,,,,,1.0108024775981903,1.0003969999961555,553.646489399951,None,ScrollDown,정답입니다,553.646489399951,None,553.646489399951,None,553.646489399951,None,553.646489399951,None,554.542731900001,None,554.542731900001,555.0546850999817,,,,,,,,,,,,,,,,128,2022-05-11_10h51.02.866,FishGame,2022.1.1,59.93356961400923,
,4,넌 철학적이야,3,Orange,B,4.5,4.266666666666667,ScrollUp,ScrollDown,Orange.png,4,Neutral,Neutral,,,,,0,0,0,0,,,,,,,,,,,,,,,,,,,,,,,,,0,3,3,3,,,,,,,,,,,,,,,,,,,,,,,,,,,,,,,,,,,,,,,,,,,,,,,,,,,,,,,,,,,,,,,,,,,,,1.8827160596847534,0.9677235999843106,555.6920785999391,None,ScrollUp,정답입니다,555.6920785999391,None,555.6920785999391,None,555.6920785999391,None,555.6920785999391,None,556.5429020000156,None,556.5429020000156,557.0547843999229,,,,,,,,,,,,,,,,128,2022-05-11_10h51.02.866,FishGame,2022.1.1,59.93356961400923,
,5,넌 쩨쩨해,5,Green,A,2.375,2.133333333333333,ScrollDown,ScrollUp,Green.png,4,Negative,Incongruent,,,,,0,0,0,0,,,,,,,,,,,,,,,,,,,,,,,,,0,4,4,4,,,,,,,,,,,,,,,,,,,,,,,,,,,,,,,,,,,,,,,,,,,,,,,,,,,,,,,,,,,,,,,,,,,,,1.1311728407939274,1.1505376000422984,557.6842804999324,None,ScrollDown,정답입니다,557.6842804999324,None,557.6842804999324,None,557.6842804999324,None,557.6842804999324,None,558.727043599938,None,558.727043599938,559.2387242999393,,,,,,,,,,,,,,,,128,2022-05-11_10h51.02.866,FishGame,2022.1.1,59.93356961400923,
,6,나를 데려가줘,6,Orange,B,0,0,ScrollDown,ScrollUp,Orange.png,4,NonTarget,NonTarget,,,,,0,0,0,0,,,,,,,,,,,,,,,,,,,,,,,,,0,5,5,5,,,,,,,,,,,,,,,,,,,,,,,,,,,,,,,,,,,,,,,,,,,,,,,,,,,,,,,,,,,,,,,,,,,,,1.0478395124276478,1.1421011000638828,559.870148899965,None,ScrollDown,정답입니다,559.870148899965,None,559.870148899965,None,559.870148899965,None,559.870148899965,None,560.9048807999352,None,560.9048807999352,561.4049767999677,,,,,,,,,,,,,,,,128,2022-05-11_10h51.02.866,FishGame,2022.1.1,59.93356961400923,
,7,넌 고집불통이야,5,Orange,B,2.875,2,ScrollUp,ScrollDown,Orange.png,4,Negative,Congruent,,,,,0,0,0,0,,,,,,,,,,,,,,,,,,,,,,,,,0,6,6,6,,,,,,,,,,,,,,,,,,,,,,,,,,,,,,,,,,,,,,,,,,,,,,,,,,,,,,,,,,,,,,,,,,,,,2,1.0568171999184415,562.0536349000176,None,ScrollUp,정답입니다,562.0536349000176,None,562.0536349000176,None,562.0536349000176,None,562.0536349000176,None,562.9885163999861,None,562.9885163999861,563.4883601999609,,,,,,,,,,,,,,,,128,2022-05-11_10h51.02.866,FishGame,2022.1.1,59.93356961400923,
,8,넌 무심해,4,Green,A,2.875,3.2,ScrollDown,ScrollUp,Green.png,4,Negative,Incongruent,,,,,0,0,0,0,,,,,,,,,,,,,,,,,,,,,,,,,0,7,7,7,,,,,,,,,,,,,,,,,,,,,,,,,,,,,,,,,,,,,,,,,,,,,,,,,,,,,,,,,,,,,,,,,,,,,1.0123456915219624,1.0040648001013324,564.1114183999598,None,ScrollDown,정답입니다,564.1114183999598,None,564.1114183999598,None,564.1114183999598,None,564.1114183999598,None,565.0182807999663,None,565.0182807999663,565.5220183000201,,,,,,,,,,,,,,,,128,2022-05-11_10h51.02.866,FishGame,2022.1.1,59.93356961400923,
,9,넌 정겨워,1,Green,A,5.791666666666667,5.666666666666667,ScrollDown,ScrollUp,Green.png,4,Positive,Congruent,,,,,0,0,0,0,,,,,,,,,,,,,,,,,,,,,,,,,0,8,8,8,,,,,,,,,,,,,,,,,,,,,,,,,,,,,,,,,,,,,,,,,,,,,,,,,,,,,,,,,,,,,,,,,,,,,1.2160493830839794,0.9513340999837965,566.1543713000137,None,ScrollDown,정답입니다,566.1543713000137,None,566.1543713000137,None,566.1543713000137,None,566.1543713000137,None,566.9937668999191,None,566.9937668999191,567.5051236000145,,,,,,,,,,,,,,,,128,2022-05-11_10h51.02.866,FishGame,2022.1.1,59.93356961400923,
,10,나를 데려가줘,6,Orange,B,0,0,ScrollDown,ScrollUp,Orange.png,4,NonTarget,NonTarget,,,,,0,0,0,0,,,,,,,,,,,,,,,,,,,,,,,,,0,9,9,9,,,,,,,,,,,,,,,,,,,,,,,,,,,,,,,,,,,,,,,,,,,,,,,,,,,,,,,,,,,,,,,,,,,,,1,1.166172800003551,568.1380306999199,None,ScrollDown,정답입니다,568.1380306999199,None,568.1380306999199,None,568.1380306999199,None,568.1380306999199,None,569.1944165999303,None,569.1944165999303,569.7048711000243,,,,,,,,,,,,,,,,128,2022-05-11_10h51.02.866,FishGame,2022.1.1,59.93356961400923,
,11,넌 체제순응적이야,4,Orange,B,3,3.6,ScrollUp,ScrollDown,Orange.png,4,Negative,Congruent,,,,,0,0,0,0,,,,,,,,,,,,,,,,,,,,,,,,,0,10,10,10,,,,,,,,,,,,,,,,,,,,,,,,,,,,,,,,,,,,,,,,,,,,,,,,,,,,,,,,,,,,,,,,,,,,,2,1.2618773999856785,570.3519140999997,None,ScrollUp,정답입니다,570.3519140999997,None,570.3519140999997,None,570.3519140999997,None,570.3519140999997,None,571.4888972999761,None,571.4888972999761,571.9885862999363,,,,,,,,,,,,,,,,128,2022-05-11_10h51.02.866,FishGame,2022.1.1,59.93356961400923,
,12,나를 보내줘,6,Green,A,0,0,ScrollUp,ScrollDown,Green.png,4,NonTarget,NonTarget,,,,,0,0,0,0,,,,,,,,,,,,,,,,,,,,,,,,,0,11,11,11,,,,,,,,,,,,,,,,,,,,,,,,,,,,,,,,,,,,,,,,,,,,,,,,,,,,,,,,,,,,,,,,,,,,,2,1.2346841000253335,572.6164693000028,None,ScrollUp,정답입니다,572.6164693000028,None,572.6164693000028,None,572.6164693000028,None,572.6164693000028,None,573.7516328999773,None,573.7516328999773,574.2554306000238,,,,,,,,,,,,,,,,128,2022-05-11_10h51.02.866,FishGame,2022.1.1,59.93356961400923,
,13,넌 박식해,2,Green,A,5.625,3.933333333333333,ScrollDown,ScrollUp,Green.png,4,Positive,Congruent,,,,,0,0,0,0,,,,,,,,,,,,,,,,,,,,,,,,,0,12,12,12,,,,,,,,,,,,,,,,,,,,,,,,,,,,,,,,,,,,,,,,,,,,,,,,,,,,,,,,,,,,,,,,,,,,,1.1435185273488362,0.8938008999684826,574.8918885999592,None,ScrollDown,정답입니다,574.8918885999592,None,574.8918885999592,None,574.8918885999592,None,574.8918885999592,None,575.6717519999947,None,575.6717519999947,576.1725221999222,,,,,,,,,,,,,,,,128,2022-05-11_10h51.02.866,FishGame,2022.1.1,59.93356961400923,
,14,나를 보내줘,6,Green,A,0,0,ScrollUp,ScrollDown,Green.png,4,NonTarget,NonTarget,,,,,0,0,0,0,,,,,,,,,,,,,,,,,,,,,,,,,0,13,13,13,,,,,,,,,,,,,,,,,,,,,,,,,,,,,,,,,,,,,,,,,,,,,,,,,,,,,,,,,,,,,,,,,,,,,1.9783950746059418,1.1358148999279365,576.7971650999971,None,ScrollUp,정답입니다,576.7971650999971,None,576.7971650999971,None,576.7971650999971,None,576.7971650999971,None,577.8355557000032,None,577.8355557000032,578.3388887000037,,,,,,,,,,,,,,,,128,2022-05-11_10h51.02.866,FishGame,2022.1.1,59.93356961400923,
,15,넌 침착해,1,Orange,B,5.458333333333333,5.566666666666666,ScrollUp,ScrollDown,Orange.png,4,Positive,Incongruent,,,,,0,0,0,0,,,,,,,,,,,,,,,,,,,,,,,,,0,14,14,14,,,,,,,,,,,,,,,,,,,,,,,,,,,,,,,,,,,,,,,,,,,,,,,,,,,,,,,,,,,,,,,,,,,,,1.9429012537002563,1.0526173000689596,578.981703999918,None,ScrollUp,정답입니다,578.981703999918,None,578.981703999918,None,578.981703999918,None,578.981703999918,None,579.9187688999809,None,579.9187688999809,580.42225589999,,,,,,,,,,,,,,,,128,2022-05-11_10h51.02.866,FishGame,2022.1.1,59.93356961400923,
,16,나를 데려가줘,6,Orange,B,0,0,ScrollDown,ScrollUp,Orange.png,4,NonTarget,NonTarget,,,,,0,0,0,0,,,,,,,,,,,,,,,,,,,,,,,,,0,15,15,15,,,,,,,,,,,,,,,,,,,,,,,,,,,,,,,,,,,,,,,,,,,,,,,,,,,,,,,,,,,,,,,,,,,,,1.2361111144224803,0.9729761000489816,581.0556260999292,None,ScrollDown,정답입니다,581.0556260999292,None,581.0556260999292,None,581.0556260999292,None,581.0556260999292,None,581.92313130002,None,581.92313130002,582.4226732000243,,,,,,,,,,,,,,,,128,2022-05-11_10h51.02.866,FishGame,2022.1.1,59.93356961400923,
,17,넌 행복해,1,Green,A,6.416666666666666,6.166666666666667,ScrollDown,ScrollUp,Green.png,4,Positive,Congruent,,,,,0,0,0,0,,,,,,,,,,,,,,,,,,,,,,,,,0,16,16,16,,,,,,,,,,,,,,,,,,,,,,,,,,,,,,,,,,,,,,,,,,,,,,,,,,,,,,,,,,,,,,,,,,,,,1,1.2533108000643551,583.0501513999188,None,ScrollDown,정답입니다,583.0501513999188,None,583.0501513999188,None,583.0501513999188,None,583.0501513999188,None,584.2022426999174,None,584.2022426999174,584.7056076999288,,,,,,,,,,,,,,,,128,2022-05-11_10h51.02.866,FishGame,2022.1.1,59.93356961400923,
,18,넌 겸손해,2,Orange,B,5.791666666666667,4.766666666666667,ScrollUp,ScrollDown,Orange.png,4,Positive,Incongruent,,,,,0,0,0,0,,,,,,,,,,,,,,,,,,,,,,,,,0,17,17,17,,,,,,,,,,,,,,,,,,,,,,,,,,,,,,,,,,,,,,,,,,,,,,,,,,,,,,,,,,,,,,,,,,,,,1.9861110945542653,1.0343776000663638,585.3478336000117,None,ScrollUp,정답입니다,585.3478336000117,None,585.3478336000117,None,585.3478336000117,None,585.3478336000117,None,586.2603089999175,None,586.2603089999175,586.7720787000144,,,,,,,,,,,,,,,,128,2022-05-11_10h51.02.866,FishGame,2022.1.1,59.93356961400923,
,19,나를 보내줘,6,Green,A,0,0,ScrollUp,ScrollDown,Green.png,4,NonTarget,NonTarget,,,,,0,0,0,0,,,,,,,,,,,,,,,,,,,,,,,,,0,18,18,18,,,,,,,,,,,,,,,,,,,,,,,,,,,,,,,,,,,,,,,,,,,,,,,,,,,,,,,,,,,,,,,,,,,,,1.7746913582086563,1.0699179000221193,587.4029702999396,None,ScrollUp,정답입니다,587.4029702999396,None,587.4029702999396,None,587.4029702999396,None,587.4029702999396,None,588.3687004999956,None,588.3687004999956,588.8723096000031,,,,,,,,,,,,,,,,128,2022-05-11_10h51.02.866,FishGame,2022.1.1,59.93356961400923,
,20,넌 의심없어,3,Green,A,4.166666666666667,4.6,ScrollDown,ScrollUp,Green.png,4,Neutral,Neutral,,,,,0,0,0,0,,,,,,,,,,,,,,,,,,,,,,,,,0,19,19,19,,,,,,,,,,,,,,,,,,,,,,,,,,,,,,,,,,,,,,,,,,,,,,,,,,,,,,,,,,,,,,,,,,,,,1,1.0978754999814555,589.4963274999755,None,ScrollDown,정답입니다,589.4963274999755,None,589.4963274999755,None,589.4963274999755,None,589.4963274999755,None,590.4940315999556,None,590.4940315999556,591.0063634000253,,,,,,,,,,,,,,,,128,2022-05-11_10h51.02.866,FishGame,2022.1.1,59.93356961400923,
,21,넌 시시해,4,Green,A,2.666666666666667,2.966666666666667,ScrollDown,ScrollUp,Green.png,4,Negative,Incongruent,,,,,0,0,0,0,,,,,,,,,,,,,,,,,,,,,,,,,0,20,20,20,,,,,,,,,,,,,,,,,,,,,,,,,,,,,,,,,,,,,,,,,,,,,,,,,,,,,,,,,,,,,,,,,,,,,1,1.355038500041701,591.6303433999419,None,ScrollDown,정답입니다,591.6303433999419,None,591.6303433999419,None,591.6303433999419,None,591.6303433999419,None,592.8892657000106,None,592.8892657000106,593.3893770999275,,,,,,,,,,,,,,,,128,2022-05-11_10h51.02.866,FishGame,2022.1.1,59.93356961400923,
,22,나를 데려가줘,6,Orange,B,0,0,ScrollDown,ScrollUp,Orange.png,4,NonTarget,NonTarget,,,,,0,0,0,0,,,,,,,,,,,,,,,,,,,,,,,,,0,21,21,21,,,,,,,,,,,,,,,,,,,,,,,,,,,,,,,,,,,,,,,,,,,,,,,,,,,,,,,,,,,,,,,,,,,,,1,1.1013062000274658,594.018487000023,None,ScrollDown,정답입니다,594.018487000023,None,594.018487000023,None,594.018487000023,None,594.018487000023,None,595.0109930000035,None,595.0109930000035,595.5220654999139,,,,,,,,,,,,,,,,128,2022-05-11_10h51.02.866,FishGame,2022.1.1,59.93356961400923,
,23,넌 무정해,5,Green,A,2.5,2.2,ScrollDown,ScrollUp,Green.png,4,Negative,Incongruent,,,,,0,0,0,0,,,,,,,,,,,,,,,,,,,,,,,,,0,22,22,22,,,,,,,,,,,,,,,,,,,,,,,,,,,,,,,,,,,,,,,,,,,,,,,,,,,,,,,,,,,,,,,,,,,,,1,1.0422705999808386,596.1492170999991,None,ScrollDown,정답입니다,596.1492170999991,None,596.1492170999991,None,596.1492170999991,None,596.1492170999991,None,597.0890202999581,None,597.0890202999581,597.5894419000251,,,,,,,,,,,,,,,,128,2022-05-11_10h51.02.866,FishGame,2022.1.1,59.93356961400923,
,24,넌 긍정적이야,1,Orange,B,6.041666666666667,6.066666666666666,ScrollUp,ScrollDown,Orange.png,4,Positive,Incongruent,,,,,0,0,0,0,,,,,,,,,,,,,,,,,,,,,,,,,0,23,23,23,,,,,,,,,,,,,,,,,,,,,,,,,,,,,,,,,,,,,,,,,,,,,,,,,,,,,,,,,,,,,,,,,,,,,2,1.0173340999754146,598.2332366999472,None,ScrollUp,정답입니다,598.2332366999472,None,598.2332366999472,None,598.2332366999472,None,598.2332366999472,None,599.1363037999254,None,599.1363037999254,599.6396816999186,,,,,,,,,,,,,,,,128,2022-05-11_10h51.02.866,FishGame,2022.1.1,59.93356961400923,
,25,나를 보내줘,6,Green,A,0,0,ScrollUp,ScrollDown,Green.png,4,NonTarget,NonTarget,,,,,0,0,0,0,,,,,,,,,,,,,,,,,,,,,,,,,0,24,24,24,,,,,,,,,,,,,,,,,,,,,,,,,,,,,,,,,,,,,,,,,,,,,,,,,,,,,,,,,,,,,,,,,,,,,1.8364197413126628,1.0567295999499038,600.2620542999357,None,ScrollUp,정답입니다,600.2620542999357,None,600.2620542999357,None,600.2620542999357,None,600.2620542999357,None,601.22271979996,None,601.22271979996,601.722554899985,,,,,,,,,,,,,,,,128,2022-05-11_10h51.02.866,FishGame,2022.1.1,59.93356961400923,
,26,넌 시기심이 많아,5,Orange,B,2.458333333333333,2.233333333333333,ScrollUp,ScrollDown,Orange.png,4,Negative,Congruent,,,,,0,0,0,0,,,,,,,,,,,,,,,,,,,,,,,,,0,25,25,25,,,,,,,,,,,,,,,,,,,,,,,,,,,,,,,,,,,,,,,,,,,,,,,,,,,,,,,,,,,,,,,,,,,,,2,1.6660793999908492,602.3730701999739,None,ScrollUp,정답입니다,602.3730701999739,None,602.3730701999739,None,602.3730701999739,None,602.3730701999739,None,603.9108312999597,None,603.9108312999597,604.4227508999174,,,,,,,,,,,,,,,,128,2022-05-11_10h51.02.866,FishGame,2022.1.1,59.93356961400923,
,27,넌 탁월해,2,Green,A,5.708333333333334,4.5,ScrollDown,ScrollUp,Green.png,4,Positive,Congruent,,,,,0,0,0,0,,,,,,,,,,,,,,,,,,,,,,,,,0,26,26,26,,,,,,,,,,,,,,,,,,,,,,,,,,,,,,,,,,,,,,,,,,,,,,,,,,,,,,,,,,,,,,,,,,,,,1.160493830839793,2.134098600014113,605.0526730999118,None,ScrollDown,정답입니다,605.0526730999118,None,605.0526730999118,None,605.0526730999118,None,605.0526730999118,None,607.0780899999663,None,607.0780899999663,607.5896385000087,,,,,,,,,,,,,,,,128,2022-05-11_10h51.02.866,FishGame,2022.1.1,59.93356961400923,
,28,나를 데려가줘,6,Orange,B,0,0,ScrollDown,ScrollUp,Orange.png,4,NonTarget,NonTarget,,,,,0,0,0,0,,,,,,,,,,,,,,,,,,,,,,,,,0,27,27,27,,,,,,,,,,,,,,,,,,,,,,,,,,,,,,,,,,,,,,,,,,,,,,,,,,,,,,,,,,,,,,,,,,,,,1,1.2408639999339357,608.2212460999144,None,ScrollDown,정답입니다,608.2212460999144,None,608.2212460999144,None,608.2212460999144,None,608.2212460999144,None,609.3563530999236,None,609.3563530999236,609.8559124999447,,,,,,,,,,,,,,,,128,2022-05-11_10h51.02.866,FishGame,2022.1.1,59.93356961400923,
,29,넌 조용해,3,Orange,B,4.333333333333333,4.166666666666667,ScrollUp,ScrollDown,Orange.png,4,Neutral,Neutral,,,,,0,0,0,0,,,,,,,,,,,,,,,,,,,,,,,,,0,28,28,28,,,,,,,,,,,,,,,,,,,,,,,,,,,,,,,,,,,,,,,,,,,,,,,,,,,,,,,,,,,,,,,,,,,,,2,1.132531699957326,610.4966615999583,None,ScrollUp,정답입니다,610.4966615999583,None,610.4966615999583,None,610.4966615999583,None,610.4966615999583,None,611.5109052999178,None,611.5109052999178,612.0228686999762,,,,,,,,,,,,,,,,128,2022-05-11_10h51.02.866,FishGame,2022.1.1,59.93356961400923,
,30,넌 다정해,1,Green,A,5.833333333333334,5.7,ScrollDown,ScrollUp,Green.png,4,Positive,Congruent,,,,,0,0,0,0,,,,,,,,,,,,,,,,,,,,,,,,,0,29,29,29,,,,,,,,,,,,,,,,,,,,,,,,,,,,,,,,,,,,,,,,,,,,,,,,,,,,,,,,,,,,,,,,,,,,,1,0.9904729999834672,612.6500765000237,None,ScrollDown,정답입니다,612.6500765000237,None,612.6500765000237,None,612.6500765000237,None,612.6500765000237,None,613.5393842000049,None,613.5393842000049,614.0397269999376,,,,,,,,,,,,,,,,128,2022-05-11_10h51.02.866,FishGame,2022.1.1,59.93356961400923,
,31,넌 능력있어,2,Orange,B,6.166666666666666,4.6,ScrollUp,ScrollDown,Orange.png,4,Positive,Incongruent,,,,,0,0,0,0,,,,,,,,,,,,,,,,,,,,,,,,,0,30,30,30,,,,,,,,,,,,,,,,,,,,,,,,,,,,,,,,,,,,,,,,,,,,,,,,,,,,,,,,,,,,,,,,,,,,,2,1.1204205999383703,614.6766778000165,None,ScrollUp,정답입니다,614.6766778000165,None,614.6766778000165,None,614.6766778000165,None,614.6766778000165,None,615.686622499954,None,615.686622499954,616.1897731999634,,,,,,,,,,,,,,,,128,2022-05-11_10h51.02.866,FishGame,2022.1.1,59.93356961400923,
,32,넌 불쾌해,5,Green,A,2.125,1.933333333333333,ScrollDown,ScrollUp,Green.png,4,Negative,Incongruent,,,,,0,0,0,0,,,,,,,,,,,,,,,,,,,,,,,,,0,31,31,31,,,,,,,,,,,,,,,,,,,,,,,,,,,,,,,,,,,,,,,,,,,,,,,,,,,,,,,,,,,,,,,,,,,,,1,1.0345760999480262,616.8141719999257,None,ScrollDown,정답입니다,616.8141719999257,None,616.8141719999257,None,616.8141719999257,None,616.8141719999257,None,617.7529244999168,None,617.7529244999168,618.25626309996,,,,,,,,,,,,,,,,128,2022-05-11_10h51.02.866,FishGame,2022.1.1,59.93356961400923,
,33,나를 데려가줘,6,Orange,B,0,0,ScrollDown,ScrollUp,Orange.png,4,NonTarget,NonTarget,,,,,0,0,0,0,,,,,,,,,,,,,,,,,,,,,,,,,0,32,32,32,,,,,,,,,,,,,,,,,,,,,,,,,,,,,,,,,,,,,,,,,,,,,,,,,,,,,,,,,,,,,,,,,,,,,1,1.1086630000500008,618.8918735999614,None,ScrollDown,정답입니다,618.8918735999614,None,618.8918735999614,None,618.8918735999614,None,618.8918735999614,None,619.8893926999299,None,619.8893926999299,620.3897770999465,,,,,,,,,,,,,,,,128,2022-05-11_10h51.02.866,FishGame,2022.1.1,59.93356961400923,
,34,넌 유순해,3,Green,A,4.458333333333333,5,ScrollDown,ScrollUp,Green.png,4,Neutral,Neutral,,,,,0,0,0,0,,,,,,,,,,,,,,,,,,,,,,,,,0,33,33,33,,,,,,,,,,,,,,,,,,,,,,,,,,,,,,,,,,,,,,,,,,,,,,,,,,,,,,,,,,,,,,,,,,,,,1,0.9745058999396861,621.0188706999179,None,ScrollDown,정답입니다,621.0188706999179,None,621.0188706999179,None,621.0188706999179,None,621.0188706999179,None,621.8901545999106,None,621.8901545999106,622.3899893999333,,,,,,,,,,,,,,,,128,2022-05-11_10h51.02.866,FishGame,2022.1.1,59.93356961400923,
,35,넌 근심스러워,4,Orange,B,2.708333333333333,3.133333333333333,ScrollUp,ScrollDown,Orange.png,4,Negative,Congruent,,,,,0,0,0,0,,,,,,,,,,,,,,,,,,,,,,,,,0,34,34,34,,,,,,,,,,,,,,,,,,,,,,,,,,,,,,,,,,,,,,,,,,,,,,,,,,,,,,,,,,,,,,,,,,,,,2,0.8675242000026628,623.025694699958,None,ScrollUp,정답입니다,623.025694699958,None,623.025694699958,None,623.025694699958,None,623.025694699958,None,623.7785618000198,None,623.7785618000198,624.2899461999768,,,,,,,,,,,,,,,,128,2022-05-11_10h51.02.866,FishGame,2022.1.1,59.93356961400923,
,36,넌 세련되었어,2,Green,A,5.5,4.6,ScrollDown,ScrollUp,Green.png,4,Positive,Congruent,,,,,0,0,0,0,,,,,,,,,,,,,,,,,,,,,,,,,0,35,35,35,,,,,,,,,,,,,,,,,,,,,,,,,,,,,,,,,,,,,,,,,,,,,,,,,,,,,,,,,,,,,,,,,,,,,1,0.9345803000032902,624.9334781999933,None,ScrollDown,정답입니다,624.9334781999933,None,624.9334781999933,None,624.9334781999933,None,624.9334781999933,None,625.7447185999481,None,625.7447185999481,626.2563236999558,,,,,,,,,,,,,,,,128,2022-05-11_10h51.02.866,FishGame,2022.1.1,59.93356961400923,
,37,나를 보내줘,6,Green,A,0,0,ScrollUp,ScrollDown,Green.png,4,NonTarget,NonTarget,,,,,0,0,0,0,,,,,,,,,,,,,,,,,,,,,,,,,0,36,36,36,,,,,,,,,,,,,,,,,,,,,,,,,,,,,,,,,,,,,,,,,,,,,,,,,,,,,,,,,,,,,,,,,,,,,1.9336419701576233,1.2999980000313371,626.8855702999281,None,ScrollUp,정답입니다,626.8855702999281,None,626.8855702999281,None,626.8855702999281,None,626.8855702999281,None,628.078647700022,None,628.078647700022,628.5900110999355,,,,,,,,,,,,,,,,128,2022-05-11_10h51.02.866,FishGame,2022.1.1,59.93356961400923,
,38,넌 확고해,3,Orange,B,4.708333333333334,4.566666666666666,ScrollUp,ScrollDown,Orange.png,4,Neutral,Neutral,,,,,0,0,0,0,,,,,,,,,,,,,,,,,,,,,,,,,0,37,37,37,,,,,,,,,,,,,,,,,,,,,,,,,,,,,,,,,,,,,,,,,,,,,,,,,,,,,,,,,,,,,,,,,,,,,2,1.3821571000153199,629.228921999922,None,ScrollUp,정답입니다,629.228921999922,None,629.228921999922,None,629.228921999922,None,629.228921999922,None,630.4949402000057,None,630.4949402000057,631.0072079999372,,,,,,,,,,,,,,,,128,2022-05-11_10h51.02.866,FishGame,2022.1.1,59.93356961400923,
,39,넌 이해심이 많아,1,Orange,B,6.041666666666668,5.533333333333333,ScrollUp,ScrollDown,Orange.png,4,Positive,Incongruent,,,,,0,0,0,0,,,,,,,,,,,,,,,,,,,,,,,,,0,38,38,38,,,,,,,,,,,,,,,,,,,,,,,,,,,,,,,,,,,,,,,,,,,,,,,,,,,,,,,,,,,,,,,,,,,,,1.7500000099341075,0.9692190000787377,631.6346232999349,None,ScrollUp,정답입니다,631.6346232999349,None,631.6346232999349,None,631.6346232999349,None,631.6346232999349,None,632.4964202999836,None,632.4964202999836,633.0067326999269,,,,,,,,,,,,,,,,128,2022-05-11_10h51.02.866,FishGame,2022.1.1,59.93356961400923,
,40,나를 보내줘,6,Green,A,0,0,ScrollUp,ScrollDown,Green.png,4,NonTarget,NonTarget,,,,,0,0,0,0,,,,,,,,,,,,,,,,,,,,,,,,,0,39,39,39,,,,,,,,,,,,,,,,,,,,,,,,,,,,,,,,,,,,,,,,,,,,,,,,,,,,,,,,,,,,,,,,,,,,,2,1.2399160000495613,633.6367208999582,None,ScrollUp,정답입니다,633.6367208999582,None,633.6367208999582,None,633.6367208999582,None,633.6367208999582,None,634.7735778000206,None,634.7735778000206,635.2735650999239,,,,,,,,,,,,,,,,128,2022-05-11_10h51.02.866,FishGame,2022.1.1,59.93356961400923,
,41,넌 거칠어,4,Green,A,2.625,3.033333333333333,ScrollDown,ScrollUp,Green.png,4,Negative,Incongruent,,,,,0,0,0,0,,,,,,,,,,,,,,,,,,,,,,,,,0,40,40,40,,,,,,,,,,,,,,,,,,,,,,,,,,,,,,,,,,,,,,,,,,,,,,,,,,,,,,,,,,,,,,,,,,,,,1.0370370149612427,0.9574472999665886,635.9052148999181,None,ScrollDown,정답입니다,635.9052148999181,None,635.9052148999181,None,635.9052148999181,None,635.9052148999181,None,636.7568840999156,None,636.7568840999156,637.2575169999618,,,,,,,,,,,,,,,,128,2022-05-11_10h51.02.866,FishGame,2022.1.1,59.93356961400923,
,42,넌 변덕맞아,5,Orange,B,2.75,2.166666666666667,ScrollUp,ScrollDown,Orange.png,4,Negative,Congruent,,,,,0,0,0,0,,,,,,,,,,,,,,,,,,,,,,,,,0,41,41,41,,,,,,,,,,,,,,,,,,,,,,,,,,,,,,,,,,,,,,,,,,,,,,,,,,,,,,,,,,,,,,,,,,,,,1.8348765522241592,0.9773498000577092,637.8980520999758,None,ScrollUp,정답입니다,637.8980520999758,None,637.8980520999758,None,637.8980520999758,None,637.8980520999758,None,638.7567239999771,None,638.7567239999771,639.2569189999485,,,,,,,,,,,,,,,,128,2022-05-11_10h51.02.866,FishGame,2022.1.1,59.93356961400923,
,43,나를 데려가줘,6,Orange,B,0,0,ScrollDown,ScrollUp,Orange.png,4,NonTarget,NonTarget,,,,,0,0,0,0,,,,,,,,,,,,,,,,,,,,,,,,,0,42,42,42,,,,,,,,,,,,,,,,,,,,,,,,,,,,,,,,,,,,,,,,,,,,,,,,,,,,,,,,,,,,,,,,,,,,,1,1.090908500016667,639.8873281999258,None,ScrollDown,정답입니다,639.8873281999258,None,639.8873281999258,None,639.8873281999258,None,639.8873281999258,None,640.8738029999658,None,640.8738029999658,641.3734873000067,,,,,,,,,,,,,,,,128,2022-05-11_10h51.02.866,FishGame,2022.1.1,59.93356961400923,
,44,넌 외로워,4,Orange,B,2.833333333333333,3.3,ScrollUp,ScrollDown,Orange.png,4,Negative,Congruent,,,,,0,0,0,0,,,,,,,,,,,,,,,,,,,,,,,,,0,43,43,43,,,,,,,,,,,,,,,,,,,,,,,,,,,,,,,,,,,,,,,,,,,,,,,,,,,,,,,,,,,,,,,,,,,,,2,1.0164404000388458,642.0052136000013,None,ScrollUp,정답입니다,642.0052136000013,None,642.0052136000013,None,642.0052136000013,None,642.0052136000013,None,642.9120677999454,None,642.9120677999454,643.4235332999378,,,,,,,,,,,,,,,,128,2022-05-11_10h51.02.866,FishGame,2022.1.1,59.93356961400923,
,1,넌 불평스러워,5,Green,A,2.25,2.066666666666667,ScrollDown,ScrollUp,Green.png,5,Negative,Incongruent,,,,,0,0,0,0,,,,,,,,,,,,,,,,,,,,,,,,,,,,,0,0,0,0,,,,,,,,,,,,,,,,,,,,,,,,675.6246281999629,677.1249263000209,677.1577020999976,678.1085444999626,678.1583527999464,679.1085161999799,679.1085161999799,None,,,,,,,,,,,,,,,,,,,,,,,,,,,,,,,,,,1,1.2382703999755904,680.2492694000248,None,ScrollDown,정답입니다,680.2492694000248,None,680.2492694000248,None,680.2492694000248,None,680.2492694000248,None,681.3414756999118,None,681.3414756999118,681.8415213999106,643.9235373999691,None,643.9235373999691,None,0.24166666,-0.10092592,1,0,0,0.016351829865016043,None,673.9243313999614,None,,,128,2022-05-11_10h51.02.866,FishGame,2022.1.1,59.93356961400923,
,2,나를 보내줘,6,Green,A,0,0,ScrollUp,ScrollDown,Green.png,5,NonTarget,NonTarget,,,,,0,0,0,0,,,,,,,,,,,,,,,,,,,,,,,,,,,,,0,1,1,1,,,,,,,,,,,,,,,,,,,,,,,,,,,,,,,,,,,,,,,,,,,,,,,,,,,,,,,,,,,,,,,,,2,1.0861945999786258,682.4710030999267,None,ScrollUp,정답입니다,682.4710030999267,None,682.4710030999267,None,682.4710030999267,None,682.4710030999267,None,683.4544919999316,None,683.4544919999316,683.9579469999298,,,,,,,,,,,,,,,,128,2022-05-11_10h51.02.866,FishGame,2022.1.1,59.93356961400923,
,3,넌 다재다능해,2,Orange,B,6.208333333333333,4.5,ScrollUp,ScrollDown,Orange.png,5,Positive,Incongruent,,,,,0,0,0,0,,,,,,,,,,,,,,,,,,,,,,,,,,,,,0,2,2,2,,,,,,,,,,,,,,,,,,,,,,,,,,,,,,,,,,,,,,,,,,,,,,,,,,,,,,,,,,,,,,,,,2,1.0364788000006229,684.5924227000214,None,ScrollUp,정답입니다,684.5924227000214,None,684.5924227000214,None,684.5924227000214,None,684.5924227000214,None,685.5209951999132,None,685.5209951999132,686.0246667999309,,,,,,,,,,,,,,,,128,2022-05-11_10h51.02.866,FishGame,2022.1.1,59.93356961400923,
,4,넌 과감해,3,Green,A,4.833333333333334,4.6,ScrollDown,ScrollUp,Green.png,5,Neutral,Neutral,,,,,0,0,0,0,,,,,,,,,,,,,,,,,,,,,,,,,,,,,0,3,3,3,,,,,,,,,,,,,,,,,,,,,,,,,,,,,,,,,,,,,,,,,,,,,,,,,,,,,,,,,,,,,,,,,1.0138889054457347,1.1096889999462292,686.6529311999911,None,ScrollDown,정답입니다,686.6529311999911,None,686.6529311999911,None,686.6529311999911,None,686.6529311999911,None,687.6574533999665,None,687.6574533999665,688.158445399953,,,,,,,,,,,,,,,,128,2022-05-11_10h51.02.866,FishGame,2022.1.1,59.93356961400923,
,5,넌 고분고분해,3,Orange,B,3.75,4.033333333333333,ScrollUp,ScrollDown,Orange.png,5,Neutral,Neutral,,,,,0,0,0,0,,,,,,,,,,,,,,,,,,,,,,,,,,,,,0,4,4,4,,,,,,,,,,,,,,,,,,,,,,,,,,,,,,,,,,,,,,,,,,,,,,,,,,,,,,,,,,,,,,,,,1.8827160596847534,1.0410297000780702,688.7967516999925,None,ScrollUp,정답입니다,688.7967516999925,None,688.7967516999925,None,688.7967516999925,None,688.7967516999925,None,689.7243807999184,None,689.7243807999184,690.2248108999338,,,,,,,,,,,,,,,,128,2022-05-11_10h51.02.866,FishGame,2022.1.1,59.93356961400923,
,6,나를 보내줘,6,Green,A,0,0,ScrollUp,ScrollDown,Green.png,5,NonTarget,NonTarget,,,,,0,0,0,0,,,,,,,,,,,,,,,,,,,,,,,,,,,,,0,5,5,5,,,,,,,,,,,,,,,,,,,,,,,,,,,,,,,,,,,,,,,,,,,,,,,,,,,,,,,,,,,,,,,,,1.7716049303611119,1.0408734999364242,690.8512296999106,None,ScrollUp,정답입니다,690.8512296999106,None,690.8512296999106,None,690.8512296999106,None,690.8512296999106,None,691.7910170999821,None,691.7910170999821,692.2917073999997,,,,,,,,,,,,,,,,128,2022-05-11_10h51.02.866,FishGame,2022.1.1,59.93356961400923,
,7,넌 잘 잊어,4,Green,A,3,3.7,ScrollDown,ScrollUp,Green.png,5,Negative,Incongruent,,,,,0,0,0,0,,,,,,,,,,,,,,,,,,,,,,,,,,,,,0,6,6,6,,,,,,,,,,,,,,,,,,,,,,,,,,,,,,,,,,,,,,,,,,,,,,,,,,,,,,,,,,,,,,,,,1,1.125657800002955,692.929091900005,None,ScrollDown,정답입니다,692.929091900005,None,692.929091900005,None,692.929091900005,None,692.929091900005,None,693.9414324000245,None,693.9414324000245,694.4414846999571,,,,,,,,,,,,,,,,128,2022-05-11_10h51.02.866,FishGame,2022.1.1,59.93356961400923,
,8,넌 탐구심이없어,4,Orange,B,2.833333333333333,3.066666666666667,ScrollUp,ScrollDown,Orange.png,5,Negative,Congruent,,,,,0,0,0,0,,,,,,,,,,,,,,,,,,,,,,,,,,,,,0,7,7,7,,,,,,,,,,,,,,,,,,,,,,,,,,,,,,,,,,,,,,,,,,,,,,,,,,,,,,,,,,,,,,,,,1.904320980111758,1.042544100084342,695.1325340999756,None,ScrollUp,정답입니다,695.1325340999756,None,695.1325340999756,None,695.1325340999756,None,695.1325340999756,None,696.0083415999543,None,696.0083415999543,696.5078498999355,,,,,,,,,,,,,,,,128,2022-05-11_10h51.02.866,FishGame,2022.1.1,59.93356961400923,
,9,나를 데려가줘,6,Orange,B,0,0,ScrollDown,ScrollUp,Orange.png,5,NonTarget,NonTarget,,,,,0,0,0,0,,,,,,,,,,,,,,,,,,,,,,,,,,,,,0,8,8,8,,,,,,,,,,,,,,,,,,,,,,,,,,,,,,,,,,,,,,,,,,,,,,,,,,,,,,,,,,,,,,,,,1.1095678955316544,1.1847234000451863,697.1378370999591,None,ScrollDown,정답입니다,697.1378370999591,None,697.1378370999591,None,697.1378370999591,None,697.1378370999591,None,698.2135896999389,None,698.2135896999389,698.724473399925,,,,,,,,,,,,,,,,128,2022-05-11_10h51.02.866,FishGame,2022.1.1,59.93356961400923,
,10,넌 참되어,2,Green,A,6.041666666666664,4.733333333333333,ScrollDown,ScrollUp,Green.png,5,Positive,Congruent,,,,,0,0,0,0,,,,,,,,,,,,,,,,,,,,,,,,,,,,,0,9,9,9,,,,,,,,,,,,,,,,,,,,,,,,,,,,,,,,,,,,,,,,,,,,,,,,,,,,,,,,,,,,,,,,,1,1.5182882000226527,699.3573454999132,None,ScrollDown,정답입니다,699.3573454999132,None,699.3573454999132,None,699.3573454999132,None,699.3573454999132,None,700.7712799999863,None,700.7712799999863,701.2749419999309,,,,,,,,,,,,,,,,128,2022-05-11_10h51.02.866,FishGame,2022.1.1,59.93356961400923,
,11,넌 생기있어,1,Orange,B,5.875,5.633333333333334,ScrollUp,ScrollDown,Orange.png,5,Positive,Incongruent,,,,,0,0,0,0,,,,,,,,,,,,,,,,,,,,,,,,,,,,,0,10,10,10,,,,,,,,,,,,,,,,,,,,,,,,,,,,,,,,,,,,,,,,,,,,,,,,,,,,,,,,,,,,,,,,,2,0.9845662999432534,701.9098991999635,None,ScrollUp,정답입니다,701.9098991999635,None,701.9098991999635,None,701.9098991999635,None,701.9098991999635,None,702.7883762000129,None,702.7883762000129,703.2917115999153,,,,,,,,,,,,,,,,128,2022-05-11_10h51.02.866,FishGame,2022.1.1,59.93356961400923,
,12,넌 비사교적이야,4,Orange,B,2.875,2.9,ScrollUp,ScrollDown,Orange.png,5,Negative,Congruent,,,,,0,0,0,0,,,,,,,,,,,,,,,,,,,,,,,,,,,,,0,11,11,11,,,,,,,,,,,,,,,,,,,,,,,,,,,,,,,,,,,,,,,,,,,,,,,,,,,,,,,,,,,,,,,,,1.939814825852712,1.0509937999304384,703.9250202999683,None,ScrollUp,정답입니다,703.9250202999683,None,703.9250202999683,None,703.9250202999683,None,703.9250202999683,None,704.8712762999348,None,704.8712762999348,705.3747345999582,,,,,,,,,,,,,,,,128,2022-05-11_10h51.02.866,FishGame,2022.1.1,59.93356961400923,
,13,나를 데려가줘,6,Orange,B,0,0,ScrollDown,ScrollUp,Orange.png,5,NonTarget,NonTarget,,,,,0,0,0,0,,,,,,,,,,,,,,,,,,,,,,,,,,,,,0,12,12,12,,,,,,,,,,,,,,,,,,,,,,,,,,,,,,,,,,,,,,,,,,,,,,,,,,,,,,,,,,,,,,,,,1,1.1578052000841126,706.0066683000186,None,ScrollDown,정답입니다,706.0066683000186,None,706.0066683000186,None,706.0066683000186,None,706.0066683000186,None,707.0582187999971,None,707.0582187999971,707.5584278999595,,,,,,,,,,,,,,,,128,2022-05-11_10h51.02.866,FishGame,2022.1.1,59.93356961400923,
,14,넌 고독해,4,Green,A,2.916666666666667,3.233333333333333,ScrollDown,ScrollUp,Green.png,5,Negative,Incongruent,,,,,0,0,0,0,,,,,,,,,,,,,,,,,,,,,,,,,,,,,0,13,13,13,,,,,,,,,,,,,,,,,,,,,,,,,,,,,,,,,,,,,,,,,,,,,,,,,,,,,,,,,,,,,,,,,1,1.0164544000290334,708.1816837999504,None,ScrollDown,정답입니다,708.1816837999504,None,708.1816837999504,None,708.1816837999504,None,708.1816837999504,None,709.0970200999873,None,709.0970200999873,709.608339499915,,,,,,,,,,,,,,,,128,2022-05-11_10h51.02.866,FishGame,2022.1.1,59.93356961400923,
,15,넌 신경질적이야,5,Orange,B,2.375,2.233333333333333,ScrollUp,ScrollDown,Orange.png,5,Negative,Congruent,,,,,0,0,0,0,,,,,,,,,,,,,,,,,,,,,,,,,,,,,0,14,14,14,,,,,,,,,,,,,,,,,,,,,,,,,,,,,,,,,,,,,,,,,,,,,,,,,,,,,,,,,,,,,,,,,1.939814825852712,1.108843799913302,710.2518265999388,None,ScrollUp,정답입니다,710.2518265999388,None,710.2518265999388,None,710.2518265999388,None,710.2518265999388,None,711.2420135999564,None,711.2420135999564,711.7417569999816,,,,,,,,,,,,,,,,128,2022-05-11_10h51.02.866,FishGame,2022.1.1,59.93356961400923,
,16,넌 똑똑해,2,Orange,B,5.666666666666667,3.966666666666667,ScrollUp,ScrollDown,Orange.png,5,Positive,Incongruent,,,,,0,0,0,0,,,,,,,,,,,,,,,,,,,,,,,,,,,,,0,15,15,15,,,,,,,,,,,,,,,,,,,,,,,,,,,,,,,,,,,,,,,,,,,,,,,,,,,,,,,,,,,,,,,,,2,1.2536706000100821,712.3747744999127,None,ScrollUp,정답입니다,712.3747744999127,None,712.3747744999127,None,712.3747744999127,None,712.3747744999127,None,713.5214910999639,None,713.5214910999639,714.0255252999486,,,,,,,,,,,,,,,,128,2022-05-11_10h51.02.866,FishGame,2022.1.1,59.93356961400923,
,17,나를 보내줘,6,Green,A,0,0,ScrollUp,ScrollDown,Green.png,5,NonTarget,NonTarget,,,,,0,0,0,0,,,,,,,,,,,,,,,,,,,,,,,,,,,,,0,16,16,16,,,,,,,,,,,,,,,,,,,,,,,,,,,,,,,,,,,,,,,,,,,,,,,,,,,,,,,,,,,,,,,,,1,0.9268612000159919,714.6545685000019,None,ScrollDown,오답입니다,714.6545685000019,None,714.6545685000019,None,714.6545685000019,None,714.6545685000019,None,715.4695923000108,None,715.4695923000108,715.9747789999237,,,,,,,,,,,,,,,,128,2022-05-11_10h51.02.866,FishGame,2022.1.1,59.93356961400923,
,18,넌 협조적이야,1,Green,A,5.625,5.666666666666667,ScrollDown,ScrollUp,Green.png,5,Positive,Congruent,,,,,0,0,0,0,,,,,,,,,,,,,,,,,,,,,,,,,,,,,0,17,17,17,,,,,,,,,,,,,,,,,,,,,,,,,,,,,,,,,,,,,,,,,,,,,,,,,,,,,,,,,,,,,,,,,1.0416666567325592,1.5263242999790236,716.6123888000147,None,ScrollDown,정답입니다,716.6123888000147,None,716.6123888000147,None,716.6123888000147,None,716.6123888000147,None,718.0250806999393,None,718.0250806999393,718.5250292000128,,,,,,,,,,,,,,,,128,2022-05-11_10h51.02.866,FishGame,2022.1.1,59.93356961400923,
,19,나를 데려가줘,6,Orange,B,0,0,ScrollDown,ScrollUp,Orange.png,5,NonTarget,NonTarget,,,,,0,0,0,0,,,,,,,,,,,,,,,,,,,,,,,,,,,,,0,18,18,18,,,,,,,,,,,,,,,,,,,,,,,,,,,,,,,,,,,,,,,,,,,,,,,,,,,,,,,,,,,,,,,,,1,1.2606646999483928,719.1551353000104,None,ScrollDown,정답입니다,719.1551353000104,None,719.1551353000104,None,719.1551353000104,None,719.1551353000104,None,720.3084509000182,None,720.3084509000182,720.8088699999498,,,,,,,,,,,,,,,,128,2022-05-11_10h51.02.866,FishGame,2022.1.1,59.93356961400923,
,20,넌 몰인정해,5,Orange,B,2.541666666666667,2.066666666666667,ScrollUp,ScrollDown,Orange.png,5,Negative,Congruent,,,,,0,0,0,0,,,,,,,,,,,,,,,,,,,,,,,,,,,,,0,19,19,19,,,,,,,,,,,,,,,,,,,,,,,,,,,,,,,,,,,,,,,,,,,,,,,,,,,,,,,,,,,,,,,,,2,1.009424899937585,721.4496363999788,None,ScrollUp,정답입니다,721.4496363999788,None,721.4496363999788,None,721.4496363999788,None,721.4496363999788,None,722.3439944999991,None,722.3439944999991,722.8595008999109,,,,,,,,,,,,,,,,128,2022-05-11_10h51.02.866,FishGame,2022.1.1,59.93356961400923,
,21,나를 데려가줘,6,Orange,B,0,0,ScrollDown,ScrollUp,Orange.png,5,NonTarget,NonTarget,,,,,0,0,0,0,,,,,,,,,,,,,,,,,,,,,,,,,,,,,0,20,20,20,,,,,,,,,,,,,,,,,,,,,,,,,,,,,,,,,,,,,,,,,,,,,,,,,,,,,,,,,,,,,,,,,2,1.0925414999946952,723.4848920999793,None,ScrollUp,오답입니다,723.4848920999793,None,723.4848920999793,None,723.4848920999793,None,723.4848920999793,None,724.4695403999649,None,724.4695403999649,724.9751947999466,,,,,,,,,,,,,,,,128,2022-05-11_10h51.02.866,FishGame,2022.1.1,59.93356961400923,
,22,넌 순진해,3,Orange,B,4.125,4.166666666666667,ScrollUp,ScrollDown,Orange.png,5,Neutral,Neutral,,,,,0,0,0,0,,,,,,,,,,,,,,,,,,,,,,,,,,,,,0,21,21,21,,,,,,,,,,,,,,,,,,,,,,,,,,,,,,,,,,,,,,,,,,,,,,,,,,,,,,,,,,,,,,,,,2,1.2166927000507712,725.6061271999497,None,ScrollUp,정답입니다,725.6061271999497,None,725.6061271999497,None,725.6061271999497,None,725.6061271999497,None,726.7151156999171,None,726.7151156999171,727.2254969999194,,,,,,,,,,,,,,,,128,2022-05-11_10h51.02.866,FishGame,2022.1.1,59.93356961400923,
,23,넌 신뢰할만해,1,Green,A,6.625,5.533333333333333,ScrollDown,ScrollUp,Green.png,5,Positive,Congruent,,,,,0,0,0,0,,,,,,,,,,,,,,,,,,,,,,,,,,,,,0,22,22,22,,,,,,,,,,,,,,,,,,,,,,,,,,,,,,,,,,,,,,,,,,,,,,,,,,,,,,,,,,,,,,,,,1,1.2194527999963611,727.8672188000055,None,ScrollDown,정답입니다,727.8672188000055,None,727.8672188000055,None,727.8672188000055,None,727.8672188000055,None,728.9641164999921,None,728.9641164999921,729.4752387999324,,,,,,,,,,,,,,,,128,2022-05-11_10h51.02.866,FishGame,2022.1.1,59.93356961400923,
,24,나를 보내줘,6,Green,A,0,0,ScrollUp,ScrollDown,Green.png,5,NonTarget,NonTarget,,,,,0,0,0,0,,,,,,,,,,,,,,,,,,,,,,,,,,,,,0,23,23,23,,,,,,,,,,,,,,,,,,,,,,,,,,,,,,,,,,,,,,,,,,,,,,,,,,,,,,,,,,,,,,,,,1.9290123283863068,1.0854833000339568,730.10295640002,None,ScrollUp,정답입니다,730.10295640002,None,730.10295640002,None,730.10295640002,None,730.10295640002,None,731.0882487000199,None,731.0882487000199,731.591952299932,,,,,,,,,,,,,,,,128,2022-05-11_10h51.02.866,FishGame,2022.1.1,59.93356961400923,
,25,넌 인색해,5,Green,A,2.625,2.233333333333333,ScrollDown,ScrollUp,Green.png,5,Negative,Incongruent,,,,,0,0,0,0,,,,,,,,,,,,,,,,,,,,,,,,,,,,,0,24,24,24,,,,,,,,,,,,,,,,,,,,,,,,,,,,,,,,,,,,,,,,,,,,,,,,,,,,,,,,,,,,,,,,,1,1.2175780999241397,732.229911500006,None,ScrollDown,정답입니다,732.229911500006,None,732.229911500006,None,732.229911500006,None,732.229911500006,None,733.330324199982,None,733.330324199982,733.8420574999182,,,,,,,,,,,,,,,,128,2022-05-11_10h51.02.866,FishGame,2022.1.1,59.93356961400923,
,26,넌 유쾌해,1,Orange,B,5.833333333333333,5.766666666666667,ScrollUp,ScrollDown,Orange.png,5,Positive,Incongruent,,,,,0,0,0,0,,,,,,,,,,,,,,,,,,,,,,,,,,,,,0,25,25,25,,,,,,,,,,,,,,,,,,,,,,,,,,,,,,,,,,,,,,,,,,,,,,,,,,,,,,,,,,,,,,,,,2,1.2054001999786124,734.4792474999558,None,ScrollUp,정답입니다,734.4792474999558,None,734.4792474999558,None,734.4792474999558,None,734.4792474999558,None,735.5720442999154,None,735.5720442999154,736.0756249999395,,,,,,,,,,,,,,,,128,2022-05-11_10h51.02.866,FishGame,2022.1.1,59.93356961400923,
