name,TrialNum,Word,WordCategory,FishType,WordList,WordValence,WordReputation,CorrectResp,IncorrectResp,FishTypeFile,Round,WordType,Condition,LoopforOrange.thisRepN,LoopforOrange.thisTrialN,LoopforOrange.thisN,LoopforOrange.thisIndex,OrangeInstLoop.thisRepN,OrangeInstLoop.thisTrialN,OrangeInstLoop.thisN,OrangeInstLoop.thisIndex,OrangePrac.thisRepN,OrangePrac.thisTrialN,OrangePrac.thisN,OrangePrac.thisIndex,temp1.thisRepN,temp1.thisTrialN,temp1.thisN,temp1.thisIndex,OrangeRound1.thisRepN,OrangeRound1.thisTrialN,OrangeRound1.thisN,OrangeRound1.thisIndex,OrangeRound2.thisRepN,OrangeRound2.thisTrialN,OrangeRound2.thisN,OrangeRound2.thisIndex,OrangeRound3.thisRepN,OrangeRound3.thisTrialN,OrangeRound3.thisN,OrangeRound3.thisIndex,OrangeRound4.thisRepN,OrangeRound4.thisTrialN,OrangeRound4.thisN,OrangeRound4.thisIndex,OrangeRound5.thisRepN,OrangeRound5.thisTrialN,OrangeRound5.thisN,OrangeRound5.thisIndex,LoopForGreen.thisRepN,LoopForGreen.thisTrialN,LoopForGreen.thisN,LoopForGreen.thisIndex,text_2.started,text_2.stopped,text_3.started,text_3.stopped,key_resp.keys,key_resp.rt,key_resp.started,key_resp.stopped,PassI_2.started,PassI_2.stopped,PassInst_2.keys,PassInst_2.rt,PassInst_2.started,PassInst_2.stopped,mouse_2.x,mouse_2.y,mouse_2.leftButton,mouse_2.midButton,mouse_2.rightButton,mouse_2.started,mouse_2.stopped,image.started,image.stopped,text_5.started,text_5.stopped,text_6.started,text_6.stopped,text_7.started,text_7.stopped,text_8.started,text_8.stopped,slider_2.response,slider_2.rt,slider_2.started,slider_2.stopped,Response_2,Feedback_2,BackGround_2.started,BackGround_2.stopped,Fish_2.started,Fish_2.stopped,WordBox_2.started,WordBox_2.stopped,Words_2.started,Words_2.stopped,BackGround_Feedback_2.started,BackGround_Feedback_2.stopped,Feedbacks_2.started,Feedbacks_2.stopped,Continue_or_not.keys,Continue_or_not.rt,Continue_or_not.started,Continue_or_not.stopped,image_3.started,image_3.stopped,mouse_3.x,mouse_3.y,mouse_3.leftButton,mouse_3.midButton,mouse_3.rightButton,mouse_3.started,mouse_3.stopped,startmain.started,startmain.stopped,slider.response,slider.rt,slider.started,slider.stopped,Response,Feedback,BackGround.started,BackGround.stopped,Fish.started,Fish.stopped,WordBox.started,WordBox.stopped,Words.started,Words.stopped,BackGround_Feedback.started,BackGround_Feedback.stopped,Feedbacks.started,Feedbacks.stopped,text.started,text.stopped,break_interval.started,break_interval.stopped,mouse.x,mouse.y,mouse.leftButton,mouse.midButton,mouse.rightButton,mouse.started,mouse.stopped,stratnextround.started,stratnextround.stopped,endgame.started,endgame.stopped,participant,date,expName,psychopyVersion,frameRate,
,,,,,,,,,,,,,,,,,,,,,,,,,,,,,,,,,,,,,,,,,,,,,,,,,,,,,,45.27971280005295,None,45.27971280005295,None,space,0.807217700057663,45.746848899987526,None,,,,,,,,,,,,,,,,,,,,,,,,,,,,,,,,,,,,,,,,,,,,,,,,,,,,,,,,,,,,,,,,,,,,,,,,,,,,,,,,,,,,,,,,,,129,2022-05-11_12h16.55.893,FishGame,2022.1.1,60.07918436644796,
물고기과제_instruction(참가자용)OrangeVersion.mp4,,,,,,,,,,,,,,0,0,0,0,0,0,0,0,,,,,,,,,,,,,,,,,,,,,,,,,,,,,,,,,,,,,,,,,112.8272627000697,None,n,3.6094160999637097,112.8272627000697,None,,,,,,,,,,,,,,,,,,,,,,,,,,,,,,,,,,,,,,,,,,,,,,,,,,,,,,,,,,,,,,,,,,,,,,,,,,,,,,,,,,,,129,2022-05-11_12h16.55.893,FishGame,2022.1.1,60.07918436644796,
,1,넌 교활해,5,Green,B,2.333333333333333,2.133333333333333,ScrollUp,ScrollDown,Green.png,practice,,,0,0,0,0,,,,,0,0,0,0,0,0,0,0,,,,,,,,,,,,,,,,,,,,,,,,,,,,,,,,,,,,,,,-0.048148148,-0.21018519,1,0,0,0.5139281200245023,None,116.46468960004859,None,133.63249360001646,135.13256030005869,135.16571590001695,136.11571170005482,136.16556560003664,137.11593049997464,137.11593049997464,None,2,2.686202200013213,138.28197750006802,None,ScrollUp,정답입니다,138.28197750006802,None,138.28197750006802,None,138.28197750006802,None,138.28197750006802,None,140.80186590005178,None,140.80186590005178,141.31547680008225,,,,,,,,,,,,,,,,,,,,,,,,,,,,,,,,,,,,,,,,,,,,,,,,,129,2022-05-11_12h16.55.893,FishGame,2022.1.1,60.07918436644796,
,2,넌 슬기로워,2,Orange,A,6.166666666666667,4.1,ScrollDown,ScrollUp,Orange.png,practice,,,0,0,0,0,,,,,0,0,0,0,0,1,1,1,,,,,,,,,,,,,,,,,,,,,,,,,,,,,,,,,,,,,,,,,,,,,,,,,,,,,,,,1,1.5338526000268757,141.95668890001252,None,ScrollDown,정답입니다,141.95668890001252,None,141.95668890001252,None,141.95668890001252,None,141.95668890001252,None,143.37042509997264,None,143.37042509997264,143.88209309999365,,,,,,,,,,,,,,,,,,,,,,,,,,,,,,,,,,,,,,,,,,,,,,,,,129,2022-05-11_12h16.55.893,FishGame,2022.1.1,60.07918436644796,
,3,나를 보내줘,6,Orange,A,0,0,ScrollUp,ScrollDown,Orange.png,practice,,,0,0,0,0,,,,,0,0,0,0,0,2,2,2,,,,,,,,,,,,,,,,,,,,,,,,,,,,,,,,,,,,,,,,,,,,,,,,,,,,,,,,2,1.5893325000070035,144.51882920006756,None,ScrollUp,정답입니다,144.51882920006756,None,144.51882920006756,None,144.51882920006756,None,144.51882920006756,None,145.99538630002644,None,145.99538630002644,146.4988682999974,,,,,,,,,,,,,,,,,,,,,,,,,,,,,,,,,,,,,,,,,,,,,,,,,129,2022-05-11_12h16.55.893,FishGame,2022.1.1,60.07918436644796,
,4,나를 데려가줘,6,Green,B,0,0,ScrollDown,ScrollUp,Green.png,practice,,,0,0,0,0,,,,,0,0,0,0,0,3,3,3,,,,,,,,,,,,,,,,,,,,,,,,,,,,,,,,,,,,,,,,,,,,,,,,,,,,,,,,1,1.2336683999747038,147.1286681999918,None,ScrollDown,정답입니다,147.1286681999918,None,147.1286681999918,None,147.1286681999918,None,147.1286681999918,None,148.25458780000918,None,148.25458780000918,148.7659915999975,,,,,,,,,,,,,,,,,,,,,,,,,,,,,,,,,,,,,,,,,,,,,,,,,129,2022-05-11_12h16.55.893,FishGame,2022.1.1,60.07918436644796,
,1,넌 교활해,5,Green,B,2.333333333333333,2.133333333333333,ScrollUp,ScrollDown,Green.png,practice,,,0,0,0,0,,,,,0,0,0,0,,,,,,,,,,,,,,,,,,,,,,,,,,,,,,,,,,,,,,,,,,,,,,,,,,,,,,,,,,,,,,,,,,,,,,,,,,,,,,n,13.704166900017299,149.26571619999595,None,149.26571619999595,None,,,,,,,,,,,,,,,,,,,,,,,,,,,,,,,,,,,,,,,,,,,129,2022-05-11_12h16.55.893,FishGame,2022.1.1,60.07918436644796,
,1,넌 따뜻해,1,Green,B,6.083333333333333,5.6,ScrollUp,ScrollDown,Green.png,1,Positive,Incongruent,0,0,0,0,,,,,,,,,,,,,0,0,0,0,,,,,,,,,,,,,,,,,,,,,,,,,,,,,,,,,,,,,,,,,,,,165.01842380000744,166.53274010005407,166.5496949000517,167.50016850000247,167.55009140004404,168.49998269998468,168.49998269998468,None,,,,,,,,,,,,,,,,,,,,,,,,,-0.05925926,-0.11851852,1,0,0,0.313571120146662,None,162.99972870002966,None,2,1.548915500054136,169.66625440004282,None,ScrollUp,정답입니다,169.66625440004282,None,169.66625440004282,None,169.66625440004282,None,169.66625440004282,None,171.0479269999778,None,171.0479269999778,171.54979570000432,,,,,,,,,,,,,,,,129,2022-05-11_12h16.55.893,FishGame,2022.1.1,60.07918436644796,
,2,넌 기품있어,2,Green,B,5.791666666666668,4.5,ScrollUp,ScrollDown,Green.png,1,Positive,Incongruent,0,0,0,0,,,,,,,,,,,,,0,1,1,1,,,,,,,,,,,,,,,,,,,,,,,,,,,,,,,,,,,,,,,,,,,,,,,,,,,,,,,,,,,,,,,,,,,,,,,,,,,,,,,,,,,,,1.9490740597248077,1.157429099897854,172.19254740001634,None,ScrollUp,정답입니다,172.19254740001634,None,172.19254740001634,None,172.19254740001634,None,172.19254740001634,None,173.23269370000344,None,173.23269370000344,173.732748700073,,,,,,,,,,,,,,,,129,2022-05-11_12h16.55.893,FishGame,2022.1.1,60.07918436644796,
,3,나를 보내줘,6,Orange,A,0,0,ScrollUp,ScrollDown,Orange.png,1,NonTarget,NonTarget,0,0,0,0,,,,,,,,,,,,,0,2,2,2,,,,,,,,,,,,,,,,,,,,,,,,,,,,,,,,,,,,,,,,,,,,,,,,,,,,,,,,,,,,,,,,,,,,,,,,,,,,,,,,,,,,,1.9475308458010356,1.2340964999748394,174.37738369998988,None,ScrollUp,정답입니다,174.37738369998988,None,174.37738369998988,None,174.37738369998988,None,174.37738369998988,None,175.48838210001122,None,175.48838210001122,175.99961669999175,,,,,,,,,,,,,,,,129,2022-05-11_12h16.55.893,FishGame,2022.1.1,60.07918436644796,
,4,넌 수동적이야,4,Orange,A,2.833333333333333,2.933333333333333,ScrollDown,ScrollUp,Orange.png,1,Negative,Incongruent,0,0,0,0,,,,,,,,,,,,,0,3,3,3,,,,,,,,,,,,,,,,,,,,,,,,,,,,,,,,,,,,,,,,,,,,,,,,,,,,,,,,,,,,,,,,,,,,,,,,,,,,,,,,,,,,,1,1.5739451000699773,176.64680710004177,None,ScrollDown,정답입니다,176.64680710004177,None,176.64680710004177,None,176.64680710004177,None,176.64680710004177,None,178.0996896000579,None,178.0996896000579,178.59959760005586,,,,,,,,,,,,,,,,129,2022-05-11_12h16.55.893,FishGame,2022.1.1,60.07918436644796,
,5,넌 사심이 없어,3,Green,B,4.916666666666666,4.333333333333333,ScrollUp,ScrollDown,Green.png,1,Neutral,Neutral,0,0,0,0,,,,,,,,,,,,,0,4,4,4,,,,,,,,,,,,,,,,,,,,,,,,,,,,,,,,,,,,,,,,,,,,,,,,,,,,,,,,,,,,,,,,,,,,,,,,,,,,,,,,,,,,,1.9320987562338512,1.2593308000359684,179.2423658000771,None,ScrollUp,정답입니다,179.2423658000771,None,179.2423658000771,None,179.2423658000771,None,179.2423658000771,None,180.38283620006405,None,180.38283620006405,180.88295060000382,,,,,,,,,,,,,,,,129,2022-05-11_12h16.55.893,FishGame,2022.1.1,60.07918436644796,
,6,넌 헤퍼,5,Orange,A,2.458333333333334,2.233333333333333,ScrollDown,ScrollUp,Orange.png,1,Negative,Incongruent,0,0,0,0,,,,,,,,,,,,,0,5,5,5,,,,,,,,,,,,,,,,,,,,,,,,,,,,,,,,,,,,,,,,,,,,,,,,,,,,,,,,,,,,,,,,,,,,,,,,,,,,,,,,,,,,,1,1.2568059000186622,181.52673130005132,None,ScrollDown,정답입니다,181.52673130005132,None,181.52673130005132,None,181.52673130005132,None,181.52673130005132,None,182.66698179999366,None,182.66698179999366,183.16626640001778,,,,,,,,,,,,,,,,129,2022-05-11_12h16.55.893,FishGame,2022.1.1,60.07918436644796,
,7,넌 말쑥해,3,Orange,A,4.833333333333334,4.333333333333333,ScrollDown,ScrollUp,Orange.png,1,Neutral,Neutral,0,0,0,0,,,,,,,,,,,,,0,6,6,6,,,,,,,,,,,,,,,,,,,,,,,,,,,,,,,,,,,,,,,,,,,,,,,,,,,,,,,,,,,,,,,,,,,,,,,,,,,,,,,,,,,,,1,1.282834800076671,183.81139390007593,None,ScrollDown,정답입니다,183.81139390007593,None,183.81139390007593,None,183.81139390007593,None,183.81139390007593,None,184.97133269999176,None,184.97133269999176,185.48299719998613,,,,,,,,,,,,,,,,129,2022-05-11_12h16.55.893,FishGame,2022.1.1,60.07918436644796,
,8,넌 투덜거려,5,Green,B,2.541666666666667,2.266666666666667,ScrollUp,ScrollDown,Green.png,1,Negative,Congruent,0,0,0,0,,,,,,,,,,,,,0,7,7,7,,,,,,,,,,,,,,,,,,,,,,,,,,,,,,,,,,,,,,,,,,,,,,,,,,,,,,,,,,,,,,,,,,,,,,,,,,,,,,,,,,,,,1.9799382885297139,1.1770304999081418,186.12673020001967,None,ScrollUp,정답입니다,186.12673020001967,None,186.12673020001967,None,186.12673020001967,None,186.12673020001967,None,187.18304899998475,None,187.18304899998475,187.6831361000659,,,,,,,,,,,,,,,,129,2022-05-11_12h16.55.893,FishGame,2022.1.1,60.07918436644796,
,9,넌 적극적이야,1,Orange,A,5.708333333333333,5.533333333333333,ScrollDown,ScrollUp,Orange.png,1,Positive,Congruent,0,0,0,0,,,,,,,,,,,,,0,8,8,8,,,,,,,,,,,,,,,,,,,,,,,,,,,,,,,,,,,,,,,,,,,,,,,,,,,,,,,,,,,,,,,,,,,,,,,,,,,,,,,,,,,,,1,1.1092414000304416,188.32220270007383,None,ScrollDown,정답입니다,188.32220270007383,None,188.32220270007383,None,188.32220270007383,None,188.32220270007383,None,189.31676359998528,None,189.31676359998528,189.8171545000514,,,,,,,,,,,,,,,,129,2022-05-11_12h16.55.893,FishGame,2022.1.1,60.07918436644796,
,10,넌 재미없어,4,Green,B,2.625,2.966666666666667,ScrollUp,ScrollDown,Green.png,1,Negative,Congruent,0,0,0,0,,,,,,,,,,,,,0,9,9,9,,,,,,,,,,,,,,,,,,,,,,,,,,,,,,,,,,,,,,,,,,,,,,,,,,,,,,,,,,,,,,,,,,,,,,,,,,,,,,,,,,,,,1.904320980111758,0.958641599980183,190.45586069999263,None,ScrollUp,정답입니다,190.45586069999263,None,190.45586069999263,None,190.45586069999263,None,190.45586069999263,None,191.30004350002855,None,191.30004350002855,191.80006440007128,,,,,,,,,,,,,,,,129,2022-05-11_12h16.55.893,FishGame,2022.1.1,60.07918436644796,
,11,넌 명석해,2,Orange,A,5.875,4.033333333333333,ScrollDown,ScrollUp,Orange.png,1,Positive,Congruent,0,0,0,0,,,,,,,,,,,,,0,10,10,10,,,,,,,,,,,,,,,,,,,,,,,,,,,,,,,,,,,,,,,,,,,,,,,,,,,,,,,,,,,,,,,,,,,,,,,,,,,,,,,,,,,,,1,1.2017649000044912,192.43679329997394,None,ScrollDown,정답입니다,192.43679329997394,None,192.43679329997394,None,192.43679329997394,None,192.43679329997394,None,193.5230934000574,None,193.5230934000574,194.0332562000258,,,,,,,,,,,,,,,,129,2022-05-11_12h16.55.893,FishGame,2022.1.1,60.07918436644796,
,12,나를 데려가줘,6,Green,B,0,0,ScrollDown,ScrollUp,Green.png,1,NonTarget,NonTarget,0,0,0,0,,,,,,,,,,,,,0,11,11,11,,,,,,,,,,,,,,,,,,,,,,,,,,,,,,,,,,,,,,,,,,,,,,,,,,,,,,,,,,,,,,,,,,,,,,,,,,,,,,,,,,,,,1,1.5166777999838814,194.67011649999768,None,ScrollDown,정답입니다,194.67011649999768,None,194.67011649999768,None,194.67011649999768,None,194.67011649999768,None,196.0715443000663,None,196.0715443000663,196.58330080006272,,,,,,,,,,,,,,,,129,2022-05-11_12h16.55.893,FishGame,2022.1.1,60.07918436644796,
,13,넌 소심해,4,Orange,A,3,3.1,ScrollDown,ScrollUp,Orange.png,1,Negative,Incongruent,0,0,0,0,,,,,,,,,,,,,0,12,12,12,,,,,,,,,,,,,,,,,,,,,,,,,,,,,,,,,,,,,,,,,,,,,,,,,,,,,,,,,,,,,,,,,,,,,,,,,,,,,,,,,,,,,1,1.098321900004521,197.22310020006262,None,ScrollDown,정답입니다,197.22310020006262,None,197.22310020006262,None,197.22310020006262,None,197.22310020006262,None,198.20460599998478,None,198.20460599998478,198.7171014000196,,,,,,,,,,,,,,,,129,2022-05-11_12h16.55.893,FishGame,2022.1.1,60.07918436644796,
,14,넌 합리적이야,2,Orange,A,5.583333333333333,4.733333333333333,ScrollDown,ScrollUp,Orange.png,1,Positive,Congruent,0,0,0,0,,,,,,,,,,,,,0,13,13,13,,,,,,,,,,,,,,,,,,,,,,,,,,,,,,,,,,,,,,,,,,,,,,,,,,,,,,,,,,,,,,,,,,,,,,,,,,,,,,,,,,,,,1,0.9934121000114828,199.35435300006066,None,ScrollDown,정답입니다,199.35435300006066,None,199.35435300006066,None,199.35435300006066,None,199.35435300006066,None,200.23371529998258,None,200.23371529998258,200.73381220002193,,,,,,,,,,,,,,,,129,2022-05-11_12h16.55.893,FishGame,2022.1.1,60.07918436644796,
,15,넌 무자비해,5,Green,B,2.333333333333333,2.1,ScrollUp,ScrollDown,Green.png,1,Negative,Congruent,0,0,0,0,,,,,,,,,,,,,0,14,14,14,,,,,,,,,,,,,,,,,,,,,,,,,,,,,,,,,,,,,,,,,,,,,,,,,,,,,,,,,,,,,,,,,,,,,,,,,,,,,,,,,,,,,2,1.042613900033757,201.37235810002312,None,ScrollUp,정답입니다,201.37235810002312,None,201.37235810002312,None,201.37235810002312,None,201.37235810002312,None,202.30041340005118,None,202.30041340005118,202.80037650000304,,,,,,,,,,,,,,,,129,2022-05-11_12h16.55.893,FishGame,2022.1.1,60.07918436644796,
,16,나를 보내줘,6,Orange,A,0,0,ScrollUp,ScrollDown,Orange.png,1,NonTarget,NonTarget,0,0,0,0,,,,,,,,,,,,,0,15,15,15,,,,,,,,,,,,,,,,,,,,,,,,,,,,,,,,,,,,,,,,,,,,,,,,,,,,,,,,,,,,,,,,,,,,,,,,,,,,,,,,,,,,,2,1.1498329000314698,203.43411829997785,None,ScrollUp,정답입니다,203.43411829997785,None,203.43411829997785,None,203.43411829997785,None,203.43411829997785,None,204.47176900005434,None,204.47176900005434,204.9834677000763,,,,,,,,,,,,,,,,129,2022-05-11_12h16.55.893,FishGame,2022.1.1,60.07918436644796,
,17,넌 현실적이야,3,Green,B,4.608695652173913,4.766666666666667,ScrollUp,ScrollDown,Green.png,1,Neutral,Neutral,0,0,0,0,,,,,,,,,,,,,0,16,16,16,,,,,,,,,,,,,,,,,,,,,,,,,,,,,,,,,,,,,,,,,,,,,,,,,,,,,,,,,,,,,,,,,,,,,,,,,,,,,,,,,,,,,2,1.1682908000657335,205.62042849999852,None,ScrollUp,정답입니다,205.62042849999852,None,205.62042849999852,None,205.62042849999852,None,205.62042849999852,None,206.68013790005352,None,206.68013790005352,207.1834362000227,,,,,,,,,,,,,,,,129,2022-05-11_12h16.55.893,FishGame,2022.1.1,60.07918436644796,
,18,넌 의리있어,1,Green,B,5.833333333333334,5.633333333333334,ScrollUp,ScrollDown,Green.png,1,Positive,Incongruent,0,0,0,0,,,,,,,,,,,,,0,17,17,17,,,,,,,,,,,,,,,,,,,,,,,,,,,,,,,,,,,,,,,,,,,,,,,,,,,,,,,,,,,,,,,,,,,,,,,,,,,,,,,,,,,,,2,1.2595930000534281,207.816992499982,None,ScrollUp,정답입니다,207.816992499982,None,207.816992499982,None,207.816992499982,None,207.816992499982,None,208.96667670004535,None,208.96667670004535,209.46753630007152,,,,,,,,,,,,,,,,129,2022-05-11_12h16.55.893,FishGame,2022.1.1,60.07918436644796,
,19,넌 신경과민이야,5,Orange,A,2.541666666666667,2.166666666666667,ScrollDown,ScrollUp,Orange.png,1,Negative,Incongruent,0,0,0,0,,,,,,,,,,,,,0,18,18,18,,,,,,,,,,,,,,,,,,,,,,,,,,,,,,,,,,,,,,,,,,,,,,,,,,,,,,,,,,,,,,,,,,,,,,,,,,,,,,,,,,,,,1,1.2095085000619292,210.11706479999702,None,ScrollDown,정답입니다,210.11706479999702,None,210.11706479999702,None,210.11706479999702,None,210.11706479999702,None,211.20057410001755,None,211.20057410001755,211.7001768000191,,,,,,,,,,,,,,,,129,2022-05-11_12h16.55.893,FishGame,2022.1.1,60.07918436644796,
,20,넌 편안해,1,Orange,A,5.916666666666666,5.866666666666666,ScrollDown,ScrollUp,Orange.png,1,Positive,Congruent,0,0,0,0,,,,,,,,,,,,,0,19,19,19,,,,,,,,,,,,,,,,,,,,,,,,,,,,,,,,,,,,,,,,,,,,,,,,,,,,,,,,,,,,,,,,,,,,,,,,,,,,,,,,,,,,,1,1.1686430999543518,212.34580750006717,None,ScrollDown,정답입니다,212.34580750006717,None,212.34580750006717,None,212.34580750006717,None,212.34580750006717,None,213.39704960002564,None,213.39704960002564,213.9011518000625,,,,,,,,,,,,,,,,129,2022-05-11_12h16.55.893,FishGame,2022.1.1,60.07918436644796,
,21,넌 품위있어,2,Green,B,5.291666666666666,4.466666666666667,ScrollUp,ScrollDown,Green.png,1,Positive,Incongruent,0,0,0,0,,,,,,,,,,,,,0,20,20,20,,,,,,,,,,,,,,,,,,,,,,,,,,,,,,,,,,,,,,,,,,,,,,,,,,,,,,,,,,,,,,,,,,,,,,,,,,,,,,,,,,,,,2,1.1177788999630138,214.5305548000615,None,ScrollUp,정답입니다,214.5305548000615,None,214.5305548000615,None,214.5305548000615,None,214.5305548000615,None,215.5472763000289,None,215.5472763000289,216.05100990005303,,,,,,,,,,,,,,,,129,2022-05-11_12h16.55.893,FishGame,2022.1.1,60.07918436644796,
,22,넌 빈틈없어,3,Orange,A,4.833333333333333,3.966666666666667,ScrollDown,ScrollUp,Orange.png,1,Neutral,Neutral,0,0,0,0,,,,,,,,,,,,,0,21,21,21,,,,,,,,,,,,,,,,,,,,,,,,,,,,,,,,,,,,,,,,,,,,,,,,,,,,,,,,,,,,,,,,,,,,,,,,,,,,,,,,,,,,,1,1.2194743999280035,216.69732650008518,None,ScrollDown,정답입니다,216.69732650008518,None,216.69732650008518,None,216.69732650008518,None,216.69732650008518,None,217.79744180000853,None,217.79744180000853,218.30102979997173,,,,,,,,,,,,,,,,129,2022-05-11_12h16.55.893,FishGame,2022.1.1,60.07918436644796,
,23,넌 상상력없어,4,Green,B,2.833333333333333,3.133333333333333,ScrollUp,ScrollDown,Green.png,1,Negative,Congruent,0,0,0,0,,,,,,,,,,,,,0,22,22,22,,,,,,,,,,,,,,,,,,,,,,,,,,,,,,,,,,,,,,,,,,,,,,,,,,,,,,,,,,,,,,,,,,,,,,,,,,,,,,,,,,,,,2,1.139469499932602,218.93560440000147,None,ScrollUp,정답입니다,218.93560440000147,None,218.93560440000147,None,218.93560440000147,None,218.93560440000147,None,219.9672590000555,None,219.9672590000555,220.46753670007456,,,,,,,,,,,,,,,,129,2022-05-11_12h16.55.893,FishGame,2022.1.1,60.07918436644796,
,24,넌 지혜로워,2,Green,B,6.333333333333334,4.633333333333334,ScrollUp,ScrollDown,Green.png,1,Positive,Incongruent,0,0,0,0,,,,,,,,,,,,,0,23,23,23,,,,,,,,,,,,,,,,,,,,,,,,,,,,,,,,,,,,,,,,,,,,,,,,,,,,,,,,,,,,,,,,,,,,,,,,,,,,,,,,,,,,,2,1.10568209993653,221.11032330000307,None,ScrollUp,정답입니다,221.11032330000307,None,221.11032330000307,None,221.11032330000307,None,221.11032330000307,None,222.1008456000127,None,222.1008456000127,222.60090469999705,,,,,,,,,,,,,,,,129,2022-05-11_12h16.55.893,FishGame,2022.1.1,60.07918436644796,
,25,넌 시끄러워,4,Orange,A,2.833333333333333,3.033333333333333,ScrollDown,ScrollUp,Orange.png,1,Negative,Incongruent,0,0,0,0,,,,,,,,,,,,,0,24,24,24,,,,,,,,,,,,,,,,,,,,,,,,,,,,,,,,,,,,,,,,,,,,,,,,,,,,,,,,,,,,,,,,,,,,,,,,,,,,,,,,,,,,,1,1.0542093000840396,223.2510031000711,None,ScrollDown,정답입니다,223.2510031000711,None,223.2510031000711,None,223.2510031000711,None,223.2510031000711,None,224.18043170007877,None,224.18043170007877,224.68397190002725,,,,,,,,,,,,,,,,129,2022-05-11_12h16.55.893,FishGame,2022.1.1,60.07918436644796,
,26,넌 만사태평이야,3,Green,B,4,4.333333333333333,ScrollUp,ScrollDown,Green.png,1,Neutral,Neutral,0,0,0,0,,,,,,,,,,,,,0,25,25,25,,,,,,,,,,,,,,,,,,,,,,,,,,,,,,,,,,,,,,,,,,,,,,,,,,,,,,,,,,,,,,,,,,,,,,,,,,,,,,,,,,,,,2,1.1230840999633074,225.32555140007753,None,ScrollUp,정답입니다,225.32555140007753,None,225.32555140007753,None,225.32555140007753,None,225.32555140007753,None,226.3336830000626,None,226.3336830000626,226.8339165999787,,,,,,,,,,,,,,,,129,2022-05-11_12h16.55.893,FishGame,2022.1.1,60.07918436644796,
,27,넌 붙임성있어,1,Orange,A,5.708333333333333,5.633333333333334,ScrollDown,ScrollUp,Orange.png,1,Positive,Congruent,0,0,0,0,,,,,,,,,,,,,0,26,26,26,,,,,,,,,,,,,,,,,,,,,,,,,,,,,,,,,,,,,,,,,,,,,,,,,,,,,,,,,,,,,,,,,,,,,,,,,,,,,,,,,,,,,1,1.1395821999758482,227.47875580005348,None,ScrollDown,정답입니다,227.47875580005348,None,227.47875580005348,None,227.47875580005348,None,227.47875580005348,None,228.4972710000584,None,228.4972710000584,229.0010709000053,,,,,,,,,,,,,,,,129,2022-05-11_12h16.55.893,FishGame,2022.1.1,60.07918436644796,
,28,넌 영리해,2,Orange,A,6,4.033333333333333,ScrollDown,ScrollUp,Orange.png,1,Positive,Congruent,0,0,0,0,,,,,,,,,,,,,0,27,27,27,,,,,,,,,,,,,,,,,,,,,,,,,,,,,,,,,,,,,,,,,,,,,,,,,,,,,,,,,,,,,,,,,,,,,,,,,,,,,,,,,,,,,1,1.0847930999007076,229.63707950001117,None,ScrollDown,정답입니다,229.63707950001117,None,229.63707950001117,None,229.63707950001117,None,229.63707950001117,None,230.61385760002304,None,230.61385760002304,231.11824450001586,,,,,,,,,,,,,,,,129,2022-05-11_12h16.55.893,FishGame,2022.1.1,60.07918436644796,
,29,넌 열심이야,1,Green,B,6.041666666666667,5.833333333333333,ScrollUp,ScrollDown,Green.png,1,Positive,Incongruent,0,0,0,0,,,,,,,,,,,,,0,28,28,28,,,,,,,,,,,,,,,,,,,,,,,,,,,,,,,,,,,,,,,,,,,,,,,,,,,,,,,,,,,,,,,,,,,,,,,,,,,,,,,,,,,,,2,1.0220722999656573,231.74898180004675,None,ScrollUp,정답입니다,231.74898180004675,None,231.74898180004675,None,231.74898180004675,None,231.74898180004675,None,232.6674591000192,None,232.6674591000192,233.1675940999994,,,,,,,,,,,,,,,,129,2022-05-11_12h16.55.893,FishGame,2022.1.1,60.07918436644796,
,30,넌 인기없어,4,Green,B,3,3.3,ScrollUp,ScrollDown,Green.png,1,Negative,Congruent,0,0,0,0,,,,,,,,,,,,,0,29,29,29,,,,,,,,,,,,,,,,,,,,,,,,,,,,,,,,,,,,,,,,,,,,,,,,,,,,,,,,,,,,,,,,,,,,,,,,,,,,,,,,,,,,,2,1.0373627999797463,233.79915940004867,None,ScrollUp,정답입니다,233.79915940004867,None,233.79915940004867,None,233.79915940004867,None,233.79915940004867,None,234.73078220000025,None,234.73078220000025,235.23396270000376,,,,,,,,,,,,,,,,129,2022-05-11_12h16.55.893,FishGame,2022.1.1,60.07918436644796,
,31,넌 익살스러워,3,Orange,A,4.708333333333334,4.833333333333333,ScrollDown,ScrollUp,Orange.png,1,Neutral,Neutral,0,0,0,0,,,,,,,,,,,,,0,30,30,30,,,,,,,,,,,,,,,,,,,,,,,,,,,,,,,,,,,,,,,,,,,,,,,,,,,,,,,,,,,,,,,,,,,,,,,,,,,,,,,,,,,,,1,0.990648900042288,235.8818642999977,None,ScrollDown,정답입니다,235.8818642999977,None,235.8818642999977,None,235.8818642999977,None,235.8818642999977,None,236.75128780002706,None,236.75128780002706,237.2513821000466,,,,,,,,,,,,,,,,129,2022-05-11_12h16.55.893,FishGame,2022.1.1,60.07918436644796,
,32,넌 이기적이야,5,Green,B,2.291666666666667,2.333333333333333,ScrollUp,ScrollDown,Green.png,1,Negative,Congruent,0,0,0,0,,,,,,,,,,,,,0,31,31,31,,,,,,,,,,,,,,,,,,,,,,,,,,,,,,,,,,,,,,,,,,,,,,,,,,,,,,,,,,,,,,,,,,,,,,,,,,,,,,,,,,,,,2,1.0167045999551192,237.8822120000841,None,ScrollUp,정답입니다,237.8822120000841,None,237.8822120000841,None,237.8822120000841,None,237.8822120000841,None,238.78948000003584,None,238.78948000003584,239.30118730000686,,,,,,,,,,,,,,,,129,2022-05-11_12h16.55.893,FishGame,2022.1.1,60.07918436644796,
,33,나를 데려가줘,6,Green,B,0,0,ScrollDown,ScrollUp,Green.png,1,NonTarget,NonTarget,0,0,0,0,,,,,,,,,,,,,0,32,32,32,,,,,,,,,,,,,,,,,,,,,,,,,,,,,,,,,,,,,,,,,,,,,,,,,,,,,,,,,,,,,,,,,,,,,,,,,,,,,,,,,,,,,1,1.759898200049065,239.93180869997013,None,ScrollDown,정답입니다,239.93180869997013,None,239.93180869997013,None,239.93180869997013,None,239.93180869997013,None,241.5843021000037,None,241.5843021000037,242.08428509999067,,,,,,,,,,,,,,,,129,2022-05-11_12h16.55.893,FishGame,2022.1.1,60.07918436644796,
,34,넌 기회주의자야,5,Orange,A,2.875,2.133333333333333,ScrollDown,ScrollUp,Orange.png,1,Negative,Incongruent,0,0,0,0,,,,,,,,,,,,,0,33,33,33,,,,,,,,,,,,,,,,,,,,,,,,,,,,,,,,,,,,,,,,,,,,,,,,,,,,,,,,,,,,,,,,,,,,,,,,,,,,,,,,,,,,,1,0.9733151000691578,242.73085669998545,None,ScrollDown,정답입니다,242.73085669998545,None,242.73085669998545,None,242.73085669998545,None,242.73085669998545,None,243.58433840004727,None,243.58433840004727,244.08417649997864,,,,,,,,,,,,,,,,129,2022-05-11_12h16.55.893,FishGame,2022.1.1,60.07918436644796,
,1,넌 미성숙해,4,Orange,A,3,3.2,ScrollDown,ScrollUp,Orange.png,2,Negative,Incongruent,0,0,0,0,,,,,,,,,,,,,,,,,0,0,0,0,,,,,,,,,,,,,,,,,,,,,,,,,,,,,,,,,,,,,,,,275.7352595999837,277.2357501999941,277.2688997000223,278.2189596000826,278.2690113000572,279.218804400065,279.218804400065,None,,,,,,,,,,,,,,,,,,,,,,,,,,,,,,,,,,1,1.189849599963054,280.37140260008164,None,ScrollDown,정답입니다,280.37140260008164,None,280.37140260008164,None,280.37140260008164,None,280.37140260008164,None,281.4016335000051,None,281.4016335000051,281.90203690005,244.58467140002176,None,244.58467140002176,None,-0.15648147,-0.10092592,1,0,0,0.01620952016673982,None,274.58559670008253,None,,,129,2022-05-11_12h16.55.893,FishGame,2022.1.1,60.07918436644796,
,2,넌 반사회적이야,5,Green,B,2.416666666666667,2.033333333333333,ScrollUp,ScrollDown,Green.png,2,Negative,Congruent,0,0,0,0,,,,,,,,,,,,,,,,,0,1,1,1,,,,,,,,,,,,,,,,,,,,,,,,,,,,,,,,,,,,,,,,,,,,,,,,,,,,,,,,,,,,,,,,,,,,,,,,,,,,,,,,,2,1.1495845000026748,282.5388680000324,None,ScrollUp,정답입니다,282.5388680000324,None,282.5388680000324,None,282.5388680000324,None,282.5388680000324,None,283.5735208999831,None,283.5735208999831,284.08547990000807,,,,,,,,,,,,,,,,129,2022-05-11_12h16.55.893,FishGame,2022.1.1,60.07918436644796,
,3,넌 유능해,2,Orange,A,6.208333333333333,4.433333333333334,ScrollDown,ScrollUp,Orange.png,2,Positive,Congruent,0,0,0,0,,,,,,,,,,,,,,,,,0,2,2,2,,,,,,,,,,,,,,,,,,,,,,,,,,,,,,,,,,,,,,,,,,,,,,,,,,,,,,,,,,,,,,,,,,,,,,,,,,,,,,,,,1,1.0526249000104144,284.72506049997173,None,ScrollDown,정답입니다,284.72506049997173,None,284.72506049997173,None,284.72506049997173,None,284.72506049997173,None,285.66561060003005,None,285.66561060003005,286.16939579998143,,,,,,,,,,,,,,,,129,2022-05-11_12h16.55.893,FishGame,2022.1.1,60.07918436644796,
,4,넌 능숙해,2,Green,B,5.666666666666667,4.733333333333333,ScrollUp,ScrollDown,Green.png,2,Positive,Incongruent,0,0,0,0,,,,,,,,,,,,,,,,,0,3,3,3,,,,,,,,,,,,,,,,,,,,,,,,,,,,,,,,,,,,,,,,,,,,,,,,,,,,,,,,,,,,,,,,,,,,,,,,,,,,,,,,,2,1.0240531000308692,286.79725240007974,None,ScrollUp,정답입니다,286.79725240007974,None,286.79725240007974,None,286.79725240007974,None,286.79725240007974,None,287.71892870008014,None,287.71892870008014,288.21870690002106,,,,,,,,,,,,,,,,129,2022-05-11_12h16.55.893,FishGame,2022.1.1,60.07918436644796,
,5,넌 진부해,4,Green,B,2.458333333333333,3.166666666666667,ScrollUp,ScrollDown,Green.png,2,Negative,Congruent,0,0,0,0,,,,,,,,,,,,,,,,,0,4,4,4,,,,,,,,,,,,,,,,,,,,,,,,,,,,,,,,,,,,,,,,,,,,,,,,,,,,,,,,,,,,,,,,,,,,,,,,,,,,,,,,,2,0.9825157000450417,288.85376650001854,None,ScrollUp,정답입니다,288.85376650001854,None,288.85376650001854,None,288.85376650001854,None,288.85376650001854,None,289.7237191000022,None,289.7237191000022,290.23533270007465,,,,,,,,,,,,,,,,129,2022-05-11_12h16.55.893,FishGame,2022.1.1,60.07918436644796,
,6,나를 보내줘,6,Orange,A,0,0,ScrollUp,ScrollDown,Orange.png,2,NonTarget,NonTarget,0,0,0,0,,,,,,,,,,,,,,,,,0,5,5,5,,,,,,,,,,,,,,,,,,,,,,,,,,,,,,,,,,,,,,,,,,,,,,,,,,,,,,,,,,,,,,,,,,,,,,,,,,,,,,,,,2,1.1436736999312416,290.8670975000132,None,ScrollUp,정답입니다,290.8670975000132,None,290.8670975000132,None,290.8670975000132,None,290.8670975000132,None,291.9019372999901,None,291.9019372999901,292.401818000013,,,,,,,,,,,,,,,,129,2022-05-11_12h16.55.893,FishGame,2022.1.1,60.07918436644796,
,7,넌 엄격해,3,Orange,A,4.166666666666666,4.1,ScrollDown,ScrollUp,Orange.png,2,Neutral,Neutral,0,0,0,0,,,,,,,,,,,,,,,,,0,6,6,6,,,,,,,,,,,,,,,,,,,,,,,,,,,,,,,,,,,,,,,,,,,,,,,,,,,,,,,,,,,,,,,,,,,,,,,,,,,,,,,,,1.410493828356266,1.1692962000379339,293.0473508000141,None,ScrollDown,정답입니다,293.0473508000141,None,293.0473508000141,None,293.0473508000141,None,293.0473508000141,None,294.09879890002776,None,294.09879890002776,294.60198689997196,,,,,,,,,,,,,,,,129,2022-05-11_12h16.55.893,FishGame,2022.1.1,60.07918436644796,
,8,나를 보내줘,6,Orange,A,0,0,ScrollUp,ScrollDown,Orange.png,2,NonTarget,NonTarget,0,0,0,0,,,,,,,,,,,,,,,,,0,7,7,7,,,,,,,,,,,,,,,,,,,,,,,,,,,,,,,,,,,,,,,,,,,,,,,,,,,,,,,,,,,,,,,,,,,,,,,,,,,,,,,,,1.9290123283863068,1.0924190999940038,295.23721340007614,None,ScrollUp,정답입니다,295.23721340007614,None,295.23721340007614,None,295.23721340007614,None,295.23721340007614,None,296.218831300037,None,296.218831300037,296.7192057999782,,,,,,,,,,,,,,,,129,2022-05-11_12h16.55.893,FishGame,2022.1.1,60.07918436644796,
,9,넌 대담해,3,Green,B,4.875,4.866666666666666,ScrollUp,ScrollDown,Green.png,2,Neutral,Neutral,0,0,0,0,,,,,,,,,,,,,,,,,0,8,8,8,,,,,,,,,,,,,,,,,,,,,,,,,,,,,,,,,,,,,,,,,,,,,,,,,,,,,,,,,,,,,,,,,,,,,,,,,,,,,,,,,2,1.3658753999043256,297.3586951000616,None,ScrollUp,정답입니다,297.3586951000616,None,297.3586951000616,None,297.3586951000616,None,297.3586951000616,None,298.6076511000283,None,298.6076511000283,299.1188710000133,,,,,,,,,,,,,,,,129,2022-05-11_12h16.55.893,FishGame,2022.1.1,60.07918436644796,
,10,넌 꾸준해,1,Orange,A,5.916666666666668,5.8,ScrollDown,ScrollUp,Orange.png,2,Positive,Congruent,0,0,0,0,,,,,,,,,,,,,,,,,0,9,9,9,,,,,,,,,,,,,,,,,,,,,,,,,,,,,,,,,,,,,,,,,,,,,,,,,,,,,,,,,,,,,,,,,,,,,,,,,,,,,,,,,1,0.9554673000238836,299.75911460001953,None,ScrollDown,정답입니다,299.75911460001953,None,299.75911460001953,None,299.75911460001953,None,299.75911460001953,None,300.59909849998076,None,300.59909849998076,301.10209509998094,,,,,,,,,,,,,,,,129,2022-05-11_12h16.55.893,FishGame,2022.1.1,60.07918436644796,
,11,나를 데려가줘,6,Green,B,0,0,ScrollDown,ScrollUp,Green.png,2,NonTarget,NonTarget,0,0,0,0,,,,,,,,,,,,,,,,,0,10,10,10,,,,,,,,,,,,,,,,,,,,,,,,,,,,,,,,,,,,,,,,,,,,,,,,,,,,,,,,,,,,,,,,,,,,,,,,,,,,,,,,,1,1.1831611000234261,301.7340988999931,None,ScrollDown,정답입니다,301.7340988999931,None,301.7340988999931,None,301.7340988999931,None,301.7340988999931,None,302.8081449000165,None,302.8081449000165,303.3195010999916,,,,,,,,,,,,,,,,129,2022-05-11_12h16.55.893,FishGame,2022.1.1,60.07918436644796,
,12,넌 독선적이야,5,Orange,A,2.458333333333333,1.933333333333333,ScrollDown,ScrollUp,Orange.png,2,Negative,Incongruent,0,0,0,0,,,,,,,,,,,,,,,,,0,11,11,11,,,,,,,,,,,,,,,,,,,,,,,,,,,,,,,,,,,,,,,,,,,,,,,,,,,,,,,,,,,,,,,,,,,,,,,,,,,,,,,,,1,1.0680549999233335,303.9662116999971,None,ScrollDown,정답입니다,303.9662116999971,None,303.9662116999971,None,303.9662116999971,None,303.9662116999971,None,304.90752850007266,None,304.90752850007266,305.41971350007225,,,,,,,,,,,,,,,,129,2022-05-11_12h16.55.893,FishGame,2022.1.1,60.07918436644796,
,13,나를 보내줘,6,Orange,A,0,0,ScrollUp,ScrollDown,Orange.png,2,NonTarget,NonTarget,0,0,0,0,,,,,,,,,,,,,,,,,0,12,12,12,,,,,,,,,,,,,,,,,,,,,,,,,,,,,,,,,,,,,,,,,,,,,,,,,,,,,,,,,,,,,,,,,,,,,,,,,,,,,,,,,1.9691357910633087,1.0511584000196308,306.0527562000789,None,ScrollUp,정답입니다,306.0527562000789,None,306.0527562000789,None,306.0527562000789,None,306.0527562000789,None,306.99072510004044,None,306.99072510004044,307.5026476000203,,,,,,,,,,,,,,,,129,2022-05-11_12h16.55.893,FishGame,2022.1.1,60.07918436644796,
,14,넌 책임감있어,1,Green,B,6.347826086956522,6,ScrollUp,ScrollDown,Green.png,2,Positive,Incongruent,0,0,0,0,,,,,,,,,,,,,,,,,0,13,13,13,,,,,,,,,,,,,,,,,,,,,,,,,,,,,,,,,,,,,,,,,,,,,,,,,,,,,,,,,,,,,,,,,,,,,,,,,,,,,,,,,2,1.306332999956794,308.1419892000267,None,ScrollUp,정답입니다,308.1419892000267,None,308.1419892000267,None,308.1419892000267,None,308.1419892000267,None,309.33557200001087,None,309.33557200001087,309.83579769998323,,,,,,,,,,,,,,,,129,2022-05-11_12h16.55.893,FishGame,2022.1.1,60.07918436644796,
,15,넌 문학적이야,3,Orange,A,4.708333333333334,4.333333333333333,ScrollDown,ScrollUp,Orange.png,2,Neutral,Neutral,0,0,0,0,,,,,,,,,,,,,,,,,0,14,14,14,,,,,,,,,,,,,,,,,,,,,,,,,,,,,,,,,,,,,,,,,,,,,,,,,,,,,,,,,,,,,,,,,,,,,,,,,,,,,,,,,1,0.9360409999499097,310.4776425000746,None,ScrollDown,정답입니다,310.4776425000746,None,310.4776425000746,None,310.4776425000746,None,310.4776425000746,None,311.29919100005645,None,311.29919100005645,311.80254180007614,,,,,,,,,,,,,,,,129,2022-05-11_12h16.55.893,FishGame,2022.1.1,60.07918436644796,
,16,넌 재미있어,1,Green,B,5.875,5.7,ScrollUp,ScrollDown,Green.png,2,Positive,Incongruent,0,0,0,0,,,,,,,,,,,,,,,,,0,15,15,15,,,,,,,,,,,,,,,,,,,,,,,,,,,,,,,,,,,,,,,,,,,,,,,,,,,,,,,,,,,,,,,,,,,,,,,,,,,,,,,,,2,0.9705019000684842,312.433224300039,None,ScrollUp,정답입니다,312.433224300039,None,312.433224300039,None,312.433224300039,None,312.433224300039,None,313.2988506000256,None,313.2988506000256,313.80257080006413,,,,,,,,,,,,,,,,129,2022-05-11_12h16.55.893,FishGame,2022.1.1,60.07918436644796,
,17,나를 데려가줘,6,Green,B,0,0,ScrollDown,ScrollUp,Green.png,2,NonTarget,NonTarget,0,0,0,0,,,,,,,,,,,,,,,,,0,16,16,16,,,,,,,,,,,,,,,,,,,,,,,,,,,,,,,,,,,,,,,,,,,,,,,,,,,,,,,,,,,,,,,,,,,,,,,,,,,,,,,,,1,1.1993727999506518,314.4321376000298,None,ScrollDown,정답입니다,314.4321376000298,None,314.4321376000298,None,314.4321376000298,None,314.4321376000298,None,315.52493080007844,None,315.52493080007844,316.03620810003486,,,,,,,,,,,,,,,,129,2022-05-11_12h16.55.893,FishGame,2022.1.1,60.07918436644796,
,18,넌 협력적이야,1,Orange,A,5.625,5.633333333333334,ScrollDown,ScrollUp,Orange.png,2,Positive,Congruent,0,0,0,0,,,,,,,,,,,,,,,,,0,17,17,17,,,,,,,,,,,,,,,,,,,,,,,,,,,,,,,,,,,,,,,,,,,,,,,,,,,,,,,,,,,,,,,,,,,,,,,,,,,,,,,,,1,0.9723494999343529,316.6796713999938,None,ScrollDown,정답입니다,316.6796713999938,None,316.6796713999938,None,316.6796713999938,None,316.6796713999938,None,317.5359282999998,None,317.5359282999998,318.0359977000626,,,,,,,,,,,,,,,,129,2022-05-11_12h16.55.893,FishGame,2022.1.1,60.07918436644796,
,19,넌 평범해,3,Green,B,4.333333333333332,4.233333333333333,ScrollUp,ScrollDown,Green.png,2,Neutral,Neutral,0,0,0,0,,,,,,,,,,,,,,,,,0,18,18,18,,,,,,,,,,,,,,,,,,,,,,,,,,,,,,,,,,,,,,,,,,,,,,,,,,,,,,,,,,,,,,,,,,,,,,,,,,,,,,,,,2,1.00659949996043,318.6745536000235,None,ScrollUp,정답입니다,318.6745536000235,None,318.6745536000235,None,318.6745536000235,None,318.6745536000235,None,319.56981200003065,None,319.56981200003065,320.06926480005495,,,,,,,,,,,,,,,,129,2022-05-11_12h16.55.893,FishGame,2022.1.1,60.07918436644796,
,20,넌 오만해,5,Orange,A,2.333333333333333,2,ScrollDown,ScrollUp,Orange.png,2,Negative,Incongruent,0,0,0,0,,,,,,,,,,,,,,,,,0,19,19,19,,,,,,,,,,,,,,,,,,,,,,,,,,,,,,,,,,,,,,,,,,,,,,,,,,,,,,,,,,,,,,,,,,,,,,,,,,,,,,,,,1,1.0727873001014814,320.71243409998715,None,ScrollDown,정답입니다,320.71243409998715,None,320.71243409998715,None,320.71243409998715,None,320.71243409998715,None,321.670008599991,None,321.670008599991,322.1697879000567,,,,,,,,,,,,,,,,129,2022-05-11_12h16.55.893,FishGame,2022.1.1,60.07918436644796,
,21,넌 운이없어,4,Green,B,3,3.466666666666667,ScrollUp,ScrollDown,Green.png,2,Negative,Congruent,0,0,0,0,,,,,,,,,,,,,,,,,0,20,20,20,,,,,,,,,,,,,,,,,,,,,,,,,,,,,,,,,,,,,,,,,,,,,,,,,,,,,,,,,,,,,,,,,,,,,,,,,,,,,,,,,2,0.9095250000245869,322.807997200056,None,ScrollUp,정답입니다,322.807997200056,None,322.807997200056,None,322.807997200056,None,322.807997200056,None,323.60266269999556,None,323.60266269999556,324.1025676999707,,,,,,,,,,,,,,,,129,2022-05-11_12h16.55.893,FishGame,2022.1.1,60.07918436644796,
,22,넌 창조적이야,2,Green,B,6.125,4.633333333333334,ScrollUp,ScrollDown,Green.png,2,Positive,Incongruent,0,0,0,0,,,,,,,,,,,,,,,,,0,21,21,21,,,,,,,,,,,,,,,,,,,,,,,,,,,,,,,,,,,,,,,,,,,,,,,,,,,,,,,,,,,,,,,,,,,,,,,,,,,,,,,,,2,1.0122160000028089,324.74274290003814,None,ScrollUp,정답입니다,324.74274290003814,None,324.74274290003814,None,324.74274290003814,None,324.74274290003814,None,325.6408245000057,None,325.6408245000057,326.153242600034,,,,,,,,,,,,,,,,129,2022-05-11_12h16.55.893,FishGame,2022.1.1,60.07918436644796,
,23,나를 보내줘,6,Orange,A,0,0,ScrollUp,ScrollDown,Orange.png,2,NonTarget,NonTarget,0,0,0,0,,,,,,,,,,,,,,,,,0,22,22,22,,,,,,,,,,,,,,,,,,,,,,,,,,,,,,,,,,,,,,,,,,,,,,,,,,,,,,,,,,,,,,,,,,,,,,,,,,,,,,,,,2,1.0426853999961168,326.78519389999565,None,ScrollUp,정답입니다,326.78519389999565,None,326.78519389999565,None,326.78519389999565,None,326.78519389999565,None,327.72008520003874,None,327.72008520003874,328.22028490004595,,,,,,,,,,,,,,,,129,2022-05-11_12h16.55.893,FishGame,2022.1.1,60.07918436644796,
,24,넌 통찰력있어,2,Orange,A,6.5,4.8,ScrollDown,ScrollUp,Orange.png,2,Positive,Congruent,0,0,0,0,,,,,,,,,,,,,,,,,0,23,23,23,,,,,,,,,,,,,,,,,,,,,,,,,,,,,,,,,,,,,,,,,,,,,,,,,,,,,,,,,,,,,,,,,,,,,,,,,,,,,,,,,2,1.3180549000389874,328.8594568000408,None,ScrollUp,오답입니다,328.8594568000408,None,328.8594568000408,None,328.8594568000408,None,328.8594568000408,None,330.0598969999701,None,330.0598969999701,330.56980659998953,,,,,,,,,,,,,,,,129,2022-05-11_12h16.55.893,FishGame,2022.1.1,60.07918436644796,
,25,넌 경솔해,5,Green,B,2.458333333333333,2.266666666666667,ScrollUp,ScrollDown,Green.png,2,Negative,Congruent,0,0,0,0,,,,,,,,,,,,,,,,,0,24,24,24,,,,,,,,,,,,,,,,,,,,,,,,,,,,,,,,,,,,,,,,,,,,,,,,,,,,,,,,,,,,,,,,,,,,,,,,,,,,,,,,,2,1.5734755001030862,331.203920800006,None,ScrollUp,정답입니다,331.203920800006,None,331.203920800006,None,331.203920800006,None,331.203920800006,None,332.66947980003897,None,332.66947980003897,333.16992570005823,,,,,,,,,,,,,,,,129,2022-05-11_12h16.55.893,FishGame,2022.1.1,60.07918436644796,
,26,넌 초조해,4,Orange,A,2.916666666666667,3.133333333333333,ScrollDown,ScrollUp,Orange.png,2,Negative,Incongruent,0,0,0,0,,,,,,,,,,,,,,,,,0,25,25,25,,,,,,,,,,,,,,,,,,,,,,,,,,,,,,,,,,,,,,,,,,,,,,,,,,,,,,,,,,,,,,,,,,,,,,,,,,,,,,,,,1,0.8793391999788582,333.8099916999927,None,ScrollDown,정답입니다,333.8099916999927,None,333.8099916999927,None,333.8099916999927,None,333.8099916999927,None,334.5740847000852,None,334.5740847000852,335.0870699000079,,,,,,,,,,,,,,,,129,2022-05-11_12h16.55.893,FishGame,2022.1.1,60.07918436644796,
,27,넌 무관심해,4,Green,B,2.833333333333333,2.9,ScrollUp,ScrollDown,Green.png,2,Negative,Congruent,0,0,0,0,,,,,,,,,,,,,,,,,0,26,26,26,,,,,,,,,,,,,,,,,,,,,,,,,,,,,,,,,,,,,,,,,,,,,,,,,,,,,,,,,,,,,,,,,,,,,,,,,,,,,,,,,2,1.0083691000472754,335.718127500033,None,ScrollUp,정답입니다,335.718127500033,None,335.718127500033,None,335.718127500033,None,335.718127500033,None,336.6197252999991,None,336.6197252999991,337.1205916000763,,,,,,,,,,,,,,,,129,2022-05-11_12h16.55.893,FishGame,2022.1.1,60.07918436644796,
,28,넌 감성적이야,3,Green,B,4.125,4.166666666666667,ScrollUp,ScrollDown,Green.png,2,Neutral,Neutral,0,0,0,0,,,,,,,,,,,,,,,,,0,27,27,27,,,,,,,,,,,,,,,,,,,,,,,,,,,,,,,,,,,,,,,,,,,,,,,,,,,,,,,,,,,,,,,,,,,,,,,,,,,,,,,,,2,1.0602878000354394,337.74783050001133,None,ScrollUp,정답입니다,337.74783050001133,None,337.74783050001133,None,337.74783050001133,None,337.74783050001133,None,338.70548970007803,None,338.70548970007803,339.2207125000423,,,,,,,,,,,,,,,,129,2022-05-11_12h16.55.893,FishGame,2022.1.1,60.07918436644796,
,29,넌 배려심있어,1,Orange,A,6.083333333333333,5.5,ScrollDown,ScrollUp,Orange.png,2,Positive,Congruent,0,0,0,0,,,,,,,,,,,,,,,,,0,28,28,28,,,,,,,,,,,,,,,,,,,,,,,,,,,,,,,,,,,,,,,,,,,,,,,,,,,,,,,,,,,,,,,,,,,,,,,,,,,,,,,,,1,1.0013462000060827,339.8582809000509,None,ScrollDown,정답입니다,339.8582809000509,None,339.8582809000509,None,339.8582809000509,None,339.8582809000509,None,340.7414726000279,None,340.7414726000279,341.25306760007516,,,,,,,,,,,,,,,,129,2022-05-11_12h16.55.893,FishGame,2022.1.1,60.07918436644796,
,30,넌 숨김없어,3,Orange,A,4.5,4.933333333333334,ScrollDown,ScrollUp,Orange.png,2,Neutral,Neutral,0,0,0,0,,,,,,,,,,,,,,,,,0,29,29,29,,,,,,,,,,,,,,,,,,,,,,,,,,,,,,,,,,,,,,,,,,,,,,,,,,,,,,,,,,,,,,,,,,,,,,,,,,,,,,,,,1,1.307794600026682,341.8977420000592,None,ScrollDown,정답입니다,341.8977420000592,None,341.8977420000592,None,341.8977420000592,None,341.8977420000592,None,343.0867465999909,None,343.0867465999909,343.5864161000354,,,,,,,,,,,,,,,,129,2022-05-11_12h16.55.893,FishGame,2022.1.1,60.07918436644796,
,31,넌 훌륭해,2,Green,B,5.916666666666667,4.033333333333333,ScrollUp,ScrollDown,Green.png,2,Positive,Incongruent,0,0,0,0,,,,,,,,,,,,,,,,,0,30,30,30,,,,,,,,,,,,,,,,,,,,,,,,,,,,,,,,,,,,,,,,,,,,,,,,,,,,,,,,,,,,,,,,,,,,,,,,,,,,,,,,,2,1.512579599977471,344.2216057999758,None,ScrollUp,정답입니다,344.2216057999758,None,344.2216057999758,None,344.2216057999758,None,344.2216057999758,None,345.6253134000581,None,345.6253134000581,346.13700400001835,,,,,,,,,,,,,,,,129,2022-05-11_12h16.55.893,FishGame,2022.1.1,60.07918436644796,
,32,넌 슬기로워,2,Orange,A,6.166666666666667,4.1,ScrollDown,ScrollUp,Orange.png,2,Positive,Congruent,0,0,0,0,,,,,,,,,,,,,,,,,0,31,31,31,,,,,,,,,,,,,,,,,,,,,,,,,,,,,,,,,,,,,,,,,,,,,,,,,,,,,,,,,,,,,,,,,,,,,,,,,,,,,,,,,1,0.9104427000274882,346.7723615000723,None,ScrollDown,정답입니다,346.7723615000723,None,346.7723615000723,None,346.7723615000723,None,346.7723615000723,None,347.5697400000645,None,347.5697400000645,348.0702367000049,,,,,,,,,,,,,,,,129,2022-05-11_12h16.55.893,FishGame,2022.1.1,60.07918436644796,
,33,넌 냉혹해,5,Orange,A,2.583333333333333,2.1,ScrollDown,ScrollUp,Orange.png,2,Negative,Incongruent,0,0,0,0,,,,,,,,,,,,,,,,,0,32,32,32,,,,,,,,,,,,,,,,,,,,,,,,,,,,,,,,,,,,,,,,,,,,,,,,,,,,,,,,,,,,,,,,,,,,,,,,,,,,,,,,,1,0.8569600000046194,348.71280850004405,None,ScrollDown,정답입니다,348.71280850004405,None,348.71280850004405,None,348.71280850004405,None,348.71280850004405,None,349.4533328000689,None,349.4533328000689,349.953801900032,,,,,,,,,,,,,,,,129,2022-05-11_12h16.55.893,FishGame,2022.1.1,60.07918436644796,
,34,나를 데려가줘,6,Green,B,0,0,ScrollDown,ScrollUp,Green.png,2,NonTarget,NonTarget,0,0,0,0,,,,,,,,,,,,,,,,,0,33,33,33,,,,,,,,,,,,,,,,,,,,,,,,,,,,,,,,,,,,,,,,,,,,,,,,,,,,,,,,,,,,,,,,,,,,,,,,,,,,,,,,,1,1.0093185999430716,350.5859201999847,None,ScrollDown,정답입니다,350.5859201999847,None,350.5859201999847,None,350.5859201999847,None,350.5859201999847,None,351.4872495000018,None,351.4872495000018,351.9870906000724,,,,,,,,,,,,,,,,129,2022-05-11_12h16.55.893,FishGame,2022.1.1,60.07918436644796,
,35,넌 편파적이야,5,Green,B,2.125,2,ScrollUp,ScrollDown,Green.png,2,Negative,Congruent,0,0,0,0,,,,,,,,,,,,,,,,,0,34,34,34,,,,,,,,,,,,,,,,,,,,,,,,,,,,,,,,,,,,,,,,,,,,,,,,,,,,,,,,,,,,,,,,,,,,,,,,,,,,,,,,,2,0.9755373999942094,352.6234074999811,None,ScrollUp,정답입니다,352.6234074999811,None,352.6234074999811,None,352.6234074999811,None,352.6234074999811,None,353.4868999000173,None,353.4868999000173,353.98684959998354,,,,,,,,,,,,,,,,129,2022-05-11_12h16.55.893,FishGame,2022.1.1,60.07918436644796,
,36,넌 슬퍼,4,Orange,A,2.583333333333333,3.066666666666667,ScrollDown,ScrollUp,Orange.png,2,Negative,Incongruent,0,0,0,0,,,,,,,,,,,,,,,,,0,35,35,35,,,,,,,,,,,,,,,,,,,,,,,,,,,,,,,,,,,,,,,,,,,,,,,,,,,,,,,,,,,,,,,,,,,,,,,,,,,,,,,,,1,0.9599612000165507,354.62132260005455,None,ScrollDown,정답입니다,354.62132260005455,None,354.62132260005455,None,354.62132260005455,None,354.62132260005455,None,355.4699979000725,None,355.4699979000725,355.97078109998256,,,,,,,,,,,,,,,,129,2022-05-11_12h16.55.893,FishGame,2022.1.1,60.07918436644796,
,37,나를 데려가줘,6,Green,B,0,0,ScrollDown,ScrollUp,Green.png,2,NonTarget,NonTarget,0,0,0,0,,,,,,,,,,,,,,,,,0,36,36,36,,,,,,,,,,,,,,,,,,,,,,,,,,,,,,,,,,,,,,,,,,,,,,,,,,,,,,,,,,,,,,,,,,,,,,,,,,,,,,,,,1,1.2724875999847427,356.6017759999959,None,ScrollDown,정답입니다,356.6017759999959,None,356.6017759999959,None,356.6017759999959,None,356.6017759999959,None,357.770334300003,None,357.770334300003,358.27026869996917,,,,,,,,,,,,,,,,129,2022-05-11_12h16.55.893,FishGame,2022.1.1,60.07918436644796,
,38,넌 친절해,1,Green,B,6.041666666666667,5.533333333333333,ScrollUp,ScrollDown,Green.png,2,Positive,Incongruent,0,0,0,0,,,,,,,,,,,,,,,,,0,37,37,37,,,,,,,,,,,,,,,,,,,,,,,,,,,,,,,,,,,,,,,,,,,,,,,,,,,,,,,,,,,,,,,,,,,,,,,,,,,,,,,,,2,1.2923077000305057,358.91003560007084,None,ScrollUp,정답입니다,358.91003560007084,None,358.91003560007084,None,358.91003560007084,None,358.91003560007084,None,360.08680509997066,None,360.08680509997066,360.5873807000462,,,,,,,,,,,,,,,,129,2022-05-11_12h16.55.893,FishGame,2022.1.1,60.07918436644796,
,1,넌 엉성해,4,Orange,A,3,3.3,ScrollDown,ScrollUp,Orange.png,3,Negative,Incongruent,0,0,0,0,,,,,,,,,,,,,,,,,,,,,0,0,0,0,,,,,,,,,,,,,,,,,,,,,,,,,,,,,,,,,,,,392.82242330000736,394.33843380003236,394.35442160000093,395.30465870001353,395.3546024999814,396.3050922000548,396.3050922000548,None,,,,,,,,,,,,,,,,,,,,,,,,,,,,,,,,,,1,1.2900204999605194,397.4616404999979,None,ScrollDown,정답입니다,397.4616404999979,None,397.4616404999979,None,397.4616404999979,None,397.4616404999979,None,398.58825610007625,None,398.58825610007625,399.0878916999791,361.08711590000894,None,361.08711590000894,None,-0.17037037,-0.107407406,1,0,0,0.01595042005646974,None,391.08776939997915,None,,,129,2022-05-11_12h16.55.893,FishGame,2022.1.1,60.07918436644796,
,2,나를 보내줘,6,Orange,A,0,0,ScrollUp,ScrollDown,Orange.png,3,NonTarget,NonTarget,0,0,0,0,,,,,,,,,,,,,,,,,,,,,0,1,1,1,,,,,,,,,,,,,,,,,,,,,,,,,,,,,,,,,,,,,,,,,,,,,,,,,,,,,,,,,,,,,,,,,,,,,,,,,,,,,2,1.1066698000067845,399.7239237000467,None,ScrollUp,정답입니다,399.7239237000467,None,399.7239237000467,None,399.7239237000467,None,399.7239237000467,None,400.7212837000843,None,400.7212837000843,401.2218622000655,,,,,,,,,,,,,,,,129,2022-05-11_12h16.55.893,FishGame,2022.1.1,60.07918436644796,
,3,넌 활발해,1,Green,B,5.666666666666667,5.6,ScrollUp,ScrollDown,Green.png,3,Positive,Incongruent,0,0,0,0,,,,,,,,,,,,,,,,,,,,,0,2,2,2,,,,,,,,,,,,,,,,,,,,,,,,,,,,,,,,,,,,,,,,,,,,,,,,,,,,,,,,,,,,,,,,,,,,,,,,,,,,,2,1.5115710999816656,401.8679283000529,None,ScrollUp,정답입니다,401.8679283000529,None,401.8679283000529,None,401.8679283000529,None,401.8679283000529,None,403.25881130003836,None,403.25881130003836,403.7717954000691,,,,,,,,,,,,,,,,129,2022-05-11_12h16.55.893,FishGame,2022.1.1,60.07918436644796,
,4,넌 논리적이야,2,Orange,A,5.666666666666666,4.633333333333334,ScrollDown,ScrollUp,Orange.png,3,Positive,Congruent,0,0,0,0,,,,,,,,,,,,,,,,,,,,,0,3,3,3,,,,,,,,,,,,,,,,,,,,,,,,,,,,,,,,,,,,,,,,,,,,,,,,,,,,,,,,,,,,,,,,,,,,,,,,,,,,,1,1.0505939000286162,404.40809380006976,None,ScrollDown,정답입니다,404.40809380006976,None,404.40809380006976,None,404.40809380006976,None,404.40809380006976,None,405.3432008000091,None,405.3432008000091,405.85508650005795,,,,,,,,,,,,,,,,129,2022-05-11_12h16.55.893,FishGame,2022.1.1,60.07918436644796,
,5,넌 과묵해,3,Orange,A,3.875,4.4,ScrollDown,ScrollUp,Orange.png,3,Neutral,Neutral,0,0,0,0,,,,,,,,,,,,,,,,,,,,,0,4,4,4,,,,,,,,,,,,,,,,,,,,,,,,,,,,,,,,,,,,,,,,,,,,,,,,,,,,,,,,,,,,,,,,,,,,,,,,,,,,,1,0.9506167999934405,406.4861646000063,None,ScrollDown,정답입니다,406.4861646000063,None,406.4861646000063,None,406.4861646000063,None,406.4861646000063,None,407.32608640007675,None,407.32608640007675,407.8381463000551,,,,,,,,,,,,,,,,129,2022-05-11_12h16.55.893,FishGame,2022.1.1,60.07918436644796,
,6,나를 데려가줘,6,Green,B,0,0,ScrollDown,ScrollUp,Green.png,3,NonTarget,NonTarget,0,0,0,0,,,,,,,,,,,,,,,,,,,,,0,5,5,5,,,,,,,,,,,,,,,,,,,,,,,,,,,,,,,,,,,,,,,,,,,,,,,,,,,,,,,,,,,,,,,,,,,,,,,,,,,,,1,1.176485100062564,408.4651020000456,None,ScrollDown,정답입니다,408.4651020000456,None,408.4651020000456,None,408.4651020000456,None,408.4651020000456,None,409.53839360002894,None,409.53839360002894,410.0378913000459,,,,,,,,,,,,,,,,129,2022-05-11_12h16.55.893,FishGame,2022.1.1,60.07918436644796,
,7,넌 미숙해,4,Green,B,3,3,ScrollUp,ScrollDown,Green.png,3,Negative,Congruent,0,0,0,0,,,,,,,,,,,,,,,,,,,,,0,6,6,6,,,,,,,,,,,,,,,,,,,,,,,,,,,,,,,,,,,,,,,,,,,,,,,,,,,,,,,,,,,,,,,,,,,,,,,,,,,,,1.8873456766208012,1.0101205999962986,410.66971809999086,None,ScrollUp,정답입니다,410.66971809999086,None,410.66971809999086,None,410.66971809999086,None,410.66971809999086,None,411.57155760005116,None,411.57155760005116,412.07132109999657,,,,,,,,,,,,,,,,129,2022-05-11_12h16.55.893,FishGame,2022.1.1,60.07918436644796,
,8,나를 보내줘,6,Orange,A,0,0,ScrollUp,ScrollDown,Orange.png,3,NonTarget,NonTarget,0,0,0,0,,,,,,,,,,,,,,,,,,,,,0,7,7,7,,,,,,,,,,,,,,,,,,,,,,,,,,,,,,,,,,,,,,,,,,,,,,,,,,,,,,,,,,,,,,,,,,,,,,,,,,,,,2,1.0894611000549048,412.7019390000496,None,ScrollUp,정답입니다,412.7019390000496,None,412.7019390000496,None,412.7019390000496,None,412.7019390000496,None,413.6883432000177,None,413.6883432000177,414.1881034000544,,,,,,,,,,,,,,,,129,2022-05-11_12h16.55.893,FishGame,2022.1.1,60.07918436644796,
,9,넌 자신만만해,3,Green,B,4.833333333333334,4.333333333333333,ScrollUp,ScrollDown,Green.png,3,Neutral,Neutral,0,0,0,0,,,,,,,,,,,,,,,,,,,,,0,8,8,8,,,,,,,,,,,,,,,,,,,,,,,,,,,,,,,,,,,,,,,,,,,,,,,,,,,,,,,,,,,,,,,,,,,,,,,,,,,,,1.9012345770994823,1.3768689000280574,414.8222839999944,None,ScrollUp,정답입니다,414.8222839999944,None,414.8222839999944,None,414.8222839999944,None,414.8222839999944,None,416.08829640003387,None,416.08829640003387,416.58843300002627,,,,,,,,,,,,,,,,129,2022-05-11_12h16.55.893,FishGame,2022.1.1,60.07918436644796,
,10,넌 탐욕스러워,5,Orange,A,2.25,2.1,ScrollDown,ScrollUp,Orange.png,3,Negative,Incongruent,0,0,0,0,,,,,,,,,,,,,,,,,,,,,0,9,9,9,,,,,,,,,,,,,,,,,,,,,,,,,,,,,,,,,,,,,,,,,,,,,,,,,,,,,,,,,,,,,,,,,,,,,,,,,,,,,1,1.0034754000371322,417.2325990999816,None,ScrollDown,정답입니다,417.2325990999816,None,417.2325990999816,None,417.2325990999816,None,417.2325990999816,None,418.11791440006346,None,418.11791440006346,418.6214125000406,,,,,,,,,,,,,,,,129,2022-05-11_12h16.55.893,FishGame,2022.1.1,60.07918436644796,
,11,넌 인기있어,2,Orange,A,5.458333333333333,4.5,ScrollDown,ScrollUp,Orange.png,3,Positive,Congruent,0,0,0,0,,,,,,,,,,,,,,,,,,,,,0,10,10,10,,,,,,,,,,,,,,,,,,,,,,,,,,,,,,,,,,,,,,,,,,,,,,,,,,,,,,,,,,,,,,,,,,,,,,,,,,,,,1,1.0098315000068396,419.25469860003795,None,ScrollDown,정답입니다,419.25469860003795,None,419.25469860003795,None,419.25469860003795,None,419.25469860003795,None,420.1547421000432,None,420.1547421000432,420.6546958000399,,,,,,,,,,,,,,,,129,2022-05-11_12h16.55.893,FishGame,2022.1.1,60.07918436644796,
,12,나를 데려가줘,6,Green,B,0,0,ScrollDown,ScrollUp,Green.png,3,NonTarget,NonTarget,0,0,0,0,,,,,,,,,,,,,,,,,,,,,0,11,11,11,,,,,,,,,,,,,,,,,,,,,,,,,,,,,,,,,,,,,,,,,,,,,,,,,,,,,,,,,,,,,,,,,,,,,,,,,,,,,1,1.067363999900408,421.2842460999964,None,ScrollDown,정답입니다,421.2842460999964,None,421.2842460999964,None,421.2842460999964,None,421.2842460999964,None,422.24334130005445,None,422.24334130005445,422.75510820001364,,,,,,,,,,,,,,,,129,2022-05-11_12h16.55.893,FishGame,2022.1.1,60.07918436644796,
,13,넌 뛰어나,2,Green,B,6.166666666666667,4,ScrollUp,ScrollDown,Green.png,3,Positive,Incongruent,0,0,0,0,,,,,,,,,,,,,,,,,,,,,0,12,12,12,,,,,,,,,,,,,,,,,,,,,,,,,,,,,,,,,,,,,,,,,,,,,,,,,,,,,,,,,,,,,,,,,,,,,,,,,,,,,2,0.9578460999764502,423.3850676000584,None,ScrollUp,정답입니다,423.3850676000584,None,423.3850676000584,None,423.3850676000584,None,423.3850676000584,None,424.2384084999794,None,424.2384084999794,424.7385190000059,,,,,,,,,,,,,,,,129,2022-05-11_12h16.55.893,FishGame,2022.1.1,60.07918436644796,
,14,넌 낙관적이야,1,Orange,A,5.75,5.8,ScrollDown,ScrollUp,Orange.png,3,Positive,Congruent,0,0,0,0,,,,,,,,,,,,,,,,,,,,,0,13,13,13,,,,,,,,,,,,,,,,,,,,,,,,,,,,,,,,,,,,,,,,,,,,,,,,,,,,,,,,,,,,,,,,,,,,,,,,,,,,,1,0.9390047999331728,425.3748582000844,None,ScrollDown,정답입니다,425.3748582000844,None,425.3748582000844,None,425.3748582000844,None,425.3748582000844,None,426.20551370002795,None,426.20551370002795,426.7052380000241,,,,,,,,,,,,,,,,129,2022-05-11_12h16.55.893,FishGame,2022.1.1,60.07918436644796,
,15,넌 산만해,4,Green,B,2.695652173913043,3.033333333333333,ScrollUp,ScrollDown,Green.png,3,Negative,Congruent,0,0,0,0,,,,,,,,,,,,,,,,,,,,,0,14,14,14,,,,,,,,,,,,,,,,,,,,,,,,,,,,,,,,,,,,,,,,,,,,,,,,,,,,,,,,,,,,,,,,,,,,,,,,,,,,,1.939814825852712,1.0030191999394447,427.335179900052,None,ScrollUp,정답입니다,427.335179900052,None,427.335179900052,None,427.335179900052,None,427.335179900052,None,428.2347574000014,None,428.2347574000014,428.7389200000325,,,,,,,,,,,,,,,,129,2022-05-11_12h16.55.893,FishGame,2022.1.1,60.07918436644796,
,16,나를 보내줘,6,Orange,A,0,0,ScrollUp,ScrollDown,Orange.png,3,NonTarget,NonTarget,0,0,0,0,,,,,,,,,,,,,,,,,,,,,0,15,15,15,,,,,,,,,,,,,,,,,,,,,,,,,,,,,,,,,,,,,,,,,,,,,,,,,,,,,,,,,,,,,,,,,,,,,,,,,,,,,2,1.0985654999967664,429.3705130000599,None,ScrollUp,정답입니다,429.3705130000599,None,429.3705130000599,None,429.3705130000599,None,429.3705130000599,None,430.3601812000852,None,430.3601812000852,430.87160720000975,,,,,,,,,,,,,,,,129,2022-05-11_12h16.55.893,FishGame,2022.1.1,60.07918436644796,
,17,넌 교활해,5,Green,B,2.333333333333333,2.133333333333333,ScrollUp,ScrollDown,Green.png,3,Negative,Congruent,0,0,0,0,,,,,,,,,,,,,,,,,,,,,0,16,16,16,,,,,,,,,,,,,,,,,,,,,,,,,,,,,,,,,,,,,,,,,,,,,,,,,,,,,,,,,,,,,,,,,,,,,,,,,,,,,2,1.255183200002648,431.5071266000159,None,ScrollUp,정답입니다,431.5071266000159,None,431.5071266000159,None,431.5071266000159,None,431.5071266000159,None,432.65176999999676,None,432.65176999999676,433.15576940006576,,,,,,,,,,,,,,,,129,2022-05-11_12h16.55.893,FishGame,2022.1.1,60.07918436644796,
,18,나를 보내줘,6,Orange,A,0,0,ScrollUp,ScrollDown,Orange.png,3,NonTarget,NonTarget,0,0,0,0,,,,,,,,,,,,,,,,,,,,,0,17,17,17,,,,,,,,,,,,,,,,,,,,,,,,,,,,,,,,,,,,,,,,,,,,,,,,,,,,,,,,,,,,,,,,,,,,,,,,,,,,,2,1.042611200013198,433.7848380000796,None,ScrollUp,정답입니다,433.7848380000796,None,433.7848380000796,None,433.7848380000796,None,433.7848380000796,None,434.72189210006036,None,434.72189210006036,435.22188750002533,,,,,,,,,,,,,,,,129,2022-05-11_12h16.55.893,FishGame,2022.1.1,60.07918436644796,
,19,넌 불친절해,5,Green,B,2.208333333333333,2.033333333333333,ScrollUp,ScrollDown,Green.png,3,Negative,Congruent,0,0,0,0,,,,,,,,,,,,,,,,,,,,,0,18,18,18,,,,,,,,,,,,,,,,,,,,,,,,,,,,,,,,,,,,,,,,,,,,,,,,,,,,,,,,,,,,,,,,,,,,,,,,,,,,,2,1.1892718999879435,435.8559542000294,None,ScrollUp,정답입니다,435.8559542000294,None,435.8559542000294,None,435.8559542000294,None,435.8559542000294,None,436.93889420002233,None,436.93889420002233,437.43875860003754,,,,,,,,,,,,,,,,129,2022-05-11_12h16.55.893,FishGame,2022.1.1,60.07918436644796,
,20,넌 지적이야,2,Green,B,5.75,4.366666666666666,ScrollUp,ScrollDown,Green.png,3,Positive,Incongruent,0,0,0,0,,,,,,,,,,,,,,,,,,,,,0,19,19,19,,,,,,,,,,,,,,,,,,,,,,,,,,,,,,,,,,,,,,,,,,,,,,,,,,,,,,,,,,,,,,,,,,,,,,,,,,,,,2,1.0259627000195906,438.0694802000653,None,ScrollUp,정답입니다,438.0694802000653,None,438.0694802000653,None,438.0694802000653,None,438.0694802000653,None,438.98905239999294,None,438.98905239999294,439.488965800032,,,,,,,,,,,,,,,,129,2022-05-11_12h16.55.893,FishGame,2022.1.1,60.07918436644796,
,21,넌 우유부단해,4,Orange,A,2.666666666666667,3.166666666666667,ScrollDown,ScrollUp,Orange.png,3,Negative,Incongruent,0,0,0,0,,,,,,,,,,,,,,,,,,,,,0,20,20,20,,,,,,,,,,,,,,,,,,,,,,,,,,,,,,,,,,,,,,,,,,,,,,,,,,,,,,,,,,,,,,,,,,,,,,,,,,,,,1,1.0851074999663979,440.1323558000149,None,ScrollDown,정답입니다,440.1323558000149,None,440.1323558000149,None,440.1323558000149,None,440.1323558000149,None,441.10187210002914,None,441.10187210002914,441.60569270001724,,,,,,,,,,,,,,,,129,2022-05-11_12h16.55.893,FishGame,2022.1.1,60.07918436644796,
,22,나를 데려가줘,6,Green,B,0,0,ScrollDown,ScrollUp,Green.png,3,NonTarget,NonTarget,0,0,0,0,,,,,,,,,,,,,,,,,,,,,0,21,21,21,,,,,,,,,,,,,,,,,,,,,,,,,,,,,,,,,,,,,,,,,,,,,,,,,,,,,,,,,,,,,,,,,,,,,,,,,,,,,1,1.3333385000005364,442.23282560007647,None,ScrollDown,정답입니다,442.23282560007647,None,442.23282560007647,None,442.23282560007647,None,442.23282560007647,None,443.46041170007084,None,443.46041170007084,443.97238569997717,,,,,,,,,,,,,,,,129,2022-05-11_12h16.55.893,FishGame,2022.1.1,60.07918436644796,
,23,넌 성실해,1,Green,B,6.041666666666666,5.7,ScrollUp,ScrollDown,Green.png,3,Positive,Incongruent,0,0,0,0,,,,,,,,,,,,,,,,,,,,,0,22,22,22,,,,,,,,,,,,,,,,,,,,,,,,,,,,,,,,,,,,,,,,,,,,,,,,,,,,,,,,,,,,,,,,,,,,,,,,,,,,,2,1.1419367999769747,444.6021193000488,None,ScrollUp,정답입니다,444.6021193000488,None,444.6021193000488,None,444.6021193000488,None,444.6021193000488,None,445.63880319998134,None,445.63880319998134,446.1387043000432,,,,,,,,,,,,,,,,129,2022-05-11_12h16.55.893,FishGame,2022.1.1,60.07918436644796,
,24,넌 현실주의적이야,3,Orange,A,4.625,4.4,ScrollDown,ScrollUp,Orange.png,3,Neutral,Neutral,0,0,0,0,,,,,,,,,,,,,,,,,,,,,0,23,23,23,,,,,,,,,,,,,,,,,,,,,,,,,,,,,,,,,,,,,,,,,,,,,,,,,,,,,,,,,,,,,,,,,,,,,,,,,,,,,1,1.1075686999829486,446.7732016000664,None,ScrollDown,정답입니다,446.7732016000664,None,446.7732016000664,None,446.7732016000664,None,446.7732016000664,None,447.77274759998545,None,447.77274759998545,448.27224209997803,,,,,,,,,,,,,,,,129,2022-05-11_12h16.55.893,FishGame,2022.1.1,60.07918436644796,
,25,넌 진실돼,1,Orange,A,6.625,5.566666666666666,ScrollDown,ScrollUp,Orange.png,3,Positive,Congruent,0,0,0,0,,,,,,,,,,,,,,,,,,,,,0,24,24,24,,,,,,,,,,,,,,,,,,,,,,,,,,,,,,,,,,,,,,,,,,,,,,,,,,,,,,,,,,,,,,,,,,,,,,,,,,,,,1,1.0240846999222413,448.91321789997164,None,ScrollDown,정답입니다,448.91321789997164,None,448.91321789997164,None,448.91321789997164,None,448.91321789997164,None,449.8226021999726,None,449.8226021999726,450.3223490000237,,,,,,,,,,,,,,,,129,2022-05-11_12h16.55.893,FishGame,2022.1.1,60.07918436644796,
,26,넌 천진난만해,3,Green,B,4.958333333333334,4.833333333333333,ScrollUp,ScrollDown,Green.png,3,Neutral,Neutral,0,0,0,0,,,,,,,,,,,,,,,,,,,,,0,25,25,25,,,,,,,,,,,,,,,,,,,,,,,,,,,,,,,,,,,,,,,,,,,,,,,,,,,,,,,,,,,,,,,,,,,,,,,,,,,,,2,1.0984776000259444,450.95947320002597,None,ScrollUp,정답입니다,450.95947320002597,None,450.95947320002597,None,450.95947320002597,None,450.95947320002597,None,451.94379470008425,None,451.94379470008425,452.45572450000327,,,,,,,,,,,,,,,,129,2022-05-11_12h16.55.893,FishGame,2022.1.1,60.07918436644796,
,27,넌 교양없어,5,Orange,A,2.416666666666667,2.2,ScrollDown,ScrollUp,Orange.png,3,Negative,Incongruent,0,0,0,0,,,,,,,,,,,,,,,,,,,,,0,26,26,26,,,,,,,,,,,,,,,,,,,,,,,,,,,,,,,,,,,,,,,,,,,,,,,,,,,,,,,,,,,,,,,,,,,,,,,,,,,,,1,1.1502885000081733,453.09504889999516,None,ScrollDown,정답입니다,453.09504889999516,None,453.09504889999516,None,453.09504889999516,None,453.09504889999516,None,454.1279351999983,None,454.1279351999983,454.6391189000569,,,,,,,,,,,,,,,,129,2022-05-11_12h16.55.893,FishGame,2022.1.1,60.07918436644796,
,28,나를 보내줘,6,Orange,A,0,0,ScrollUp,ScrollDown,Orange.png,3,NonTarget,NonTarget,0,0,0,0,,,,,,,,,,,,,,,,,,,,,0,27,27,27,,,,,,,,,,,,,,,,,,,,,,,,,,,,,,,,,,,,,,,,,,,,,,,,,,,,,,,,,,,,,,,,,,,,,,,,,,,,,2,1.2331368000013754,455.2729394000489,None,ScrollUp,정답입니다,455.2729394000489,None,455.2729394000489,None,455.2729394000489,None,455.2729394000489,None,456.39386770001147,None,456.39386770001147,456.9058642999735,,,,,,,,,,,,,,,,129,2022-05-11_12h16.55.893,FishGame,2022.1.1,60.07918436644796,
,29,넌 엉뚱스러워,3,Orange,A,4.166666666666667,4.133333333333334,ScrollDown,ScrollUp,Orange.png,3,Neutral,Neutral,0,0,0,0,,,,,,,,,,,,,,,,,,,,,0,28,28,28,,,,,,,,,,,,,,,,,,,,,,,,,,,,,,,,,,,,,,,,,,,,,,,,,,,,,,,,,,,,,,,,,,,,,,,,,,,,,1,1.2344945999793708,457.5418716999702,None,ScrollDown,정답입니다,457.5418716999702,None,457.5418716999702,None,457.5418716999702,None,457.5418716999702,None,458.66042930004187,None,458.66042930004187,459.17257629998494,,,,,,,,,,,,,,,,129,2022-05-11_12h16.55.893,FishGame,2022.1.1,60.07918436644796,
,30,넌 무지해,4,Green,B,2.541666666666667,3.066666666666667,ScrollUp,ScrollDown,Green.png,3,Negative,Congruent,0,0,0,0,,,,,,,,,,,,,,,,,,,,,0,29,29,29,,,,,,,,,,,,,,,,,,,,,,,,,,,,,,,,,,,,,,,,,,,,,,,,,,,,,,,,,,,,,,,,,,,,,,,,,,,,,2,1.1668282999889925,459.7980513999937,None,ScrollUp,정답입니다,459.7980513999937,None,459.7980513999937,None,459.7980513999937,None,459.7980513999937,None,460.86067010008264,None,460.86067010008264,461.37224439997226,,,,,,,,,,,,,,,,129,2022-05-11_12h16.55.893,FishGame,2022.1.1,60.07918436644796,
,31,넌 음울해,5,Green,B,2.25,2.233333333333333,ScrollUp,ScrollDown,Green.png,3,Negative,Congruent,0,0,0,0,,,,,,,,,,,,,,,,,,,,,0,30,30,30,,,,,,,,,,,,,,,,,,,,,,,,,,,,,,,,,,,,,,,,,,,,,,,,,,,,,,,,,,,,,,,,,,,,,,,,,,,,,2,0.9907270000549033,462.0124428999843,None,ScrollUp,정답입니다,462.0124428999843,None,462.0124428999843,None,462.0124428999843,None,462.0124428999843,None,462.88940340001136,None,462.88940340001136,463.3893024000572,,,,,,,,,,,,,,,,129,2022-05-11_12h16.55.893,FishGame,2022.1.1,60.07918436644796,
,32,넌 냉소적이야,5,Orange,A,2.916666666666667,2.4,ScrollDown,ScrollUp,Orange.png,3,Negative,Incongruent,0,0,0,0,,,,,,,,,,,,,,,,,,,,,0,31,31,31,,,,,,,,,,,,,,,,,,,,,,,,,,,,,,,,,,,,,,,,,,,,,,,,,,,,,,,,,,,,,,,,,,,,,,,,,,,,,1,1.117019800003618,464.01996840001084,None,ScrollDown,정답입니다,464.01996840001084,None,464.01996840001084,None,464.01996840001084,None,464.01996840001084,None,465.02743470005225,None,465.02743470005225,465.5394424999831,,,,,,,,,,,,,,,,129,2022-05-11_12h16.55.893,FishGame,2022.1.1,60.07918436644796,
,33,나를 데려가줘,6,Green,B,0,0,ScrollDown,ScrollUp,Green.png,3,NonTarget,NonTarget,0,0,0,0,,,,,,,,,,,,,,,,,,,,,0,32,32,32,,,,,,,,,,,,,,,,,,,,,,,,,,,,,,,,,,,,,,,,,,,,,,,,,,,,,,,,,,,,,,,,,,,,,,,,,,,,,1,1.3094680000795051,466.16700070002116,None,ScrollDown,정답입니다,466.16700070002116,None,466.16700070002116,None,466.16700070002116,None,466.16700070002116,None,467.37273549998645,None,467.37273549998645,467.8727050999878,,,,,,,,,,,,,,,,129,2022-05-11_12h16.55.893,FishGame,2022.1.1,60.07918436644796,
,34,넌 쾌활해,1,Orange,A,5.541666666666666,5.733333333333333,ScrollDown,ScrollUp,Orange.png,3,Positive,Congruent,0,0,0,0,,,,,,,,,,,,,,,,,,,,,0,33,33,33,,,,,,,,,,,,,,,,,,,,,,,,,,,,,,,,,,,,,,,,,,,,,,,,,,,,,,,,,,,,,,,,,,,,,,,,,,,,,1,1.0100048000458628,468.5074250000762,None,ScrollDown,정답입니다,468.5074250000762,None,468.5074250000762,None,468.5074250000762,None,468.5074250000762,None,469.40600720001385,None,469.40600720001385,469.9060549000278,,,,,,,,,,,,,,,,129,2022-05-11_12h16.55.893,FishGame,2022.1.1,60.07918436644796,
,35,나를 보내줘,6,Orange,A,0,0,ScrollUp,ScrollDown,Orange.png,3,NonTarget,NonTarget,0,0,0,0,,,,,,,,,,,,,,,,,,,,,0,34,34,34,,,,,,,,,,,,,,,,,,,,,,,,,,,,,,,,,,,,,,,,,,,,,,,,,,,,,,,,,,,,,,,,,,,,,,,,,,,,,2,0.9289954999694601,470.5387027000543,None,ScrollUp,정답입니다,470.5387027000543,None,470.5387027000543,None,470.5387027000543,None,470.5387027000543,None,471.3602493000217,None,471.3602493000217,471.87237070000265,,,,,,,,,,,,,,,,129,2022-05-11_12h16.55.893,FishGame,2022.1.1,60.07918436644796,
,36,넌 명랑해,1,Green,B,5.739130434782609,5.666666666666667,ScrollUp,ScrollDown,Green.png,3,Positive,Incongruent,0,0,0,0,,,,,,,,,,,,,,,,,,,,,0,35,35,35,,,,,,,,,,,,,,,,,,,,,,,,,,,,,,,,,,,,,,,,,,,,,,,,,,,,,,,,,,,,,,,,,,,,,,,,,,,,,2,1.258612300036475,472.5085491000209,None,ScrollUp,정답입니다,472.5085491000209,None,472.5085491000209,None,472.5085491000209,None,472.5085491000209,None,473.6566094000591,None,473.6566094000591,474.15665670007,,,,,,,,,,,,,,,,129,2022-05-11_12h16.55.893,FishGame,2022.1.1,60.07918436644796,
,37,넌 멍해,4,Orange,A,2.833333333333333,3.4,ScrollDown,ScrollUp,Orange.png,3,Negative,Incongruent,0,0,0,0,,,,,,,,,,,,,,,,,,,,,0,36,36,36,,,,,,,,,,,,,,,,,,,,,,,,,,,,,,,,,,,,,,,,,,,,,,,,,,,,,,,,,,,,,,,,,,,,,,,,,,,,,1,1.3581227998947725,474.788823000039,None,ScrollDown,정답입니다,474.788823000039,None,474.788823000039,None,474.788823000039,None,474.788823000039,None,476.03920490003657,None,476.03920490003657,476.5395974999992,,,,,,,,,,,,,,,,129,2022-05-11_12h16.55.893,FishGame,2022.1.1,60.07918436644796,
,38,나를 데려가줘,6,Green,B,0,0,ScrollDown,ScrollUp,Green.png,3,NonTarget,NonTarget,0,0,0,0,,,,,,,,,,,,,,,,,,,,,0,37,37,37,,,,,,,,,,,,,,,,,,,,,,,,,,,,,,,,,,,,,,,,,,,,,,,,,,,,,,,,,,,,,,,,,,,,,,,,,,,,,1,1.3178268999326974,477.1892140000127,None,ScrollDown,정답입니다,477.1892140000127,None,477.1892140000127,None,477.1892140000127,None,477.1892140000127,None,478.3781906000804,None,478.3781906000804,478.88966500002425,,,,,,,,,,,,,,,,129,2022-05-11_12h16.55.893,FishGame,2022.1.1,60.07918436644796,
,39,넌 현명해,2,Orange,A,6.541666666666666,4.533333333333333,ScrollDown,ScrollUp,Orange.png,3,Positive,Congruent,0,0,0,0,,,,,,,,,,,,,,,,,,,,,0,38,38,38,,,,,,,,,,,,,,,,,,,,,,,,,,,,,,,,,,,,,,,,,,,,,,,,,,,,,,,,,,,,,,,,,,,,,,,,,,,,,1,1.0608347000088543,479.525289000012,None,ScrollDown,정답입니다,479.525289000012,None,479.525289000012,None,479.525289000012,None,479.525289000012,None,480.47317230002955,None,480.47317230002955,480.97306650003884,,,,,,,,,,,,,,,,129,2022-05-11_12h16.55.893,FishGame,2022.1.1,60.07918436644796,
,40,넌 수줍어,3,Green,B,3.541666666666666,4.366666666666666,ScrollUp,ScrollDown,Green.png,3,Neutral,Neutral,0,0,0,0,,,,,,,,,,,,,,,,,,,,,0,39,39,39,,,,,,,,,,,,,,,,,,,,,,,,,,,,,,,,,,,,,,,,,,,,,,,,,,,,,,,,,,,,,,,,,,,,,,,,,,,,,2,1.1518617999972776,481.6056565999752,None,ScrollUp,정답입니다,481.6056565999752,None,481.6056565999752,None,481.6056565999752,None,481.6056565999752,None,482.65323030005675,None,482.65323030005675,483.15717460005544,,,,,,,,,,,,,,,,129,2022-05-11_12h16.55.893,FishGame,2022.1.1,60.07918436644796,
,41,나를 데려가줘,6,Green,B,0,0,ScrollDown,ScrollUp,Green.png,3,NonTarget,NonTarget,0,0,0,0,,,,,,,,,,,,,,,,,,,,,0,40,40,40,,,,,,,,,,,,,,,,,,,,,,,,,,,,,,,,,,,,,,,,,,,,,,,,,,,,,,,,,,,,,,,,,,,,,,,,,,,,,1,1.010761099983938,483.7829108000733,None,ScrollDown,정답입니다,483.7829108000733,None,483.7829108000733,None,483.7829108000733,None,483.7829108000733,None,484.6893734000623,None,484.6893734000623,485.1898317000596,,,,,,,,,,,,,,,,129,2022-05-11_12h16.55.893,FishGame,2022.1.1,60.07918436644796,
,42,넌 성숙해,2,Green,B,5.833333333333333,4.533333333333333,ScrollUp,ScrollDown,Green.png,3,Positive,Incongruent,0,0,0,0,,,,,,,,,,,,,,,,,,,,,0,41,41,41,,,,,,,,,,,,,,,,,,,,,,,,,,,,,,,,,,,,,,,,,,,,,,,,,,,,,,,,,,,,,,,,,,,,,,,,,,,,,2,1.0437062999699265,485.81495360005647,None,ScrollUp,정답입니다,485.81495360005647,None,485.81495360005647,None,485.81495360005647,None,485.81495360005647,None,486.75618989998475,None,486.75618989998475,487.25660389999393,,,,,,,,,,,,,,,,129,2022-05-11_12h16.55.893,FishGame,2022.1.1,60.07918436644796,
,1,넌 매력적이야,2,Green,B,6.125,4.666666666666667,ScrollUp,ScrollDown,Green.png,4,Positive,Incongruent,0,0,0,0,,,,,,,,,,,,,,,,,,,,,,,,,0,0,0,0,,,,,,,,,,,,,,,,,,,,,,,,,,,,,,,,519.1744901000056,520.6739186000777,520.7071247000713,521.6572014000267,521.707199000055,522.6571760000661,522.6571760000661,None,,,,,,,,,,,,,,,,,,,,,,,,,,,,,,,,,,2,1.2134123001014814,523.8141497999895,None,ScrollUp,정답입니다,523.8141497999895,None,523.8141497999895,None,523.8141497999895,None,523.8141497999895,None,524.8619774000254,None,524.8619774000254,525.3742639999837,487.75659480004106,None,487.75659480004106,None,-0.175,-0.09537037,1,0,0,0.015709520084783435,None,517.7570639000041,None,,,129,2022-05-11_12h16.55.893,FishGame,2022.1.1,60.07918436644796,
,2,나를 보내줘,6,Orange,A,0,0,ScrollUp,ScrollDown,Orange.png,4,NonTarget,NonTarget,0,0,0,0,,,,,,,,,,,,,,,,,,,,,,,,,0,1,1,1,,,,,,,,,,,,,,,,,,,,,,,,,,,,,,,,,,,,,,,,,,,,,,,,,,,,,,,,,,,,,,,,,,,,,,,,,2,1.1589015000499785,526.0038395000156,None,ScrollUp,정답입니다,526.0038395000156,None,526.0038395000156,None,526.0038395000156,None,526.0038395000156,None,527.0582064000191,None,527.0582064000191,527.5575622000033,,,,,,,,,,,,,,,,129,2022-05-11_12h16.55.893,FishGame,2022.1.1,60.07918436644796,
,3,넌 조심스러워,3,Orange,A,4.791666666666666,4.666666666666667,ScrollDown,ScrollUp,Orange.png,4,Neutral,Neutral,0,0,0,0,,,,,,,,,,,,,,,,,,,,,,,,,0,2,2,2,,,,,,,,,,,,,,,,,,,,,,,,,,,,,,,,,,,,,,,,,,,,,,,,,,,,,,,,,,,,,,,,,,,,,,,,,1,1.1256459000287578,528.1898806000827,None,ScrollDown,정답입니다,528.1898806000827,None,528.1898806000827,None,528.1898806000827,None,528.1898806000827,None,529.2074492999818,None,529.2074492999818,529.7073969000485,,,,,,,,,,,,,,,,129,2022-05-11_12h16.55.893,FishGame,2022.1.1,60.07918436644796,
,4,넌 철학적이야,3,Green,B,4.5,4.266666666666667,ScrollUp,ScrollDown,Green.png,4,Neutral,Neutral,0,0,0,0,,,,,,,,,,,,,,,,,,,,,,,,,0,3,3,3,,,,,,,,,,,,,,,,,,,,,,,,,,,,,,,,,,,,,,,,,,,,,,,,,,,,,,,,,,,,,,,,,,,,,,,,,2,0.9745635000290349,530.3459059000015,None,ScrollUp,정답입니다,530.3459059000015,None,530.3459059000015,None,530.3459059000015,None,530.3459059000015,None,531.2073945000302,None,531.2073945000302,531.7074740000535,,,,,,,,,,,,,,,,129,2022-05-11_12h16.55.893,FishGame,2022.1.1,60.07918436644796,
,5,넌 쩨쩨해,5,Orange,A,2.375,2.133333333333333,ScrollDown,ScrollUp,Orange.png,4,Negative,Incongruent,0,0,0,0,,,,,,,,,,,,,,,,,,,,,,,,,0,4,4,4,,,,,,,,,,,,,,,,,,,,,,,,,,,,,,,,,,,,,,,,,,,,,,,,,,,,,,,,,,,,,,,,,,,,,,,,,1,1.222392699914053,532.3457877000328,None,ScrollDown,정답입니다,532.3457877000328,None,532.3457877000328,None,532.3457877000328,None,532.3457877000328,None,533.4578588000732,None,533.4578588000732,533.9571180000203,,,,,,,,,,,,,,,,129,2022-05-11_12h16.55.893,FishGame,2022.1.1,60.07918436644796,
,6,나를 데려가줘,6,Green,B,0,0,ScrollDown,ScrollUp,Green.png,4,NonTarget,NonTarget,0,0,0,0,,,,,,,,,,,,,,,,,,,,,,,,,0,5,5,5,,,,,,,,,,,,,,,,,,,,,,,,,,,,,,,,,,,,,,,,,,,,,,,,,,,,,,,,,,,,,,,,,,,,,,,,,1,1.191692000022158,534.5826930999756,None,ScrollDown,정답입니다,534.5826930999756,None,534.5826930999756,None,534.5826930999756,None,534.5826930999756,None,535.673970600008,None,535.673970600008,536.1741483000806,,,,,,,,,,,,,,,,129,2022-05-11_12h16.55.893,FishGame,2022.1.1,60.07918436644796,
,7,넌 고집불통이야,5,Green,B,2.875,2,ScrollUp,ScrollDown,Green.png,4,Negative,Congruent,0,0,0,0,,,,,,,,,,,,,,,,,,,,,,,,,0,6,6,6,,,,,,,,,,,,,,,,,,,,,,,,,,,,,,,,,,,,,,,,,,,,,,,,,,,,,,,,,,,,,,,,,,,,,,,,,2,1.185014700051397,536.8133413000032,None,ScrollUp,정답입니다,536.8133413000032,None,536.8133413000032,None,536.8133413000032,None,536.8133413000032,None,537.8873477000743,None,537.8873477000743,538.391368700075,,,,,,,,,,,,,,,,129,2022-05-11_12h16.55.893,FishGame,2022.1.1,60.07918436644796,
,8,넌 무심해,4,Orange,A,2.875,3.2,ScrollDown,ScrollUp,Orange.png,4,Negative,Incongruent,0,0,0,0,,,,,,,,,,,,,,,,,,,,,,,,,0,7,7,7,,,,,,,,,,,,,,,,,,,,,,,,,,,,,,,,,,,,,,,,,,,,,,,,,,,,,,,,,,,,,,,,,,,,,,,,,1,1.108921500039287,539.0240399000468,None,ScrollDown,정답입니다,539.0240399000468,None,539.0240399000468,None,539.0240399000468,None,539.0240399000468,None,540.0243790000677,None,540.0243790000677,540.5242283000844,,,,,,,,,,,,,,,,129,2022-05-11_12h16.55.893,FishGame,2022.1.1,60.07918436644796,
,9,넌 정겨워,1,Orange,A,5.791666666666667,5.666666666666667,ScrollDown,ScrollUp,Orange.png,4,Positive,Congruent,0,0,0,0,,,,,,,,,,,,,,,,,,,,,,,,,0,8,8,8,,,,,,,,,,,,,,,,,,,,,,,,,,,,,,,,,,,,,,,,,,,,,,,,,,,,,,,,,,,,,,,,,,,,,,,,,1,1.1962513999314979,541.1626538999844,None,ScrollDown,정답입니다,541.1626538999844,None,541.1626538999844,None,541.1626538999844,None,541.1626538999844,None,542.2412663999712,None,542.2412663999712,542.7410273000132,,,,,,,,,,,,,,,,129,2022-05-11_12h16.55.893,FishGame,2022.1.1,60.07918436644796,
,10,나를 데려가줘,6,Green,B,0,0,ScrollDown,ScrollUp,Green.png,4,NonTarget,NonTarget,0,0,0,0,,,,,,,,,,,,,,,,,,,,,,,,,0,9,9,9,,,,,,,,,,,,,,,,,,,,,,,,,,,,,,,,,,,,,,,,,,,,,,,,,,,,,,,,,,,,,,,,,,,,,,,,,1,1.7367960000410676,543.3711004999932,None,ScrollDown,정답입니다,543.3711004999932,None,543.3711004999932,None,543.3711004999932,None,543.3711004999932,None,545.0042131000664,None,545.0042131000664,545.5079863000428,,,,,,,,,,,,,,,,129,2022-05-11_12h16.55.893,FishGame,2022.1.1,60.07918436644796,
,11,넌 체제순응적이야,4,Green,B,3,3.6,ScrollUp,ScrollDown,Green.png,4,Negative,Congruent,0,0,0,0,,,,,,,,,,,,,,,,,,,,,,,,,0,10,10,10,,,,,,,,,,,,,,,,,,,,,,,,,,,,,,,,,,,,,,,,,,,,,,,,,,,,,,,,,,,,,,,,,,,,,,,,,2,1.533230199944228,546.1678850000026,None,ScrollUp,정답입니다,546.1678850000026,None,546.1678850000026,None,546.1678850000026,None,546.1678850000026,None,547.5629755000118,None,547.5629755000118,548.074238399975,,,,,,,,,,,,,,,,129,2022-05-11_12h16.55.893,FishGame,2022.1.1,60.07918436644796,
,12,나를 보내줘,6,Orange,A,0,0,ScrollUp,ScrollDown,Orange.png,4,NonTarget,NonTarget,0,0,0,0,,,,,,,,,,,,,,,,,,,,,,,,,0,11,11,11,,,,,,,,,,,,,,,,,,,,,,,,,,,,,,,,,,,,,,,,,,,,,,,,,,,,,,,,,,,,,,,,,,,,,,,,,2,0.9370633999351412,548.7042746000225,None,ScrollUp,정답입니다,548.7042746000225,None,548.7042746000225,None,548.7042746000225,None,548.7042746000225,None,549.5375836000312,None,549.5375836000312,550.0411594000179,,,,,,,,,,,,,,,,129,2022-05-11_12h16.55.893,FishGame,2022.1.1,60.07918436644796,
,13,넌 박식해,2,Orange,A,5.625,3.933333333333333,ScrollDown,ScrollUp,Orange.png,4,Positive,Congruent,0,0,0,0,,,,,,,,,,,,,,,,,,,,,,,,,0,12,12,12,,,,,,,,,,,,,,,,,,,,,,,,,,,,,,,,,,,,,,,,,,,,,,,,,,,,,,,,,,,,,,,,,,,,,,,,,1,1.1751735999714583,550.6877190000378,None,ScrollDown,정답입니다,550.6877190000378,None,550.6877190000378,None,550.6877190000378,None,550.6877190000378,None,551.7413382000523,None,551.7413382000523,552.2418059000047,,,,,,,,,,,,,,,,129,2022-05-11_12h16.55.893,FishGame,2022.1.1,60.07918436644796,
,14,나를 보내줘,6,Orange,A,0,0,ScrollUp,ScrollDown,Orange.png,4,NonTarget,NonTarget,0,0,0,0,,,,,,,,,,,,,,,,,,,,,,,,,0,13,13,13,,,,,,,,,,,,,,,,,,,,,,,,,,,,,,,,,,,,,,,,,,,,,,,,,,,,,,,,,,,,,,,,,,,,,,,,,1.8765432039896648,1.5258421000326052,552.8692879000446,None,ScrollUp,정답입니다,552.8692879000446,None,552.8692879000446,None,552.8692879000446,None,552.8692879000446,None,554.2911874999991,None,554.2911874999991,554.7911543999799,,,,,,,,,,,,,,,,129,2022-05-11_12h16.55.893,FishGame,2022.1.1,60.07918436644796,
,15,넌 침착해,1,Green,B,5.458333333333333,5.566666666666666,ScrollUp,ScrollDown,Green.png,4,Positive,Incongruent,0,0,0,0,,,,,,,,,,,,,,,,,,,,,,,,,0,14,14,14,,,,,,,,,,,,,,,,,,,,,,,,,,,,,,,,,,,,,,,,,,,,,,,,,,,,,,,,,,,,,,,,,,,,,,,,,2,1.1004625998903066,555.4282760000788,None,ScrollUp,정답입니다,555.4282760000788,None,555.4282760000788,None,555.4282760000788,None,555.4282760000788,None,556.4209277000045,None,556.4209277000045,556.924770200043,,,,,,,,,,,,,,,,129,2022-05-11_12h16.55.893,FishGame,2022.1.1,60.07918436644796,
,16,나를 데려가줘,6,Green,B,0,0,ScrollDown,ScrollUp,Green.png,4,NonTarget,NonTarget,0,0,0,0,,,,,,,,,,,,,,,,,,,,,,,,,0,15,15,15,,,,,,,,,,,,,,,,,,,,,,,,,,,,,,,,,,,,,,,,,,,,,,,,,,,,,,,,,,,,,,,,,,,,,,,,,1,1.1486976000014693,557.5569493999938,None,ScrollDown,정답입니다,557.5569493999938,None,557.5569493999938,None,557.5569493999938,None,557.5569493999938,None,558.5961159999715,None,558.5961159999715,559.1079838000005,,,,,,,,,,,,,,,,129,2022-05-11_12h16.55.893,FishGame,2022.1.1,60.07918436644796,
,17,넌 행복해,1,Orange,A,6.416666666666666,6.166666666666667,ScrollDown,ScrollUp,Orange.png,4,Positive,Congruent,0,0,0,0,,,,,,,,,,,,,,,,,,,,,,,,,0,16,16,16,,,,,,,,,,,,,,,,,,,,,,,,,,,,,,,,,,,,,,,,,,,,,,,,,,,,,,,,,,,,,,,,,,,,,,,,,1,0.9749353000661358,559.7475923000602,None,ScrollDown,정답입니다,559.7475923000602,None,559.7475923000602,None,559.7475923000602,None,559.7475923000602,None,560.608419300057,None,560.608419300057,561.108229800011,,,,,,,,,,,,,,,,129,2022-05-11_12h16.55.893,FishGame,2022.1.1,60.07918436644796,
,18,넌 겸손해,2,Green,B,5.791666666666667,4.766666666666667,ScrollUp,ScrollDown,Green.png,4,Positive,Incongruent,0,0,0,0,,,,,,,,,,,,,,,,,,,,,,,,,0,17,17,17,,,,,,,,,,,,,,,,,,,,,,,,,,,,,,,,,,,,,,,,,,,,,,,,,,,,,,,,,,,,,,,,,,,,,,,,,2,1.0437422000104561,561.743223000085,None,ScrollUp,정답입니다,561.743223000085,None,561.743223000085,None,561.743223000085,None,561.743223000085,None,562.6791434000479,None,562.6791434000479,563.1917003000854,,,,,,,,,,,,,,,,129,2022-05-11_12h16.55.893,FishGame,2022.1.1,60.07918436644796,
,19,나를 보내줘,6,Orange,A,0,0,ScrollUp,ScrollDown,Orange.png,4,NonTarget,NonTarget,0,0,0,0,,,,,,,,,,,,,,,,,,,,,,,,,0,18,18,18,,,,,,,,,,,,,,,,,,,,,,,,,,,,,,,,,,,,,,,,,,,,,,,,,,,,,,,,,,,,,,,,,,,,,,,,,2,1.0174203000497073,563.8237361999927,None,ScrollUp,정답입니다,563.8237361999927,None,563.8237361999927,None,563.8237361999927,None,563.8237361999927,None,564.729557899991,None,564.729557899991,565.2414653999731,,,,,,,,,,,,,,,,129,2022-05-11_12h16.55.893,FishGame,2022.1.1,60.07918436644796,
,20,넌 의심없어,3,Orange,A,4.166666666666667,4.6,ScrollDown,ScrollUp,Orange.png,4,Neutral,Neutral,0,0,0,0,,,,,,,,,,,,,,,,,,,,,,,,,0,19,19,19,,,,,,,,,,,,,,,,,,,,,,,,,,,,,,,,,,,,,,,,,,,,,,,,,,,,,,,,,,,,,,,,,,,,,,,,,1,1.0437177999410778,565.8752643000335,None,ScrollDown,정답입니다,565.8752643000335,None,565.8752643000335,None,565.8752643000335,None,565.8752643000335,None,566.808159200009,None,566.808159200009,567.3082664000103,,,,,,,,,,,,,,,,129,2022-05-11_12h16.55.893,FishGame,2022.1.1,60.07918436644796,
,21,넌 시시해,4,Orange,A,2.666666666666667,2.966666666666667,ScrollDown,ScrollUp,Orange.png,4,Negative,Incongruent,0,0,0,0,,,,,,,,,,,,,,,,,,,,,,,,,0,20,20,20,,,,,,,,,,,,,,,,,,,,,,,,,,,,,,,,,,,,,,,,,,,,,,,,,,,,,,,,,,,,,,,,,,,,,,,,,1,1.0179097999352962,567.941961399978,None,ScrollDown,정답입니다,567.941961399978,None,567.941961399978,None,567.941961399978,None,567.941961399978,None,568.8468059999868,None,568.8468059999868,569.358590100077,,,,,,,,,,,,,,,,129,2022-05-11_12h16.55.893,FishGame,2022.1.1,60.07918436644796,
,22,나를 데려가줘,6,Green,B,0,0,ScrollDown,ScrollUp,Green.png,4,NonTarget,NonTarget,0,0,0,0,,,,,,,,,,,,,,,,,,,,,,,,,0,21,21,21,,,,,,,,,,,,,,,,,,,,,,,,,,,,,,,,,,,,,,,,,,,,,,,,,,,,,,,,,,,,,,,,,,,,,,,,,2,1.0476620000554249,569.9885224000318,None,ScrollUp,오답입니다,569.9885224000318,None,569.9885224000318,None,569.9885224000318,None,569.9885224000318,None,570.9327077000635,None,570.9327077000635,571.4415400000289,,,,,,,,,,,,,,,,129,2022-05-11_12h16.55.893,FishGame,2022.1.1,60.07918436644796,
,23,넌 무정해,5,Orange,A,2.5,2.2,ScrollDown,ScrollUp,Orange.png,4,Negative,Incongruent,0,0,0,0,,,,,,,,,,,,,,,,,,,,,,,,,0,22,22,22,,,,,,,,,,,,,,,,,,,,,,,,,,,,,,,,,,,,,,,,,,,,,,,,,,,,,,,,,,,,,,,,,,,,,,,,,1,1.0139296000124887,572.1206633000402,None,ScrollDown,정답입니다,572.1206633000402,None,572.1206633000402,None,572.1206633000402,None,572.1206633000402,None,572.9827784000663,None,572.9827784000663,573.4913832000457,,,,,,,,,,,,,,,,129,2022-05-11_12h16.55.893,FishGame,2022.1.1,60.07918436644796,
,24,넌 긍정적이야,1,Green,B,6.041666666666667,6.066666666666666,ScrollUp,ScrollDown,Green.png,4,Positive,Incongruent,0,0,0,0,,,,,,,,,,,,,,,,,,,,,,,,,0,23,23,23,,,,,,,,,,,,,,,,,,,,,,,,,,,,,,,,,,,,,,,,,,,,,,,,,,,,,,,,,,,,,,,,,,,,,,,,,2,1.1507818000391126,574.1326699000783,None,ScrollUp,정답입니다,574.1326699000783,None,574.1326699000783,None,574.1326699000783,None,574.1326699000783,None,575.1716408000793,None,575.1716408000793,575.6748376999749,,,,,,,,,,,,,,,,129,2022-05-11_12h16.55.893,FishGame,2022.1.1,60.07918436644796,
,25,나를 보내줘,6,Orange,A,0,0,ScrollUp,ScrollDown,Orange.png,4,NonTarget,NonTarget,0,0,0,0,,,,,,,,,,,,,,,,,,,,,,,,,0,24,24,24,,,,,,,,,,,,,,,,,,,,,,,,,,,,,,,,,,,,,,,,,,,,,,,,,,,,,,,,,,,,,,,,,,,,,,,,,2,1.0661877000238746,576.3068335000426,None,ScrollUp,정답입니다,576.3068335000426,None,576.3068335000426,None,576.3068335000426,None,576.3068335000426,None,577.2724663000554,None,577.2724663000554,577.7754353000782,,,,,,,,,,,,,,,,129,2022-05-11_12h16.55.893,FishGame,2022.1.1,60.07918436644796,
,26,넌 시기심이 많아,5,Green,B,2.458333333333333,2.233333333333333,ScrollUp,ScrollDown,Green.png,4,Negative,Congruent,0,0,0,0,,,,,,,,,,,,,,,,,,,,,,,,,0,25,25,25,,,,,,,,,,,,,,,,,,,,,,,,,,,,,,,,,,,,,,,,,,,,,,,,,,,,,,,,,,,,,,,,,,,,,,,,,2,1.1513131000101566,578.410226500011,None,ScrollUp,정답입니다,578.410226500011,None,578.410226500011,None,578.410226500011,None,578.410226500011,None,579.4548801999772,None,579.4548801999772,579.9584473000141,,,,,,,,,,,,,,,,129,2022-05-11_12h16.55.893,FishGame,2022.1.1,60.07918436644796,
,27,넌 탁월해,2,Orange,A,5.708333333333334,4.5,ScrollDown,ScrollUp,Orange.png,4,Positive,Congruent,0,0,0,0,,,,,,,,,,,,,,,,,,,,,,,,,0,26,26,26,,,,,,,,,,,,,,,,,,,,,,,,,,,,,,,,,,,,,,,,,,,,,,,,,,,,,,,,,,,,,,,,,,,,,,,,,1,0.9920827999012545,580.5997316000285,None,ScrollDown,정답입니다,580.5997316000285,None,580.5997316000285,None,580.5997316000285,None,580.5997316000285,None,581.4748393000336,None,581.4748393000336,581.9752802000148,,,,,,,,,,,,,,,,129,2022-05-11_12h16.55.893,FishGame,2022.1.1,60.07918436644796,
,28,나를 데려가줘,6,Green,B,0,0,ScrollDown,ScrollUp,Green.png,4,NonTarget,NonTarget,0,0,0,0,,,,,,,,,,,,,,,,,,,,,,,,,0,27,27,27,,,,,,,,,,,,,,,,,,,,,,,,,,,,,,,,,,,,,,,,,,,,,,,,,,,,,,,,,,,,,,,,,,,,,,,,,1,1.0638797999126837,582.6047451000195,None,ScrollDown,정답입니다,582.6047451000195,None,582.6047451000195,None,582.6047451000195,None,582.6047451000195,None,583.564635100076,None,583.564635100076,584.0749523000559,,,,,,,,,,,,,,,,129,2022-05-11_12h16.55.893,FishGame,2022.1.1,60.07918436644796,
,29,넌 조용해,3,Green,B,4.333333333333333,4.166666666666667,ScrollUp,ScrollDown,Green.png,4,Neutral,Neutral,0,0,0,0,,,,,,,,,,,,,,,,,,,,,,,,,0,28,28,28,,,,,,,,,,,,,,,,,,,,,,,,,,,,,,,,,,,,,,,,,,,,,,,,,,,,,,,,,,,,,,,,,,,,,,,,,2,1.0823208999354392,584.7105139000341,None,ScrollUp,정답입니다,584.7105139000341,None,584.7105139000341,None,584.7105139000341,None,584.7105139000341,None,585.6800786000676,None,585.6800786000676,586.1918617000338,,,,,,,,,,,,,,,,129,2022-05-11_12h16.55.893,FishGame,2022.1.1,60.07918436644796,
,30,넌 다정해,1,Orange,A,5.833333333333334,5.7,ScrollDown,ScrollUp,Orange.png,4,Positive,Congruent,0,0,0,0,,,,,,,,,,,,,,,,,,,,,,,,,0,29,29,29,,,,,,,,,,,,,,,,,,,,,,,,,,,,,,,,,,,,,,,,,,,,,,,,,,,,,,,,,,,,,,,,,,,,,,,,,1,1.02367519994732,586.8219082000433,None,ScrollDown,정답입니다,586.8219082000433,None,586.8219082000433,None,586.8219082000433,None,586.8219082000433,None,587.7418030999834,None,587.7418030999834,588.2422861000523,,,,,,,,,,,,,,,,129,2022-05-11_12h16.55.893,FishGame,2022.1.1,60.07918436644796,
,31,넌 능력있어,2,Green,B,6.166666666666666,4.6,ScrollUp,ScrollDown,Green.png,4,Positive,Incongruent,0,0,0,0,,,,,,,,,,,,,,,,,,,,,,,,,0,30,30,30,,,,,,,,,,,,,,,,,,,,,,,,,,,,,,,,,,,,,,,,,,,,,,,,,,,,,,,,,,,,,,,,,,,,,,,,,2,1.2930734000401571,588.8660858999938,None,ScrollUp,정답입니다,588.8660858999938,None,588.8660858999938,None,588.8660858999938,None,588.8660858999938,None,590.0588293999899,None,590.0588293999899,590.5591455000686,,,,,,,,,,,,,,,,129,2022-05-11_12h16.55.893,FishGame,2022.1.1,60.07918436644796,
,32,넌 불쾌해,5,Orange,A,2.125,1.933333333333333,ScrollDown,ScrollUp,Orange.png,4,Negative,Incongruent,0,0,0,0,,,,,,,,,,,,,,,,,,,,,,,,,0,31,31,31,,,,,,,,,,,,,,,,,,,,,,,,,,,,,,,,,,,,,,,,,,,,,,,,,,,,,,,,,,,,,,,,,,,,,,,,,1,1.1303643999854103,591.1922178000677,None,ScrollDown,정답입니다,591.1922178000677,None,591.1922178000677,None,591.1922178000677,None,591.1922178000677,None,592.2138298000209,None,592.2138298000209,592.7254009000026,,,,,,,,,,,,,,,,129,2022-05-11_12h16.55.893,FishGame,2022.1.1,60.07918436644796,
,33,나를 데려가줘,6,Green,B,0,0,ScrollDown,ScrollUp,Green.png,4,NonTarget,NonTarget,0,0,0,0,,,,,,,,,,,,,,,,,,,,,,,,,0,32,32,32,,,,,,,,,,,,,,,,,,,,,,,,,,,,,,,,,,,,,,,,,,,,,,,,,,,,,,,,,,,,,,,,,,,,,,,,,1,1.283259200048633,593.3511162999785,None,ScrollDown,정답입니다,593.3511162999785,None,593.3511162999785,None,593.3511162999785,None,593.3511162999785,None,594.5303470999934,None,594.5303470999934,595.0419145000633,,,,,,,,,,,,,,,,129,2022-05-11_12h16.55.893,FishGame,2022.1.1,60.07918436644796,
,34,넌 유순해,3,Orange,A,4.458333333333333,5,ScrollDown,ScrollUp,Orange.png,4,Neutral,Neutral,0,0,0,0,,,,,,,,,,,,,,,,,,,,,,,,,0,33,33,33,,,,,,,,,,,,,,,,,,,,,,,,,,,,,,,,,,,,,,,,,,,,,,,,,,,,,,,,,,,,,,,,,,,,,,,,,1,1.719652200001292,595.6744776000269,None,ScrollDown,정답입니다,595.6744776000269,None,595.6744776000269,None,595.6744776000269,None,595.6744776000269,None,597.2887852999847,None,597.2887852999847,597.7921836000169,,,,,,,,,,,,,,,,129,2022-05-11_12h16.55.893,FishGame,2022.1.1,60.07918436644796,
,35,넌 근심스러워,4,Green,B,2.708333333333333,3.133333333333333,ScrollUp,ScrollDown,Green.png,4,Negative,Congruent,0,0,0,0,,,,,,,,,,,,,,,,,,,,,,,,,0,34,34,34,,,,,,,,,,,,,,,,,,,,,,,,,,,,,,,,,,,,,,,,,,,,,,,,,,,,,,,,,,,,,,,,,,,,,,,,,2,1.1477145999670029,598.4361549000023,None,ScrollUp,정답입니다,598.4361549000023,None,598.4361549000023,None,598.4361549000023,None,598.4361549000023,None,599.4647940000286,None,599.4647940000286,599.975340200006,,,,,,,,,,,,,,,,129,2022-05-11_12h16.55.893,FishGame,2022.1.1,60.07918436644796,
,36,넌 세련되었어,2,Orange,A,5.5,4.6,ScrollDown,ScrollUp,Orange.png,4,Positive,Congruent,0,0,0,0,,,,,,,,,,,,,,,,,,,,,,,,,0,35,35,35,,,,,,,,,,,,,,,,,,,,,,,,,,,,,,,,,,,,,,,,,,,,,,,,,,,,,,,,,,,,,,,,,,,,,,,,,1,1.1731826999457553,600.6241970000556,None,ScrollDown,정답입니다,600.6241970000556,None,600.6241970000556,None,600.6241970000556,None,600.6241970000556,None,601.6760773999849,None,601.6760773999849,602.1756093000295,,,,,,,,,,,,,,,,129,2022-05-11_12h16.55.893,FishGame,2022.1.1,60.07918436644796,
,37,나를 보내줘,6,Orange,A,0,0,ScrollUp,ScrollDown,Orange.png,4,NonTarget,NonTarget,0,0,0,0,,,,,,,,,,,,,,,,,,,,,,,,,0,36,36,36,,,,,,,,,,,,,,,,,,,,,,,,,,,,,,,,,,,,,,,,,,,,,,,,,,,,,,,,,,,,,,,,,,,,,,,,,2,1.4653931999346241,602.8090582999866,None,ScrollUp,정답입니다,602.8090582999866,None,602.8090582999866,None,602.8090582999866,None,602.8090582999866,None,604.1637687999755,None,604.1637687999755,604.675690800068,,,,,,,,,,,,,,,,129,2022-05-11_12h16.55.893,FishGame,2022.1.1,60.07918436644796,
,38,넌 확고해,3,Green,B,4.708333333333334,4.566666666666666,ScrollUp,ScrollDown,Green.png,4,Neutral,Neutral,0,0,0,0,,,,,,,,,,,,,,,,,,,,,,,,,0,37,37,37,,,,,,,,,,,,,,,,,,,,,,,,,,,,,,,,,,,,,,,,,,,,,,,,,,,,,,,,,,,,,,,,,,,,,,,,,2,1.3896994000533596,605.3090088000754,None,ScrollUp,정답입니다,605.3090088000754,None,605.3090088000754,None,605.3090088000754,None,605.3090088000754,None,606.5923411999829,None,606.5923411999829,607.0924792999867,,,,,,,,,,,,,,,,129,2022-05-11_12h16.55.893,FishGame,2022.1.1,60.07918436644796,
,39,넌 이해심이 많아,1,Green,B,6.041666666666668,5.533333333333333,ScrollUp,ScrollDown,Green.png,4,Positive,Incongruent,0,0,0,0,,,,,,,,,,,,,,,,,,,,,,,,,0,38,38,38,,,,,,,,,,,,,,,,,,,,,,,,,,,,,,,,,,,,,,,,,,,,,,,,,,,,,,,,,,,,,,,,,,,,,,,,,2,1.0232309000566602,607.7232480000239,None,ScrollUp,정답입니다,607.7232480000239,None,607.7232480000239,None,607.7232480000239,None,607.7232480000239,None,608.6423973999918,None,608.6423973999918,609.1424105999758,,,,,,,,,,,,,,,,129,2022-05-11_12h16.55.893,FishGame,2022.1.1,60.07918436644796,
,40,나를 보내줘,6,Orange,A,0,0,ScrollUp,ScrollDown,Orange.png,4,NonTarget,NonTarget,0,0,0,0,,,,,,,,,,,,,,,,,,,,,,,,,0,39,39,39,,,,,,,,,,,,,,,,,,,,,,,,,,,,,,,,,,,,,,,,,,,,,,,,,,,,,,,,,,,,,,,,,,,,,,,,,2,1.075845199986361,609.7813499000622,None,ScrollUp,정답입니다,609.7813499000622,None,609.7813499000622,None,609.7813499000622,None,609.7813499000622,None,610.7424719000701,None,610.7424719000701,611.2426955000265,,,,,,,,,,,,,,,,129,2022-05-11_12h16.55.893,FishGame,2022.1.1,60.07918436644796,
,41,넌 거칠어,4,Orange,A,2.625,3.033333333333333,ScrollDown,ScrollUp,Orange.png,4,Negative,Incongruent,0,0,0,0,,,,,,,,,,,,,,,,,,,,,,,,,0,40,40,40,,,,,,,,,,,,,,,,,,,,,,,,,,,,,,,,,,,,,,,,,,,,,,,,,,,,,,,,,,,,,,,,,,,,,,,,,1,1.3582038000458851,611.879310999997,None,ScrollDown,정답입니다,611.879310999997,None,611.879310999997,None,611.879310999997,None,611.879310999997,None,613.1259927999927,None,613.1259927999927,613.6259294999763,,,,,,,,,,,,,,,,129,2022-05-11_12h16.55.893,FishGame,2022.1.1,60.07918436644796,
,42,넌 변덕맞아,5,Green,B,2.75,2.166666666666667,ScrollUp,ScrollDown,Green.png,4,Negative,Congruent,0,0,0,0,,,,,,,,,,,,,,,,,,,,,,,,,0,41,41,41,,,,,,,,,,,,,,,,,,,,,,,,,,,,,,,,,,,,,,,,,,,,,,,,,,,,,,,,,,,,,,,,,,,,,,,,,2,1.0926209000172094,614.2648111999733,None,ScrollUp,정답입니다,614.2648111999733,None,614.2648111999733,None,614.2648111999733,None,614.2648111999733,None,615.2424700000556,None,615.2424700000556,615.7431455000769,,,,,,,,,,,,,,,,129,2022-05-11_12h16.55.893,FishGame,2022.1.1,60.07918436644796,
,43,나를 데려가줘,6,Green,B,0,0,ScrollDown,ScrollUp,Green.png,4,NonTarget,NonTarget,0,0,0,0,,,,,,,,,,,,,,,,,,,,,,,,,0,42,42,42,,,,,,,,,,,,,,,,,,,,,,,,,,,,,,,,,,,,,,,,,,,,,,,,,,,,,,,,,,,,,,,,,,,,,,,,,1,1.1986062000505626,616.3717665000586,None,ScrollDown,정답입니다,616.3717665000586,None,616.3717665000586,None,616.3717665000586,None,616.3717665000586,None,617.4647256999742,None,617.4647256999742,617.9761103000492,,,,,,,,,,,,,,,,129,2022-05-11_12h16.55.893,FishGame,2022.1.1,60.07918436644796,
,44,넌 외로워,4,Green,B,2.833333333333333,3.3,ScrollUp,ScrollDown,Green.png,4,Negative,Congruent,0,0,0,0,,,,,,,,,,,,,,,,,,,,,,,,,0,43,43,43,,,,,,,,,,,,,,,,,,,,,,,,,,,,,,,,,,,,,,,,,,,,,,,,,,,,,,,,,,,,,,,,,,,,,,,,,2,1.0860447000013664,618.6093466000166,None,ScrollUp,정답입니다,618.6093466000166,None,618.6093466000166,None,618.6093466000166,None,618.6093466000166,None,619.5890987999737,None,619.5890987999737,620.0924234000267,,,,,,,,,,,,,,,,129,2022-05-11_12h16.55.893,FishGame,2022.1.1,60.07918436644796,
,1,넌 불평스러워,5,Orange,A,2.25,2.066666666666667,ScrollDown,ScrollUp,Orange.png,5,Negative,Incongruent,0,0,0,0,,,,,,,,,,,,,,,,,,,,,,,,,,,,,0,0,0,0,,,,,,,,,,,,,,,,,,,,,,,,,,,,651.6940702999709,653.1937739000423,653.2268668999895,654.1772449000273,654.2271476000315,655.1773808000144,655.1773808000144,None,,,,,,,,,,,,,,,,,,,,,,,,,,,,,,,,,,1,1.1471705000149086,656.3263393000234,None,ScrollDown,정답입니다,656.3263393000234,None,656.3263393000234,None,656.3263393000234,None,656.3263393000234,None,657.3152752000606,None,657.3152752000606,657.8266721999971,620.5923837000737,None,620.5923837000737,None,-0.15277778,-0.11018518,1,0,0,0.016290019964799285,None,650.5936339000473,None,,,129,2022-05-11_12h16.55.893,FishGame,2022.1.1,60.07918436644796,
,2,나를 보내줘,6,Orange,A,0,0,ScrollUp,ScrollDown,Orange.png,5,NonTarget,NonTarget,0,0,0,0,,,,,,,,,,,,,,,,,,,,,,,,,,,,,0,1,1,1,,,,,,,,,,,,,,,,,,,,,,,,,,,,,,,,,,,,,,,,,,,,,,,,,,,,,,,,,,,,,,,,,,,,,2,1.0256436000345275,658.461404300062,None,ScrollUp,정답입니다,658.461404300062,None,658.461404300062,None,658.461404300062,None,658.461404300062,None,659.3773408000125,None,659.3773408000125,659.8768929999787,,,,,,,,,,,,,,,,129,2022-05-11_12h16.55.893,FishGame,2022.1.1,60.07918436644796,
,3,넌 다재다능해,2,Green,B,6.208333333333333,4.5,ScrollUp,ScrollDown,Green.png,5,Positive,Incongruent,0,0,0,0,,,,,,,,,,,,,,,,,,,,,,,,,,,,,0,2,2,2,,,,,,,,,,,,,,,,,,,,,,,,,,,,,,,,,,,,,,,,,,,,,,,,,,,,,,,,,,,,,,,,,,,,,2,1.1394950000103563,660.5224589999998,None,ScrollUp,정답입니다,660.5224589999998,None,660.5224589999998,None,660.5224589999998,None,660.5224589999998,None,661.5433243999723,None,661.5433243999723,662.0441316000652,,,,,,,,,,,,,,,,129,2022-05-11_12h16.55.893,FishGame,2022.1.1,60.07918436644796,
,4,넌 과감해,3,Orange,A,4.833333333333334,4.6,ScrollDown,ScrollUp,Orange.png,5,Neutral,Neutral,0,0,0,0,,,,,,,,,,,,,,,,,,,,,,,,,,,,,0,3,3,3,,,,,,,,,,,,,,,,,,,,,,,,,,,,,,,,,,,,,,,,,,,,,,,,,,,,,,,,,,,,,,,,,,,,,1,1.0132475999416783,662.6719229000155,None,ScrollDown,정답입니다,662.6719229000155,None,662.6719229000155,None,662.6719229000155,None,662.6719229000155,None,663.5810150000034,None,663.5810150000034,664.0936437000055,,,,,,,,,,,,,,,,129,2022-05-11_12h16.55.893,FishGame,2022.1.1,60.07918436644796,
,5,넌 고분고분해,3,Green,B,3.75,4.033333333333333,ScrollUp,ScrollDown,Green.png,5,Neutral,Neutral,0,0,0,0,,,,,,,,,,,,,,,,,,,,,,,,,,,,,0,4,4,4,,,,,,,,,,,,,,,,,,,,,,,,,,,,,,,,,,,,,,,,,,,,,,,,,,,,,,,,,,,,,,,,,,,,,2,1.0683774999342859,664.7337289999705,None,ScrollUp,정답입니다,664.7337289999705,None,664.7337289999705,None,664.7337289999705,None,664.7337289999705,None,665.6904365000082,None,665.6904365000082,666.1938078000676,,,,,,,,,,,,,,,,129,2022-05-11_12h16.55.893,FishGame,2022.1.1,60.07918436644796,
,6,나를 보내줘,6,Orange,A,0,0,ScrollUp,ScrollDown,Orange.png,5,NonTarget,NonTarget,0,0,0,0,,,,,,,,,,,,,,,,,,,,,,,,,,,,,0,5,5,5,,,,,,,,,,,,,,,,,,,,,,,,,,,,,,,,,,,,,,,,,,,,,,,,,,,,,,,,,,,,,,,,,,,,,2,1.0634343000128865,666.8372830000008,None,ScrollUp,정답입니다,666.8372830000008,None,666.8372830000008,None,666.8372830000008,None,666.8372830000008,None,667.7818837000523,None,667.7818837000523,668.2939746000338,,,,,,,,,,,,,,,,129,2022-05-11_12h16.55.893,FishGame,2022.1.1,60.07918436644796,
,7,넌 잘 잊어,4,Orange,A,3,3.7,ScrollDown,ScrollUp,Orange.png,5,Negative,Incongruent,0,0,0,0,,,,,,,,,,,,,,,,,,,,,,,,,,,,,0,6,6,6,,,,,,,,,,,,,,,,,,,,,,,,,,,,,,,,,,,,,,,,,,,,,,,,,,,,,,,,,,,,,,,,,,,,,1,1.1900158999487758,668.9369621999795,None,ScrollDown,정답입니다,668.9369621999795,None,668.9369621999795,None,668.9369621999795,None,668.9369621999795,None,670.0109507000307,None,670.0109507000307,670.510216100025,,,,,,,,,,,,,,,,129,2022-05-11_12h16.55.893,FishGame,2022.1.1,60.07918436644796,
,8,넌 탐구심이없어,4,Green,B,2.833333333333333,3.066666666666667,ScrollUp,ScrollDown,Green.png,5,Negative,Congruent,0,0,0,0,,,,,,,,,,,,,,,,,,,,,,,,,,,,,0,7,7,7,,,,,,,,,,,,,,,,,,,,,,,,,,,,,,,,,,,,,,,,,,,,,,,,,,,,,,,,,,,,,,,,,,,,,2,1.06478470005095,671.139689899981,None,ScrollUp,정답입니다,671.139689899981,None,671.139689899981,None,671.139689899981,None,671.139689899981,None,672.0989617999876,None,672.0989617999876,672.6106025000336,,,,,,,,,,,,,,,,129,2022-05-11_12h16.55.893,FishGame,2022.1.1,60.07918436644796,
,9,나를 데려가줘,6,Green,B,0,0,ScrollDown,ScrollUp,Green.png,5,NonTarget,NonTarget,0,0,0,0,,,,,,,,,,,,,,,,,,,,,,,,,,,,,0,8,8,8,,,,,,,,,,,,,,,,,,,,,,,,,,,,,,,,,,,,,,,,,,,,,,,,,,,,,,,,,,,,,,,,,,,,,1,1.0475303999846801,673.2352493000217,None,ScrollDown,정답입니다,673.2352493000217,None,673.2352493000217,None,673.2352493000217,None,673.2352493000217,None,674.181649300037,None,674.181649300037,674.6941314999713,,,,,,,,,,,,,,,,129,2022-05-11_12h16.55.893,FishGame,2022.1.1,60.07918436644796,
,10,넌 참되어,2,Orange,A,6.041666666666664,4.733333333333333,ScrollDown,ScrollUp,Orange.png,5,Positive,Congruent,0,0,0,0,,,,,,,,,,,,,,,,,,,,,,,,,,,,,0,9,9,9,,,,,,,,,,,,,,,,,,,,,,,,,,,,,,,,,,,,,,,,,,,,,,,,,,,,,,,,,,,,,,,,,,,,,1,1.2766182000050321,675.3308222000487,None,ScrollDown,정답입니다,675.3308222000487,None,675.3308222000487,None,675.3308222000487,None,675.3308222000487,None,676.4982448000228,None,676.4982448000228,677.010724700056,,,,,,,,,,,,,,,,129,2022-05-11_12h16.55.893,FishGame,2022.1.1,60.07918436644796,
,11,넌 생기있어,1,Green,B,5.875,5.633333333333334,ScrollUp,ScrollDown,Green.png,5,Positive,Incongruent,0,0,0,0,,,,,,,,,,,,,,,,,,,,,,,,,,,,,0,10,10,10,,,,,,,,,,,,,,,,,,,,,,,,,,,,,,,,,,,,,,,,,,,,,,,,,,,,,,,,,,,,,,,,,,,,,2,1.0345983000006527,677.63912539999,None,ScrollUp,정답입니다,677.63912539999,None,677.63912539999,None,677.63912539999,None,677.63912539999,None,678.5656375000253,None,678.5656375000253,679.0774929000763,,,,,,,,,,,,,,,,129,2022-05-11_12h16.55.893,FishGame,2022.1.1,60.07918436644796,
,12,넌 비사교적이야,4,Green,B,2.875,2.9,ScrollUp,ScrollDown,Green.png,5,Negative,Congruent,0,0,0,0,,,,,,,,,,,,,,,,,,,,,,,,,,,,,0,11,11,11,,,,,,,,,,,,,,,,,,,,,,,,,,,,,,,,,,,,,,,,,,,,,,,,,,,,,,,,,,,,,,,,,,,,,2,1.0471930999774486,679.7076540000271,None,ScrollUp,정답입니다,679.7076540000271,None,679.7076540000271,None,679.7076540000271,None,679.7076540000271,None,680.6495953999693,None,680.6495953999693,681.1607124999864,,,,,,,,,,,,,,,,129,2022-05-11_12h16.55.893,FishGame,2022.1.1,60.07918436644796,
,13,나를 데려가줘,6,Green,B,0,0,ScrollDown,ScrollUp,Green.png,5,NonTarget,NonTarget,0,0,0,0,,,,,,,,,,,,,,,,,,,,,,,,,,,,,0,12,12,12,,,,,,,,,,,,,,,,,,,,,,,,,,,,,,,,,,,,,,,,,,,,,,,,,,,,,,,,,,,,,,,,,,,,,1,1.1163830999284983,681.7968733999878,None,ScrollDown,정답입니다,681.7968733999878,None,681.7968733999878,None,681.7968733999878,None,681.7968733999878,None,682.798868700047,None,682.798868700047,683.3107871999964,,,,,,,,,,,,,,,,129,2022-05-11_12h16.55.893,FishGame,2022.1.1,60.07918436644796,
,14,넌 고독해,4,Orange,A,2.916666666666667,3.233333333333333,ScrollDown,ScrollUp,Orange.png,5,Negative,Incongruent,0,0,0,0,,,,,,,,,,,,,,,,,,,,,,,,,,,,,0,13,13,13,,,,,,,,,,,,,,,,,,,,,,,,,,,,,,,,,,,,,,,,,,,,,,,,,,,,,,,,,,,,,,,,,,,,,1,0.9733569999225438,683.9384633000009,None,ScrollDown,정답입니다,683.9384633000009,None,683.9384633000009,None,683.9384633000009,None,683.9384633000009,None,684.8111880000215,None,684.8111880000215,685.3114130999893,,,,,,,,,,,,,,,,129,2022-05-11_12h16.55.893,FishGame,2022.1.1,60.07918436644796,
,15,넌 신경질적이야,5,Green,B,2.375,2.233333333333333,ScrollUp,ScrollDown,Green.png,5,Negative,Congruent,0,0,0,0,,,,,,,,,,,,,,,,,,,,,,,,,,,,,0,14,14,14,,,,,,,,,,,,,,,,,,,,,,,,,,,,,,,,,,,,,,,,,,,,,,,,,,,,,,,,,,,,,,,,,,,,,2,0.9846056000096723,685.9505923000397,None,ScrollUp,정답입니다,685.9505923000397,None,685.9505923000397,None,685.9505923000397,None,685.9505923000397,None,686.8238405999728,None,686.8238405999728,687.3279233999783,,,,,,,,,,,,,,,,129,2022-05-11_12h16.55.893,FishGame,2022.1.1,60.07918436644796,
,16,넌 똑똑해,2,Green,B,5.666666666666667,3.966666666666667,ScrollUp,ScrollDown,Green.png,5,Positive,Incongruent,0,0,0,0,,,,,,,,,,,,,,,,,,,,,,,,,,,,,0,15,15,15,,,,,,,,,,,,,,,,,,,,,,,,,,,,,,,,,,,,,,,,,,,,,,,,,,,,,,,,,,,,,,,,,,,,,2,1.079541499959305,687.9650120000588,None,ScrollUp,정답입니다,687.9650120000588,None,687.9650120000588,None,687.9650120000588,None,687.9650120000588,None,688.9322178000584,None,688.9322178000584,689.4442491000518,,,,,,,,,,,,,,,,129,2022-05-11_12h16.55.893,FishGame,2022.1.1,60.07918436644796,
,17,나를 보내줘,6,Orange,A,0,0,ScrollUp,ScrollDown,Orange.png,5,NonTarget,NonTarget,0,0,0,0,,,,,,,,,,,,,,,,,,,,,,,,,,,,,0,16,16,16,,,,,,,,,,,,,,,,,,,,,,,,,,,,,,,,,,,,,,,,,,,,,,,,,,,,,,,,,,,,,,,,,,,,,2,1.088320399983786,690.0813498999923,None,ScrollUp,정답입니다,690.0813498999923,None,690.0813498999923,None,690.0813498999923,None,690.0813498999923,None,691.0609553999966,None,691.0609553999966,691.5617885000538,,,,,,,,,,,,,,,,129,2022-05-11_12h16.55.893,FishGame,2022.1.1,60.07918436644796,
,18,넌 협조적이야,1,Orange,A,5.625,5.666666666666667,ScrollDown,ScrollUp,Orange.png,5,Positive,Congruent,0,0,0,0,,,,,,,,,,,,,,,,,,,,,,,,,,,,,0,17,17,17,,,,,,,,,,,,,,,,,,,,,,,,,,,,,,,,,,,,,,,,,,,,,,,,,,,,,,,,,,,,,,,,,,,,,1,0.999243599944748,692.2065814000089,None,ScrollDown,정답입니다,692.2065814000089,None,692.2065814000089,None,692.2065814000089,None,692.2065814000089,None,693.082190599991,None,693.082190599991,693.5943172000116,,,,,,,,,,,,,,,,129,2022-05-11_12h16.55.893,FishGame,2022.1.1,60.07918436644796,
,19,나를 데려가줘,6,Green,B,0,0,ScrollDown,ScrollUp,Green.png,5,NonTarget,NonTarget,0,0,0,0,,,,,,,,,,,,,,,,,,,,,,,,,,,,,0,18,18,18,,,,,,,,,,,,,,,,,,,,,,,,,,,,,,,,,,,,,,,,,,,,,,,,,,,,,,,,,,,,,,,,,,,,,1,1.1407016000011936,694.2177465000423,None,ScrollDown,정답입니다,694.2177465000423,None,694.2177465000423,None,694.2177465000423,None,694.2177465000423,None,695.2606184000615,None,695.2606184000615,695.7613600000041,,,,,,,,,,,,,,,,129,2022-05-11_12h16.55.893,FishGame,2022.1.1,60.07918436644796,
,20,넌 몰인정해,5,Green,B,2.541666666666667,2.066666666666667,ScrollUp,ScrollDown,Green.png,5,Negative,Congruent,0,0,0,0,,,,,,,,,,,,,,,,,,,,,,,,,,,,,0,19,19,19,,,,,,,,,,,,,,,,,,,,,,,,,,,,,,,,,,,,,,,,,,,,,,,,,,,,,,,,,,,,,,,,,,,,,2,1.0453585999784991,696.3989731000038,None,ScrollUp,정답입니다,696.3989731000038,None,696.3989731000038,None,696.3989731000038,None,696.3989731000038,None,697.3326591000659,None,697.3326591000659,697.844726499985,,,,,,,,,,,,,,,,129,2022-05-11_12h16.55.893,FishGame,2022.1.1,60.07918436644796,
,21,나를 데려가줘,6,Green,B,0,0,ScrollDown,ScrollUp,Green.png,5,NonTarget,NonTarget,0,0,0,0,,,,,,,,,,,,,,,,,,,,,,,,,,,,,0,20,20,20,,,,,,,,,,,,,,,,,,,,,,,,,,,,,,,,,,,,,,,,,,,,,,,,,,,,,,,,,,,,,,,,,,,,,1,1.4334013999905437,698.4673132000025,None,ScrollDown,정답입니다,698.4673132000025,None,698.4673132000025,None,698.4673132000025,None,698.4673132000025,None,699.7992307000095,None,699.7992307000095,700.3113477000734,,,,,,,,,,,,,,,,129,2022-05-11_12h16.55.893,FishGame,2022.1.1,60.07918436644796,
,22,넌 순진해,3,Green,B,4.125,4.166666666666667,ScrollUp,ScrollDown,Green.png,5,Neutral,Neutral,0,0,0,0,,,,,,,,,,,,,,,,,,,,,,,,,,,,,0,21,21,21,,,,,,,,,,,,,,,,,,,,,,,,,,,,,,,,,,,,,,,,,,,,,,,,,,,,,,,,,,,,,,,,,,,,,2,1.1654182999627665,700.9371278000763,None,ScrollUp,정답입니다,700.9371278000763,None,700.9371278000763,None,700.9371278000763,None,700.9371278000763,None,701.999112999998,None,701.999112999998,702.5115150000202,,,,,,,,,,,,,,,,129,2022-05-11_12h16.55.893,FishGame,2022.1.1,60.07918436644796,
,23,넌 신뢰할만해,1,Orange,A,6.625,5.533333333333333,ScrollDown,ScrollUp,Orange.png,5,Positive,Congruent,0,0,0,0,,,,,,,,,,,,,,,,,,,,,,,,,,,,,0,22,22,22,,,,,,,,,,,,,,,,,,,,,,,,,,,,,,,,,,,,,,,,,,,,,,,,,,,,,,,,,,,,,,,,,,,,,1,1.023498099995777,703.154983800021,None,ScrollDown,정답입니다,703.154983800021,None,703.154983800021,None,703.154983800021,None,703.154983800021,None,704.0611470000586,None,704.0611470000586,704.5613520999905,,,,,,,,,,,,,,,,129,2022-05-11_12h16.55.893,FishGame,2022.1.1,60.07918436644796,
,24,나를 보내줘,6,Orange,A,0,0,ScrollUp,ScrollDown,Orange.png,5,NonTarget,NonTarget,0,0,0,0,,,,,,,,,,,,,,,,,,,,,,,,,,,,,0,23,23,23,,,,,,,,,,,,,,,,,,,,,,,,,,,,,,,,,,,,,,,,,,,,,,,,,,,,,,,,,,,,,,,,,,,,,2,1.8204633999848738,705.1924559000181,None,ScrollUp,정답입니다,705.1924559000181,None,705.1924559000181,None,705.1924559000181,None,705.1924559000181,None,706.9077640000032,None,706.9077640000032,707.4111912000226,,,,,,,,,,,,,,,,129,2022-05-11_12h16.55.893,FishGame,2022.1.1,60.07918436644796,
,25,넌 인색해,5,Orange,A,2.625,2.233333333333333,ScrollDown,ScrollUp,Orange.png,5,Negative,Incongruent,0,0,0,0,,,,,,,,,,,,,,,,,,,,,,,,,,,,,0,24,24,24,,,,,,,,,,,,,,,,,,,,,,,,,,,,,,,,,,,,,,,,,,,,,,,,,,,,,,,,,,,,,,,,,,,,,1,1.191433500032872,708.0517518999986,None,ScrollDown,정답입니다,708.0517518999986,None,708.0517518999986,None,708.0517518999986,None,708.0517518999986,None,709.1280232999707,None,709.1280232999707,709.6279900000663,,,,,,,,,,,,,,,,129,2022-05-11_12h16.55.893,FishGame,2022.1.1,60.07918436644796,
,26,넌 유쾌해,1,Green,B,5.833333333333333,5.766666666666667,ScrollUp,ScrollDown,Green.png,5,Positive,Incongruent,0,0,0,0,,,,,,,,,,,,,,,,,,,,,,,,,,,,,0,25,25,25,,,,,,,,,,,,,,,,,,,,,,,,,,,,,,,,,,,,,,,,,,,,,,,,,,,,,,,,,,,,,,,,,,,,,2,1.001218800083734,710.2583290999755,None,ScrollUp,정답입니다,710.2583290999755,None,710.2583290999755,None,710.2583290999755,None,710.2583290999755,None,711.158241600031,None,711.158241600031,711.6615498000756,,,,,,,,,,,,,,,,129,2022-05-11_12h16.55.893,FishGame,2022.1.1,60.07918436644796,
,27,나를 보내줘,6,Orange,A,0,0,ScrollUp,ScrollDown,Orange.png,5,NonTarget,NonTarget,0,0,0,0,,,,,,,,,,,,,,,,,,,,,,,,,,,,,0,26,26,26,,,,,,,,,,,,,,,,,,,,,,,,,,,,,,,,,,,,,,,,,,,,,,,,,,,,,,,,,,,,,,,,,,,,,2,1.1897497000172734,712.2910120000597,None,ScrollUp,정답입니다,712.2910120000597,None,712.2910120000597,None,712.2910120000597,None,712.2910120000597,None,713.3784693999914,None,713.3784693999914,713.8789882999845,,,,,,,,,,,,,,,,129,2022-05-11_12h16.55.893,FishGame,2022.1.1,60.07918436644796,
