name,TrialNum,Word,WordCategory,FishType,WordList,WordValence,WordReputation,CorrectResp,IncorrectResp,FishTypeFile,Round,WordType,Condition,LoopforOrange.thisRepN,LoopforOrange.thisTrialN,LoopforOrange.thisN,LoopforOrange.thisIndex,LoopForGreen.thisRepN,LoopForGreen.thisTrialN,LoopForGreen.thisN,LoopForGreen.thisIndex,GreenInstLoop.thisRepN,GreenInstLoop.thisTrialN,GreenInstLoop.thisN,GreenInstLoop.thisIndex,GreenPrac.thisRepN,GreenPrac.thisTrialN,GreenPrac.thisN,GreenPrac.thisIndex,trials_2.thisRepN,trials_2.thisTrialN,trials_2.thisN,trials_2.thisIndex,GreenRound1.thisRepN,GreenRound1.thisTrialN,GreenRound1.thisN,GreenRound1.thisIndex,GreenRound2.thisRepN,GreenRound2.thisTrialN,GreenRound2.thisN,GreenRound2.thisIndex,GreenRound3.thisRepN,GreenRound3.thisTrialN,GreenRound3.thisN,GreenRound3.thisIndex,GreenRound4.thisRepN,GreenRound4.thisTrialN,GreenRound4.thisN,GreenRound4.thisIndex,GreenRound5.thisRepN,GreenRound5.thisTrialN,GreenRound5.thisN,GreenRound5.thisIndex,text_2.started,text_2.stopped,text_3.started,text_3.stopped,key_resp.keys,key_resp.rt,key_resp.started,key_resp.stopped,PassI.started,PassI.stopped,PassInst.keys,PassInst.rt,PassInst.started,PassInst.stopped,mouse_2.x,mouse_2.y,mouse_2.leftButton,mouse_2.midButton,mouse_2.rightButton,mouse_2.started,mouse_2.stopped,image.started,image.stopped,text_5.started,text_5.stopped,text_6.started,text_6.stopped,text_7.started,text_7.stopped,text_8.started,text_8.stopped,slider_3.response,slider_3.rt,slider_3.started,slider_3.stopped,Response_3,Feedback_3,BackGround_3.started,BackGround_3.stopped,Fish_3.started,Fish_3.stopped,WordBox_3.started,WordBox_3.stopped,Words_3.started,Words_3.stopped,BackGround_Feedback_3.started,BackGround_Feedback_3.stopped,Feedbacks_3.started,Feedbacks_3.stopped,Continue_or_not_2.keys,Continue_or_not_2.rt,Continue_or_not_2.started,Continue_or_not_2.stopped,image_4.started,image_4.stopped,mouse_3.x,mouse_3.y,mouse_3.leftButton,mouse_3.midButton,mouse_3.rightButton,mouse_3.started,mouse_3.stopped,startmain.started,startmain.stopped,slider_4.response,slider_4.rt,slider_4.started,slider_4.stopped,Response_4,Feedback_4,BackGround_4.started,BackGround_4.stopped,Fish_4.started,Fish_4.stopped,WordBox_4.started,WordBox_4.stopped,Words_4.started,Words_4.stopped,BackGround_Feedback_4.started,BackGround_Feedback_4.stopped,Feedbacks_4.started,Feedbacks_4.stopped,text.started,text.stopped,break_interval.started,break_interval.stopped,mouse.x,mouse.y,mouse.leftButton,mouse.midButton,mouse.rightButton,mouse.started,mouse.stopped,stratnextround.started,stratnextround.stopped,endgame.started,endgame.stopped,participant,date,expName,psychopyVersion,frameRate,
,,,,,,,,,,,,,,,,,,,,,,,,,,,,,,,,,,,,,,,,,,,,,,,,,,,,,,21.45821379998233,None,21.45821379998233,None,space,1.5940699999919161,21.908997499966063,None,,,,,,,,,,,,,,,,,,,,,,,,,,,,,,,,,,,,,,,,,,,,,,,,,,,,,,,,,,,,,,,,,,,,,,,,,,,,,,,,,,,,,,,,,,130,2022-05-11_13h44.13.155,FishGame,2022.1.1,59.845299878358595,
물고기과제_instruction(참가자용)GreenVersion.mp4,,,,,,,,,,,,,,,,,,0,0,0,0,0,0,0,0,,,,,,,,,,,,,,,,,,,,,,,,,,,,,,,,,,,,,90.3554949000245,None,n,27.13457729993388,90.3554949000245,None,,,,,,,,,,,,,,,,,,,,,,,,,,,,,,,,,,,,,,,,,,,,,,,,,,,,,,,,,,,,,,,,,,,,,,,,,,,,,,,,,,,,130,2022-05-11_13h44.13.155,FishGame,2022.1.1,59.845299878358595,
,1,넌 교활해,5,Orange,B,2.333333333333333,2.133333333333333,ScrollUp,ScrollDown,Orange.png,practice,,,,,,,0,0,0,0,,,,,0,0,0,0,0,0,0,0,,,,,,,,,,,,,,,,,,,,,,,,,,,,,,,,,,,-0.021296296,-0.26018518,1,0,0,0.5138528200332075,None,117.51207190006971,None,125.31188080005813,126.81163240002934,126.8446848000167,127.79494679998606,127.84526690002531,128.7952832999872,128.7952832999872,None,2,1.6394106999505311,129.95954299997538,None,ScrollUp,정답입니다,129.95954299997538,None,129.95954299997538,None,129.95954299997538,None,129.95954299997538,None,131.42847190005705,None,131.42847190005705,131.92827190004755,,,,,,,,,,,,,,,,,,,,,,,,,,,,,,,,,,,,,,,,,,,,,,,,,130,2022-05-11_13h44.13.155,FishGame,2022.1.1,59.845299878358595,
,2,넌 슬기로워,2,Green,A,6.166666666666667,4.1,ScrollDown,ScrollUp,Green.png,practice,,,,,,,0,0,0,0,,,,,0,0,0,0,0,1,1,1,,,,,,,,,,,,,,,,,,,,,,,,,,,,,,,,,,,,,,,,,,,,,,,,,,,,1,1.646611399948597,132.57010210002773,None,ScrollDown,정답입니다,132.57010210002773,None,132.57010210002773,None,132.57010210002773,None,132.57010210002773,None,134.09503099997528,None,134.09503099997528,134.59487939998507,,,,,,,,,,,,,,,,,,,,,,,,,,,,,,,,,,,,,,,,,,,,,,,,,130,2022-05-11_13h44.13.155,FishGame,2022.1.1,59.845299878358595,
,3,나를 보내줘,6,Green,A,0,0,ScrollUp,ScrollDown,Green.png,practice,,,,,,,0,0,0,0,,,,,0,0,0,0,0,2,2,2,,,,,,,,,,,,,,,,,,,,,,,,,,,,,,,,,,,,,,,,,,,,,,,,,,,,2,1.8010209000203758,135.22989209997468,None,ScrollUp,정답입니다,135.22989209997468,None,135.22989209997468,None,135.22989209997468,None,135.22989209997468,None,136.91671400004998,None,136.91671400004998,137.42839540005662,,,,,,,,,,,,,,,,,,,,,,,,,,,,,,,,,,,,,,,,,,,,,,,,,130,2022-05-11_13h44.13.155,FishGame,2022.1.1,59.845299878358595,
,4,나를 데려가줘,6,Orange,B,0,0,ScrollDown,ScrollUp,Orange.png,practice,,,,,,,0,0,0,0,,,,,0,0,0,0,0,3,3,3,,,,,,,,,,,,,,,,,,,,,,,,,,,,,,,,,,,,,,,,,,,,,,,,,,,,1,1.6461788000306115,138.0623115999624,None,ScrollDown,정답입니다,138.0623115999624,None,138.0623115999624,None,138.0623115999624,None,138.0623115999624,None,139.59494109998923,None,139.59494109998923,140.09548779996112,,,,,,,,,,,,,,,,,,,,,,,,,,,,,,,,,,,,,,,,,,,,,,,,,130,2022-05-11_13h44.13.155,FishGame,2022.1.1,59.845299878358595,
,1,넌 교활해,5,Orange,B,2.333333333333333,2.133333333333333,ScrollUp,ScrollDown,Orange.png,practice,,,,,,,0,0,0,0,,,,,0,0,0,0,,,,,,,,,,,,,,,,,,,,,,,,,,,,,,,,,,,,,,,,,,,,,,,,,,,,,,,,,,,,,,,,,,,,,,,,,,n,11.218868599971756,140.595118700061,None,140.595118700061,None,,,,,,,,,,,,,,,,,,,,,,,,,,,,,,,,,,,,,,,,,,,130,2022-05-11_13h44.13.155,FishGame,2022.1.1,59.845299878358595,
,1,넌 따뜻해,1,Orange,B,6.083333333333333,5.6,ScrollUp,ScrollDown,Orange.png,1,Positive,Incongruent,,,,,0,0,0,0,,,,,,,,,,,,,0,0,0,0,,,,,,,,,,,,,,,,,,,,,,,,,,,,,,,,,,,,,,,,159.31245279998984,160.8126110000303,160.8457251000218,161.79591550002806,161.84569480002392,162.79575539997313,162.79575539997313,None,,,,,,,,,,,,,,,,,,,,,,,,,-0.08796296,-0.11111111,1,0,0,0.3133919200627133,None,151.8455774000613,None,2,1.568165999953635,163.97878740006126,None,ScrollUp,정답입니다,163.97878740006126,None,163.97878740006126,None,163.97878740006126,None,163.97878740006126,None,165.36212439998053,None,165.36212439998053,165.86271060002036,,,,,,,,,,,,,,,,130,2022-05-11_13h44.13.155,FishGame,2022.1.1,59.845299878358595,
,2,넌 기품있어,2,Orange,B,5.791666666666668,4.5,ScrollUp,ScrollDown,Orange.png,1,Positive,Incongruent,,,,,0,0,0,0,,,,,,,,,,,,,0,1,1,1,,,,,,,,,,,,,,,,,,,,,,,,,,,,,,,,,,,,,,,,,,,,,,,,,,,,,,,,,,,,,,,,,,,,,,,,,,,,,,,,,2,1.616710799979046,166.51757919997908,None,ScrollUp,정답입니다,166.51757919997908,None,166.51757919997908,None,166.51757919997908,None,166.51757919997908,None,168.00039629999083,None,168.00039629999083,168.51273429999128,,,,,,,,,,,,,,,,130,2022-05-11_13h44.13.155,FishGame,2022.1.1,59.845299878358595,
,3,나를 보내줘,6,Green,A,0,0,ScrollUp,ScrollDown,Green.png,1,NonTarget,NonTarget,,,,,0,0,0,0,,,,,,,,,,,,,0,2,2,2,,,,,,,,,,,,,,,,,,,,,,,,,,,,,,,,,,,,,,,,,,,,,,,,,,,,,,,,,,,,,,,,,,,,,,,,,,,,,,,,,2,1.6100919999880716,169.15314770000987,None,ScrollUp,정답입니다,169.15314770000987,None,169.15314770000987,None,169.15314770000987,None,169.15314770000987,None,170.6454963000724,None,170.6454963000724,171.1455869000638,,,,,,,,,,,,,,,,130,2022-05-11_13h44.13.155,FishGame,2022.1.1,59.845299878358595,
,4,넌 수동적이야,4,Green,A,2.833333333333333,2.933333333333333,ScrollDown,ScrollUp,Green.png,1,Negative,Incongruent,,,,,0,0,0,0,,,,,,,,,,,,,0,3,3,3,,,,,,,,,,,,,,,,,,,,,,,,,,,,,,,,,,,,,,,,,,,,,,,,,,,,,,,,,,,,,,,,,,,,,,,,,,,,,,,,,1,1.6357524999184534,171.7908194999909,None,ScrollDown,정답입니다,171.7908194999909,None,171.7908194999909,None,171.7908194999909,None,171.7908194999909,None,173.31067859998439,None,173.31067859998439,173.81259740004316,,,,,,,,,,,,,,,,130,2022-05-11_13h44.13.155,FishGame,2022.1.1,59.845299878358595,
,5,넌 사심이 없어,3,Orange,B,4.916666666666666,4.333333333333333,ScrollUp,ScrollDown,Orange.png,1,Neutral,Neutral,,,,,0,0,0,0,,,,,,,,,,,,,0,4,4,4,,,,,,,,,,,,,,,,,,,,,,,,,,,,,,,,,,,,,,,,,,,,,,,,,,,,,,,,,,,,,,,,,,,,,,,,,,,,,,,,,2,1.5360255999257788,174.46735739998985,None,ScrollUp,정답입니다,174.46735739998985,None,174.46735739998985,None,174.46735739998985,None,174.46735739998985,None,175.86699690006208,None,175.86699690006208,176.37980410002638,,,,,,,,,,,,,,,,130,2022-05-11_13h44.13.155,FishGame,2022.1.1,59.845299878358595,
,6,넌 헤퍼,5,Green,A,2.458333333333334,2.233333333333333,ScrollDown,ScrollUp,Green.png,1,Negative,Incongruent,,,,,0,0,0,0,,,,,,,,,,,,,0,5,5,5,,,,,,,,,,,,,,,,,,,,,,,,,,,,,,,,,,,,,,,,,,,,,,,,,,,,,,,,,,,,,,,,,,,,,,,,,,,,,,,,,1,1.529493499896489,177.0115436000051,None,ScrollDown,정답입니다,177.0115436000051,None,177.0115436000051,None,177.0115436000051,None,177.0115436000051,None,178.43097169999965,None,178.43097169999965,178.94561679998878,,,,,,,,,,,,,,,,130,2022-05-11_13h44.13.155,FishGame,2022.1.1,59.845299878358595,
,7,넌 말쑥해,3,Green,A,4.833333333333334,4.333333333333333,ScrollDown,ScrollUp,Green.png,1,Neutral,Neutral,,,,,0,0,0,0,,,,,,,,,,,,,0,6,6,6,,,,,,,,,,,,,,,,,,,,,,,,,,,,,,,,,,,,,,,,,,,,,,,,,,,,,,,,,,,,,,,,,,,,,,,,,,,,,,,,,1,1.3278026999905705,179.58765800006222,None,ScrollDown,정답입니다,179.58765800006222,None,179.58765800006222,None,179.58765800006222,None,179.58765800006222,None,180.79610779997893,None,180.79610779997893,181.29575170006137,,,,,,,,,,,,,,,,130,2022-05-11_13h44.13.155,FishGame,2022.1.1,59.845299878358595,
,8,넌 투덜거려,5,Orange,B,2.541666666666667,2.266666666666667,ScrollUp,ScrollDown,Orange.png,1,Negative,Congruent,,,,,0,0,0,0,,,,,,,,,,,,,0,7,7,7,,,,,,,,,,,,,,,,,,,,,,,,,,,,,,,,,,,,,,,,,,,,,,,,,,,,,,,,,,,,,,,,,,,,,,,,,,,,,,,,,2,1.444808500004001,181.9459848999977,None,ScrollUp,정답입니다,181.9459848999977,None,181.9459848999977,None,181.9459848999977,None,181.9459848999977,None,183.26276079996023,None,183.26276079996023,183.7632071999833,,,,,,,,,,,,,,,,130,2022-05-11_13h44.13.155,FishGame,2022.1.1,59.845299878358595,
,9,넌 적극적이야,1,Green,A,5.708333333333333,5.533333333333333,ScrollDown,ScrollUp,Green.png,1,Positive,Congruent,,,,,0,0,0,0,,,,,,,,,,,,,0,8,8,8,,,,,,,,,,,,,,,,,,,,,,,,,,,,,,,,,,,,,,,,,,,,,,,,,,,,,,,,,,,,,,,,,,,,,,,,,,,,,,,,,1,1.3426229999167845,184.39380199997686,None,ScrollDown,정답입니다,184.39380199997686,None,184.39380199997686,None,184.39380199997686,None,184.39380199997686,None,185.62940309999976,None,185.62940309999976,186.12935040006414,,,,,,,,,,,,,,,,130,2022-05-11_13h44.13.155,FishGame,2022.1.1,59.845299878358595,
,10,넌 재미없어,4,Orange,B,2.625,2.966666666666667,ScrollUp,ScrollDown,Orange.png,1,Negative,Congruent,,,,,0,0,0,0,,,,,,,,,,,,,0,9,9,9,,,,,,,,,,,,,,,,,,,,,,,,,,,,,,,,,,,,,,,,,,,,,,,,,,,,,,,,,,,,,,,,,,,,,,,,,,,,,,,,,2,1.3400205000070855,186.7722963000415,None,ScrollUp,정답입니다,186.7722963000415,None,186.7722963000415,None,186.7722963000415,None,186.7722963000415,None,187.9943850999698,None,187.9943850999698,188.49600829998963,,,,,,,,,,,,,,,,130,2022-05-11_13h44.13.155,FishGame,2022.1.1,59.845299878358595,
,11,넌 명석해,2,Green,A,5.875,4.033333333333333,ScrollDown,ScrollUp,Green.png,1,Positive,Congruent,,,,,0,0,0,0,,,,,,,,,,,,,0,10,10,10,,,,,,,,,,,,,,,,,,,,,,,,,,,,,,,,,,,,,,,,,,,,,,,,,,,,,,,,,,,,,,,,,,,,,,,,,,,,,,,,,1,1.4122836000751704,189.13133450003807,None,ScrollDown,정답입니다,189.13133450003807,None,189.13133450003807,None,189.13133450003807,None,189.13133450003807,None,190.4296492000576,None,190.4296492000576,190.9298156000441,,,,,,,,,,,,,,,,130,2022-05-11_13h44.13.155,FishGame,2022.1.1,59.845299878358595,
,12,나를 데려가줘,6,Orange,B,0,0,ScrollDown,ScrollUp,Orange.png,1,NonTarget,NonTarget,,,,,0,0,0,0,,,,,,,,,,,,,0,11,11,11,,,,,,,,,,,,,,,,,,,,,,,,,,,,,,,,,,,,,,,,,,,,,,,,,,,,,,,,,,,,,,,,,,,,,,,,,,,,,,,,,1,1.4753387999953702,191.57396329997573,None,ScrollDown,정답입니다,191.57396329997573,None,191.57396329997573,None,191.57396329997573,None,191.57396329997573,None,192.92975500004832,None,192.92975500004832,193.42983789998107,,,,,,,,,,,,,,,,130,2022-05-11_13h44.13.155,FishGame,2022.1.1,59.845299878358595,
,13,넌 소심해,4,Green,A,3,3.1,ScrollDown,ScrollUp,Green.png,1,Negative,Incongruent,,,,,0,0,0,0,,,,,,,,,,,,,0,12,12,12,,,,,,,,,,,,,,,,,,,,,,,,,,,,,,,,,,,,,,,,,,,,,,,,,,,,,,,,,,,,,,,,,,,,,,,,,,,,,,,,,1,1.4600816000020131,194.05885290005244,None,ScrollDown,정답입니다,194.05885290005244,None,194.05885290005244,None,194.05885290005244,None,194.05885290005244,None,195.4126739000203,None,195.4126739000203,195.9134306999622,,,,,,,,,,,,,,,,130,2022-05-11_13h44.13.155,FishGame,2022.1.1,59.845299878358595,
,14,넌 합리적이야,2,Green,A,5.583333333333333,4.733333333333333,ScrollDown,ScrollUp,Green.png,1,Positive,Congruent,,,,,0,0,0,0,,,,,,,,,,,,,0,13,13,13,,,,,,,,,,,,,,,,,,,,,,,,,,,,,,,,,,,,,,,,,,,,,,,,,,,,,,,,,,,,,,,,,,,,,,,,,,,,,,,,,1,1.455841200076975,196.55829339998309,None,ScrollDown,정답입니다,196.55829339998309,None,196.55829339998309,None,196.55829339998309,None,196.55829339998309,None,197.8942852000473,None,197.8942852000473,198.39656749996357,,,,,,,,,,,,,,,,130,2022-05-11_13h44.13.155,FishGame,2022.1.1,59.845299878358595,
,15,넌 무자비해,5,Orange,B,2.333333333333333,2.1,ScrollUp,ScrollDown,Orange.png,1,Negative,Congruent,,,,,0,0,0,0,,,,,,,,,,,,,0,14,14,14,,,,,,,,,,,,,,,,,,,,,,,,,,,,,,,,,,,,,,,,,,,,,,,,,,,,,,,,,,,,,,,,,,,,,,,,,,,,,,,,,2,1.3917054999619722,199.04598040005658,None,ScrollUp,정답입니다,199.04598040005658,None,199.04598040005658,None,199.04598040005658,None,199.04598040005658,None,200.31327350006904,None,200.31327350006904,200.81329890002962,,,,,,,,,,,,,,,,130,2022-05-11_13h44.13.155,FishGame,2022.1.1,59.845299878358595,
,16,나를 보내줘,6,Green,A,0,0,ScrollUp,ScrollDown,Green.png,1,NonTarget,NonTarget,,,,,0,0,0,0,,,,,,,,,,,,,0,15,15,15,,,,,,,,,,,,,,,,,,,,,,,,,,,,,,,,,,,,,,,,,,,,,,,,,,,,,,,,,,,,,,,,,,,,,,,,,,,,,,,,,2,1.4493369000265375,201.43870170006994,None,ScrollUp,정답입니다,201.43870170006994,None,201.43870170006994,None,201.43870170006994,None,201.43870170006994,None,202.78437010000926,None,202.78437010000926,203.29633419995662,,,,,,,,,,,,,,,,130,2022-05-11_13h44.13.155,FishGame,2022.1.1,59.845299878358595,
,17,넌 현실적이야,3,Orange,B,4.608695652173913,4.766666666666667,ScrollUp,ScrollDown,Orange.png,1,Neutral,Neutral,,,,,0,0,0,0,,,,,,,,,,,,,0,16,16,16,,,,,,,,,,,,,,,,,,,,,,,,,,,,,,,,,,,,,,,,,,,,,,,,,,,,,,,,,,,,,,,,,,,,,,,,,,,,,,,,,2,1.449568699928932,203.94073889998253,None,ScrollUp,정답입니다,203.94073889998253,None,203.94073889998253,None,203.94073889998253,None,203.94073889998253,None,205.2683599999873,None,205.2683599999873,205.7799711000407,,,,,,,,,,,,,,,,130,2022-05-11_13h44.13.155,FishGame,2022.1.1,59.845299878358595,
,18,넌 의리있어,1,Orange,B,5.833333333333334,5.633333333333334,ScrollUp,ScrollDown,Orange.png,1,Positive,Incongruent,,,,,0,0,0,0,,,,,,,,,,,,,0,17,17,17,,,,,,,,,,,,,,,,,,,,,,,,,,,,,,,,,,,,,,,,,,,,,,,,,,,,,,,,,,,,,,,,,,,,,,,,,,,,,,,,,2,1.336038799956441,206.42038050002884,None,ScrollUp,정답입니다,206.42038050002884,None,206.42038050002884,None,206.42038050002884,None,206.42038050002884,None,207.63464760000352,None,207.63464760000352,208.14646670001093,,,,,,,,,,,,,,,,130,2022-05-11_13h44.13.155,FishGame,2022.1.1,59.845299878358595,
,19,넌 신경과민이야,5,Green,A,2.541666666666667,2.166666666666667,ScrollDown,ScrollUp,Green.png,1,Negative,Incongruent,,,,,0,0,0,0,,,,,,,,,,,,,0,18,18,18,,,,,,,,,,,,,,,,,,,,,,,,,,,,,,,,,,,,,,,,,,,,,,,,,,,,,,,,,,,,,,,,,,,,,,,,,,,,,,,,,1,1.4207320000277832,208.79590240004472,None,ScrollDown,정답입니다,208.79590240004472,None,208.79590240004472,None,208.79590240004472,None,208.79590240004472,None,210.09458759997506,None,210.09458759997506,210.59679920005146,,,,,,,,,,,,,,,,130,2022-05-11_13h44.13.155,FishGame,2022.1.1,59.845299878358595,
,20,넌 편안해,1,Green,A,5.916666666666666,5.866666666666666,ScrollDown,ScrollUp,Green.png,1,Positive,Congruent,,,,,0,0,0,0,,,,,,,,,,,,,0,19,19,19,,,,,,,,,,,,,,,,,,,,,,,,,,,,,,,,,,,,,,,,,,,,,,,,,,,,,,,,,,,,,,,,,,,,,,,,,,,,,,,,,1,1.27461249998305,211.23474230000284,None,ScrollDown,정답입니다,211.23474230000284,None,211.23474230000284,None,211.23474230000284,None,211.23474230000284,None,212.39653260004707,None,212.39653260004707,212.89654940005857,,,,,,,,,,,,,,,,130,2022-05-11_13h44.13.155,FishGame,2022.1.1,59.845299878358595,
,21,넌 품위있어,2,Orange,B,5.291666666666666,4.466666666666667,ScrollUp,ScrollDown,Orange.png,1,Positive,Incongruent,,,,,0,0,0,0,,,,,,,,,,,,,0,20,20,20,,,,,,,,,,,,,,,,,,,,,,,,,,,,,,,,,,,,,,,,,,,,,,,,,,,,,,,,,,,,,,,,,,,,,,,,,,,,,,,,,2,1.2844425999792293,213.53269410005305,None,ScrollUp,정답입니다,213.53269410005305,None,213.53269410005305,None,213.53269410005305,None,213.53269410005305,None,214.70148250006605,None,214.70148250006605,215.21376349998172,,,,,,,,,,,,,,,,130,2022-05-11_13h44.13.155,FishGame,2022.1.1,59.845299878358595,
,22,넌 빈틈없어,3,Green,A,4.833333333333333,3.966666666666667,ScrollDown,ScrollUp,Green.png,1,Neutral,Neutral,,,,,0,0,0,0,,,,,,,,,,,,,0,21,21,21,,,,,,,,,,,,,,,,,,,,,,,,,,,,,,,,,,,,,,,,,,,,,,,,,,,,,,,,,,,,,,,,,,,,,,,,,,,,,,,,,1,1.2066942999372259,215.8582677000668,None,ScrollDown,정답입니다,215.8582677000668,None,215.8582677000668,None,215.8582677000668,None,215.8582677000668,None,216.94487260002643,None,216.94487260002643,217.44704400002956,,,,,,,,,,,,,,,,130,2022-05-11_13h44.13.155,FishGame,2022.1.1,59.845299878358595,
,23,넌 상상력없어,4,Orange,B,2.833333333333333,3.133333333333333,ScrollUp,ScrollDown,Orange.png,1,Negative,Congruent,,,,,0,0,0,0,,,,,,,,,,,,,0,22,22,22,,,,,,,,,,,,,,,,,,,,,,,,,,,,,,,,,,,,,,,,,,,,,,,,,,,,,,,,,,,,,,,,,,,,,,,,,,,,,,,,,1.9861110945542653,1.2738906000740826,218.08571510005277,None,ScrollUp,정답입니다,218.08571510005277,None,218.08571510005277,None,218.08571510005277,None,218.08571510005277,None,219.24520360003226,None,219.24520360003226,219.74720670003444,,,,,,,,,,,,,,,,130,2022-05-11_13h44.13.155,FishGame,2022.1.1,59.845299878358595,
,24,넌 지혜로워,2,Orange,B,6.333333333333334,4.633333333333334,ScrollUp,ScrollDown,Orange.png,1,Positive,Incongruent,,,,,0,0,0,0,,,,,,,,,,,,,0,23,23,23,,,,,,,,,,,,,,,,,,,,,,,,,,,,,,,,,,,,,,,,,,,,,,,,,,,,,,,,,,,,,,,,,,,,,,,,,,,,,,,,,2,1.2416584000457078,220.39022790000308,None,ScrollUp,정답입니다,220.39022790000308,None,220.39022790000308,None,220.39022790000308,None,220.39022790000308,None,221.5131190000102,None,221.5131190000102,222.01373670005705,,,,,,,,,,,,,,,,130,2022-05-11_13h44.13.155,FishGame,2022.1.1,59.845299878358595,
,25,넌 시끄러워,4,Green,A,2.833333333333333,3.033333333333333,ScrollDown,ScrollUp,Green.png,1,Negative,Incongruent,,,,,0,0,0,0,,,,,,,,,,,,,0,24,24,24,,,,,,,,,,,,,,,,,,,,,,,,,,,,,,,,,,,,,,,,,,,,,,,,,,,,,,,,,,,,,,,,,,,,,,,,,,,,,,,,,1,1.2972657000645995,222.64923790004104,None,ScrollDown,정답입니다,222.64923790004104,None,222.64923790004104,None,222.64923790004104,None,222.64923790004104,None,223.83375079999678,None,223.83375079999678,224.34690320002846,,,,,,,,,,,,,,,,130,2022-05-11_13h44.13.155,FishGame,2022.1.1,59.845299878358595,
,26,넌 만사태평이야,3,Orange,B,4,4.333333333333333,ScrollUp,ScrollDown,Orange.png,1,Neutral,Neutral,,,,,0,0,0,0,,,,,,,,,,,,,0,25,25,25,,,,,,,,,,,,,,,,,,,,,,,,,,,,,,,,,,,,,,,,,,,,,,,,,,,,,,,,,,,,,,,,,,,,,,,,,,,,,,,,,2,1.2338778999401256,224.9982016000431,None,ScrollUp,정답입니다,224.9982016000431,None,224.9982016000431,None,224.9982016000431,None,224.9982016000431,None,226.1013700000476,None,226.1013700000476,226.613903200021,,,,,,,,,,,,,,,,130,2022-05-11_13h44.13.155,FishGame,2022.1.1,59.845299878358595,
,27,넌 붙임성있어,1,Green,A,5.708333333333333,5.633333333333334,ScrollDown,ScrollUp,Green.png,1,Positive,Congruent,,,,,0,0,0,0,,,,,,,,,,,,,0,26,26,26,,,,,,,,,,,,,,,,,,,,,,,,,,,,,,,,,,,,,,,,,,,,,,,,,,,,,,,,,,,,,,,,,,,,,,,,,,,,,,,,,1,1.3499136999016628,227.24909379996825,None,ScrollDown,정답입니다,227.24909379996825,None,227.24909379996825,None,227.24909379996825,None,227.24909379996825,None,228.4861583999591,None,228.4861583999591,228.99702859995887,,,,,,,,,,,,,,,,130,2022-05-11_13h44.13.155,FishGame,2022.1.1,59.845299878358595,
,28,넌 영리해,2,Green,A,6,4.033333333333333,ScrollDown,ScrollUp,Green.png,1,Positive,Congruent,,,,,0,0,0,0,,,,,,,,,,,,,0,27,27,27,,,,,,,,,,,,,,,,,,,,,,,,,,,,,,,,,,,,,,,,,,,,,,,,,,,,,,,,,,,,,,,,,,,,,,,,,,,,,,,,,1,1.1440485999919474,229.62865159998182,None,ScrollDown,정답입니다,229.62865159998182,None,229.62865159998182,None,229.62865159998182,None,229.62865159998182,None,230.66376150003634,None,230.66376150003634,231.16438349999953,,,,,,,,,,,,,,,,130,2022-05-11_13h44.13.155,FishGame,2022.1.1,59.845299878358595,
,29,넌 열심이야,1,Orange,B,6.041666666666667,5.833333333333333,ScrollUp,ScrollDown,Orange.png,1,Positive,Incongruent,,,,,0,0,0,0,,,,,,,,,,,,,0,28,28,28,,,,,,,,,,,,,,,,,,,,,,,,,,,,,,,,,,,,,,,,,,,,,,,,,,,,,,,,,,,,,,,,,,,,,,,,,,,,,,,,,2,1.1408102000132203,231.80296959995758,None,ScrollUp,정답입니다,231.80296959995758,None,231.80296959995758,None,231.80296959995758,None,231.80296959995758,None,232.82862709998153,None,232.82862709998153,233.33046840003226,,,,,,,,,,,,,,,,130,2022-05-11_13h44.13.155,FishGame,2022.1.1,59.845299878358595,
,30,넌 인기없어,4,Orange,B,3,3.3,ScrollUp,ScrollDown,Orange.png,1,Negative,Congruent,,,,,0,0,0,0,,,,,,,,,,,,,0,29,29,29,,,,,,,,,,,,,,,,,,,,,,,,,,,,,,,,,,,,,,,,,,,,,,,,,,,,,,,,,,,,,,,,,,,,,,,,,,,,,,,,,2,1.1524185999296606,233.97032690001652,None,ScrollUp,정답입니다,233.97032690001652,None,233.97032690001652,None,233.97032690001652,None,233.97032690001652,None,235.0025191999739,None,235.0025191999739,235.5138755000662,,,,,,,,,,,,,,,,130,2022-05-11_13h44.13.155,FishGame,2022.1.1,59.845299878358595,
,31,넌 익살스러워,3,Green,A,4.708333333333334,4.833333333333333,ScrollDown,ScrollUp,Green.png,1,Neutral,Neutral,,,,,0,0,0,0,,,,,,,,,,,,,0,30,30,30,,,,,,,,,,,,,,,,,,,,,,,,,,,,,,,,,,,,,,,,,,,,,,,,,,,,,,,,,,,,,,,,,,,,,,,,,,,,,,,,,1,1.1882125999545678,236.15803319995757,None,ScrollDown,정답입니다,236.15803319995757,None,236.15803319995757,None,236.15803319995757,None,236.15803319995757,None,237.2287239000434,None,237.2287239000434,237.73078940005507,,,,,,,,,,,,,,,,130,2022-05-11_13h44.13.155,FishGame,2022.1.1,59.845299878358595,
,32,넌 이기적이야,5,Orange,B,2.291666666666667,2.333333333333333,ScrollUp,ScrollDown,Orange.png,1,Negative,Congruent,,,,,0,0,0,0,,,,,,,,,,,,,0,31,31,31,,,,,,,,,,,,,,,,,,,,,,,,,,,,,,,,,,,,,,,,,,,,,,,,,,,,,,,,,,,,,,,,,,,,,,,,,,,,,,,,,1.9861110945542653,1.1993422000668943,238.361920400057,None,ScrollUp,정답입니다,238.361920400057,None,238.361920400057,None,238.361920400057,None,238.361920400057,None,239.4512235999573,None,239.4512235999573,239.96400889998768,,,,,,,,,,,,,,,,130,2022-05-11_13h44.13.155,FishGame,2022.1.1,59.845299878358595,
,33,나를 데려가줘,6,Orange,B,0,0,ScrollDown,ScrollUp,Orange.png,1,NonTarget,NonTarget,,,,,0,0,0,0,,,,,,,,,,,,,0,32,32,32,,,,,,,,,,,,,,,,,,,,,,,,,,,,,,,,,,,,,,,,,,,,,,,,,,,,,,,,,,,,,,,,,,,,,,,,,,,,,,,,,1,1.4606455999892205,240.59848489996511,None,ScrollDown,정답입니다,240.59848489996511,None,240.59848489996511,None,240.59848489996511,None,240.59848489996511,None,241.9473386000609,None,241.9473386000609,242.44764919998124,,,,,,,,,,,,,,,,130,2022-05-11_13h44.13.155,FishGame,2022.1.1,59.845299878358595,
,34,넌 기회주의자야,5,Green,A,2.875,2.133333333333333,ScrollDown,ScrollUp,Green.png,1,Negative,Incongruent,,,,,0,0,0,0,,,,,,,,,,,,,0,33,33,33,,,,,,,,,,,,,,,,,,,,,,,,,,,,,,,,,,,,,,,,,,,,,,,,,,,,,,,,,,,,,,,,,,,,,,,,,,,,,,,,,1,1.1674628000473604,243.09725390002131,None,ScrollDown,정답입니다,243.09725390002131,None,243.09725390002131,None,243.09725390002131,None,243.09725390002131,None,244.13565049995668,None,244.13565049995668,244.64732039999217,,,,,,,,,,,,,,,,130,2022-05-11_13h44.13.155,FishGame,2022.1.1,59.845299878358595,
,1,넌 미성숙해,4,Green,A,3,3.2,ScrollDown,ScrollUp,Green.png,2,Negative,Incongruent,,,,,0,0,0,0,,,,,,,,,,,,,,,,,0,0,0,0,,,,,,,,,,,,,,,,,,,,,,,,,,,,,,,,,,,,277.1653820000356,278.6647994000232,278.69799849996343,279.64839880005457,279.69830120005645,280.64853410003707,280.64853410003707,None,,,,,,,,,,,,,,,,,,,,,,,,,,,,,,,,,,1,1.347700700047426,281.80537189997267,None,ScrollDown,정답입니다,281.80537189997267,None,281.80537189997267,None,281.80537189997267,None,281.80537189997267,None,282.9874520000303,None,282.9874520000303,283.49844880006276,245.14718780003022,None,245.14718780003022,None,-0.19074073,-0.09907407,1,0,0,0.016195520060136914,None,275.14838360005524,None,,,130,2022-05-11_13h44.13.155,FishGame,2022.1.1,59.845299878358595,
,2,넌 반사회적이야,5,Orange,B,2.416666666666667,2.033333333333333,ScrollUp,ScrollDown,Orange.png,2,Negative,Congruent,,,,,0,0,0,0,,,,,,,,,,,,,,,,,0,1,1,1,,,,,,,,,,,,,,,,,,,,,,,,,,,,,,,,,,,,,,,,,,,,,,,,,,,,,,,,,,,,,,,,,,,,,,,,,,,,,2,1.2636366999940947,284.1387558999704,None,ScrollUp,정답입니다,284.1387558999704,None,284.1387558999704,None,284.1387558999704,None,284.1387558999704,None,285.2830379999941,None,285.2830379999941,285.7980838000076,,,,,,,,,,,,,,,,130,2022-05-11_13h44.13.155,FishGame,2022.1.1,59.845299878358595,
,3,넌 유능해,2,Green,A,6.208333333333333,4.433333333333334,ScrollDown,ScrollUp,Green.png,2,Positive,Congruent,,,,,0,0,0,0,,,,,,,,,,,,,,,,,0,2,2,2,,,,,,,,,,,,,,,,,,,,,,,,,,,,,,,,,,,,,,,,,,,,,,,,,,,,,,,,,,,,,,,,,,,,,,,,,,,,,1.0061728358268738,1.1234248999971896,286.4160858000396,None,ScrollDown,정답입니다,286.4160858000396,None,286.4160858000396,None,286.4160858000396,None,286.4160858000396,None,287.4318818000611,None,287.4318818000611,287.93213880003896,,,,,,,,,,,,,,,,130,2022-05-11_13h44.13.155,FishGame,2022.1.1,59.845299878358595,
,4,넌 능숙해,2,Orange,B,5.666666666666667,4.733333333333333,ScrollUp,ScrollDown,Orange.png,2,Positive,Incongruent,,,,,0,0,0,0,,,,,,,,,,,,,,,,,0,3,3,3,,,,,,,,,,,,,,,,,,,,,,,,,,,,,,,,,,,,,,,,,,,,,,,,,,,,,,,,,,,,,,,,,,,,,,,,,,,,,2,1.202892899978906,288.56568140001036,None,ScrollUp,정답입니다,288.56568140001036,None,288.56568140001036,None,288.56568140001036,None,288.56568140001036,None,289.65363930002786,None,289.65363930002786,290.16508850001264,,,,,,,,,,,,,,,,130,2022-05-11_13h44.13.155,FishGame,2022.1.1,59.845299878358595,
,5,넌 진부해,4,Orange,B,2.458333333333333,3.166666666666667,ScrollUp,ScrollDown,Orange.png,2,Negative,Congruent,,,,,0,0,0,0,,,,,,,,,,,,,,,,,0,4,4,4,,,,,,,,,,,,,,,,,,,,,,,,,,,,,,,,,,,,,,,,,,,,,,,,,,,,,,,,,,,,,,,,,,,,,,,,,,,,,2,1.1787165000569075,290.806768200011,None,ScrollUp,정답입니다,290.806768200011,None,290.806768200011,None,290.806768200011,None,290.806768200011,None,291.8649161000503,None,291.8649161000503,292.36522979999427,,,,,,,,,,,,,,,,130,2022-05-11_13h44.13.155,FishGame,2022.1.1,59.845299878358595,
,6,나를 보내줘,6,Green,A,0,0,ScrollUp,ScrollDown,Green.png,2,NonTarget,NonTarget,,,,,0,0,0,0,,,,,,,,,,,,,,,,,0,5,5,5,,,,,,,,,,,,,,,,,,,,,,,,,,,,,,,,,,,,,,,,,,,,,,,,,,,,,,,,,,,,,,,,,,,,,,,,,,,,,1.837962955236435,1.169944699970074,292.9982387999771,None,ScrollUp,정답입니다,292.9982387999771,None,292.9982387999771,None,292.9982387999771,None,292.9982387999771,None,294.0631779000396,None,294.0631779000396,294.5649294999894,,,,,,,,,,,,,,,,130,2022-05-11_13h44.13.155,FishGame,2022.1.1,59.845299878358595,
,7,넌 엄격해,3,Green,A,4.166666666666666,4.1,ScrollDown,ScrollUp,Green.png,2,Neutral,Neutral,,,,,0,0,0,0,,,,,,,,,,,,,,,,,0,6,6,6,,,,,,,,,,,,,,,,,,,,,,,,,,,,,,,,,,,,,,,,,,,,,,,,,,,,,,,,,,,,,,,,,,,,,,,,,,,,,1,1.2426746999844909,295.20188479998615,None,ScrollDown,정답입니다,295.20188479998615,None,295.20188479998615,None,295.20188479998615,None,295.20188479998615,None,296.33210360002704,None,296.33210360002704,296.8323127999902,,,,,,,,,,,,,,,,130,2022-05-11_13h44.13.155,FishGame,2022.1.1,59.845299878358595,
,8,나를 보내줘,6,Green,A,0,0,ScrollUp,ScrollDown,Green.png,2,NonTarget,NonTarget,,,,,0,0,0,0,,,,,,,,,,,,,,,,,0,7,7,7,,,,,,,,,,,,,,,,,,,,,,,,,,,,,,,,,,,,,,,,,,,,,,,,,,,,,,,,,,,,,,,,,,,,,,,,,,,,,2,1.3068649000488222,297.4586020000279,None,ScrollUp,정답입니다,297.4586020000279,None,297.4586020000279,None,297.4586020000279,None,297.4586020000279,None,298.66335709998384,None,298.66335709998384,299.16523749998305,,,,,,,,,,,,,,,,130,2022-05-11_13h44.13.155,FishGame,2022.1.1,59.845299878358595,
,9,넌 대담해,3,Orange,B,4.875,4.866666666666666,ScrollUp,ScrollDown,Orange.png,2,Neutral,Neutral,,,,,0,0,0,0,,,,,,,,,,,,,,,,,0,8,8,8,,,,,,,,,,,,,,,,,,,,,,,,,,,,,,,,,,,,,,,,,,,,,,,,,,,,,,,,,,,,,,,,,,,,,,,,,,,,,2,1.4858624000335112,299.81596290005837,None,ScrollUp,정답입니다,299.81596290005837,None,299.81596290005837,None,299.81596290005837,None,299.81596290005837,None,301.1798883000156,None,301.1798883000156,301.68246949999593,,,,,,,,,,,,,,,,130,2022-05-11_13h44.13.155,FishGame,2022.1.1,59.845299878358595,
,10,넌 꾸준해,1,Green,A,5.916666666666668,5.8,ScrollDown,ScrollUp,Green.png,2,Positive,Congruent,,,,,0,0,0,0,,,,,,,,,,,,,,,,,0,9,9,9,,,,,,,,,,,,,,,,,,,,,,,,,,,,,,,,,,,,,,,,,,,,,,,,,,,,,,,,,,,,,,,,,,,,,,,,,,,,,1,1.285787499975413,302.31984280003235,None,ScrollDown,정답입니다,302.31984280003235,None,302.31984280003235,None,302.31984280003235,None,302.31984280003235,None,303.48759989999235,None,303.48759989999235,303.998777300003,,,,,,,,,,,,,,,,130,2022-05-11_13h44.13.155,FishGame,2022.1.1,59.845299878358595,
,11,나를 데려가줘,6,Orange,B,0,0,ScrollDown,ScrollUp,Orange.png,2,NonTarget,NonTarget,,,,,0,0,0,0,,,,,,,,,,,,,,,,,0,10,10,10,,,,,,,,,,,,,,,,,,,,,,,,,,,,,,,,,,,,,,,,,,,,,,,,,,,,,,,,,,,,,,,,,,,,,,,,,,,,,1,1.3757668000180274,304.639344300027,None,ScrollDown,정답입니다,304.639344300027,None,304.639344300027,None,304.639344300027,None,304.639344300027,None,305.8984885000391,None,305.8984885000391,306.39928000001237,,,,,,,,,,,,,,,,130,2022-05-11_13h44.13.155,FishGame,2022.1.1,59.845299878358595,
,12,넌 독선적이야,5,Green,A,2.458333333333333,1.933333333333333,ScrollDown,ScrollUp,Green.png,2,Negative,Incongruent,,,,,0,0,0,0,,,,,,,,,,,,,,,,,0,11,11,11,,,,,,,,,,,,,,,,,,,,,,,,,,,,,,,,,,,,,,,,,,,,,,,,,,,,,,,,,,,,,,,,,,,,,,,,,,,,,1.0077160497506459,1.216625800007023,307.03819690004457,None,ScrollDown,정답입니다,307.03819690004457,None,307.03819690004457,None,307.03819690004457,None,307.03819690004457,None,308.13780500006396,None,308.13780500006396,308.64891340001486,,,,,,,,,,,,,,,,130,2022-05-11_13h44.13.155,FishGame,2022.1.1,59.845299878358595,
,13,나를 보내줘,6,Green,A,0,0,ScrollUp,ScrollDown,Green.png,2,NonTarget,NonTarget,,,,,0,0,0,0,,,,,,,,,,,,,,,,,0,12,12,12,,,,,,,,,,,,,,,,,,,,,,,,,,,,,,,,,,,,,,,,,,,,,,,,,,,,,,,,,,,,,,,,,,,,,,,,,,,,,1.959876557191213,1.285355299944058,309.27814880001824,None,ScrollUp,정답입니다,309.27814880001824,None,309.27814880001824,None,309.27814880001824,None,309.27814880001824,None,310.4540197000606,None,310.4540197000606,310.96559370006435,,,,,,,,,,,,,,,,130,2022-05-11_13h44.13.155,FishGame,2022.1.1,59.845299878358595,
,14,넌 책임감있어,1,Orange,B,6.347826086956522,6,ScrollUp,ScrollDown,Orange.png,2,Positive,Incongruent,,,,,0,0,0,0,,,,,,,,,,,,,,,,,0,13,13,13,,,,,,,,,,,,,,,,,,,,,,,,,,,,,,,,,,,,,,,,,,,,,,,,,,,,,,,,,,,,,,,,,,,,,,,,,,,,,2,1.4428047999972478,311.6041585999774,None,ScrollUp,정답입니다,311.6041585999774,None,311.6041585999774,None,311.6041585999774,None,311.6041585999774,None,312.9326285000425,None,312.9326285000425,313.43244310002774,,,,,,,,,,,,,,,,130,2022-05-11_13h44.13.155,FishGame,2022.1.1,59.845299878358595,
,15,넌 문학적이야,3,Green,A,4.708333333333334,4.333333333333333,ScrollDown,ScrollUp,Green.png,2,Neutral,Neutral,,,,,0,0,0,0,,,,,,,,,,,,,,,,,0,14,14,14,,,,,,,,,,,,,,,,,,,,,,,,,,,,,,,,,,,,,,,,,,,,,,,,,,,,,,,,,,,,,,,,,,,,,,,,,,,,,1,1.2517987999599427,314.0701430999907,None,ScrollDown,정답입니다,314.0701430999907,None,314.0701430999907,None,314.0701430999907,None,314.0701430999907,None,315.2036550999619,None,315.2036550999619,315.7157665999839,,,,,,,,,,,,,,,,130,2022-05-11_13h44.13.155,FishGame,2022.1.1,59.845299878358595,
,16,넌 재미있어,1,Orange,B,5.875,5.7,ScrollUp,ScrollDown,Orange.png,2,Positive,Incongruent,,,,,0,0,0,0,,,,,,,,,,,,,,,,,0,15,15,15,,,,,,,,,,,,,,,,,,,,,,,,,,,,,,,,,,,,,,,,,,,,,,,,,,,,,,,,,,,,,,,,,,,,,,,,,,,,,2,1.3319077999331057,316.35249429999385,None,ScrollUp,정답입니다,316.35249429999385,None,316.35249429999385,None,316.35249429999385,None,316.35249429999385,None,317.56966549996287,None,317.56966549996287,318.08270560007077,,,,,,,,,,,,,,,,130,2022-05-11_13h44.13.155,FishGame,2022.1.1,59.845299878358595,
,17,나를 데려가줘,6,Orange,B,0,0,ScrollDown,ScrollUp,Orange.png,2,NonTarget,NonTarget,,,,,0,0,0,0,,,,,,,,,,,,,,,,,0,16,16,16,,,,,,,,,,,,,,,,,,,,,,,,,,,,,,,,,,,,,,,,,,,,,,,,,,,,,,,,,,,,,,,,,,,,,,,,,,,,,1,1.3489538000430912,318.71541379997507,None,ScrollDown,정답입니다,318.71541379997507,None,318.71541379997507,None,318.71541379997507,None,318.71541379997507,None,319.95526610000525,None,319.95526610000525,320.4658742999891,,,,,,,,,,,,,,,,130,2022-05-11_13h44.13.155,FishGame,2022.1.1,59.845299878358595,
,18,넌 협력적이야,1,Green,A,5.625,5.633333333333334,ScrollDown,ScrollUp,Green.png,2,Positive,Congruent,,,,,0,0,0,0,,,,,,,,,,,,,,,,,0,17,17,17,,,,,,,,,,,,,,,,,,,,,,,,,,,,,,,,,,,,,,,,,,,,,,,,,,,,,,,,,,,,,,,,,,,,,,,,,,,,,1,1.2085669999942183,321.1016595000401,None,ScrollDown,정답입니다,321.1016595000401,None,321.1016595000401,None,321.1016595000401,None,321.1016595000401,None,322.1990701999748,None,322.1990701999748,322.6992423000047,,,,,,,,,,,,,,,,130,2022-05-11_13h44.13.155,FishGame,2022.1.1,59.845299878358595,
,19,넌 평범해,3,Orange,B,4.333333333333332,4.233333333333333,ScrollUp,ScrollDown,Orange.png,2,Neutral,Neutral,,,,,0,0,0,0,,,,,,,,,,,,,,,,,0,18,18,18,,,,,,,,,,,,,,,,,,,,,,,,,,,,,,,,,,,,,,,,,,,,,,,,,,,,,,,,,,,,,,,,,,,,,,,,,,,,,2,1.1754420000361279,323.3380536000477,None,ScrollUp,정답입니다,323.3380536000477,None,323.3380536000477,None,323.3380536000477,None,323.3380536000477,None,324.3993525999831,None,324.3993525999831,324.89938720001373,,,,,,,,,,,,,,,,130,2022-05-11_13h44.13.155,FishGame,2022.1.1,59.845299878358595,
,20,넌 오만해,5,Green,A,2.333333333333333,2,ScrollDown,ScrollUp,Green.png,2,Negative,Incongruent,,,,,0,0,0,0,,,,,,,,,,,,,,,,,0,19,19,19,,,,,,,,,,,,,,,,,,,,,,,,,,,,,,,,,,,,,,,,,,,,,,,,,,,,,,,,,,,,,,,,,,,,,,,,,,,,,1.0447530845801036,1.2184395999647677,325.5320129999891,None,ScrollDown,정답입니다,325.5320129999891,None,325.5320129999891,None,325.5320129999891,None,325.5320129999891,None,326.6473874000367,None,326.6473874000367,327.1489633000456,,,,,,,,,,,,,,,,130,2022-05-11_13h44.13.155,FishGame,2022.1.1,59.845299878358595,
,21,넌 운이없어,4,Orange,B,3,3.466666666666667,ScrollUp,ScrollDown,Orange.png,2,Negative,Congruent,,,,,0,0,0,0,,,,,,,,,,,,,,,,,0,20,20,20,,,,,,,,,,,,,,,,,,,,,,,,,,,,,,,,,,,,,,,,,,,,,,,,,,,,,,,,,,,,,,,,,,,,,,,,,,,,,1.9660493632157643,1.106660999939777,327.78911949996836,None,ScrollUp,정답입니다,327.78911949996836,None,327.78911949996836,None,327.78911949996836,None,327.78911949996836,None,328.78082870005164,None,328.78082870005164,329.283151700045,,,,,,,,,,,,,,,,130,2022-05-11_13h44.13.155,FishGame,2022.1.1,59.845299878358595,
,22,넌 창조적이야,2,Orange,B,6.125,4.633333333333334,ScrollUp,ScrollDown,Orange.png,2,Positive,Incongruent,,,,,0,0,0,0,,,,,,,,,,,,,,,,,0,21,21,21,,,,,,,,,,,,,,,,,,,,,,,,,,,,,,,,,,,,,,,,,,,,,,,,,,,,,,,,,,,,,,,,,,,,,,,,,,,,,2,1.169158799923025,329.92279410001356,None,ScrollUp,정답입니다,329.92279410001356,None,329.92279410001356,None,329.92279410001356,None,329.92279410001356,None,330.9807516000001,None,330.9807516000001,331.48296479997225,,,,,,,,,,,,,,,,130,2022-05-11_13h44.13.155,FishGame,2022.1.1,59.845299878358595,
,23,나를 보내줘,6,Green,A,0,0,ScrollUp,ScrollDown,Green.png,2,NonTarget,NonTarget,,,,,0,0,0,0,,,,,,,,,,,,,,,,,0,22,22,22,,,,,,,,,,,,,,,,,,,,,,,,,,,,,,,,,,,,,,,,,,,,,,,,,,,,,,,,,,,,,,,,,,,,,,,,,,,,,2,1.420200900058262,332.1156750000082,None,ScrollUp,정답입니다,332.1156750000082,None,332.1156750000082,None,332.1156750000082,None,332.1156750000082,None,333.42067260004114,None,333.42067260004114,333.9326862000162,,,,,,,,,,,,,,,,130,2022-05-11_13h44.13.155,FishGame,2022.1.1,59.845299878358595,
,24,넌 통찰력있어,2,Green,A,6.5,4.8,ScrollDown,ScrollUp,Green.png,2,Positive,Congruent,,,,,0,0,0,0,,,,,,,,,,,,,,,,,0,23,23,23,,,,,,,,,,,,,,,,,,,,,,,,,,,,,,,,,,,,,,,,,,,,,,,,,,,,,,,,,,,,,,,,,,,,,,,,,,,,,1,1.2172929999651387,334.572265899973,None,ScrollDown,정답입니다,334.572265899973,None,334.572265899973,None,334.572265899973,None,334.572265899973,None,335.6705040000379,None,335.6705040000379,336.1833207999589,,,,,,,,,,,,,,,,130,2022-05-11_13h44.13.155,FishGame,2022.1.1,59.845299878358595,
,25,넌 경솔해,5,Orange,B,2.458333333333333,2.266666666666667,ScrollUp,ScrollDown,Orange.png,2,Negative,Congruent,,,,,0,0,0,0,,,,,,,,,,,,,,,,,0,24,24,24,,,,,,,,,,,,,,,,,,,,,,,,,,,,,,,,,,,,,,,,,,,,,,,,,,,,,,,,,,,,,,,,,,,,,,,,,,,,,2,1.2375530999852344,336.8188276999863,None,ScrollUp,정답입니다,336.8188276999863,None,336.8188276999863,None,336.8188276999863,None,336.8188276999863,None,337.9477345000487,None,337.9477345000487,338.4500369000016,,,,,,,,,,,,,,,,130,2022-05-11_13h44.13.155,FishGame,2022.1.1,59.845299878358595,
,26,넌 초조해,4,Green,A,2.916666666666667,3.133333333333333,ScrollDown,ScrollUp,Green.png,2,Negative,Incongruent,,,,,0,0,0,0,,,,,,,,,,,,,,,,,0,25,25,25,,,,,,,,,,,,,,,,,,,,,,,,,,,,,,,,,,,,,,,,,,,,,,,,,,,,,,,,,,,,,,,,,,,,,,,,,,,,,1,1.223551100003533,339.07742159999907,None,ScrollDown,정답입니다,339.07742159999907,None,339.07742159999907,None,339.07742159999907,None,339.07742159999907,None,340.1977736999979,None,340.1977736999979,340.69960459996946,,,,,,,,,,,,,,,,130,2022-05-11_13h44.13.155,FishGame,2022.1.1,59.845299878358595,
,27,넌 무관심해,4,Orange,B,2.833333333333333,2.9,ScrollUp,ScrollDown,Orange.png,2,Negative,Congruent,,,,,0,0,0,0,,,,,,,,,,,,,,,,,0,26,26,26,,,,,,,,,,,,,,,,,,,,,,,,,,,,,,,,,,,,,,,,,,,,,,,,,,,,,,,,,,,,,,,,,,,,,,,,,,,,,2,1.2004010999808088,341.34034250001423,None,ScrollUp,정답입니다,341.34034250001423,None,341.34034250001423,None,341.34034250001423,None,341.34034250001423,None,342.421722900006,None,342.421722900006,342.9332127000671,,,,,,,,,,,,,,,,130,2022-05-11_13h44.13.155,FishGame,2022.1.1,59.845299878358595,
,28,넌 감성적이야,3,Orange,B,4.125,4.166666666666667,ScrollUp,ScrollDown,Orange.png,2,Neutral,Neutral,,,,,0,0,0,0,,,,,,,,,,,,,,,,,0,27,27,27,,,,,,,,,,,,,,,,,,,,,,,,,,,,,,,,,,,,,,,,,,,,,,,,,,,,,,,,,,,,,,,,,,,,,,,,,,,,,2,1.2728331999387592,343.56792980001774,None,ScrollUp,정답입니다,343.56792980001774,None,343.56792980001774,None,343.56792980001774,None,343.56792980001774,None,344.7311057000188,None,344.7311057000188,345.23320290003903,,,,,,,,,,,,,,,,130,2022-05-11_13h44.13.155,FishGame,2022.1.1,59.845299878358595,
,29,넌 배려심있어,1,Green,A,6.083333333333333,5.5,ScrollDown,ScrollUp,Green.png,2,Positive,Congruent,,,,,0,0,0,0,,,,,,,,,,,,,,,,,0,28,28,28,,,,,,,,,,,,,,,,,,,,,,,,,,,,,,,,,,,,,,,,,,,,,,,,,,,,,,,,,,,,,,,,,,,,,,,,,,,,,1,1.1538420000579208,345.868341500056,None,ScrollDown,정답입니다,345.868341500056,None,345.868341500056,None,345.868341500056,None,345.868341500056,None,346.9142485000193,None,346.9142485000193,347.4165056999773,,,,,,,,,,,,,,,,130,2022-05-11_13h44.13.155,FishGame,2022.1.1,59.845299878358595,
,30,넌 숨김없어,3,Green,A,4.5,4.933333333333334,ScrollDown,ScrollUp,Green.png,2,Neutral,Neutral,,,,,0,0,0,0,,,,,,,,,,,,,,,,,0,29,29,29,,,,,,,,,,,,,,,,,,,,,,,,,,,,,,,,,,,,,,,,,,,,,,,,,,,,,,,,,,,,,,,,,,,,,,,,,,,,,1,1.1406946999486536,348.0553854999598,None,ScrollDown,정답입니다,348.0553854999598,None,348.0553854999598,None,348.0553854999598,None,348.0553854999598,None,349.08263780002017,None,349.08263780002017,349.58330040005967,,,,,,,,,,,,,,,,130,2022-05-11_13h44.13.155,FishGame,2022.1.1,59.845299878358595,
,31,넌 훌륭해,2,Orange,B,5.916666666666667,4.033333333333333,ScrollUp,ScrollDown,Orange.png,2,Positive,Incongruent,,,,,0,0,0,0,,,,,,,,,,,,,,,,,0,30,30,30,,,,,,,,,,,,,,,,,,,,,,,,,,,,,,,,,,,,,,,,,,,,,,,,,,,,,,,,,,,,,,,,,,,,,,,,,,,,,2,1.2533527000341564,350.2465602000011,None,ScrollUp,정답입니다,350.2465602000011,None,350.2465602000011,None,350.2465602000011,None,350.2465602000011,None,351.36432819999754,None,351.36432819999754,351.86662520002574,,,,,,,,,,,,,,,,130,2022-05-11_13h44.13.155,FishGame,2022.1.1,59.845299878358595,
,32,넌 슬기로워,2,Green,A,6.166666666666667,4.1,ScrollDown,ScrollUp,Green.png,2,Positive,Congruent,,,,,0,0,0,0,,,,,,,,,,,,,,,,,0,31,31,31,,,,,,,,,,,,,,,,,,,,,,,,,,,,,,,,,,,,,,,,,,,,,,,,,,,,,,,,,,,,,,,,,,,,,,,,,,,,,1,1.1669013000791892,352.49755329999607,None,ScrollDown,정답입니다,352.49755329999607,None,352.49755329999607,None,352.49755329999607,None,352.49755329999607,None,353.55471070006024,None,353.55471070006024,354.0669123000698,,,,,,,,,,,,,,,,130,2022-05-11_13h44.13.155,FishGame,2022.1.1,59.845299878358595,
,33,넌 냉혹해,5,Green,A,2.583333333333333,2.1,ScrollDown,ScrollUp,Green.png,2,Negative,Incongruent,,,,,0,0,0,0,,,,,,,,,,,,,,,,,0,32,32,32,,,,,,,,,,,,,,,,,,,,,,,,,,,,,,,,,,,,,,,,,,,,,,,,,,,,,,,,,,,,,,,,,,,,,,,,,,,,,1,1.1535255999770015,354.6996425000252,None,ScrollDown,정답입니다,354.6996425000252,None,354.6996425000252,None,354.6996425000252,None,354.6996425000252,None,355.73918689996935,None,355.73918689996935,356.24969610001426,,,,,,,,,,,,,,,,130,2022-05-11_13h44.13.155,FishGame,2022.1.1,59.845299878358595,
,34,나를 데려가줘,6,Orange,B,0,0,ScrollDown,ScrollUp,Orange.png,2,NonTarget,NonTarget,,,,,0,0,0,0,,,,,,,,,,,,,,,,,0,33,33,33,,,,,,,,,,,,,,,,,,,,,,,,,,,,,,,,,,,,,,,,,,,,,,,,,,,,,,,,,,,,,,,,,,,,,,,,,,,,,1,1.322804700001143,356.8908542999998,None,ScrollDown,정답입니다,356.8908542999998,None,356.8908542999998,None,356.8908542999998,None,356.8908542999998,None,358.097801099997,None,358.097801099997,358.59961260005366,,,,,,,,,,,,,,,,130,2022-05-11_13h44.13.155,FishGame,2022.1.1,59.845299878358595,
,35,넌 편파적이야,5,Orange,B,2.125,2,ScrollUp,ScrollDown,Orange.png,2,Negative,Congruent,,,,,0,0,0,0,,,,,,,,,,,,,,,,,0,34,34,34,,,,,,,,,,,,,,,,,,,,,,,,,,,,,,,,,,,,,,,,,,,,,,,,,,,,,,,,,,,,,,,,,,,,,,,,,,,,,2,1.2762962999986485,359.24339900002815,None,ScrollUp,정답입니다,359.24339900002815,None,359.24339900002815,None,359.24339900002815,None,359.24339900002815,None,360.39974110003095,None,360.39974110003095,360.89987229998223,,,,,,,,,,,,,,,,130,2022-05-11_13h44.13.155,FishGame,2022.1.1,59.845299878358595,
,36,넌 슬퍼,4,Green,A,2.583333333333333,3.066666666666667,ScrollDown,ScrollUp,Green.png,2,Negative,Incongruent,,,,,0,0,0,0,,,,,,,,,,,,,,,,,0,35,35,35,,,,,,,,,,,,,,,,,,,,,,,,,,,,,,,,,,,,,,,,,,,,,,,,,,,,,,,,,,,,,,,,,,,,,,,,,,,,,1,1.272417200030759,361.52923079999164,None,ScrollDown,정답입니다,361.52923079999164,None,361.52923079999164,None,361.52923079999164,None,361.52923079999164,None,362.6981558999978,None,362.6981558999978,363.2000515999971,,,,,,,,,,,,,,,,130,2022-05-11_13h44.13.155,FishGame,2022.1.1,59.845299878358595,
,37,나를 데려가줘,6,Orange,B,0,0,ScrollDown,ScrollUp,Orange.png,2,NonTarget,NonTarget,,,,,0,0,0,0,,,,,,,,,,,,,,,,,0,36,36,36,,,,,,,,,,,,,,,,,,,,,,,,,,,,,,,,,,,,,,,,,,,,,,,,,,,,,,,,,,,,,,,,,,,,,,,,,,,,,1,1.4562691000755876,363.84783360001165,None,ScrollDown,정답입니다,363.84783360001165,None,363.84783360001165,None,363.84783360001165,None,363.84783360001165,None,365.18203480006196,None,365.18203480006196,365.6837736000307,,,,,,,,,,,,,,,,130,2022-05-11_13h44.13.155,FishGame,2022.1.1,59.845299878358595,
,38,넌 친절해,1,Orange,B,6.041666666666667,5.533333333333333,ScrollUp,ScrollDown,Orange.png,2,Positive,Incongruent,,,,,0,0,0,0,,,,,,,,,,,,,,,,,0,37,37,37,,,,,,,,,,,,,,,,,,,,,,,,,,,,,,,,,,,,,,,,,,,,,,,,,,,,,,,,,,,,,,,,,,,,,,,,,,,,,2,1.3075134000973776,366.32685219997074,None,ScrollUp,정답입니다,366.32685219997074,None,366.32685219997074,None,366.32685219997074,None,366.32685219997074,None,367.51502429996617,None,367.51502429996617,368.0164177999832,,,,,,,,,,,,,,,,130,2022-05-11_13h44.13.155,FishGame,2022.1.1,59.845299878358595,
,1,넌 엉성해,4,Green,A,3,3.3,ScrollDown,ScrollUp,Green.png,3,Negative,Incongruent,,,,,0,0,0,0,,,,,,,,,,,,,,,,,,,,,0,0,0,0,,,,,,,,,,,,,,,,,,,,,,,,,,,,,,,,399.9847160000354,401.4844871000387,401.5179333999986,402.4676812000107,402.5175998000195,403.4676838000305,403.4676838000305,None,,,,,,,,,,,,,,,,,,,,,,,,,,,,,,,,,,1,1.5424337000586092,404.62274560006335,None,ScrollDown,정답입니다,404.62274560006335,None,404.62274560006335,None,404.62274560006335,None,404.62274560006335,None,406.0005108000478,None,406.0005108000478,406.50090800004546,368.5168058000272,None,368.5168058000272,None,-0.22592592,-0.073148146,1,0,0,0.016301820054650307,None,398.5178117000032,None,,,130,2022-05-11_13h44.13.155,FishGame,2022.1.1,59.845299878358595,
,2,나를 보내줘,6,Green,A,0,0,ScrollUp,ScrollDown,Green.png,3,NonTarget,NonTarget,,,,,0,0,0,0,,,,,,,,,,,,,,,,,,,,,0,1,1,1,,,,,,,,,,,,,,,,,,,,,,,,,,,,,,,,,,,,,,,,,,,,,,,,,,,,,,,,,,,,,,,,,,,,,,,,,2,1.3399290000088513,407.1445679999888,None,ScrollUp,정답입니다,407.1445679999888,None,407.1445679999888,None,407.1445679999888,None,407.1445679999888,None,408.3658826999599,None,408.3658826999599,408.86794619995635,,,,,,,,,,,,,,,,130,2022-05-11_13h44.13.155,FishGame,2022.1.1,59.845299878358595,
,3,넌 활발해,1,Orange,B,5.666666666666667,5.6,ScrollUp,ScrollDown,Orange.png,3,Positive,Incongruent,,,,,0,0,0,0,,,,,,,,,,,,,,,,,,,,,0,2,2,2,,,,,,,,,,,,,,,,,,,,,,,,,,,,,,,,,,,,,,,,,,,,,,,,,,,,,,,,,,,,,,,,,,,,,,,,,2,1.2691675999667495,409.51636800006963,None,ScrollUp,정답입니다,409.51636800006963,None,409.51636800006963,None,409.51636800006963,None,409.51636800006963,None,410.6564450999722,None,410.6564450999722,411.16811450000387,,,,,,,,,,,,,,,,130,2022-05-11_13h44.13.155,FishGame,2022.1.1,59.845299878358595,
,4,넌 논리적이야,2,Green,A,5.666666666666666,4.633333333333334,ScrollDown,ScrollUp,Green.png,3,Positive,Congruent,,,,,0,0,0,0,,,,,,,,,,,,,,,,,,,,,0,3,3,3,,,,,,,,,,,,,,,,,,,,,,,,,,,,,,,,,,,,,,,,,,,,,,,,,,,,,,,,,,,,,,,,,,,,,,,,,1,1.3269727000733837,411.802854700014,None,ScrollDown,정답입니다,411.802854700014,None,411.802854700014,None,411.802854700014,None,411.802854700014,None,413.01284800004214,None,413.01284800004214,413.5177375000203,,,,,,,,,,,,,,,,130,2022-05-11_13h44.13.155,FishGame,2022.1.1,59.845299878358595,
,5,넌 과묵해,3,Green,A,3.875,4.4,ScrollDown,ScrollUp,Green.png,3,Neutral,Neutral,,,,,0,0,0,0,,,,,,,,,,,,,,,,,,,,,0,4,4,4,,,,,,,,,,,,,,,,,,,,,,,,,,,,,,,,,,,,,,,,,,,,,,,,,,,,,,,,,,,,,,,,,,,,,,,,,1,1.137391300057061,414.15703150001355,None,ScrollDown,정답입니다,414.15703150001355,None,414.15703150001355,None,414.15703150001355,None,414.15703150001355,None,415.1823926999932,None,415.1823926999932,415.6843070000177,,,,,,,,,,,,,,,,130,2022-05-11_13h44.13.155,FishGame,2022.1.1,59.845299878358595,
,6,나를 데려가줘,6,Orange,B,0,0,ScrollDown,ScrollUp,Orange.png,3,NonTarget,NonTarget,,,,,0,0,0,0,,,,,,,,,,,,,,,,,,,,,0,5,5,5,,,,,,,,,,,,,,,,,,,,,,,,,,,,,,,,,,,,,,,,,,,,,,,,,,,,,,,,,,,,,,,,,,,,,,,,,1,1.280746700009331,416.32096280006226,None,ScrollDown,정답입니다,416.32096280006226,None,416.32096280006226,None,416.32096280006226,None,416.32096280006226,None,417.48700199997984,None,417.48700199997984,418.00133720005397,,,,,,,,,,,,,,,,130,2022-05-11_13h44.13.155,FishGame,2022.1.1,59.845299878358595,
,7,넌 미숙해,4,Orange,B,3,3,ScrollUp,ScrollDown,Orange.png,3,Negative,Congruent,,,,,0,0,0,0,,,,,,,,,,,,,,,,,,,,,0,6,6,6,,,,,,,,,,,,,,,,,,,,,,,,,,,,,,,,,,,,,,,,,,,,,,,,,,,,,,,,,,,,,,,,,,,,,,,,,2,1.1147514000767842,418.6387180000311,None,ScrollUp,정답입니다,418.6387180000311,None,418.6387180000311,None,418.6387180000311,None,418.6387180000311,None,419.63862700003665,None,419.63862700003665,420.15116490004584,,,,,,,,,,,,,,,,130,2022-05-11_13h44.13.155,FishGame,2022.1.1,59.845299878358595,
,8,나를 보내줘,6,Green,A,0,0,ScrollUp,ScrollDown,Green.png,3,NonTarget,NonTarget,,,,,0,0,0,0,,,,,,,,,,,,,,,,,,,,,0,7,7,7,,,,,,,,,,,,,,,,,,,,,,,,,,,,,,,,,,,,,,,,,,,,,,,,,,,,,,,,,,,,,,,,,,,,,,,,,2,1.224585400079377,420.7770072000567,None,ScrollUp,정답입니다,420.7770072000567,None,420.7770072000567,None,420.7770072000567,None,420.7770072000567,None,421.90149369998835,None,421.90149369998835,422.4013358000666,,,,,,,,,,,,,,,,130,2022-05-11_13h44.13.155,FishGame,2022.1.1,59.845299878358595,
,9,넌 자신만만해,3,Orange,B,4.833333333333334,4.333333333333333,ScrollUp,ScrollDown,Orange.png,3,Neutral,Neutral,,,,,0,0,0,0,,,,,,,,,,,,,,,,,,,,,0,8,8,8,,,,,,,,,,,,,,,,,,,,,,,,,,,,,,,,,,,,,,,,,,,,,,,,,,,,,,,,,,,,,,,,,,,,,,,,,2,1.30216510000173,423.03777679998893,None,ScrollUp,정답입니다,423.03777679998893,None,423.03777679998893,None,423.03777679998893,None,423.03777679998893,None,424.2226179999998,None,424.2226179999998,424.7347066999646,,,,,,,,,,,,,,,,130,2022-05-11_13h44.13.155,FishGame,2022.1.1,59.845299878358595,
,10,넌 탐욕스러워,5,Green,A,2.25,2.1,ScrollDown,ScrollUp,Green.png,3,Negative,Incongruent,,,,,0,0,0,0,,,,,,,,,,,,,,,,,,,,,0,9,9,9,,,,,,,,,,,,,,,,,,,,,,,,,,,,,,,,,,,,,,,,,,,,,,,,,,,,,,,,,,,,,,,,,,,,,,,,,1,1.2422094999346882,425.3798509000335,None,ScrollDown,정답입니다,425.3798509000335,None,425.3798509000335,None,425.3798509000335,None,425.3798509000335,None,426.5013145999983,None,426.5013145999983,427.0012385000009,,,,,,,,,,,,,,,,130,2022-05-11_13h44.13.155,FishGame,2022.1.1,59.845299878358595,
,11,넌 인기있어,2,Green,A,5.458333333333333,4.5,ScrollDown,ScrollUp,Green.png,3,Positive,Congruent,,,,,0,0,0,0,,,,,,,,,,,,,,,,,,,,,0,10,10,10,,,,,,,,,,,,,,,,,,,,,,,,,,,,,,,,,,,,,,,,,,,,,,,,,,,,,,,,,,,,,,,,,,,,,,,,,1.10030863682429,1.0325261000543833,427.628982400056,None,ScrollDown,정답입니다,427.628982400056,None,427.628982400056,None,427.628982400056,None,427.628982400056,None,428.55685090005863,None,428.55685090005863,429.0678785999771,,,,,,,,,,,,,,,,130,2022-05-11_13h44.13.155,FishGame,2022.1.1,59.845299878358595,
,12,나를 데려가줘,6,Orange,B,0,0,ScrollDown,ScrollUp,Orange.png,3,NonTarget,NonTarget,,,,,0,0,0,0,,,,,,,,,,,,,,,,,,,,,0,11,11,11,,,,,,,,,,,,,,,,,,,,,,,,,,,,,,,,,,,,,,,,,,,,,,,,,,,,,,,,,,,,,,,,,,,,,,,,,1,1.3224281000439078,429.700383999967,None,ScrollDown,정답입니다,429.700383999967,None,429.700383999967,None,429.700383999967,None,429.700383999967,None,430.91625969996676,None,430.91625969996676,431.41853749996517,,,,,,,,,,,,,,,,130,2022-05-11_13h44.13.155,FishGame,2022.1.1,59.845299878358595,
,13,넌 뛰어나,2,Orange,B,6.166666666666667,4,ScrollUp,ScrollDown,Orange.png,3,Positive,Incongruent,,,,,0,0,0,0,,,,,,,,,,,,,,,,,,,,,0,12,12,12,,,,,,,,,,,,,,,,,,,,,,,,,,,,,,,,,,,,,,,,,,,,,,,,,,,,,,,,,,,,,,,,,,,,,,,,,2,1.241989600006491,432.1161048000213,None,ScrollUp,정답입니다,432.1161048000213,None,432.1161048000213,None,432.1161048000213,None,432.1161048000213,None,433.19015230005607,None,433.19015230005607,433.7018603000324,,,,,,,,,,,,,,,,130,2022-05-11_13h44.13.155,FishGame,2022.1.1,59.845299878358595,
,14,넌 낙관적이야,1,Green,A,5.75,5.8,ScrollDown,ScrollUp,Green.png,3,Positive,Congruent,,,,,0,0,0,0,,,,,,,,,,,,,,,,,,,,,0,13,13,13,,,,,,,,,,,,,,,,,,,,,,,,,,,,,,,,,,,,,,,,,,,,,,,,,,,,,,,,,,,,,,,,,,,,,,,,,1.1882716069618862,1.2334179999306798,434.34111469995696,None,ScrollDown,정답입니다,434.34111469995696,None,434.34111469995696,None,434.34111469995696,None,434.34111469995696,None,435.45652450004127,None,435.45652450004127,435.96856099995784,,,,,,,,,,,,,,,,130,2022-05-11_13h44.13.155,FishGame,2022.1.1,59.845299878358595,
,15,넌 산만해,4,Orange,B,2.695652173913043,3.033333333333333,ScrollUp,ScrollDown,Orange.png,3,Negative,Congruent,,,,,0,0,0,0,,,,,,,,,,,,,,,,,,,,,0,14,14,14,,,,,,,,,,,,,,,,,,,,,,,,,,,,,,,,,,,,,,,,,,,,,,,,,,,,,,,,,,,,,,,,,,,,,,,,,2,1.129780700081028,436.6079048999818,None,ScrollUp,정답입니다,436.6079048999818,None,436.6079048999818,None,436.6079048999818,None,436.6079048999818,None,437.62089440005366,None,437.62089440005366,438.1352705999743,,,,,,,,,,,,,,,,130,2022-05-11_13h44.13.155,FishGame,2022.1.1,59.845299878358595,
,16,나를 보내줘,6,Green,A,0,0,ScrollUp,ScrollDown,Green.png,3,NonTarget,NonTarget,,,,,0,0,0,0,,,,,,,,,,,,,,,,,,,,,0,15,15,15,,,,,,,,,,,,,,,,,,,,,,,,,,,,,,,,,,,,,,,,,,,,,,,,,,,,,,,,,,,,,,,,,,,,,,,,,2,1.3636072999797761,438.7646085000597,None,ScrollUp,정답입니다,438.7646085000597,None,438.7646085000597,None,438.7646085000597,None,438.7646085000597,None,440.01791489997413,None,440.01791489997413,440.5184499999741,,,,,,,,,,,,,,,,130,2022-05-11_13h44.13.155,FishGame,2022.1.1,59.845299878358595,
,17,넌 교활해,5,Orange,B,2.333333333333333,2.133333333333333,ScrollUp,ScrollDown,Orange.png,3,Negative,Congruent,,,,,0,0,0,0,,,,,,,,,,,,,,,,,,,,,0,16,16,16,,,,,,,,,,,,,,,,,,,,,,,,,,,,,,,,,,,,,,,,,,,,,,,,,,,,,,,,,,,,,,,,,,,,,,,,,2,1.289163500070572,441.1627150999848,None,ScrollUp,정답입니다,441.1627150999848,None,441.1627150999848,None,441.1627150999848,None,441.1627150999848,None,442.3330190000124,None,442.3330190000124,442.8348602000624,,,,,,,,,,,,,,,,130,2022-05-11_13h44.13.155,FishGame,2022.1.1,59.845299878358595,
,18,나를 보내줘,6,Green,A,0,0,ScrollUp,ScrollDown,Green.png,3,NonTarget,NonTarget,,,,,0,0,0,0,,,,,,,,,,,,,,,,,,,,,0,17,17,17,,,,,,,,,,,,,,,,,,,,,,,,,,,,,,,,,,,,,,,,,,,,,,,,,,,,,,,,,,,,,,,,,,,,,,,,,2,1.25893360003829,443.46609900007024,None,ScrollUp,정답입니다,443.46609900007024,None,443.46609900007024,None,443.46609900007024,None,443.46609900007024,None,444.6185389000457,None,444.6185389000457,445.1183254000498,,,,,,,,,,,,,,,,130,2022-05-11_13h44.13.155,FishGame,2022.1.1,59.845299878358595,
,19,넌 불친절해,5,Orange,B,2.208333333333333,2.033333333333333,ScrollUp,ScrollDown,Orange.png,3,Negative,Congruent,,,,,0,0,0,0,,,,,,,,,,,,,,,,,,,,,0,18,18,18,,,,,,,,,,,,,,,,,,,,,,,,,,,,,,,,,,,,,,,,,,,,,,,,,,,,,,,,,,,,,,,,,,,,,,,,,2,1.2057434999151155,445.76128320000134,None,ScrollUp,정답입니다,445.76128320000134,None,445.76128320000134,None,445.76128320000134,None,445.76128320000134,None,446.8503732000245,None,446.8503732000245,447.3518045999808,,,,,,,,,,,,,,,,130,2022-05-11_13h44.13.155,FishGame,2022.1.1,59.845299878358595,
,20,넌 지적이야,2,Orange,B,5.75,4.366666666666666,ScrollUp,ScrollDown,Orange.png,3,Positive,Incongruent,,,,,0,0,0,0,,,,,,,,,,,,,,,,,,,,,0,19,19,19,,,,,,,,,,,,,,,,,,,,,,,,,,,,,,,,,,,,,,,,,,,,,,,,,,,,,,,,,,,,,,,,,,,,,,,,,2,1.1922415000153705,447.9850550000556,None,ScrollUp,정답입니다,447.9850550000556,None,447.9850550000556,None,447.9850550000556,None,447.9850550000556,None,449.06686380004976,None,449.06686380004976,449.5688555999659,,,,,,,,,,,,,,,,130,2022-05-11_13h44.13.155,FishGame,2022.1.1,59.845299878358595,
,21,넌 우유부단해,4,Green,A,2.666666666666667,3.166666666666667,ScrollDown,ScrollUp,Green.png,3,Negative,Incongruent,,,,,0,0,0,0,,,,,,,,,,,,,,,,,,,,,0,20,20,20,,,,,,,,,,,,,,,,,,,,,,,,,,,,,,,,,,,,,,,,,,,,,,,,,,,,,,,,,,,,,,,,,,,,,,,,,1,1.4004489000653848,450.2085799999768,None,ScrollDown,정답입니다,450.2085799999768,None,450.2085799999768,None,450.2085799999768,None,450.2085799999768,None,451.49004559998866,None,451.49004559998866,452.0019193000626,,,,,,,,,,,,,,,,130,2022-05-11_13h44.13.155,FishGame,2022.1.1,59.845299878358595,
,22,나를 데려가줘,6,Orange,B,0,0,ScrollDown,ScrollUp,Orange.png,3,NonTarget,NonTarget,,,,,0,0,0,0,,,,,,,,,,,,,,,,,,,,,0,21,21,21,,,,,,,,,,,,,,,,,,,,,,,,,,,,,,,,,,,,,,,,,,,,,,,,,,,,,,,,,,,,,,,,,,,,,,,,,1,1.3077933000167832,452.6368447999703,None,ScrollDown,정답입니다,452.6368447999703,None,452.6368447999703,None,452.6368447999703,None,452.6368447999703,None,453.8350664000027,None,453.8350664000027,454.3358364000451,,,,,,,,,,,,,,,,130,2022-05-11_13h44.13.155,FishGame,2022.1.1,59.845299878358595,
,23,넌 성실해,1,Orange,B,6.041666666666666,5.7,ScrollUp,ScrollDown,Orange.png,3,Positive,Incongruent,,,,,0,0,0,0,,,,,,,,,,,,,,,,,,,,,0,22,22,22,,,,,,,,,,,,,,,,,,,,,,,,,,,,,,,,,,,,,,,,,,,,,,,,,,,,,,,,,,,,,,,,,,,,,,,,,2,1.2614860999165103,454.96568420005497,None,ScrollUp,정답입니다,454.96568420005497,None,454.96568420005497,None,454.96568420005497,None,454.96568420005497,None,456.1192288000602,None,456.1192288000602,456.6185149999801,,,,,,,,,,,,,,,,130,2022-05-11_13h44.13.155,FishGame,2022.1.1,59.845299878358595,
,24,넌 현실주의적이야,3,Green,A,4.625,4.4,ScrollDown,ScrollUp,Green.png,3,Neutral,Neutral,,,,,0,0,0,0,,,,,,,,,,,,,,,,,,,,,0,23,23,23,,,,,,,,,,,,,,,,,,,,,,,,,,,,,,,,,,,,,,,,,,,,,,,,,,,,,,,,,,,,,,,,,,,,,,,,,1,1.1907349999528378,457.2529313999694,None,ScrollDown,정답입니다,457.2529313999694,None,457.2529313999694,None,457.2529313999694,None,457.2529313999694,None,458.33550839999225,None,458.33550839999225,458.83550629997626,,,,,,,,,,,,,,,,130,2022-05-11_13h44.13.155,FishGame,2022.1.1,59.845299878358595,
,25,넌 진실돼,1,Green,A,6.625,5.566666666666666,ScrollDown,ScrollUp,Green.png,3,Positive,Congruent,,,,,0,0,0,0,,,,,,,,,,,,,,,,,,,,,0,24,24,24,,,,,,,,,,,,,,,,,,,,,,,,,,,,,,,,,,,,,,,,,,,,,,,,,,,,,,,,,,,,,,,,,,,,,,,,,1,1.1516787000000477,459.4677235999843,None,ScrollDown,정답입니다,459.4677235999843,None,459.4677235999843,None,459.4677235999843,None,459.4677235999843,None,460.5072534000501,None,460.5072534000501,461.0189224999631,,,,,,,,,,,,,,,,130,2022-05-11_13h44.13.155,FishGame,2022.1.1,59.845299878358595,
,26,넌 천진난만해,3,Orange,B,4.958333333333334,4.833333333333333,ScrollUp,ScrollDown,Orange.png,3,Neutral,Neutral,,,,,0,0,0,0,,,,,,,,,,,,,,,,,,,,,0,25,25,25,,,,,,,,,,,,,,,,,,,,,,,,,,,,,,,,,,,,,,,,,,,,,,,,,,,,,,,,,,,,,,,,,,,,,,,,,2,1.1847276000771672,461.66269480006304,None,ScrollUp,정답입니다,461.66269480006304,None,461.66269480006304,None,461.66269480006304,None,461.66269480006304,None,462.7233308000723,None,462.7233308000723,463.2354475000175,,,,,,,,,,,,,,,,130,2022-05-11_13h44.13.155,FishGame,2022.1.1,59.845299878358595,
,27,넌 교양없어,5,Green,A,2.416666666666667,2.2,ScrollDown,ScrollUp,Green.png,3,Negative,Incongruent,,,,,0,0,0,0,,,,,,,,,,,,,,,,,,,,,0,26,26,26,,,,,,,,,,,,,,,,,,,,,,,,,,,,,,,,,,,,,,,,,,,,,,,,,,,,,,,,,,,,,,,,,,,,,,,,,1,1.1059014000929892,463.8746828000294,None,ScrollDown,정답입니다,463.8746828000294,None,463.8746828000294,None,463.8746828000294,None,463.8746828000294,None,464.8673317000503,None,464.8673317000503,465.3693504000548,,,,,,,,,,,,,,,,130,2022-05-11_13h44.13.155,FishGame,2022.1.1,59.845299878358595,
,28,나를 보내줘,6,Green,A,0,0,ScrollUp,ScrollDown,Green.png,3,NonTarget,NonTarget,,,,,0,0,0,0,,,,,,,,,,,,,,,,,,,,,0,27,27,27,,,,,,,,,,,,,,,,,,,,,,,,,,,,,,,,,,,,,,,,,,,,,,,,,,,,,,,,,,,,,,,,,,,,,,,,,2,1.1643490999704227,465.9951024999609,None,ScrollUp,정답입니다,465.9951024999609,None,465.9951024999609,None,465.9951024999609,None,465.9951024999609,None,467.0520954000531,None,467.0520954000531,467.55285530001856,,,,,,,,,,,,,,,,130,2022-05-11_13h44.13.155,FishGame,2022.1.1,59.845299878358595,
,29,넌 엉뚱스러워,3,Green,A,4.166666666666667,4.133333333333334,ScrollDown,ScrollUp,Green.png,3,Neutral,Neutral,,,,,0,0,0,0,,,,,,,,,,,,,,,,,,,,,0,28,28,28,,,,,,,,,,,,,,,,,,,,,,,,,,,,,,,,,,,,,,,,,,,,,,,,,,,,,,,,,,,,,,,,,,,,,,,,,1,1.2146123999264091,468.19688539998606,None,ScrollDown,정답입니다,468.19688539998606,None,468.19688539998606,None,468.19688539998606,None,468.19688539998606,None,469.28929760004394,None,469.28929760004394,469.80261350004,,,,,,,,,,,,,,,,130,2022-05-11_13h44.13.155,FishGame,2022.1.1,59.845299878358595,
,30,넌 무지해,4,Orange,B,2.541666666666667,3.066666666666667,ScrollUp,ScrollDown,Orange.png,3,Negative,Congruent,,,,,0,0,0,0,,,,,,,,,,,,,,,,,,,,,0,29,29,29,,,,,,,,,,,,,,,,,,,,,,,,,,,,,,,,,,,,,,,,,,,,,,,,,,,,,,,,,,,,,,,,,,,,,,,,,1.983024666706721,1.1133077000267804,470.4371996000409,None,ScrollUp,정답입니다,470.4371996000409,None,470.4371996000409,None,470.4371996000409,None,470.4371996000409,None,471.43730650004,None,471.43730650004,471.95288760005496,,,,,,,,,,,,,,,,130,2022-05-11_13h44.13.155,FishGame,2022.1.1,59.845299878358595,
,31,넌 음울해,5,Orange,B,2.25,2.233333333333333,ScrollUp,ScrollDown,Orange.png,3,Negative,Congruent,,,,,0,0,0,0,,,,,,,,,,,,,,,,,,,,,0,30,30,30,,,,,,,,,,,,,,,,,,,,,,,,,,,,,,,,,,,,,,,,,,,,,,,,,,,,,,,,,,,,,,,,,,,,,,,,,2,1.2768226000480354,472.5971789000323,None,ScrollUp,정답입니다,472.5971789000323,None,472.5971789000323,None,472.5971789000323,None,472.5971789000323,None,473.75209680001717,None,473.75209680001717,474.2527533000102,,,,,,,,,,,,,,,,130,2022-05-11_13h44.13.155,FishGame,2022.1.1,59.845299878358595,
,32,넌 냉소적이야,5,Green,A,2.916666666666667,2.4,ScrollDown,ScrollUp,Green.png,3,Negative,Incongruent,,,,,0,0,0,0,,,,,,,,,,,,,,,,,,,,,0,31,31,31,,,,,,,,,,,,,,,,,,,,,,,,,,,,,,,,,,,,,,,,,,,,,,,,,,,,,,,,,,,,,,,,,,,,,,,,,1,1.2845844000112265,474.8856437000213,None,ScrollDown,정답입니다,474.8856437000213,None,474.8856437000213,None,474.8856437000213,None,474.8856437000213,None,476.0676801999798,None,476.0676801999798,476.5692134000128,,,,,,,,,,,,,,,,130,2022-05-11_13h44.13.155,FishGame,2022.1.1,59.845299878358595,
,33,나를 데려가줘,6,Orange,B,0,0,ScrollDown,ScrollUp,Orange.png,3,NonTarget,NonTarget,,,,,0,0,0,0,,,,,,,,,,,,,,,,,,,,,0,32,32,32,,,,,,,,,,,,,,,,,,,,,,,,,,,,,,,,,,,,,,,,,,,,,,,,,,,,,,,,,,,,,,,,,,,,,,,,,1,1.1668041000375524,477.2039858000353,None,ScrollDown,정답입니다,477.2039858000353,None,477.2039858000353,None,477.2039858000353,None,477.2039858000353,None,478.2578523000702,None,478.2578523000702,478.76926670002285,,,,,,,,,,,,,,,,130,2022-05-11_13h44.13.155,FishGame,2022.1.1,59.845299878358595,
,34,넌 쾌활해,1,Green,A,5.541666666666666,5.733333333333333,ScrollDown,ScrollUp,Green.png,3,Positive,Congruent,,,,,0,0,0,0,,,,,,,,,,,,,,,,,,,,,0,33,33,33,,,,,,,,,,,,,,,,,,,,,,,,,,,,,,,,,,,,,,,,,,,,,,,,,,,,,,,,,,,,,,,,,,,,,,,,,1,1.1350494000362232,479.41290590004064,None,ScrollDown,정답입니다,479.41290590004064,None,479.41290590004064,None,479.41290590004064,None,479.41290590004064,None,480.42382799996994,None,480.42382799996994,480.9357177000493,,,,,,,,,,,,,,,,130,2022-05-11_13h44.13.155,FishGame,2022.1.1,59.845299878358595,
,35,나를 보내줘,6,Green,A,0,0,ScrollUp,ScrollDown,Green.png,3,NonTarget,NonTarget,,,,,0,0,0,0,,,,,,,,,,,,,,,,,,,,,0,34,34,34,,,,,,,,,,,,,,,,,,,,,,,,,,,,,,,,,,,,,,,,,,,,,,,,,,,,,,,,,,,,,,,,,,,,,,,,,1.9845678806304932,1.13240310002584,481.5681856999872,None,ScrollUp,정답입니다,481.5681856999872,None,481.5681856999872,None,481.5681856999872,None,481.5681856999872,None,482.59128389996476,None,482.59128389996476,483.10295870003756,,,,,,,,,,,,,,,,130,2022-05-11_13h44.13.155,FishGame,2022.1.1,59.845299878358595,
,36,넌 명랑해,1,Orange,B,5.739130434782609,5.666666666666667,ScrollUp,ScrollDown,Orange.png,3,Positive,Incongruent,,,,,0,0,0,0,,,,,,,,,,,,,,,,,,,,,0,35,35,35,,,,,,,,,,,,,,,,,,,,,,,,,,,,,,,,,,,,,,,,,,,,,,,,,,,,,,,,,,,,,,,,,,,,,,,,,2,1.1158216999610886,483.7426067000488,None,ScrollUp,정답입니다,483.7426067000488,None,483.7426067000488,None,483.7426067000488,None,483.7426067000488,None,484.74106240004767,None,484.74106240004767,485.252776700072,,,,,,,,,,,,,,,,130,2022-05-11_13h44.13.155,FishGame,2022.1.1,59.845299878358595,
,37,넌 멍해,4,Green,A,2.833333333333333,3.4,ScrollDown,ScrollUp,Green.png,3,Negative,Incongruent,,,,,0,0,0,0,,,,,,,,,,,,,,,,,,,,,0,36,36,36,,,,,,,,,,,,,,,,,,,,,,,,,,,,,,,,,,,,,,,,,,,,,,,,,,,,,,,,,,,,,,,,,,,,,,,,,1,1.0836853999644518,485.8902273999993,None,ScrollDown,정답입니다,485.8902273999993,None,485.8902273999993,None,485.8902273999993,None,485.8902273999993,None,486.85764659999404,None,486.85764659999404,487.3699232999934,,,,,,,,,,,,,,,,130,2022-05-11_13h44.13.155,FishGame,2022.1.1,59.845299878358595,
,38,나를 데려가줘,6,Orange,B,0,0,ScrollDown,ScrollUp,Orange.png,3,NonTarget,NonTarget,,,,,0,0,0,0,,,,,,,,,,,,,,,,,,,,,0,37,37,37,,,,,,,,,,,,,,,,,,,,,,,,,,,,,,,,,,,,,,,,,,,,,,,,,,,,,,,,,,,,,,,,,,,,,,,,,1,1.0636192000238225,488.0038373999996,None,ScrollDown,정답입니다,488.0038373999996,None,488.0038373999996,None,488.0038373999996,None,488.0038373999996,None,488.95308480004314,None,488.95308480004314,489.4527297000168,,,,,,,,,,,,,,,,130,2022-05-11_13h44.13.155,FishGame,2022.1.1,59.845299878358595,
,39,넌 현명해,2,Green,A,6.541666666666666,4.533333333333333,ScrollDown,ScrollUp,Green.png,3,Positive,Congruent,,,,,0,0,0,0,,,,,,,,,,,,,,,,,,,,,0,38,38,38,,,,,,,,,,,,,,,,,,,,,,,,,,,,,,,,,,,,,,,,,,,,,,,,,,,,,,,,,,,,,,,,,,,,,,,,,1.0138889054457347,1.1278175000334159,490.0799236999592,None,ScrollDown,정답입니다,490.0799236999592,None,490.0799236999592,None,490.0799236999592,None,490.0799236999592,None,491.09894429997075,None,491.09894429997075,491.60332300001755,,,,,,,,,,,,,,,,130,2022-05-11_13h44.13.155,FishGame,2022.1.1,59.845299878358595,
,40,넌 수줍어,3,Orange,B,3.541666666666666,4.366666666666666,ScrollUp,ScrollDown,Orange.png,3,Neutral,Neutral,,,,,0,0,0,0,,,,,,,,,,,,,,,,,,,,,0,39,39,39,,,,,,,,,,,,,,,,,,,,,,,,,,,,,,,,,,,,,,,,,,,,,,,,,,,,,,,,,,,,,,,,,,,,,,,,,2,1.068732799962163,492.2427094000159,None,ScrollUp,정답입니다,492.2427094000159,None,492.2427094000159,None,492.2427094000159,None,492.2427094000159,None,493.1913745000493,None,493.1913745000493,493.70356090005953,,,,,,,,,,,,,,,,130,2022-05-11_13h44.13.155,FishGame,2022.1.1,59.845299878358595,
,41,나를 데려가줘,6,Orange,B,0,0,ScrollDown,ScrollUp,Orange.png,3,NonTarget,NonTarget,,,,,0,0,0,0,,,,,,,,,,,,,,,,,,,,,0,40,40,40,,,,,,,,,,,,,,,,,,,,,,,,,,,,,,,,,,,,,,,,,,,,,,,,,,,,,,,,,,,,,,,,,,,,,,,,,1,1.1877671000547707,494.3357689999975,None,ScrollDown,정답입니다,494.3357689999975,None,494.3357689999975,None,494.3357689999975,None,494.3357689999975,None,495.41741390002426,None,495.41741390002426,495.9194966000505,,,,,,,,,,,,,,,,130,2022-05-11_13h44.13.155,FishGame,2022.1.1,59.845299878358595,
,42,넌 성숙해,2,Orange,B,5.833333333333333,4.533333333333333,ScrollUp,ScrollDown,Orange.png,3,Positive,Incongruent,,,,,0,0,0,0,,,,,,,,,,,,,,,,,,,,,0,41,41,41,,,,,,,,,,,,,,,,,,,,,,,,,,,,,,,,,,,,,,,,,,,,,,,,,,,,,,,,,,,,,,,,,,,,,,,,,2,1.1930177999893203,496.55631839996204,None,ScrollUp,정답입니다,496.55631839996204,None,496.55631839996204,None,496.55631839996204,None,496.55631839996204,None,497.63604590005707,None,497.63604590005707,498.1367022000486,,,,,,,,,,,,,,,,130,2022-05-11_13h44.13.155,FishGame,2022.1.1,59.845299878358595,
,1,넌 매력적이야,2,Orange,B,6.125,4.666666666666667,ScrollUp,ScrollDown,Orange.png,4,Positive,Incongruent,,,,,0,0,0,0,,,,,,,,,,,,,,,,,,,,,,,,,0,0,0,0,,,,,,,,,,,,,,,,,,,,,,,,,,,,531.3206504000118,532.8202964999946,532.8539342000149,533.8042656000471,533.8547419999959,534.8047213000245,534.8047213000245,None,,,,,,,,,,,,,,,,,,,,,,,,,,,,,,,,,,2,1.7325369999743998,535.9682390000671,None,ScrollUp,정답입니다,535.9682390000671,None,535.9682390000671,None,535.9682390000671,None,535.9682390000671,None,537.5351824000245,None,537.5351824000245,538.0372828000691,498.6367643000558,None,498.6367643000558,None,-0.2,-0.10092592,1,0,0,0.01625562005210668,None,528.6368069000309,None,,,130,2022-05-11_13h44.13.155,FishGame,2022.1.1,59.845299878358595,
,2,나를 보내줘,6,Green,A,0,0,ScrollUp,ScrollDown,Green.png,4,NonTarget,NonTarget,,,,,0,0,0,0,,,,,,,,,,,,,,,,,,,,,,,,,0,1,1,1,,,,,,,,,,,,,,,,,,,,,,,,,,,,,,,,,,,,,,,,,,,,,,,,,,,,,,,,,,,,,,,,,,,,,2,1.2558028000639752,538.6689015000593,None,ScrollUp,정답입니다,538.6689015000593,None,538.6689015000593,None,538.6689015000593,None,538.6689015000593,None,539.8187858000165,None,539.8187858000165,540.3211824999889,,,,,,,,,,,,,,,,130,2022-05-11_13h44.13.155,FishGame,2022.1.1,59.845299878358595,
,3,넌 조심스러워,3,Green,A,4.791666666666666,4.666666666666667,ScrollDown,ScrollUp,Green.png,4,Neutral,Neutral,,,,,0,0,0,0,,,,,,,,,,,,,,,,,,,,,,,,,0,2,2,2,,,,,,,,,,,,,,,,,,,,,,,,,,,,,,,,,,,,,,,,,,,,,,,,,,,,,,,,,,,,,,,,,,,,,1,1.0842723000096157,540.9506342000095,None,ScrollDown,정답입니다,540.9506342000095,None,540.9506342000095,None,540.9506342000095,None,540.9506342000095,None,541.9259263999993,None,541.9259263999993,542.4372219999786,,,,,,,,,,,,,,,,130,2022-05-11_13h44.13.155,FishGame,2022.1.1,59.845299878358595,
,4,넌 철학적이야,3,Orange,B,4.5,4.266666666666667,ScrollUp,ScrollDown,Orange.png,4,Neutral,Neutral,,,,,0,0,0,0,,,,,,,,,,,,,,,,,,,,,,,,,0,3,3,3,,,,,,,,,,,,,,,,,,,,,,,,,,,,,,,,,,,,,,,,,,,,,,,,,,,,,,,,,,,,,,,,,,,,,2,1.1059820000082254,543.0827851999784,None,ScrollUp,정답입니다,543.0827851999784,None,543.0827851999784,None,543.0827851999784,None,543.0827851999784,None,544.0688071000623,None,544.0688071000623,544.5707242999924,,,,,,,,,,,,,,,,130,2022-05-11_13h44.13.155,FishGame,2022.1.1,59.845299878358595,
,5,넌 쩨쩨해,5,Green,A,2.375,2.133333333333333,ScrollDown,ScrollUp,Green.png,4,Negative,Incongruent,,,,,0,0,0,0,,,,,,,,,,,,,,,,,,,,,,,,,0,4,4,4,,,,,,,,,,,,,,,,,,,,,,,,,,,,,,,,,,,,,,,,,,,,,,,,,,,,,,,,,,,,,,,,,,,,,1.0077160497506459,1.0572042999556288,545.199003500049,None,ScrollDown,정답입니다,545.199003500049,None,545.199003500049,None,545.199003500049,None,545.199003500049,None,546.1539898000192,None,546.1539898000192,546.6542107000714,,,,,,,,,,,,,,,,130,2022-05-11_13h44.13.155,FishGame,2022.1.1,59.845299878358595,
,6,나를 데려가줘,6,Orange,B,0,0,ScrollDown,ScrollUp,Orange.png,4,NonTarget,NonTarget,,,,,0,0,0,0,,,,,,,,,,,,,,,,,,,,,,,,,0,5,5,5,,,,,,,,,,,,,,,,,,,,,,,,,,,,,,,,,,,,,,,,,,,,,,,,,,,,,,,,,,,,,,,,,,,,,1,1.1731198000488803,547.290156800067,None,ScrollDown,정답입니다,547.290156800067,None,547.290156800067,None,547.290156800067,None,547.290156800067,None,548.3521272999933,None,548.3521272999933,548.8538761000382,,,,,,,,,,,,,,,,130,2022-05-11_13h44.13.155,FishGame,2022.1.1,59.845299878358595,
,7,넌 고집불통이야,5,Orange,B,2.875,2,ScrollUp,ScrollDown,Orange.png,4,Negative,Congruent,,,,,0,0,0,0,,,,,,,,,,,,,,,,,,,,,,,,,0,6,6,6,,,,,,,,,,,,,,,,,,,,,,,,,,,,,,,,,,,,,,,,,,,,,,,,,,,,,,,,,,,,,,,,,,,,,1.8858024626970291,1.1059892000630498,549.4982324000448,None,ScrollUp,정답입니다,549.4982324000448,None,549.4982324000448,None,549.4982324000448,None,549.4982324000448,None,550.4852273999713,None,550.4852273999713,550.9875943000661,,,,,,,,,,,,,,,,130,2022-05-11_13h44.13.155,FishGame,2022.1.1,59.845299878358595,
,8,넌 무심해,4,Green,A,2.875,3.2,ScrollDown,ScrollUp,Green.png,4,Negative,Incongruent,,,,,0,0,0,0,,,,,,,,,,,,,,,,,,,,,,,,,0,7,7,7,,,,,,,,,,,,,,,,,,,,,,,,,,,,,,,,,,,,,,,,,,,,,,,,,,,,,,,,,,,,,,,,,,,,,1,1.1515584000153467,551.6228502000449,None,ScrollDown,정답입니다,551.6228502000449,None,551.6228502000449,None,551.6228502000449,None,551.6228502000449,None,552.6589320000494,None,552.6589320000494,553.1710226000287,,,,,,,,,,,,,,,,130,2022-05-11_13h44.13.155,FishGame,2022.1.1,59.845299878358595,
,9,넌 정겨워,1,Green,A,5.791666666666667,5.666666666666667,ScrollDown,ScrollUp,Green.png,4,Positive,Congruent,,,,,0,0,0,0,,,,,,,,,,,,,,,,,,,,,,,,,0,8,8,8,,,,,,,,,,,,,,,,,,,,,,,,,,,,,,,,,,,,,,,,,,,,,,,,,,,,,,,,,,,,,,,,,,,,,1,1.019784800009802,553.8082798999967,None,ScrollDown,정답입니다,553.8082798999967,None,553.8082798999967,None,553.8082798999967,None,553.8082798999967,None,554.7089143999619,None,554.7089143999619,555.2212821000721,,,,,,,,,,,,,,,,130,2022-05-11_13h44.13.155,FishGame,2022.1.1,59.845299878358595,
,10,나를 데려가줘,6,Orange,B,0,0,ScrollDown,ScrollUp,Orange.png,4,NonTarget,NonTarget,,,,,0,0,0,0,,,,,,,,,,,,,,,,,,,,,,,,,0,9,9,9,,,,,,,,,,,,,,,,,,,,,,,,,,,,,,,,,,,,,,,,,,,,,,,,,,,,,,,,,,,,,,,,,,,,,1,1.1195910999085754,555.8541996000567,None,ScrollDown,정답입니다,555.8541996000567,None,555.8541996000567,None,555.8541996000567,None,555.8541996000567,None,556.8691336000338,None,556.8691336000338,557.3710399999982,,,,,,,,,,,,,,,,130,2022-05-11_13h44.13.155,FishGame,2022.1.1,59.845299878358595,
,11,넌 체제순응적이야,4,Orange,B,3,3.6,ScrollUp,ScrollDown,Orange.png,4,Negative,Congruent,,,,,0,0,0,0,,,,,,,,,,,,,,,,,,,,,,,,,0,10,10,10,,,,,,,,,,,,,,,,,,,,,,,,,,,,,,,,,,,,,,,,,,,,,,,,,,,,,,,,,,,,,,,,,,,,,2,1.2540496999863535,558.0254694999894,None,ScrollUp,정답입니다,558.0254694999894,None,558.0254694999894,None,558.0254694999894,None,558.0254694999894,None,559.1525277000619,None,559.1525277000619,559.654092199984,,,,,,,,,,,,,,,,130,2022-05-11_13h44.13.155,FishGame,2022.1.1,59.845299878358595,
,12,나를 보내줘,6,Green,A,0,0,ScrollUp,ScrollDown,Green.png,4,NonTarget,NonTarget,,,,,0,0,0,0,,,,,,,,,,,,,,,,,,,,,,,,,0,11,11,11,,,,,,,,,,,,,,,,,,,,,,,,,,,,,,,,,,,,,,,,,,,,,,,,,,,,,,,,,,,,,,,,,,,,,2,1.1742243999615312,560.2875388000393,None,ScrollUp,정답입니다,560.2875388000393,None,560.2875388000393,None,560.2875388000393,None,560.2875388000393,None,561.3521744000027,None,561.3521744000027,561.8545467000222,,,,,,,,,,,,,,,,130,2022-05-11_13h44.13.155,FishGame,2022.1.1,59.845299878358595,
,13,넌 박식해,2,Green,A,5.625,3.933333333333333,ScrollDown,ScrollUp,Green.png,4,Positive,Congruent,,,,,0,0,0,0,,,,,,,,,,,,,,,,,,,,,,,,,0,12,12,12,,,,,,,,,,,,,,,,,,,,,,,,,,,,,,,,,,,,,,,,,,,,,,,,,,,,,,,,,,,,,,,,,,,,,1,1.1722438000142574,562.5004010000266,None,ScrollDown,정답입니다,562.5004010000266,None,562.5004010000266,None,562.5004010000266,None,562.5004010000266,None,563.5525347000221,None,563.5525347000221,564.0544058000669,,,,,,,,,,,,,,,,130,2022-05-11_13h44.13.155,FishGame,2022.1.1,59.845299878358595,
,14,나를 보내줘,6,Green,A,0,0,ScrollUp,ScrollDown,Green.png,4,NonTarget,NonTarget,,,,,0,0,0,0,,,,,,,,,,,,,,,,,,,,,,,,,0,13,13,13,,,,,,,,,,,,,,,,,,,,,,,,,,,,,,,,,,,,,,,,,,,,,,,,,,,,,,,,,,,,,,,,,,,,,2,1.2229793999576941,564.6807718999917,None,ScrollUp,정답입니다,564.6807718999917,None,564.6807718999917,None,564.6807718999917,None,564.6807718999917,None,565.8022514999611,None,565.8022514999611,566.3044338000473,,,,,,,,,,,,,,,,130,2022-05-11_13h44.13.155,FishGame,2022.1.1,59.845299878358595,
,15,넌 침착해,1,Orange,B,5.458333333333333,5.566666666666666,ScrollUp,ScrollDown,Orange.png,4,Positive,Incongruent,,,,,0,0,0,0,,,,,,,,,,,,,,,,,,,,,,,,,0,14,14,14,,,,,,,,,,,,,,,,,,,,,,,,,,,,,,,,,,,,,,,,,,,,,,,,,,,,,,,,,,,,,,,,,,,,,1.9182098805904388,1.1146622999804094,566.9474348999793,None,ScrollUp,정답입니다,566.9474348999793,None,566.9474348999793,None,566.9474348999793,None,566.9474348999793,None,567.9415724000428,None,567.9415724000428,568.4547274999786,,,,,,,,,,,,,,,,130,2022-05-11_13h44.13.155,FishGame,2022.1.1,59.845299878358595,
,16,나를 데려가줘,6,Orange,B,0,0,ScrollDown,ScrollUp,Orange.png,4,NonTarget,NonTarget,,,,,0,0,0,0,,,,,,,,,,,,,,,,,,,,,,,,,0,15,15,15,,,,,,,,,,,,,,,,,,,,,,,,,,,,,,,,,,,,,,,,,,,,,,,,,,,,,,,,,,,,,,,,,,,,,1,1.134857700089924,569.0895852000685,None,ScrollDown,정답입니다,569.0895852000685,None,569.0895852000685,None,569.0895852000685,None,569.0895852000685,None,570.1097798000555,None,570.1097798000555,570.6213467000052,,,,,,,,,,,,,,,,130,2022-05-11_13h44.13.155,FishGame,2022.1.1,59.845299878358595,
,17,넌 행복해,1,Green,A,6.416666666666666,6.166666666666667,ScrollDown,ScrollUp,Green.png,4,Positive,Congruent,,,,,0,0,0,0,,,,,,,,,,,,,,,,,,,,,,,,,0,16,16,16,,,,,,,,,,,,,,,,,,,,,,,,,,,,,,,,,,,,,,,,,,,,,,,,,,,,,,,,,,,,,,,,,,,,,1.0138889054457347,1.1029627000680193,571.2595732000191,None,ScrollDown,정답입니다,571.2595732000191,None,571.2595732000191,None,571.2595732000191,None,571.2595732000191,None,572.2430022000335,None,572.2430022000335,572.7548725999659,,,,,,,,,,,,,,,,130,2022-05-11_13h44.13.155,FishGame,2022.1.1,59.845299878358595,
,18,넌 겸손해,2,Orange,B,5.791666666666667,4.766666666666667,ScrollUp,ScrollDown,Orange.png,4,Positive,Incongruent,,,,,0,0,0,0,,,,,,,,,,,,,,,,,,,,,,,,,0,17,17,17,,,,,,,,,,,,,,,,,,,,,,,,,,,,,,,,,,,,,,,,,,,,,,,,,,,,,,,,,,,,,,,,,,,,,1.983024666706721,1.1196803000057116,573.4027337000007,None,ScrollUp,정답입니다,573.4027337000007,None,573.4027337000007,None,573.4027337000007,None,573.4027337000007,None,574.4028852999909,None,574.4028852999909,574.9044352000346,,,,,,,,,,,,,,,,130,2022-05-11_13h44.13.155,FishGame,2022.1.1,59.845299878358595,
,19,나를 보내줘,6,Green,A,0,0,ScrollUp,ScrollDown,Green.png,4,NonTarget,NonTarget,,,,,0,0,0,0,,,,,,,,,,,,,,,,,,,,,,,,,0,18,18,18,,,,,,,,,,,,,,,,,,,,,,,,,,,,,,,,,,,,,,,,,,,,,,,,,,,,,,,,,,,,,,,,,,,,,2,1.1904942999826744,575.5369239000138,None,ScrollUp,정답입니다,575.5369239000138,None,575.5369239000138,None,575.5369239000138,None,575.5369239000138,None,576.6195345000597,None,576.6195345000597,577.1215658000438,,,,,,,,,,,,,,,,130,2022-05-11_13h44.13.155,FishGame,2022.1.1,59.845299878358595,
,20,넌 의심없어,3,Green,A,4.166666666666667,4.6,ScrollDown,ScrollUp,Green.png,4,Neutral,Neutral,,,,,0,0,0,0,,,,,,,,,,,,,,,,,,,,,,,,,0,19,19,19,,,,,,,,,,,,,,,,,,,,,,,,,,,,,,,,,,,,,,,,,,,,,,,,,,,,,,,,,,,,,,,,,,,,,1,1.2226742000784725,577.7659683000529,None,ScrollDown,정답입니다,577.7659683000529,None,577.7659683000529,None,577.7659683000529,None,577.7659683000529,None,578.8697972999653,None,578.8697972999653,579.3712144000456,,,,,,,,,,,,,,,,130,2022-05-11_13h44.13.155,FishGame,2022.1.1,59.845299878358595,
,21,넌 시시해,4,Green,A,2.666666666666667,2.966666666666667,ScrollDown,ScrollUp,Green.png,4,Negative,Incongruent,,,,,0,0,0,0,,,,,,,,,,,,,,,,,,,,,,,,,0,20,20,20,,,,,,,,,,,,,,,,,,,,,,,,,,,,,,,,,,,,,,,,,,,,,,,,,,,,,,,,,,,,,,,,,,,,,1,1.0745882999617606,580.0046209000284,None,ScrollDown,정답입니다,580.0046209000284,None,580.0046209000284,None,580.0046209000284,None,580.0046209000284,None,580.9700048000086,None,580.9700048000086,581.4717694000574,,,,,,,,,,,,,,,,130,2022-05-11_13h44.13.155,FishGame,2022.1.1,59.845299878358595,
,22,나를 데려가줘,6,Orange,B,0,0,ScrollDown,ScrollUp,Orange.png,4,NonTarget,NonTarget,,,,,0,0,0,0,,,,,,,,,,,,,,,,,,,,,,,,,0,21,21,21,,,,,,,,,,,,,,,,,,,,,,,,,,,,,,,,,,,,,,,,,,,,,,,,,,,,,,,,,,,,,,,,,,,,,1,1.6094741999404505,582.1075593000278,None,ScrollDown,정답입니다,582.1075593000278,None,582.1075593000278,None,582.1075593000278,None,582.1075593000278,None,583.6051788000623,None,583.6051788000623,584.1046673000092,,,,,,,,,,,,,,,,130,2022-05-11_13h44.13.155,FishGame,2022.1.1,59.845299878358595,
,23,넌 무정해,5,Green,A,2.5,2.2,ScrollDown,ScrollUp,Green.png,4,Negative,Incongruent,,,,,0,0,0,0,,,,,,,,,,,,,,,,,,,,,,,,,0,22,22,22,,,,,,,,,,,,,,,,,,,,,,,,,,,,,,,,,,,,,,,,,,,,,,,,,,,,,,,,,,,,,,,,,,,,,1,1.187039199983701,584.7313637000043,None,ScrollDown,정답입니다,584.7313637000043,None,584.7313637000043,None,584.7313637000043,None,584.7313637000043,None,585.8196625000564,None,585.8196625000564,586.3224379000021,,,,,,,,,,,,,,,,130,2022-05-11_13h44.13.155,FishGame,2022.1.1,59.845299878358595,
,24,넌 긍정적이야,1,Orange,B,6.041666666666667,6.066666666666666,ScrollUp,ScrollDown,Orange.png,4,Positive,Incongruent,,,,,0,0,0,0,,,,,,,,,,,,,,,,,,,,,,,,,0,23,23,23,,,,,,,,,,,,,,,,,,,,,,,,,,,,,,,,,,,,,,,,,,,,,,,,,,,,,,,,,,,,,,,,,,,,,1.9089506218830745,1.1224832000443712,586.9675312000327,None,ScrollUp,정답입니다,586.9675312000327,None,586.9675312000327,None,586.9675312000327,None,586.9675312000327,None,587.9702385000419,None,587.9702385000419,588.4719056000467,,,,,,,,,,,,,,,,130,2022-05-11_13h44.13.155,FishGame,2022.1.1,59.845299878358595,
,25,나를 보내줘,6,Green,A,0,0,ScrollUp,ScrollDown,Green.png,4,NonTarget,NonTarget,,,,,0,0,0,0,,,,,,,,,,,,,,,,,,,,,,,,,0,24,24,24,,,,,,,,,,,,,,,,,,,,,,,,,,,,,,,,,,,,,,,,,,,,,,,,,,,,,,,,,,,,,,,,,,,,,1.9938271641731262,1.3076192999724299,589.0980680000503,None,ScrollUp,정답입니다,589.0980680000503,None,589.0980680000503,None,589.0980680000503,None,589.0980680000503,None,590.3033252999885,None,590.3033252999885,590.8049272999633,,,,,,,,,,,,,,,,130,2022-05-11_13h44.13.155,FishGame,2022.1.1,59.845299878358595,
,26,넌 시기심이 많아,5,Orange,B,2.458333333333333,2.233333333333333,ScrollUp,ScrollDown,Orange.png,4,Negative,Congruent,,,,,0,0,0,0,,,,,,,,,,,,,,,,,,,,,,,,,0,25,25,25,,,,,,,,,,,,,,,,,,,,,,,,,,,,,,,,,,,,,,,,,,,,,,,,,,,,,,,,,,,,,,,,,,,,,2,1.2542232000268996,591.4551752000116,None,ScrollUp,정답입니다,591.4551752000116,None,591.4551752000116,None,591.4551752000116,None,591.4551752000116,None,592.5866286000237,None,592.5866286000237,593.0881833999883,,,,,,,,,,,,,,,,130,2022-05-11_13h44.13.155,FishGame,2022.1.1,59.845299878358595,
,27,넌 탁월해,2,Green,A,5.708333333333334,4.5,ScrollDown,ScrollUp,Green.png,4,Positive,Congruent,,,,,0,0,0,0,,,,,,,,,,,,,,,,,,,,,,,,,0,26,26,26,,,,,,,,,,,,,,,,,,,,,,,,,,,,,,,,,,,,,,,,,,,,,,,,,,,,,,,,,,,,,,,,,,,,,1,1.0740685999626294,593.7325023000594,None,ScrollDown,정답입니다,593.7325023000594,None,593.7325023000594,None,593.7325023000594,None,593.7325023000594,None,594.6886111999629,None,594.6886111999629,595.1891454000724,,,,,,,,,,,,,,,,130,2022-05-11_13h44.13.155,FishGame,2022.1.1,59.845299878358595,
,28,나를 데려가줘,6,Orange,B,0,0,ScrollDown,ScrollUp,Orange.png,4,NonTarget,NonTarget,,,,,0,0,0,0,,,,,,,,,,,,,,,,,,,,,,,,,0,27,27,27,,,,,,,,,,,,,,,,,,,,,,,,,,,,,,,,,,,,,,,,,,,,,,,,,,,,,,,,,,,,,,,,,,,,,1,1.1974475999595597,595.8204018999822,None,ScrollDown,정답입니다,595.8204018999822,None,595.8204018999822,None,595.8204018999822,None,595.8204018999822,None,596.9088990000309,None,596.9088990000309,597.4224742000224,,,,,,,,,,,,,,,,130,2022-05-11_13h44.13.155,FishGame,2022.1.1,59.845299878358595,
,29,넌 조용해,3,Orange,B,4.333333333333333,4.166666666666667,ScrollUp,ScrollDown,Orange.png,4,Neutral,Neutral,,,,,0,0,0,0,,,,,,,,,,,,,,,,,,,,,,,,,0,28,28,28,,,,,,,,,,,,,,,,,,,,,,,,,,,,,,,,,,,,,,,,,,,,,,,,,,,,,,,,,,,,,,,,,,,,,1.89969136317571,1.1129582999274135,598.0593764999649,None,ScrollUp,정답입니다,598.0593764999649,None,598.0593764999649,None,598.0593764999649,None,598.0593764999649,None,599.0568760000169,None,599.0568760000169,599.5729956000578,,,,,,,,,,,,,,,,130,2022-05-11_13h44.13.155,FishGame,2022.1.1,59.845299878358595,
,30,넌 다정해,1,Green,A,5.833333333333334,5.7,ScrollDown,ScrollUp,Green.png,4,Positive,Congruent,,,,,0,0,0,0,,,,,,,,,,,,,,,,,,,,,,,,,0,29,29,29,,,,,,,,,,,,,,,,,,,,,,,,,,,,,,,,,,,,,,,,,,,,,,,,,,,,,,,,,,,,,,,,,,,,,1,1.0740562999853864,600.2121848000679,None,ScrollDown,정답입니다,600.2121848000679,None,600.2121848000679,None,600.2121848000679,None,600.2121848000679,None,601.1719698000234,None,601.1719698000234,601.6727767999982,,,,,,,,,,,,,,,,130,2022-05-11_13h44.13.155,FishGame,2022.1.1,59.845299878358595,
,31,넌 능력있어,2,Orange,B,6.166666666666666,4.6,ScrollUp,ScrollDown,Orange.png,4,Positive,Incongruent,,,,,0,0,0,0,,,,,,,,,,,,,,,,,,,,,,,,,0,30,30,30,,,,,,,,,,,,,,,,,,,,,,,,,,,,,,,,,,,,,,,,,,,,,,,,,,,,,,,,,,,,,,,,,,,,,2,1.1545562000246719,602.3049029000103,None,ScrollUp,정답입니다,602.3049029000103,None,602.3049029000103,None,602.3049029000103,None,602.3049029000103,None,603.3537443999667,None,603.3537443999667,603.8554971000412,,,,,,,,,,,,,,,,130,2022-05-11_13h44.13.155,FishGame,2022.1.1,59.845299878358595,
,32,넌 불쾌해,5,Green,A,2.125,1.933333333333333,ScrollDown,ScrollUp,Green.png,4,Negative,Incongruent,,,,,0,0,0,0,,,,,,,,,,,,,,,,,,,,,,,,,0,31,31,31,,,,,,,,,,,,,,,,,,,,,,,,,,,,,,,,,,,,,,,,,,,,,,,,,,,,,,,,,,,,,,,,,,,,,1.1111111094554265,0.9875423999037594,604.4818392000161,None,ScrollDown,정답입니다,604.4818392000161,None,604.4818392000161,None,604.4818392000161,None,604.4818392000161,None,605.3701960999751,None,605.3701960999751,605.872224300052,,,,,,,,,,,,,,,,130,2022-05-11_13h44.13.155,FishGame,2022.1.1,59.845299878358595,
,33,나를 데려가줘,6,Orange,B,0,0,ScrollDown,ScrollUp,Orange.png,4,NonTarget,NonTarget,,,,,0,0,0,0,,,,,,,,,,,,,,,,,,,,,,,,,0,32,32,32,,,,,,,,,,,,,,,,,,,,,,,,,,,,,,,,,,,,,,,,,,,,,,,,,,,,,,,,,,,,,,,,,,,,,1,1.2430150000145659,606.5086430000374,None,ScrollDown,정답입니다,606.5086430000374,None,606.5086430000374,None,606.5086430000374,None,606.5086430000374,None,607.6386395000154,None,607.6386395000154,608.1385603999952,,,,,,,,,,,,,,,,130,2022-05-11_13h44.13.155,FishGame,2022.1.1,59.845299878358595,
,34,넌 유순해,3,Green,A,4.458333333333333,5,ScrollDown,ScrollUp,Green.png,4,Neutral,Neutral,,,,,0,0,0,0,,,,,,,,,,,,,,,,,,,,,,,,,0,33,33,33,,,,,,,,,,,,,,,,,,,,,,,,,,,,,,,,,,,,,,,,,,,,,,,,,,,,,,,,,,,,,,,,,,,,,1,1.2190040999557823,608.7758091000142,None,ScrollDown,정답입니다,608.7758091000142,None,608.7758091000142,None,608.7758091000142,None,608.7758091000142,None,609.8775564000243,None,609.8775564000243,610.3890301999636,,,,,,,,,,,,,,,,130,2022-05-11_13h44.13.155,FishGame,2022.1.1,59.845299878358595,
,35,넌 근심스러워,4,Orange,B,2.708333333333333,3.133333333333333,ScrollUp,ScrollDown,Orange.png,4,Negative,Congruent,,,,,0,0,0,0,,,,,,,,,,,,,,,,,,,,,,,,,0,34,34,34,,,,,,,,,,,,,,,,,,,,,,,,,,,,,,,,,,,,,,,,,,,,,,,,,,,,,,,,,,,,,,,,,,,,,1.8873456766208012,1.267227299977094,611.0302138000261,None,ScrollUp,정답입니다,611.0302138000261,None,611.0302138000261,None,611.0302138000261,None,611.0302138000261,None,612.1787477000616,None,612.1787477000616,612.6888147999998,,,,,,,,,,,,,,,,130,2022-05-11_13h44.13.155,FishGame,2022.1.1,59.845299878358595,
,36,넌 세련되었어,2,Green,A,5.5,4.6,ScrollDown,ScrollUp,Green.png,4,Positive,Congruent,,,,,0,0,0,0,,,,,,,,,,,,,,,,,,,,,,,,,0,35,35,35,,,,,,,,,,,,,,,,,,,,,,,,,,,,,,,,,,,,,,,,,,,,,,,,,,,,,,,,,,,,,,,,,,,,,1,1.1237584999762475,613.3314248999814,None,ScrollDown,정답입니다,613.3314248999814,None,613.3314248999814,None,613.3314248999814,None,613.3314248999814,None,614.338606400066,None,614.338606400066,614.8391423999565,,,,,,,,,,,,,,,,130,2022-05-11_13h44.13.155,FishGame,2022.1.1,59.845299878358595,
,37,나를 보내줘,6,Green,A,0,0,ScrollUp,ScrollDown,Green.png,4,NonTarget,NonTarget,,,,,0,0,0,0,,,,,,,,,,,,,,,,,,,,,,,,,0,36,36,36,,,,,,,,,,,,,,,,,,,,,,,,,,,,,,,,,,,,,,,,,,,,,,,,,,,,,,,,,,,,,,,,,,,,,1.9537037014961243,1.1730700000189245,615.4683941999683,None,ScrollUp,정답입니다,615.4683941999683,None,615.4683941999683,None,615.4683941999683,None,615.4683941999683,None,616.5368622000096,None,616.5368622000096,617.0385427000001,,,,,,,,,,,,,,,,130,2022-05-11_13h44.13.155,FishGame,2022.1.1,59.845299878358595,
,38,넌 확고해,3,Orange,B,4.708333333333334,4.566666666666666,ScrollUp,ScrollDown,Orange.png,4,Neutral,Neutral,,,,,0,0,0,0,,,,,,,,,,,,,,,,,,,,,,,,,0,37,37,37,,,,,,,,,,,,,,,,,,,,,,,,,,,,,,,,,,,,,,,,,,,,,,,,,,,,,,,,,,,,,,,,,,,,,1.9521604875723522,1.2020503000821918,617.6808517000172,None,ScrollUp,정답입니다,617.6808517000172,None,617.6808517000172,None,617.6808517000172,None,617.6808517000172,None,618.7608344999608,None,618.7608344999608,619.2727132999571,,,,,,,,,,,,,,,,130,2022-05-11_13h44.13.155,FishGame,2022.1.1,59.845299878358595,
,39,넌 이해심이 많아,1,Orange,B,6.041666666666668,5.533333333333333,ScrollUp,ScrollDown,Orange.png,4,Positive,Incongruent,,,,,0,0,0,0,,,,,,,,,,,,,,,,,,,,,,,,,0,38,38,38,,,,,,,,,,,,,,,,,,,,,,,,,,,,,,,,,,,,,,,,,,,,,,,,,,,,,,,,,,,,,,,,,,,,,2,1.1276625000173226,619.9117102000164,None,ScrollUp,정답입니다,619.9117102000164,None,619.9117102000164,None,619.9117102000164,None,619.9117102000164,None,620.922010099981,None,620.922010099981,621.4225833000382,,,,,,,,,,,,,,,,130,2022-05-11_13h44.13.155,FishGame,2022.1.1,59.845299878358595,
,40,나를 보내줘,6,Green,A,0,0,ScrollUp,ScrollDown,Green.png,4,NonTarget,NonTarget,,,,,0,0,0,0,,,,,,,,,,,,,,,,,,,,,,,,,0,39,39,39,,,,,,,,,,,,,,,,,,,,,,,,,,,,,,,,,,,,,,,,,,,,,,,,,,,,,,,,,,,,,,,,,,,,,2,1.2468498999951407,622.053700700053,None,ScrollUp,정답입니다,622.053700700053,None,622.053700700053,None,622.053700700053,None,622.053700700053,None,623.1888745999895,None,623.1888745999895,623.6892184000462,,,,,,,,,,,,,,,,130,2022-05-11_13h44.13.155,FishGame,2022.1.1,59.845299878358595,
,41,넌 거칠어,4,Green,A,2.625,3.033333333333333,ScrollDown,ScrollUp,Green.png,4,Negative,Incongruent,,,,,0,0,0,0,,,,,,,,,,,,,,,,,,,,,,,,,0,40,40,40,,,,,,,,,,,,,,,,,,,,,,,,,,,,,,,,,,,,,,,,,,,,,,,,,,,,,,,,,,,,,,,,,,,,,1,1.363441800000146,624.3269098000601,None,ScrollDown,정답입니다,624.3269098000601,None,624.3269098000601,None,624.3269098000601,None,624.3269098000601,None,625.5745925999945,None,625.5745925999945,626.0890421000076,,,,,,,,,,,,,,,,130,2022-05-11_13h44.13.155,FishGame,2022.1.1,59.845299878358595,
,42,넌 변덕맞아,5,Orange,B,2.75,2.166666666666667,ScrollUp,ScrollDown,Orange.png,4,Negative,Congruent,,,,,0,0,0,0,,,,,,,,,,,,,,,,,,,,,,,,,0,41,41,41,,,,,,,,,,,,,,,,,,,,,,,,,,,,,,,,,,,,,,,,,,,,,,,,,,,,,,,,,,,,,,,,,,,,,1.9814815024534862,1.1794223999604583,626.7359326999867,None,ScrollUp,정답입니다,626.7359326999867,None,626.7359326999867,None,626.7359326999867,None,626.7359326999867,None,627.7893544000108,None,627.7893544000108,628.28890220006,,,,,,,,,,,,,,,,130,2022-05-11_13h44.13.155,FishGame,2022.1.1,59.845299878358595,
,43,나를 데려가줘,6,Orange,B,0,0,ScrollDown,ScrollUp,Orange.png,4,NonTarget,NonTarget,,,,,0,0,0,0,,,,,,,,,,,,,,,,,,,,,,,,,0,42,42,42,,,,,,,,,,,,,,,,,,,,,,,,,,,,,,,,,,,,,,,,,,,,,,,,,,,,,,,,,,,,,,,,,,,,,1,1.2895704000256956,628.9254007000709,None,ScrollDown,정답입니다,628.9254007000709,None,628.9254007000709,None,628.9254007000709,None,628.9254007000709,None,630.1056618000148,None,630.1056618000148,630.6059959999984,,,,,,,,,,,,,,,,130,2022-05-11_13h44.13.155,FishGame,2022.1.1,59.845299878358595,
,44,넌 외로워,4,Orange,B,2.833333333333333,3.3,ScrollUp,ScrollDown,Orange.png,4,Negative,Congruent,,,,,0,0,0,0,,,,,,,,,,,,,,,,,,,,,,,,,0,43,43,43,,,,,,,,,,,,,,,,,,,,,,,,,,,,,,,,,,,,,,,,,,,,,,,,,,,,,,,,,,,,,,,,,,,,,1.8641975422700245,1.093406500061974,631.249001899967,None,ScrollUp,정답입니다,631.249001899967,None,631.249001899967,None,631.249001899967,None,631.249001899967,None,632.2229585000314,None,632.2229585000314,632.7231973999878,,,,,,,,,,,,,,,,130,2022-05-11_13h44.13.155,FishGame,2022.1.1,59.845299878358595,
,1,넌 불평스러워,5,Green,A,2.25,2.066666666666667,ScrollDown,ScrollUp,Green.png,5,Negative,Incongruent,,,,,0,0,0,0,,,,,,,,,,,,,,,,,,,,,,,,,,,,,0,0,0,0,,,,,,,,,,,,,,,,,,,,,,,,664.4067304000491,665.9069028999656,665.9403020000318,666.8900748000015,666.9401233000681,667.8905788999982,667.8905788999982,None,,,,,,,,,,,,,,,,,,,,,,,,,,,,,,,,,,1,1.5328452999237925,669.0354337999597,None,ScrollDown,정답입니다,669.0354337999597,None,669.0354337999597,None,669.0354337999597,None,669.0354337999597,None,670.4214265999617,None,670.4214265999617,670.9236587999621,633.2227485000622,None,633.2227485000622,None,-0.17870371,-0.10277778,1,0,0,0.0158942200941965,None,663.2230088000651,None,,,130,2022-05-11_13h44.13.155,FishGame,2022.1.1,59.845299878358595,
,2,나를 보내줘,6,Green,A,0,0,ScrollUp,ScrollDown,Green.png,5,NonTarget,NonTarget,,,,,0,0,0,0,,,,,,,,,,,,,,,,,,,,,,,,,,,,,0,1,1,1,,,,,,,,,,,,,,,,,,,,,,,,,,,,,,,,,,,,,,,,,,,,,,,,,,,,,,,,,,,,,,,,,2,1.2389838000526652,671.5548723000102,None,ScrollUp,정답입니다,671.5548723000102,None,671.5548723000102,None,671.5548723000102,None,671.5548723000102,None,672.6883132000221,None,672.6883132000221,673.1905033000512,,,,,,,,,,,,,,,,130,2022-05-11_13h44.13.155,FishGame,2022.1.1,59.845299878358595,
,3,넌 다재다능해,2,Orange,B,6.208333333333333,4.5,ScrollUp,ScrollDown,Orange.png,5,Positive,Incongruent,,,,,0,0,0,0,,,,,,,,,,,,,,,,,,,,,,,,,,,,,0,2,2,2,,,,,,,,,,,,,,,,,,,,,,,,,,,,,,,,,,,,,,,,,,,,,,,,,,,,,,,,,,,,,,,,,2,1.2834019999718294,673.827046600054,None,ScrollUp,정답입니다,673.827046600054,None,673.827046600054,None,673.827046600054,None,673.827046600054,None,674.9945561999921,None,674.9945561999921,675.5073092000093,,,,,,,,,,,,,,,,130,2022-05-11_13h44.13.155,FishGame,2022.1.1,59.845299878358595,
,4,넌 과감해,3,Green,A,4.833333333333334,4.6,ScrollDown,ScrollUp,Green.png,5,Neutral,Neutral,,,,,0,0,0,0,,,,,,,,,,,,,,,,,,,,,,,,,,,,,0,3,3,3,,,,,,,,,,,,,,,,,,,,,,,,,,,,,,,,,,,,,,,,,,,,,,,,,,,,,,,,,,,,,,,,,1,1.111661299946718,676.133976800018,None,ScrollDown,정답입니다,676.133976800018,None,676.133976800018,None,676.133976800018,None,676.133976800018,None,677.13990379998,None,677.13990379998,677.6402436000062,,,,,,,,,,,,,,,,130,2022-05-11_13h44.13.155,FishGame,2022.1.1,59.845299878358595,
,5,넌 고분고분해,3,Orange,B,3.75,4.033333333333333,ScrollUp,ScrollDown,Orange.png,5,Neutral,Neutral,,,,,0,0,0,0,,,,,,,,,,,,,,,,,,,,,,,,,,,,,0,4,4,4,,,,,,,,,,,,,,,,,,,,,,,,,,,,,,,,,,,,,,,,,,,,,,,,,,,,,,,,,,,,,,,,,2,1.2013029999798164,678.2839411000023,None,ScrollUp,정답입니다,678.2839411000023,None,678.2839411000023,None,678.2839411000023,None,678.2839411000023,None,679.3617663000477,None,679.3617663000477,679.8736257000128,,,,,,,,,,,,,,,,130,2022-05-11_13h44.13.155,FishGame,2022.1.1,59.845299878358595,
,6,나를 보내줘,6,Green,A,0,0,ScrollUp,ScrollDown,Green.png,5,NonTarget,NonTarget,,,,,0,0,0,0,,,,,,,,,,,,,,,,,,,,,,,,,,,,,0,5,5,5,,,,,,,,,,,,,,,,,,,,,,,,,,,,,,,,,,,,,,,,,,,,,,,,,,,,,,,,,,,,,,,,,2,1.2346037999959663,680.5113588999957,None,ScrollUp,정답입니다,680.5113588999957,None,680.5113588999957,None,680.5113588999957,None,680.5113588999957,None,681.6296276999637,None,681.6296276999637,682.1403744000709,,,,,,,,,,,,,,,,130,2022-05-11_13h44.13.155,FishGame,2022.1.1,59.845299878358595,
,7,넌 잘 잊어,4,Green,A,3,3.7,ScrollDown,ScrollUp,Green.png,5,Negative,Incongruent,,,,,0,0,0,0,,,,,,,,,,,,,,,,,,,,,,,,,,,,,0,6,6,6,,,,,,,,,,,,,,,,,,,,,,,,,,,,,,,,,,,,,,,,,,,,,,,,,,,,,,,,,,,,,,,,,1,1.1788233000552282,682.7778921000427,None,ScrollDown,정답입니다,682.7778921000427,None,682.7778921000427,None,682.7778921000427,None,682.7778921000427,None,683.8407594000455,None,683.8407594000455,684.3404445999768,,,,,,,,,,,,,,,,130,2022-05-11_13h44.13.155,FishGame,2022.1.1,59.845299878358595,
,8,넌 탐구심이없어,4,Orange,B,2.833333333333333,3.066666666666667,ScrollUp,ScrollDown,Orange.png,5,Negative,Congruent,,,,,0,0,0,0,,,,,,,,,,,,,,,,,,,,,,,,,,,,,0,7,7,7,,,,,,,,,,,,,,,,,,,,,,,,,,,,,,,,,,,,,,,,,,,,,,,,,,,,,,,,,,,,,,,,,2,1.054066300042905,684.9896033999976,None,ScrollUp,정답입니다,684.9896033999976,None,684.9896033999976,None,684.9896033999976,None,684.9896033999976,None,685.9225775999948,None,685.9225775999948,686.4239110000199,,,,,,,,,,,,,,,,130,2022-05-11_13h44.13.155,FishGame,2022.1.1,59.845299878358595,
,9,나를 데려가줘,6,Orange,B,0,0,ScrollDown,ScrollUp,Orange.png,5,NonTarget,NonTarget,,,,,0,0,0,0,,,,,,,,,,,,,,,,,,,,,,,,,,,,,0,8,8,8,,,,,,,,,,,,,,,,,,,,,,,,,,,,,,,,,,,,,,,,,,,,,,,,,,,,,,,,,,,,,,,,,1,1.157113300054334,687.0571819000179,None,ScrollDown,정답입니다,687.0571819000179,None,687.0571819000179,None,687.0571819000179,None,687.0571819000179,None,688.1051397999981,None,688.1051397999981,688.6073417000007,,,,,,,,,,,,,,,,130,2022-05-11_13h44.13.155,FishGame,2022.1.1,59.845299878358595,
,10,넌 참되어,2,Green,A,6.041666666666664,4.733333333333333,ScrollDown,ScrollUp,Green.png,5,Positive,Congruent,,,,,0,0,0,0,,,,,,,,,,,,,,,,,,,,,,,,,,,,,0,9,9,9,,,,,,,,,,,,,,,,,,,,,,,,,,,,,,,,,,,,,,,,,,,,,,,,,,,,,,,,,,,,,,,,,1.016975333293279,1.0267915999284014,689.2466037999839,None,ScrollDown,정답입니다,689.2466037999839,None,689.2466037999839,None,689.2466037999839,None,689.2466037999839,None,690.1571942999726,None,690.1571942999726,690.6572331000352,,,,,,,,,,,,,,,,130,2022-05-11_13h44.13.155,FishGame,2022.1.1,59.845299878358595,
,11,넌 생기있어,1,Orange,B,5.875,5.633333333333334,ScrollUp,ScrollDown,Orange.png,5,Positive,Incongruent,,,,,0,0,0,0,,,,,,,,,,,,,,,,,,,,,,,,,,,,,0,10,10,10,,,,,,,,,,,,,,,,,,,,,,,,,,,,,,,,,,,,,,,,,,,,,,,,,,,,,,,,,,,,,,,,,1.9490740597248077,1.0580076000187546,691.2969863000326,None,ScrollUp,정답입니다,691.2969863000326,None,691.2969863000326,None,691.2969863000326,None,691.2969863000326,None,692.2402140999911,None,692.2402140999911,692.7407122000586,,,,,,,,,,,,,,,,130,2022-05-11_13h44.13.155,FishGame,2022.1.1,59.845299878358595,
,12,넌 비사교적이야,4,Orange,B,2.875,2.9,ScrollUp,ScrollDown,Orange.png,5,Negative,Congruent,,,,,0,0,0,0,,,,,,,,,,,,,,,,,,,,,,,,,,,,,0,11,11,11,,,,,,,,,,,,,,,,,,,,,,,,,,,,,,,,,,,,,,,,,,,,,,,,,,,,,,,,,,,,,,,,,1.9074074079593022,1.0008496000664309,693.373145999969,None,ScrollUp,정답입니다,693.373145999969,None,693.373145999969,None,693.373145999969,None,693.373145999969,None,694.2620814000256,None,694.2620814000256,694.7737850999692,,,,,,,,,,,,,,,,130,2022-05-11_13h44.13.155,FishGame,2022.1.1,59.845299878358595,
,13,나를 데려가줘,6,Orange,B,0,0,ScrollDown,ScrollUp,Orange.png,5,NonTarget,NonTarget,,,,,0,0,0,0,,,,,,,,,,,,,,,,,,,,,,,,,,,,,0,12,12,12,,,,,,,,,,,,,,,,,,,,,,,,,,,,,,,,,,,,,,,,,,,,,,,,,,,,,,,,,,,,,,,,,1,1.1005302999401465,695.4091749000363,None,ScrollDown,정답입니다,695.4091749000363,None,695.4091749000363,None,695.4091749000363,None,695.4091749000363,None,696.3957193000242,None,696.3957193000242,696.907504200004,,,,,,,,,,,,,,,,130,2022-05-11_13h44.13.155,FishGame,2022.1.1,59.845299878358595,
,14,넌 고독해,4,Green,A,2.916666666666667,3.233333333333333,ScrollDown,ScrollUp,Green.png,5,Negative,Incongruent,,,,,0,0,0,0,,,,,,,,,,,,,,,,,,,,,,,,,,,,,0,13,13,13,,,,,,,,,,,,,,,,,,,,,,,,,,,,,,,,,,,,,,,,,,,,,,,,,,,,,,,,,,,,,,,,,1.0540123681227367,1.001007999991998,697.5391649999656,None,ScrollDown,정답입니다,697.5391649999656,None,697.5391649999656,None,697.5391649999656,None,697.5391649999656,None,698.4301796000218,None,698.4301796000218,698.9408593999688,,,,,,,,,,,,,,,,130,2022-05-11_13h44.13.155,FishGame,2022.1.1,59.845299878358595,
,15,넌 신경질적이야,5,Orange,B,2.375,2.233333333333333,ScrollUp,ScrollDown,Orange.png,5,Negative,Congruent,,,,,0,0,0,0,,,,,,,,,,,,,,,,,,,,,,,,,,,,,0,14,14,14,,,,,,,,,,,,,,,,,,,,,,,,,,,,,,,,,,,,,,,,,,,,,,,,,,,,,,,,,,,,,,,,,1.817901223897934,1.0352181000635028,699.5860370000592,None,ScrollUp,정답입니다,699.5860370000592,None,699.5860370000592,None,699.5860370000592,None,699.5860370000592,None,700.5057373000309,None,700.5057373000309,701.0076209000545,,,,,,,,,,,,,,,,130,2022-05-11_13h44.13.155,FishGame,2022.1.1,59.845299878358595,
,16,넌 똑똑해,2,Orange,B,5.666666666666667,3.966666666666667,ScrollUp,ScrollDown,Orange.png,5,Positive,Incongruent,,,,,0,0,0,0,,,,,,,,,,,,,,,,,,,,,,,,,,,,,0,15,15,15,,,,,,,,,,,,,,,,,,,,,,,,,,,,,,,,,,,,,,,,,,,,,,,,,,,,,,,,,,,,,,,,,1.8919753183921177,1.0233997999457642,701.64555929997,None,ScrollUp,정답입니다,701.64555929997,None,701.64555929997,None,701.64555929997,None,701.64555929997,None,702.5575419999659,None,702.5575419999659,703.0577495000325,,,,,,,,,,,,,,,,130,2022-05-11_13h44.13.155,FishGame,2022.1.1,59.845299878358595,
,17,나를 보내줘,6,Green,A,0,0,ScrollUp,ScrollDown,Green.png,5,NonTarget,NonTarget,,,,,0,0,0,0,,,,,,,,,,,,,,,,,,,,,,,,,,,,,0,16,16,16,,,,,,,,,,,,,,,,,,,,,,,,,,,,,,,,,,,,,,,,,,,,,,,,,,,,,,,,,,,,,,,,,2,1.9360008999938145,703.6856338999933,None,ScrollUp,정답입니다,703.6856338999933,None,703.6856338999933,None,703.6856338999933,None,703.6856338999933,None,705.5125215000007,None,705.5125215000007,706.0241030000616,,,,,,,,,,,,,,,,130,2022-05-11_13h44.13.155,FishGame,2022.1.1,59.845299878358595,
,18,넌 협조적이야,1,Green,A,5.625,5.666666666666667,ScrollDown,ScrollUp,Green.png,5,Positive,Congruent,,,,,0,0,0,0,,,,,,,,,,,,,,,,,,,,,,,,,,,,,0,17,17,17,,,,,,,,,,,,,,,,,,,,,,,,,,,,,,,,,,,,,,,,,,,,,,,,,,,,,,,,,,,,,,,,,1,1.2736616999609396,706.6557175000198,None,ScrollDown,정답입니다,706.6557175000198,None,706.6557175000198,None,706.6557175000198,None,706.6557175000198,None,707.8244370999746,None,707.8244370999746,708.3240952000488,,,,,,,,,,,,,,,,130,2022-05-11_13h44.13.155,FishGame,2022.1.1,59.845299878358595,
,19,나를 데려가줘,6,Orange,B,0,0,ScrollDown,ScrollUp,Orange.png,5,NonTarget,NonTarget,,,,,0,0,0,0,,,,,,,,,,,,,,,,,,,,,,,,,,,,,0,18,18,18,,,,,,,,,,,,,,,,,,,,,,,,,,,,,,,,,,,,,,,,,,,,,,,,,,,,,,,,,,,,,,,,,1,1.1880391000304371,708.9736676999601,None,ScrollDown,정답입니다,708.9736676999601,None,708.9736676999601,None,708.9736676999601,None,708.9736676999601,None,710.0318710999563,None,710.0318710999563,710.5410601999611,,,,,,,,,,,,,,,,130,2022-05-11_13h44.13.155,FishGame,2022.1.1,59.845299878358595,
,20,넌 몰인정해,5,Orange,B,2.541666666666667,2.066666666666667,ScrollUp,ScrollDown,Orange.png,5,Negative,Congruent,,,,,0,0,0,0,,,,,,,,,,,,,,,,,,,,,,,,,,,,,0,19,19,19,,,,,,,,,,,,,,,,,,,,,,,,,,,,,,,,,,,,,,,,,,,,,,,,,,,,,,,,,,,,,,,,,2,1.1208631000481546,711.186344500049,None,ScrollUp,정답입니다,711.186344500049,None,711.186344500049,None,711.186344500049,None,711.186344500049,None,712.1894214999629,None,712.1894214999629,712.6910346000222,,,,,,,,,,,,,,,,130,2022-05-11_13h44.13.155,FishGame,2022.1.1,59.845299878358595,
,21,나를 데려가줘,6,Orange,B,0,0,ScrollDown,ScrollUp,Orange.png,5,NonTarget,NonTarget,,,,,0,0,0,0,,,,,,,,,,,,,,,,,,,,,,,,,,,,,0,20,20,20,,,,,,,,,,,,,,,,,,,,,,,,,,,,,,,,,,,,,,,,,,,,,,,,,,,,,,,,,,,,,,,,,1,1.2619373000925407,713.3291560000507,None,ScrollDown,정답입니다,713.3291560000507,None,713.3291560000507,None,713.3291560000507,None,713.3291560000507,None,714.4743348000338,None,714.4743348000338,714.9744850000134,,,,,,,,,,,,,,,,130,2022-05-11_13h44.13.155,FishGame,2022.1.1,59.845299878358595,
,22,넌 순진해,3,Orange,B,4.125,4.166666666666667,ScrollUp,ScrollDown,Orange.png,5,Neutral,Neutral,,,,,0,0,0,0,,,,,,,,,,,,,,,,,,,,,,,,,,,,,0,21,21,21,,,,,,,,,,,,,,,,,,,,,,,,,,,,,,,,,,,,,,,,,,,,,,,,,,,,,,,,,,,,,,,,,2,1.1527413000585511,715.611416400061,None,ScrollUp,정답입니다,715.611416400061,None,715.611416400061,None,715.611416400061,None,715.611416400061,None,716.6559506000485,None,716.6559506000485,717.1577944000019,,,,,,,,,,,,,,,,130,2022-05-11_13h44.13.155,FishGame,2022.1.1,59.845299878358595,
,23,넌 신뢰할만해,1,Green,A,6.625,5.533333333333333,ScrollDown,ScrollUp,Green.png,5,Positive,Congruent,,,,,0,0,0,0,,,,,,,,,,,,,,,,,,,,,,,,,,,,,0,22,22,22,,,,,,,,,,,,,,,,,,,,,,,,,,,,,,,,,,,,,,,,,,,,,,,,,,,,,,,,,,,,,,,,,1.0108024775981903,1.1490864999359474,717.8005651000421,None,ScrollDown,정답입니다,717.8005651000421,None,717.8005651000421,None,717.8005651000421,None,717.8005651000421,None,718.8276973000029,None,718.8276973000029,719.3414177000523,,,,,,,,,,,,,,,,130,2022-05-11_13h44.13.155,FishGame,2022.1.1,59.845299878358595,
,24,나를 보내줘,6,Green,A,0,0,ScrollUp,ScrollDown,Green.png,5,NonTarget,NonTarget,,,,,0,0,0,0,,,,,,,,,,,,,,,,,,,,,,,,,,,,,0,23,23,23,,,,,,,,,,,,,,,,,,,,,,,,,,,,,,,,,,,,,,,,,,,,,,,,,,,,,,,,,,,,,,,,,2,1.1673328999895602,719.9699586000061,None,ScrollUp,정답입니다,719.9699586000061,None,719.9699586000061,None,719.9699586000061,None,719.9699586000061,None,721.0304041999625,None,721.0304041999625,721.541348000057,,,,,,,,,,,,,,,,130,2022-05-11_13h44.13.155,FishGame,2022.1.1,59.845299878358595,
,25,넌 인색해,5,Green,A,2.625,2.233333333333333,ScrollDown,ScrollUp,Green.png,5,Negative,Incongruent,,,,,0,0,0,0,,,,,,,,,,,,,,,,,,,,,,,,,,,,,0,24,24,24,,,,,,,,,,,,,,,,,,,,,,,,,,,,,,,,,,,,,,,,,,,,,,,,,,,,,,,,,,,,,,,,,1.0679012437661488,1.045062999939546,722.1790280999849,None,ScrollDown,정답입니다,722.1790280999849,None,722.1790280999849,None,722.1790280999849,None,722.1790280999849,None,723.1082314000232,None,723.1082314000232,723.6076892999699,,,,,,,,,,,,,,,,130,2022-05-11_13h44.13.155,FishGame,2022.1.1,59.845299878358595,
,26,넌 유쾌해,1,Orange,B,5.833333333333333,5.766666666666667,ScrollUp,ScrollDown,Orange.png,5,Positive,Incongruent,,,,,0,0,0,0,,,,,,,,,,,,,,,,,,,,,,,,,,,,,0,25,25,25,,,,,,,,,,,,,,,,,,,,,,,,,,,,,,,,,,,,,,,,,,,,,,,,,,,,,,,,,,,,,,,,,2,1.134422400034964,724.2434734000126,None,ScrollUp,정답입니다,724.2434734000126,None,724.2434734000126,None,724.2434734000126,None,724.2434734000126,None,725.2628043000586,None,725.2628043000586,725.7744737999747,,,,,,,,,,,,,,,,130,2022-05-11_13h44.13.155,FishGame,2022.1.1,59.845299878358595,
