name,TrialNum,Word,WordCategory,FishType,WordList,WordValence,WordReputation,CorrectResp,IncorrectResp,FishTypeFile,Round,WordType,Condition,LoopforOrange.thisRepN,LoopforOrange.thisTrialN,LoopforOrange.thisN,LoopforOrange.thisIndex,OrangeInstLoop.thisRepN,OrangeInstLoop.thisTrialN,OrangeInstLoop.thisN,OrangeInstLoop.thisIndex,OrangePrac.thisRepN,OrangePrac.thisTrialN,OrangePrac.thisN,OrangePrac.thisIndex,temp1.thisRepN,temp1.thisTrialN,temp1.thisN,temp1.thisIndex,OrangeRound1.thisRepN,OrangeRound1.thisTrialN,OrangeRound1.thisN,OrangeRound1.thisIndex,OrangeRound2.thisRepN,OrangeRound2.thisTrialN,OrangeRound2.thisN,OrangeRound2.thisIndex,OrangeRound3.thisRepN,OrangeRound3.thisTrialN,OrangeRound3.thisN,OrangeRound3.thisIndex,OrangeRound4.thisRepN,OrangeRound4.thisTrialN,OrangeRound4.thisN,OrangeRound4.thisIndex,OrangeRound5.thisRepN,OrangeRound5.thisTrialN,OrangeRound5.thisN,OrangeRound5.thisIndex,LoopForGreen.thisRepN,LoopForGreen.thisTrialN,LoopForGreen.thisN,LoopForGreen.thisIndex,text_2.started,text_2.stopped,text_3.started,text_3.stopped,key_resp.keys,key_resp.rt,key_resp.started,key_resp.stopped,PassI_2.started,PassI_2.stopped,PassInst_2.keys,PassInst_2.rt,PassInst_2.started,PassInst_2.stopped,mouse_2.x,mouse_2.y,mouse_2.leftButton,mouse_2.midButton,mouse_2.rightButton,mouse_2.started,mouse_2.stopped,image.started,image.stopped,text_5.started,text_5.stopped,text_6.started,text_6.stopped,text_7.started,text_7.stopped,text_8.started,text_8.stopped,slider_2.response,slider_2.rt,slider_2.started,slider_2.stopped,Response_2,Feedback_2,BackGround_2.started,BackGround_2.stopped,Fish_2.started,Fish_2.stopped,WordBox_2.started,WordBox_2.stopped,Words_2.started,Words_2.stopped,BackGround_Feedback_2.started,BackGround_Feedback_2.stopped,Feedbacks_2.started,Feedbacks_2.stopped,Continue_or_not.keys,Continue_or_not.rt,Continue_or_not.started,Continue_or_not.stopped,image_3.started,image_3.stopped,mouse_3.x,mouse_3.y,mouse_3.leftButton,mouse_3.midButton,mouse_3.rightButton,mouse_3.started,mouse_3.stopped,startmain.started,startmain.stopped,slider.response,slider.rt,slider.started,slider.stopped,Response,Feedback,BackGround.started,BackGround.stopped,Fish.started,Fish.stopped,WordBox.started,WordBox.stopped,Words.started,Words.stopped,BackGround_Feedback.started,BackGround_Feedback.stopped,Feedbacks.started,Feedbacks.stopped,text.started,text.stopped,break_interval.started,break_interval.stopped,mouse.x,mouse.y,mouse.leftButton,mouse.midButton,mouse.rightButton,mouse.started,mouse.stopped,stratnextround.started,stratnextround.stopped,endgame.started,endgame.stopped,participant,date,expName,psychopyVersion,frameRate,
,,,,,,,,,,,,,,,,,,,,,,,,,,,,,,,,,,,,,,,,,,,,,,,,,,,,,,23.867405300028622,None,23.867405300028622,None,space,3.9808565001003444,24.321694100042805,None,,,,,,,,,,,,,,,,,,,,,,,,,,,,,,,,,,,,,,,,,,,,,,,,,,,,,,,,,,,,,,,,,,,,,,,,,,,,,,,,,,,,,,,,,,131,2022-05-23_17h45.40.754,FishGame,2022.1.1,59.83115647238549,
물고기과제_instruction(참가자용)OrangeVersion.mp4,,,,,,,,,,,,,,0,0,0,0,0,0,0,0,,,,,,,,,,,,,,,,,,,,,,,,,,,,,,,,,,,,,,,,,94.85470720008016,None,n,26.13949969992973,94.85470720008016,None,,,,,,,,,,,,,,,,,,,,,,,,,,,,,,,,,,,,,,,,,,,,,,,,,,,,,,,,,,,,,,,,,,,,,,,,,,,,,,,,,,,,131,2022-05-23_17h45.40.754,FishGame,2022.1.1,59.83115647238549,
,1,넌 교활해,5,Green,B,2.333333333333333,2.133333333333333,ScrollUp,ScrollDown,Green.png,practice,,,0,0,0,0,,,,,0,0,0,0,0,0,0,0,,,,,,,,,,,,,,,,,,,,,,,,,,,,,,,,,,,,,,,0.009259259,-0.23703703,1,0,0,0.5139954399783164,None,121.02418179996312,None,124.84113690000959,126.3415101999417,126.3741717999801,127.32400760008022,127.37406559986994,128.32399059995078,128.32399059995078,None,2,2.1975958000402898,129.49295699992217,None,ScrollUp,정답입니다,129.49295699992217,None,129.49295699992217,None,129.49295699992217,None,129.49295699992217,None,131.5254089999944,None,131.5254089999944,132.040857499931,,,,,,,,,,,,,,,,,,,,,,,,,,,,,,,,,,,,,,,,,,,,,,,,,131,2022-05-23_17h45.40.754,FishGame,2022.1.1,59.83115647238549,
,2,넌 슬기로워,2,Orange,A,6.166666666666667,4.1,ScrollDown,ScrollUp,Orange.png,practice,,,0,0,0,0,,,,,0,0,0,0,0,1,1,1,,,,,,,,,,,,,,,,,,,,,,,,,,,,,,,,,,,,,,,,,,,,,,,,,,,,,,,,1,1.7130673001520336,132.6683690000791,None,ScrollDown,정답입니다,132.6683690000791,None,132.6683690000791,None,132.6683690000791,None,132.6683690000791,None,134.25741939991713,None,134.25741939991713,134.75793570000678,,,,,,,,,,,,,,,,,,,,,,,,,,,,,,,,,,,,,,,,,,,,,,,,,131,2022-05-23_17h45.40.754,FishGame,2022.1.1,59.83115647238549,
,3,나를 보내줘,6,Orange,A,0,0,ScrollUp,ScrollDown,Orange.png,practice,,,0,0,0,0,,,,,0,0,0,0,0,2,2,2,,,,,,,,,,,,,,,,,,,,,,,,,,,,,,,,,,,,,,,,,,,,,,,,,,,,,,,,2,1.5936779000330716,135.3975789998658,None,ScrollUp,정답입니다,135.3975789998658,None,135.3975789998658,None,135.3975789998658,None,135.3975789998658,None,136.87436580006033,None,136.87436580006033,137.3747304000426,,,,,,,,,,,,,,,,,,,,,,,,,,,,,,,,,,,,,,,,,,,,,,,,,131,2022-05-23_17h45.40.754,FishGame,2022.1.1,59.83115647238549,
,4,나를 데려가줘,6,Green,B,0,0,ScrollDown,ScrollUp,Green.png,practice,,,0,0,0,0,,,,,0,0,0,0,0,3,3,3,,,,,,,,,,,,,,,,,,,,,,,,,,,,,,,,,,,,,,,,,,,,,,,,,,,,,,,,1,1.7528683000709862,138.0038008999545,None,ScrollDown,정답입니다,138.0038008999545,None,138.0038008999545,None,138.0038008999545,None,138.0038008999545,None,139.6554459000472,None,139.6554459000472,140.15809560008347,,,,,,,,,,,,,,,,,,,,,,,,,,,,,,,,,,,,,,,,,,,,,,,,,131,2022-05-23_17h45.40.754,FishGame,2022.1.1,59.83115647238549,
,1,넌 교활해,5,Green,B,2.333333333333333,2.133333333333333,ScrollUp,ScrollDown,Green.png,practice,,,0,0,0,0,,,,,0,0,0,0,,,,,,,,,,,,,,,,,,,,,,,,,,,,,,,,,,,,,,,,,,,,,,,,,,,,,,,,,,,,,,,,,,,,,,,,,,,,,,n,8.971751200035214,140.65817660000175,None,140.65817660000175,None,,,,,,,,,,,,,,,,,,,,,,,,,,,,,,,,,,,,,,,,,,,131,2022-05-23_17h45.40.754,FishGame,2022.1.1,59.83115647238549,
,1,넌 따뜻해,1,Green,B,6.083333333333333,5.6,ScrollUp,ScrollDown,Green.png,1,Positive,Incongruent,0,0,0,0,,,,,,,,,,,,,0,0,0,0,,,,,,,,,,,,,,,,,,,,,,,,,,,,,,,,,,,,,,,,,,,,157.27533910004422,158.77522050007246,158.80812419997528,159.7586918999441,159.8083220999688,160.75812519993633,160.75812519993633,None,,,,,,,,,,,,,,,,,,,,,,,,,0.074074075,-0.11018518,1,0,0,0.31353454012423754,None,149.65818229992874,None,2,1.9635280000511557,161.94323950004764,None,ScrollUp,정답입니다,161.94323950004764,None,161.94323950004764,None,161.94323950004764,None,161.94323950004764,None,163.7211925999727,None,163.7211925999727,164.2252239000518,,,,,,,,,,,,,,,,131,2022-05-23_17h45.40.754,FishGame,2022.1.1,59.83115647238549,
,2,넌 기품있어,2,Green,B,5.791666666666668,4.5,ScrollUp,ScrollDown,Green.png,1,Positive,Incongruent,0,0,0,0,,,,,,,,,,,,,0,1,1,1,,,,,,,,,,,,,,,,,,,,,,,,,,,,,,,,,,,,,,,,,,,,,,,,,,,,,,,,,,,,,,,,,,,,,,,,,,,,,,,,,,,,,2,1.2423906999174505,164.87480430002324,None,ScrollUp,정답입니다,164.87480430002324,None,164.87480430002324,None,164.87480430002324,None,164.87480430002324,None,165.99137539998628,None,165.99137539998628,166.4915175999049,,,,,,,,,,,,,,,,131,2022-05-23_17h45.40.754,FishGame,2022.1.1,59.83115647238549,
,3,나를 보내줘,6,Orange,A,0,0,ScrollUp,ScrollDown,Orange.png,1,NonTarget,NonTarget,0,0,0,0,,,,,,,,,,,,,0,2,2,2,,,,,,,,,,,,,,,,,,,,,,,,,,,,,,,,,,,,,,,,,,,,,,,,,,,,,,,,,,,,,,,,,,,,,,,,,,,,,,,,,,,,,2,1.6529986001551151,167.13744110008702,None,ScrollUp,정답입니다,167.13744110008702,None,167.13744110008702,None,167.13744110008702,None,167.13744110008702,None,168.67284579994157,None,168.67284579994157,169.17552789999172,,,,,,,,,,,,,,,,131,2022-05-23_17h45.40.754,FishGame,2022.1.1,59.83115647238549,
,4,넌 수동적이야,4,Orange,A,2.833333333333333,2.933333333333333,ScrollDown,ScrollUp,Orange.png,1,Negative,Incongruent,0,0,0,0,,,,,,,,,,,,,0,3,3,3,,,,,,,,,,,,,,,,,,,,,,,,,,,,,,,,,,,,,,,,,,,,,,,,,,,,,,,,,,,,,,,,,,,,,,,,,,,,,,,,,,,,,1,1.4608929001260549,169.83315479988232,None,ScrollDown,정답입니다,169.83315479988232,None,169.83315479988232,None,169.83315479988232,None,169.83315479988232,None,171.15794360009022,None,171.15794360009022,171.6582700998988,,,,,,,,,,,,,,,,131,2022-05-23_17h45.40.754,FishGame,2022.1.1,59.83115647238549,
,5,넌 사심이 없어,3,Green,B,4.916666666666666,4.333333333333333,ScrollUp,ScrollDown,Green.png,1,Neutral,Neutral,0,0,0,0,,,,,,,,,,,,,0,4,4,4,,,,,,,,,,,,,,,,,,,,,,,,,,,,,,,,,,,,,,,,,,,,,,,,,,,,,,,,,,,,,,,,,,,,,,,,,,,,,,,,,,,,,2,1.2596972999162972,172.30177160003223,None,ScrollUp,정답입니다,172.30177160003223,None,172.30177160003223,None,172.30177160003223,None,172.30177160003223,None,173.44130799989216,None,173.44130799989216,173.94215900008567,,,,,,,,,,,,,,,,131,2022-05-23_17h45.40.754,FishGame,2022.1.1,59.83115647238549,
,6,넌 헤퍼,5,Orange,A,2.458333333333334,2.233333333333333,ScrollDown,ScrollUp,Orange.png,1,Negative,Incongruent,0,0,0,0,,,,,,,,,,,,,0,5,5,5,,,,,,,,,,,,,,,,,,,,,,,,,,,,,,,,,,,,,,,,,,,,,,,,,,,,,,,,,,,,,,,,,,,,,,,,,,,,,,,,,,,,,1,1.289204099914059,174.5852713000495,None,ScrollDown,정답입니다,174.5852713000495,None,174.5852713000495,None,174.5852713000495,None,174.5852713000495,None,175.75694099999964,None,175.75694099999964,176.25868239998817,,,,,,,,,,,,,,,,131,2022-05-23_17h45.40.754,FishGame,2022.1.1,59.83115647238549,
,7,넌 말쑥해,3,Orange,A,4.833333333333334,4.333333333333333,ScrollDown,ScrollUp,Orange.png,1,Neutral,Neutral,0,0,0,0,,,,,,,,,,,,,0,6,6,6,,,,,,,,,,,,,,,,,,,,,,,,,,,,,,,,,,,,,,,,,,,,,,,,,,,,,,,,,,,,,,,,,,,,,,,,,,,,,,,,,,,,,1,1.5863315998576581,176.90017709997483,None,ScrollDown,정답입니다,176.90017709997483,None,176.90017709997483,None,176.90017709997483,None,176.90017709997483,None,178.36430800007656,None,178.36430800007656,178.87637989991345,,,,,,,,,,,,,,,,131,2022-05-23_17h45.40.754,FishGame,2022.1.1,59.83115647238549,
,8,넌 투덜거려,5,Green,B,2.541666666666667,2.266666666666667,ScrollUp,ScrollDown,Green.png,1,Negative,Congruent,0,0,0,0,,,,,,,,,,,,,0,7,7,7,,,,,,,,,,,,,,,,,,,,,,,,,,,,,,,,,,,,,,,,,,,,,,,,,,,,,,,,,,,,,,,,,,,,,,,,,,,,,,,,,,,,,2,1.3362291001249105,179.52011050004512,None,ScrollUp,정답입니다,179.52011050004512,None,179.52011050004512,None,179.52011050004512,None,179.52011050004512,None,180.72980319987983,None,180.72980319987983,181.24218950001523,,,,,,,,,,,,,,,,131,2022-05-23_17h45.40.754,FishGame,2022.1.1,59.83115647238549,
,9,넌 적극적이야,1,Orange,A,5.708333333333333,5.533333333333333,ScrollDown,ScrollUp,Orange.png,1,Positive,Congruent,0,0,0,0,,,,,,,,,,,,,0,8,8,8,,,,,,,,,,,,,,,,,,,,,,,,,,,,,,,,,,,,,,,,,,,,,,,,,,,,,,,,,,,,,,,,,,,,,,,,,,,,,,,,,,,,,1,1.102560400031507,181.88068219996057,None,ScrollDown,정답입니다,181.88068219996057,None,181.88068219996057,None,181.88068219996057,None,181.88068219996057,None,182.87350600003265,None,182.87350600003265,183.3747030000668,,,,,,,,,,,,,,,,131,2022-05-23_17h45.40.754,FishGame,2022.1.1,59.83115647238549,
,10,넌 재미없어,4,Green,B,2.625,2.966666666666667,ScrollUp,ScrollDown,Green.png,1,Negative,Congruent,0,0,0,0,,,,,,,,,,,,,0,9,9,9,,,,,,,,,,,,,,,,,,,,,,,,,,,,,,,,,,,,,,,,,,,,,,,,,,,,,,,,,,,,,,,,,,,,,,,,,,,,,,,,,,,,,2,1.1977357000578195,184.01426519989036,None,ScrollUp,정답입니다,184.01426519989036,None,184.01426519989036,None,184.01426519989036,None,184.01426519989036,None,185.09716610005125,None,185.09716610005125,185.60864780005068,,,,,,,,,,,,,,,,131,2022-05-23_17h45.40.754,FishGame,2022.1.1,59.83115647238549,
,11,넌 명석해,2,Orange,A,5.875,4.033333333333333,ScrollDown,ScrollUp,Orange.png,1,Positive,Congruent,0,0,0,0,,,,,,,,,,,,,0,10,10,10,,,,,,,,,,,,,,,,,,,,,,,,,,,,,,,,,,,,,,,,,,,,,,,,,,,,,,,,,,,,,,,,,,,,,,,,,,,,,,,,,,,,,1,1.1705141998827457,186.2494580000639,None,ScrollDown,정답입니다,186.2494580000639,None,186.2494580000639,None,186.2494580000639,None,186.2494580000639,None,187.3071145999711,None,187.3071145999711,187.80891050002538,,,,,,,,,,,,,,,,131,2022-05-23_17h45.40.754,FishGame,2022.1.1,59.83115647238549,
,12,나를 데려가줘,6,Green,B,0,0,ScrollDown,ScrollUp,Green.png,1,NonTarget,NonTarget,0,0,0,0,,,,,,,,,,,,,0,11,11,11,,,,,,,,,,,,,,,,,,,,,,,,,,,,,,,,,,,,,,,,,,,,,,,,,,,,,,,,,,,,,,,,,,,,,,,,,,,,,,,,,,,,,2,1.2732591999229044,188.44623079989105,None,ScrollUp,오답입니다,188.44623079989105,None,188.44623079989105,None,188.44623079989105,None,188.44623079989105,None,189.61188740003854,None,189.61188740003854,190.12501559988596,,,,,,,,,,,,,,,,131,2022-05-23_17h45.40.754,FishGame,2022.1.1,59.83115647238549,
,13,넌 소심해,4,Orange,A,3,3.1,ScrollDown,ScrollUp,Orange.png,1,Negative,Incongruent,0,0,0,0,,,,,,,,,,,,,0,12,12,12,,,,,,,,,,,,,,,,,,,,,,,,,,,,,,,,,,,,,,,,,,,,,,,,,,,,,,,,,,,,,,,,,,,,,,,,,,,,,,,,,,,,,2,1.8696983999107033,190.7559251000639,None,ScrollUp,오답입니다,190.7559251000639,None,190.7559251000639,None,190.7559251000639,None,190.7559251000639,None,192.50694049987942,None,192.50694049987942,193.00856680003926,,,,,,,,,,,,,,,,131,2022-05-23_17h45.40.754,FishGame,2022.1.1,59.83115647238549,
,14,넌 합리적이야,2,Orange,A,5.583333333333333,4.733333333333333,ScrollDown,ScrollUp,Orange.png,1,Positive,Congruent,0,0,0,0,,,,,,,,,,,,,0,13,13,13,,,,,,,,,,,,,,,,,,,,,,,,,,,,,,,,,,,,,,,,,,,,,,,,,,,,,,,,,,,,,,,,,,,,,,,,,,,,,,,,,,,,,1,1.5087949000298977,193.6504712998867,None,ScrollDown,정답입니다,193.6504712998867,None,193.6504712998867,None,193.6504712998867,None,193.6504712998867,None,195.0386506000068,None,195.0386506000068,195.54231969988905,,,,,,,,,,,,,,,,131,2022-05-23_17h45.40.754,FishGame,2022.1.1,59.83115647238549,
,15,넌 무자비해,5,Green,B,2.333333333333333,2.1,ScrollUp,ScrollDown,Green.png,1,Negative,Congruent,0,0,0,0,,,,,,,,,,,,,0,14,14,14,,,,,,,,,,,,,,,,,,,,,,,,,,,,,,,,,,,,,,,,,,,,,,,,,,,,,,,,,,,,,,,,,,,,,,,,,,,,,,,,,,,,,2,1.2169841998256743,196.18393539986573,None,ScrollUp,정답입니다,196.18393539986573,None,196.18393539986573,None,196.18393539986573,None,196.18393539986573,None,197.28018680005334,None,197.28018680005334,197.79221959994175,,,,,,,,,,,,,,,,131,2022-05-23_17h45.40.754,FishGame,2022.1.1,59.83115647238549,
,16,나를 보내줘,6,Orange,A,0,0,ScrollUp,ScrollDown,Orange.png,1,NonTarget,NonTarget,0,0,0,0,,,,,,,,,,,,,0,15,15,15,,,,,,,,,,,,,,,,,,,,,,,,,,,,,,,,,,,,,,,,,,,,,,,,,,,,,,,,,,,,,,,,,,,,,,,,,,,,,,,,,,,,,2,1.7440329999662936,198.42664489988238,None,ScrollUp,정답입니다,198.42664489988238,None,198.42664489988238,None,198.42664489988238,None,198.42664489988238,None,200.0588410999626,None,200.0588410999626,200.559036700055,,,,,,,,,,,,,,,,131,2022-05-23_17h45.40.754,FishGame,2022.1.1,59.83115647238549,
,17,넌 현실적이야,3,Green,B,4.608695652173913,4.766666666666667,ScrollUp,ScrollDown,Green.png,1,Neutral,Neutral,0,0,0,0,,,,,,,,,,,,,0,16,16,16,,,,,,,,,,,,,,,,,,,,,,,,,,,,,,,,,,,,,,,,,,,,,,,,,,,,,,,,,,,,,,,,,,,,,,,,,,,,,,,,,,,,,2,1.4677321999333799,201.19851849996485,None,ScrollUp,정답입니다,201.19851849996485,None,201.19851849996485,None,201.19851849996485,None,201.19851849996485,None,202.547522299923,None,202.547522299923,203.05910629988648,,,,,,,,,,,,,,,,131,2022-05-23_17h45.40.754,FishGame,2022.1.1,59.83115647238549,
,18,넌 의리있어,1,Green,B,5.833333333333334,5.633333333333334,ScrollUp,ScrollDown,Green.png,1,Positive,Incongruent,0,0,0,0,,,,,,,,,,,,,0,17,17,17,,,,,,,,,,,,,,,,,,,,,,,,,,,,,,,,,,,,,,,,,,,,,,,,,,,,,,,,,,,,,,,,,,,,,,,,,,,,,,,,,,,,,2,1.0939830001443624,203.6979282000102,None,ScrollUp,정답입니다,203.6979282000102,None,203.6979282000102,None,203.6979282000102,None,203.6979282000102,None,204.67576020001434,None,204.67576020001434,205.17582589993253,,,,,,,,,,,,,,,,131,2022-05-23_17h45.40.754,FishGame,2022.1.1,59.83115647238549,
,19,넌 신경과민이야,5,Orange,A,2.541666666666667,2.166666666666667,ScrollDown,ScrollUp,Orange.png,1,Negative,Incongruent,0,0,0,0,,,,,,,,,,,,,0,18,18,18,,,,,,,,,,,,,,,,,,,,,,,,,,,,,,,,,,,,,,,,,,,,,,,,,,,,,,,,,,,,,,,,,,,,,,,,,,,,,,,,,,,,,1,1.4232516000047326,205.826770799933,None,ScrollDown,정답입니다,205.826770799933,None,205.826770799933,None,205.826770799933,None,205.826770799933,None,207.12376679992303,None,207.12376679992303,207.62609759997576,,,,,,,,,,,,,,,,131,2022-05-23_17h45.40.754,FishGame,2022.1.1,59.83115647238549,
,20,넌 편안해,1,Orange,A,5.916666666666666,5.866666666666666,ScrollDown,ScrollUp,Orange.png,1,Positive,Congruent,0,0,0,0,,,,,,,,,,,,,0,19,19,19,,,,,,,,,,,,,,,,,,,,,,,,,,,,,,,,,,,,,,,,,,,,,,,,,,,,,,,,,,,,,,,,,,,,,,,,,,,,,,,,,,,,,1,1.3074960000813007,208.2680744000245,None,ScrollDown,정답입니다,208.2680744000245,None,208.2680744000245,None,208.2680744000245,None,208.2680744000245,None,209.4592826999724,None,209.4592826999724,209.95877710008062,,,,,,,,,,,,,,,,131,2022-05-23_17h45.40.754,FishGame,2022.1.1,59.83115647238549,
,21,넌 품위있어,2,Green,B,5.291666666666666,4.466666666666667,ScrollUp,ScrollDown,Green.png,1,Positive,Incongruent,0,0,0,0,,,,,,,,,,,,,0,20,20,20,,,,,,,,,,,,,,,,,,,,,,,,,,,,,,,,,,,,,,,,,,,,,,,,,,,,,,,,,,,,,,,,,,,,,,,,,,,,,,,,,,,,,2,1.5185090000741184,210.59598209988326,None,ScrollUp,정답입니다,210.59598209988326,None,210.59598209988326,None,210.59598209988326,None,210.59598209988326,None,211.99739889986813,None,211.99739889986813,212.50959599995986,,,,,,,,,,,,,,,,131,2022-05-23_17h45.40.754,FishGame,2022.1.1,59.83115647238549,
,22,넌 빈틈없어,3,Orange,A,4.833333333333333,3.966666666666667,ScrollDown,ScrollUp,Orange.png,1,Neutral,Neutral,0,0,0,0,,,,,,,,,,,,,0,21,21,21,,,,,,,,,,,,,,,,,,,,,,,,,,,,,,,,,,,,,,,,,,,,,,,,,,,,,,,,,,,,,,,,,,,,,,,,,,,,,,,,,,,,,1,1.2777716999407858,213.15227389987558,None,ScrollDown,정답입니다,213.15227389987558,None,213.15227389987558,None,213.15227389987558,None,213.15227389987558,None,214.3091486999765,None,214.3091486999765,214.80985299986787,,,,,,,,,,,,,,,,131,2022-05-23_17h45.40.754,FishGame,2022.1.1,59.83115647238549,
,23,넌 상상력없어,4,Green,B,2.833333333333333,3.133333333333333,ScrollUp,ScrollDown,Green.png,1,Negative,Congruent,0,0,0,0,,,,,,,,,,,,,0,22,22,22,,,,,,,,,,,,,,,,,,,,,,,,,,,,,,,,,,,,,,,,,,,,,,,,,,,,,,,,,,,,,,,,,,,,,,,,,,,,,,,,,,,,,2,1.3661533000413328,215.45797319989651,None,ScrollUp,정답입니다,215.45797319989651,None,215.45797319989651,None,215.45797319989651,None,215.45797319989651,None,216.69710720004514,None,216.69710720004514,217.20957609987818,,,,,,,,,,,,,,,,131,2022-05-23_17h45.40.754,FishGame,2022.1.1,59.83115647238549,
,24,넌 지혜로워,2,Green,B,6.333333333333334,4.633333333333334,ScrollUp,ScrollDown,Green.png,1,Positive,Incongruent,0,0,0,0,,,,,,,,,,,,,0,23,23,23,,,,,,,,,,,,,,,,,,,,,,,,,,,,,,,,,,,,,,,,,,,,,,,,,,,,,,,,,,,,,,,,,,,,,,,,,,,,,,,,,,,,,2,1.084949400043115,217.85651479987428,None,ScrollUp,정답입니다,217.85651479987428,None,217.85651479987428,None,217.85651479987428,None,217.85651479987428,None,218.82473820005544,None,218.82473820005544,219.32680179993622,,,,,,,,,,,,,,,,131,2022-05-23_17h45.40.754,FishGame,2022.1.1,59.83115647238549,
,25,넌 시끄러워,4,Orange,A,2.833333333333333,3.033333333333333,ScrollDown,ScrollUp,Orange.png,1,Negative,Incongruent,0,0,0,0,,,,,,,,,,,,,0,24,24,24,,,,,,,,,,,,,,,,,,,,,,,,,,,,,,,,,,,,,,,,,,,,,,,,,,,,,,,,,,,,,,,,,,,,,,,,,,,,,,,,,,,,,1,1.3158944000024348,219.97085919999518,None,ScrollDown,정답입니다,219.97085919999518,None,219.97085919999518,None,219.97085919999518,None,219.97085919999518,None,221.16405449993908,None,221.16405449993908,221.67635779990815,,,,,,,,,,,,,,,,131,2022-05-23_17h45.40.754,FishGame,2022.1.1,59.83115647238549,
,26,넌 만사태평이야,3,Green,B,4,4.333333333333333,ScrollUp,ScrollDown,Green.png,1,Neutral,Neutral,0,0,0,0,,,,,,,,,,,,,0,25,25,25,,,,,,,,,,,,,,,,,,,,,,,,,,,,,,,,,,,,,,,,,,,,,,,,,,,,,,,,,,,,,,,,,,,,,,,,,,,,,,,,,,,,,2,1.2186030999291688,222.31948529998772,None,ScrollUp,정답입니다,222.31948529998772,None,222.31948529998772,None,222.31948529998772,None,222.31948529998772,None,223.414145299932,None,223.414145299932,223.9267005000729,,,,,,,,,,,,,,,,131,2022-05-23_17h45.40.754,FishGame,2022.1.1,59.83115647238549,
,27,넌 붙임성있어,1,Orange,A,5.708333333333333,5.633333333333334,ScrollDown,ScrollUp,Orange.png,1,Positive,Congruent,0,0,0,0,,,,,,,,,,,,,0,26,26,26,,,,,,,,,,,,,,,,,,,,,,,,,,,,,,,,,,,,,,,,,,,,,,,,,,,,,,,,,,,,,,,,,,,,,,,,,,,,,,,,,,,,,1,1.2820950001478195,224.57245279988274,None,ScrollDown,정답입니다,224.57245279988274,None,224.57245279988274,None,224.57245279988274,None,224.57245279988274,None,225.73271799995564,None,225.73271799995564,226.24276300007477,,,,,,,,,,,,,,,,131,2022-05-23_17h45.40.754,FishGame,2022.1.1,59.83115647238549,
,28,넌 영리해,2,Orange,A,6,4.033333333333333,ScrollDown,ScrollUp,Orange.png,1,Positive,Congruent,0,0,0,0,,,,,,,,,,,,,0,27,27,27,,,,,,,,,,,,,,,,,,,,,,,,,,,,,,,,,,,,,,,,,,,,,,,,,,,,,,,,,,,,,,,,,,,,,,,,,,,,,,,,,,,,,1,1.092949999962002,226.8904996998608,None,ScrollDown,정답입니다,226.8904996998608,None,226.8904996998608,None,226.8904996998608,None,226.8904996998608,None,227.85949359997176,None,227.85949359997176,228.35971320001408,,,,,,,,,,,,,,,,131,2022-05-23_17h45.40.754,FishGame,2022.1.1,59.83115647238549,
,29,넌 열심이야,1,Green,B,6.041666666666667,5.833333333333333,ScrollUp,ScrollDown,Green.png,1,Positive,Incongruent,0,0,0,0,,,,,,,,,,,,,0,28,28,28,,,,,,,,,,,,,,,,,,,,,,,,,,,,,,,,,,,,,,,,,,,,,,,,,,,,,,,,,,,,,,,,,,,,,,,,,,,,,,,,,,,,,2,1.0106220999732614,228.9978594998829,None,ScrollUp,정답입니다,228.9978594998829,None,228.9978594998829,None,228.9978594998829,None,228.9978594998829,None,229.89265769999474,None,229.89265769999474,230.39288090006448,,,,,,,,,,,,,,,,131,2022-05-23_17h45.40.754,FishGame,2022.1.1,59.83115647238549,
,30,넌 인기없어,4,Green,B,3,3.3,ScrollUp,ScrollDown,Green.png,1,Negative,Congruent,0,0,0,0,,,,,,,,,,,,,0,29,29,29,,,,,,,,,,,,,,,,,,,,,,,,,,,,,,,,,,,,,,,,,,,,,,,,,,,,,,,,,,,,,,,,,,,,,,,,,,,,,,,,,,,,,2,1.073233800008893,231.03121179994196,None,ScrollUp,정답입니다,231.03121179994196,None,231.03121179994196,None,231.03121179994196,None,231.03121179994196,None,231.99133619992062,None,231.99133619992062,232.4929493998643,,,,,,,,,,,,,,,,131,2022-05-23_17h45.40.754,FishGame,2022.1.1,59.83115647238549,
,31,넌 익살스러워,3,Orange,A,4.708333333333334,4.833333333333333,ScrollDown,ScrollUp,Orange.png,1,Neutral,Neutral,0,0,0,0,,,,,,,,,,,,,0,30,30,30,,,,,,,,,,,,,,,,,,,,,,,,,,,,,,,,,,,,,,,,,,,,,,,,,,,,,,,,,,,,,,,,,,,,,,,,,,,,,,,,,,,,,1,1.250141500029713,233.1412029999774,None,ScrollDown,정답입니다,233.1412029999774,None,233.1412029999774,None,233.1412029999774,None,233.1412029999774,None,234.26415860000998,None,234.26415860000998,234.77681299997494,,,,,,,,,,,,,,,,131,2022-05-23_17h45.40.754,FishGame,2022.1.1,59.83115647238549,
,32,넌 이기적이야,5,Green,B,2.291666666666667,2.333333333333333,ScrollUp,ScrollDown,Green.png,1,Negative,Congruent,0,0,0,0,,,,,,,,,,,,,0,31,31,31,,,,,,,,,,,,,,,,,,,,,,,,,,,,,,,,,,,,,,,,,,,,,,,,,,,,,,,,,,,,,,,,,,,,,,,,,,,,,,,,,,,,,2,1.0491023999638855,235.40539649990387,None,ScrollUp,정답입니다,235.40539649990387,None,235.40539649990387,None,235.40539649990387,None,235.40539649990387,None,236.34884130000137,None,236.34884130000137,236.85980299999937,,,,,,,,,,,,,,,,131,2022-05-23_17h45.40.754,FishGame,2022.1.1,59.83115647238549,
,33,나를 데려가줘,6,Green,B,0,0,ScrollDown,ScrollUp,Green.png,1,NonTarget,NonTarget,0,0,0,0,,,,,,,,,,,,,0,32,32,32,,,,,,,,,,,,,,,,,,,,,,,,,,,,,,,,,,,,,,,,,,,,,,,,,,,,,,,,,,,,,,,,,,,,,,,,,,,,,,,,,,,,,2,1.4001454999670386,237.49694849993102,None,ScrollUp,오답입니다,237.49694849993102,None,237.49694849993102,None,237.49694849993102,None,237.49694849993102,None,238.7822902998887,None,238.7822902998887,239.2931667000521,,,,,,,,,,,,,,,,131,2022-05-23_17h45.40.754,FishGame,2022.1.1,59.83115647238549,
,34,넌 기회주의자야,5,Orange,A,2.875,2.133333333333333,ScrollDown,ScrollUp,Orange.png,1,Negative,Incongruent,0,0,0,0,,,,,,,,,,,,,0,33,33,33,,,,,,,,,,,,,,,,,,,,,,,,,,,,,,,,,,,,,,,,,,,,,,,,,,,,,,,,,,,,,,,,,,,,,,,,,,,,,,,,,,,,,1,1.8387759001925588,239.94362629996613,None,ScrollDown,정답입니다,239.94362629996613,None,239.94362629996613,None,239.94362629996613,None,239.94362629996613,None,241.65428319992498,None,241.65428319992498,242.16049829986878,,,,,,,,,,,,,,,,131,2022-05-23_17h45.40.754,FishGame,2022.1.1,59.83115647238549,
,1,넌 미성숙해,4,Orange,A,3,3.2,ScrollDown,ScrollUp,Orange.png,2,Negative,Incongruent,0,0,0,0,,,,,,,,,,,,,,,,,0,0,0,0,,,,,,,,,,,,,,,,,,,,,,,,,,,,,,,,,,,,,,,,274.2610861000139,275.7610682998784,275.79423430003226,276.7438988999929,276.79439940000884,277.74408979993314,277.74408979993314,None,,,,,,,,,,,,,,,,,,,,,,,,,,,,,,,,,,1,1.1841870001517236,278.8946545999497,None,ScrollDown,정답입니다,278.8946545999497,None,278.8946545999497,None,278.8946545999497,None,278.8946545999497,None,279.91646880004555,None,279.91646880004555,280.42762789991684,242.66031880001538,None,242.66031880001538,None,0.19444445,-0.13703704,1,0,0,0.01563974004238844,None,272.6605765998829,None,,,131,2022-05-23_17h45.40.754,FishGame,2022.1.1,59.83115647238549,
,2,넌 반사회적이야,5,Green,B,2.416666666666667,2.033333333333333,ScrollUp,ScrollDown,Green.png,2,Negative,Congruent,0,0,0,0,,,,,,,,,,,,,,,,,0,1,1,1,,,,,,,,,,,,,,,,,,,,,,,,,,,,,,,,,,,,,,,,,,,,,,,,,,,,,,,,,,,,,,,,,,,,,,,,,,,,,,,,,2,0.8768850001506507,281.0621912998613,None,ScrollUp,정답입니다,281.0621912998613,None,281.0621912998613,None,281.0621912998613,None,281.0621912998613,None,281.8274196998682,None,281.8274196998682,282.3279921000358,,,,,,,,,,,,,,,,131,2022-05-23_17h45.40.754,FishGame,2022.1.1,59.83115647238549,
,3,넌 유능해,2,Orange,A,6.208333333333333,4.433333333333334,ScrollDown,ScrollUp,Orange.png,2,Positive,Congruent,0,0,0,0,,,,,,,,,,,,,,,,,0,2,2,2,,,,,,,,,,,,,,,,,,,,,,,,,,,,,,,,,,,,,,,,,,,,,,,,,,,,,,,,,,,,,,,,,,,,,,,,,,,,,,,,,1,0.837365600047633,282.9715229999274,None,ScrollDown,정답입니다,282.9715229999274,None,282.9715229999274,None,282.9715229999274,None,282.9715229999274,None,283.69266900001094,None,283.69266900001094,284.1945702000521,,,,,,,,,,,,,,,,131,2022-05-23_17h45.40.754,FishGame,2022.1.1,59.83115647238549,
,4,넌 능숙해,2,Green,B,5.666666666666667,4.733333333333333,ScrollUp,ScrollDown,Green.png,2,Positive,Incongruent,0,0,0,0,,,,,,,,,,,,,,,,,0,3,3,3,,,,,,,,,,,,,,,,,,,,,,,,,,,,,,,,,,,,,,,,,,,,,,,,,,,,,,,,,,,,,,,,,,,,,,,,,,,,,,,,,2,0.8176844997797161,284.8270159000531,None,ScrollUp,정답입니다,284.8270159000531,None,284.8270159000531,None,284.8270159000531,None,284.8270159000531,None,285.5321790999733,None,285.5321790999733,286.044169700006,,,,,,,,,,,,,,,,131,2022-05-23_17h45.40.754,FishGame,2022.1.1,59.83115647238549,
,5,넌 진부해,4,Green,B,2.458333333333333,3.166666666666667,ScrollUp,ScrollDown,Green.png,2,Negative,Congruent,0,0,0,0,,,,,,,,,,,,,,,,,0,4,4,4,,,,,,,,,,,,,,,,,,,,,,,,,,,,,,,,,,,,,,,,,,,,,,,,,,,,,,,,,,,,,,,,,,,,,,,,,,,,,,,,,2,0.9307305000256747,286.6796671000775,None,ScrollUp,정답입니다,286.6796671000775,None,286.6796671000775,None,286.6796671000775,None,286.6796671000775,None,287.4988114000298,None,287.4988114000298,288.0109898999799,,,,,,,,,,,,,,,,131,2022-05-23_17h45.40.754,FishGame,2022.1.1,59.83115647238549,
,6,나를 보내줘,6,Orange,A,0,0,ScrollUp,ScrollDown,Orange.png,2,NonTarget,NonTarget,0,0,0,0,,,,,,,,,,,,,,,,,0,5,5,5,,,,,,,,,,,,,,,,,,,,,,,,,,,,,,,,,,,,,,,,,,,,,,,,,,,,,,,,,,,,,,,,,,,,,,,,,,,,,,,,,2,1.5526955998502672,288.6439334000461,None,ScrollUp,정답입니다,288.6439334000461,None,288.6439334000461,None,288.6439334000461,None,288.6439334000461,None,290.0927826000843,None,290.0927826000843,290.5945079000667,,,,,,,,,,,,,,,,131,2022-05-23_17h45.40.754,FishGame,2022.1.1,59.83115647238549,
,7,넌 엄격해,3,Orange,A,4.166666666666666,4.1,ScrollDown,ScrollUp,Orange.png,2,Neutral,Neutral,0,0,0,0,,,,,,,,,,,,,,,,,0,6,6,6,,,,,,,,,,,,,,,,,,,,,,,,,,,,,,,,,,,,,,,,,,,,,,,,,,,,,,,,,,,,,,,,,,,,,,,,,,,,,,,,,1,0.8532539000734687,291.2349970000796,None,ScrollDown,정답입니다,291.2349970000796,None,291.2349970000796,None,291.2349970000796,None,291.2349970000796,None,291.97649969998747,None,291.97649969998747,292.47800579993054,,,,,,,,,,,,,,,,131,2022-05-23_17h45.40.754,FishGame,2022.1.1,59.83115647238549,
,8,나를 보내줘,6,Orange,A,0,0,ScrollUp,ScrollDown,Orange.png,2,NonTarget,NonTarget,0,0,0,0,,,,,,,,,,,,,,,,,0,7,7,7,,,,,,,,,,,,,,,,,,,,,,,,,,,,,,,,,,,,,,,,,,,,,,,,,,,,,,,,,,,,,,,,,,,,,,,,,,,,,,,,,2,1.0831047999672592,293.11412120005116,None,ScrollUp,정답입니다,293.11412120005116,None,293.11412120005116,None,293.11412120005116,None,293.11412120005116,None,294.08361610001884,None,294.08361610001884,294.59453250002116,,,,,,,,,,,,,,,,131,2022-05-23_17h45.40.754,FishGame,2022.1.1,59.83115647238549,
,9,넌 대담해,3,Green,B,4.875,4.866666666666666,ScrollUp,ScrollDown,Green.png,2,Neutral,Neutral,0,0,0,0,,,,,,,,,,,,,,,,,0,8,8,8,,,,,,,,,,,,,,,,,,,,,,,,,,,,,,,,,,,,,,,,,,,,,,,,,,,,,,,,,,,,,,,,,,,,,,,,,,,,,,,,,2,1.1384072001092136,295.2310937999282,None,ScrollUp,정답입니다,295.2310937999282,None,295.2310937999282,None,295.2310937999282,None,295.2310937999282,None,296.2596288998611,None,296.2596288998611,296.76088909991086,,,,,,,,,,,,,,,,131,2022-05-23_17h45.40.754,FishGame,2022.1.1,59.83115647238549,
,10,넌 꾸준해,1,Orange,A,5.916666666666668,5.8,ScrollDown,ScrollUp,Orange.png,2,Positive,Congruent,0,0,0,0,,,,,,,,,,,,,,,,,0,9,9,9,,,,,,,,,,,,,,,,,,,,,,,,,,,,,,,,,,,,,,,,,,,,,,,,,,,,,,,,,,,,,,,,,,,,,,,,,,,,,,,,,1,1.457749499939382,297.4020678999368,None,ScrollDown,정답입니다,297.4020678999368,None,297.4020678999368,None,297.4020678999368,None,297.4020678999368,None,298.7443804999348,None,298.7443804999348,299.24466470000334,,,,,,,,,,,,,,,,131,2022-05-23_17h45.40.754,FishGame,2022.1.1,59.83115647238549,
,11,나를 데려가줘,6,Green,B,0,0,ScrollDown,ScrollUp,Green.png,2,NonTarget,NonTarget,0,0,0,0,,,,,,,,,,,,,,,,,0,10,10,10,,,,,,,,,,,,,,,,,,,,,,,,,,,,,,,,,,,,,,,,,,,,,,,,,,,,,,,,,,,,,,,,,,,,,,,,,,,,,,,,,1.9706790049870808,1.019489400088787,299.8772585999686,None,ScrollUp,오답입니다,299.8772585999686,None,299.8772585999686,None,299.8772585999686,None,299.8772585999686,None,300.7849000999704,None,300.7849000999704,301.29459859989583,,,,,,,,,,,,,,,,131,2022-05-23_17h45.40.754,FishGame,2022.1.1,59.83115647238549,
,12,넌 독선적이야,5,Orange,A,2.458333333333333,1.933333333333333,ScrollDown,ScrollUp,Orange.png,2,Negative,Incongruent,0,0,0,0,,,,,,,,,,,,,,,,,0,11,11,11,,,,,,,,,,,,,,,,,,,,,,,,,,,,,,,,,,,,,,,,,,,,,,,,,,,,,,,,,,,,,,,,,,,,,,,,,,,,,,,,,1,1.2546569001860917,301.9495494000148,None,ScrollDown,정답입니다,301.9495494000148,None,301.9495494000148,None,301.9495494000148,None,301.9495494000148,None,303.0701345000416,None,303.0701345000416,303.57829919992946,,,,,,,,,,,,,,,,131,2022-05-23_17h45.40.754,FishGame,2022.1.1,59.83115647238549,
,13,나를 보내줘,6,Orange,A,0,0,ScrollUp,ScrollDown,Orange.png,2,NonTarget,NonTarget,0,0,0,0,,,,,,,,,,,,,,,,,0,12,12,12,,,,,,,,,,,,,,,,,,,,,,,,,,,,,,,,,,,,,,,,,,,,,,,,,,,,,,,,,,,,,,,,,,,,,,,,,,,,,,,,,2,1.371826099930331,304.2149598998949,None,ScrollUp,정답입니다,304.2149598998949,None,304.2149598998949,None,304.2149598998949,None,304.2149598998949,None,305.4765933000017,None,305.4765933000017,305.97839379985817,,,,,,,,,,,,,,,,131,2022-05-23_17h45.40.754,FishGame,2022.1.1,59.83115647238549,
,14,넌 책임감있어,1,Green,B,6.347826086956522,6,ScrollUp,ScrollDown,Green.png,2,Positive,Incongruent,0,0,0,0,,,,,,,,,,,,,,,,,0,13,13,13,,,,,,,,,,,,,,,,,,,,,,,,,,,,,,,,,,,,,,,,,,,,,,,,,,,,,,,,,,,,,,,,,,,,,,,,,,,,,,,,,2,1.1393812000751495,306.61728879995644,None,ScrollUp,정답입니다,306.61728879995644,None,306.61728879995644,None,306.61728879995644,None,306.61728879995644,None,307.64278859994374,None,307.64278859994374,308.14505350007676,,,,,,,,,,,,,,,,131,2022-05-23_17h45.40.754,FishGame,2022.1.1,59.83115647238549,
,15,넌 문학적이야,3,Orange,A,4.708333333333334,4.333333333333333,ScrollDown,ScrollUp,Orange.png,2,Neutral,Neutral,0,0,0,0,,,,,,,,,,,,,,,,,0,14,14,14,,,,,,,,,,,,,,,,,,,,,,,,,,,,,,,,,,,,,,,,,,,,,,,,,,,,,,,,,,,,,,,,,,,,,,,,,,,,,,,,,1,1.4252633000724018,308.78794409986585,None,ScrollDown,정답입니다,308.78794409986585,None,308.78794409986585,None,308.78794409986585,None,308.78794409986585,None,310.0959008000791,None,310.0959008000791,310.6117384999525,,,,,,,,,,,,,,,,131,2022-05-23_17h45.40.754,FishGame,2022.1.1,59.83115647238549,
,16,넌 재미있어,1,Green,B,5.875,5.7,ScrollUp,ScrollDown,Green.png,2,Positive,Incongruent,0,0,0,0,,,,,,,,,,,,,,,,,0,15,15,15,,,,,,,,,,,,,,,,,,,,,,,,,,,,,,,,,,,,,,,,,,,,,,,,,,,,,,,,,,,,,,,,,,,,,,,,,,,,,,,,,2,0.9863641001284122,311.24398269993253,None,ScrollUp,정답입니다,311.24398269993253,None,311.24398269993253,None,311.24398269993253,None,311.24398269993253,None,312.1265740999952,None,312.1265740999952,312.628217499936,,,,,,,,,,,,,,,,131,2022-05-23_17h45.40.754,FishGame,2022.1.1,59.83115647238549,
,17,나를 데려가줘,6,Green,B,0,0,ScrollDown,ScrollUp,Green.png,2,NonTarget,NonTarget,0,0,0,0,,,,,,,,,,,,,,,,,0,16,16,16,,,,,,,,,,,,,,,,,,,,,,,,,,,,,,,,,,,,,,,,,,,,,,,,,,,,,,,,,,,,,,,,,,,,,,,,,,,,,,,,,1,1.258804100099951,313.26075230003335,None,ScrollDown,정답입니다,313.26075230003335,None,313.26075230003335,None,313.26075230003335,None,313.26075230003335,None,314.4113733000122,None,314.4113733000122,314.91146259987727,,,,,,,,,,,,,,,,131,2022-05-23_17h45.40.754,FishGame,2022.1.1,59.83115647238549,
,18,넌 협력적이야,1,Orange,A,5.625,5.633333333333334,ScrollDown,ScrollUp,Orange.png,2,Positive,Congruent,0,0,0,0,,,,,,,,,,,,,,,,,0,17,17,17,,,,,,,,,,,,,,,,,,,,,,,,,,,,,,,,,,,,,,,,,,,,,,,,,,,,,,,,,,,,,,,,,,,,,,,,,,,,,,,,,1,1.4603929000440985,315.5536974000279,None,ScrollDown,정답입니다,315.5536974000279,None,315.5536974000279,None,315.5536974000279,None,315.5536974000279,None,316.8949392999057,None,316.8949392999057,317.39489330002107,,,,,,,,,,,,,,,,131,2022-05-23_17h45.40.754,FishGame,2022.1.1,59.83115647238549,
,19,넌 평범해,3,Green,B,4.333333333333332,4.233333333333333,ScrollUp,ScrollDown,Green.png,2,Neutral,Neutral,0,0,0,0,,,,,,,,,,,,,,,,,0,18,18,18,,,,,,,,,,,,,,,,,,,,,,,,,,,,,,,,,,,,,,,,,,,,,,,,,,,,,,,,,,,,,,,,,,,,,,,,,,,,,,,,,2,0.979401099961251,318.0283291998785,None,ScrollUp,정답입니다,318.0283291998785,None,318.0283291998785,None,318.0283291998785,None,318.0283291998785,None,318.8949982000049,None,318.8949982000049,319.3956406998914,,,,,,,,,,,,,,,,131,2022-05-23_17h45.40.754,FishGame,2022.1.1,59.83115647238549,
,20,넌 오만해,5,Orange,A,2.333333333333333,2,ScrollDown,ScrollUp,Orange.png,2,Negative,Incongruent,0,0,0,0,,,,,,,,,,,,,,,,,0,19,19,19,,,,,,,,,,,,,,,,,,,,,,,,,,,,,,,,,,,,,,,,,,,,,,,,,,,,,,,,,,,,,,,,,,,,,,,,,,,,,,,,,1,1.1787833000998944,320.03271579998545,None,ScrollDown,정답입니다,320.03271579998545,None,320.03271579998545,None,320.03271579998545,None,320.03271579998545,None,321.0948109999299,None,321.0948109999299,321.5950547000393,,,,,,,,,,,,,,,,131,2022-05-23_17h45.40.754,FishGame,2022.1.1,59.83115647238549,
,21,넌 운이없어,4,Green,B,3,3.466666666666667,ScrollUp,ScrollDown,Green.png,2,Negative,Congruent,0,0,0,0,,,,,,,,,,,,,,,,,0,20,20,20,,,,,,,,,,,,,,,,,,,,,,,,,,,,,,,,,,,,,,,,,,,,,,,,,,,,,,,,,,,,,,,,,,,,,,,,,,,,,,,,,2,1.0666324000339955,322.23055560002103,None,ScrollUp,정답입니다,322.23055560002103,None,322.23055560002103,None,322.23055560002103,None,322.23055560002103,None,323.1827531000599,None,323.1827531000599,323.6950075000059,,,,,,,,,,,,,,,,131,2022-05-23_17h45.40.754,FishGame,2022.1.1,59.83115647238549,
,22,넌 창조적이야,2,Green,B,6.125,4.633333333333334,ScrollUp,ScrollDown,Green.png,2,Positive,Incongruent,0,0,0,0,,,,,,,,,,,,,,,,,0,21,21,21,,,,,,,,,,,,,,,,,,,,,,,,,,,,,,,,,,,,,,,,,,,,,,,,,,,,,,,,,,,,,,,,,,,,,,,,,,,,,,,,,2,0.9702429000753909,324.3321587999817,None,ScrollUp,정답입니다,324.3321587999817,None,324.3321587999817,None,324.3321587999817,None,324.3321587999817,None,325.19322369992733,None,325.19322369992733,325.6956267999485,,,,,,,,,,,,,,,,131,2022-05-23_17h45.40.754,FishGame,2022.1.1,59.83115647238549,
,23,나를 보내줘,6,Orange,A,0,0,ScrollUp,ScrollDown,Orange.png,2,NonTarget,NonTarget,0,0,0,0,,,,,,,,,,,,,,,,,0,22,22,22,,,,,,,,,,,,,,,,,,,,,,,,,,,,,,,,,,,,,,,,,,,,,,,,,,,,,,,,,,,,,,,,,,,,,,,,,,,,,,,,,2,1.9453443000093102,326.3321612,None,ScrollUp,정답입니다,326.3321612,None,326.3321612,None,326.3321612,None,326.3321612,None,328.1617149999365,None,328.1617149999365,328.66187150008045,,,,,,,,,,,,,,,,131,2022-05-23_17h45.40.754,FishGame,2022.1.1,59.83115647238549,
,24,넌 통찰력있어,2,Orange,A,6.5,4.8,ScrollDown,ScrollUp,Orange.png,2,Positive,Congruent,0,0,0,0,,,,,,,,,,,,,,,,,0,23,23,23,,,,,,,,,,,,,,,,,,,,,,,,,,,,,,,,,,,,,,,,,,,,,,,,,,,,,,,,,,,,,,,,,,,,,,,,,,,,,,,,,1,1.703222299925983,329.3051898998674,None,ScrollDown,정답입니다,329.3051898998674,None,329.3051898998674,None,329.3051898998674,None,329.3051898998674,None,330.8936532998923,None,330.8936532998923,331.39493840001523,,,,,,,,,,,,,,,,131,2022-05-23_17h45.40.754,FishGame,2022.1.1,59.83115647238549,
,25,넌 경솔해,5,Green,B,2.458333333333333,2.266666666666667,ScrollUp,ScrollDown,Green.png,2,Negative,Congruent,0,0,0,0,,,,,,,,,,,,,,,,,0,24,24,24,,,,,,,,,,,,,,,,,,,,,,,,,,,,,,,,,,,,,,,,,,,,,,,,,,,,,,,,,,,,,,,,,,,,,,,,,,,,,,,,,2,1.1154483000282198,332.0281888998579,None,ScrollUp,정답입니다,332.0281888998579,None,332.0281888998579,None,332.0281888998579,None,332.0281888998579,None,333.03342580003664,None,333.03342580003664,333.54559469991364,,,,,,,,,,,,,,,,131,2022-05-23_17h45.40.754,FishGame,2022.1.1,59.83115647238549,
,26,넌 초조해,4,Orange,A,2.916666666666667,3.133333333333333,ScrollDown,ScrollUp,Orange.png,2,Negative,Incongruent,0,0,0,0,,,,,,,,,,,,,,,,,0,25,25,25,,,,,,,,,,,,,,,,,,,,,,,,,,,,,,,,,,,,,,,,,,,,,,,,,,,,,,,,,,,,,,,,,,,,,,,,,,,,,,,,,1,1.0656346001196653,334.18243560008705,None,ScrollDown,정답입니다,334.18243560008705,None,334.18243560008705,None,334.18243560008705,None,334.18243560008705,None,335.133132699877,None,335.133132699877,335.64568349998444,,,,,,,,,,,,,,,,131,2022-05-23_17h45.40.754,FishGame,2022.1.1,59.83115647238549,
,27,넌 무관심해,4,Green,B,2.833333333333333,2.9,ScrollUp,ScrollDown,Green.png,2,Negative,Congruent,0,0,0,0,,,,,,,,,,,,,,,,,0,26,26,26,,,,,,,,,,,,,,,,,,,,,,,,,,,,,,,,,,,,,,,,,,,,,,,,,,,,,,,,,,,,,,,,,,,,,,,,,,,,,,,,,2,1.1479964999016374,336.2803285999689,None,ScrollUp,정답입니다,336.2803285999689,None,336.2803285999689,None,336.2803285999689,None,336.2803285999689,None,337.31503659999,None,337.31503659999,337.82884570001625,,,,,,,,,,,,,,,,131,2022-05-23_17h45.40.754,FishGame,2022.1.1,59.83115647238549,
,28,넌 감성적이야,3,Green,B,4.125,4.166666666666667,ScrollUp,ScrollDown,Green.png,2,Neutral,Neutral,0,0,0,0,,,,,,,,,,,,,,,,,0,27,27,27,,,,,,,,,,,,,,,,,,,,,,,,,,,,,,,,,,,,,,,,,,,,,,,,,,,,,,,,,,,,,,,,,,,,,,,,,,,,,,,,,2,1.000133499968797,338.4614458999131,None,ScrollUp,정답입니다,338.4614458999131,None,338.4614458999131,None,338.4614458999131,None,338.4614458999131,None,339.34980169986375,None,339.34980169986375,339.8624923999887,,,,,,,,,,,,,,,,131,2022-05-23_17h45.40.754,FishGame,2022.1.1,59.83115647238549,
,29,넌 배려심있어,1,Orange,A,6.083333333333333,5.5,ScrollDown,ScrollUp,Orange.png,2,Positive,Congruent,0,0,0,0,,,,,,,,,,,,,,,,,0,28,28,28,,,,,,,,,,,,,,,,,,,,,,,,,,,,,,,,,,,,,,,,,,,,,,,,,,,,,,,,,,,,,,,,,,,,,,,,,,,,,,,,,1,1.0484933000989258,340.50837050005794,None,ScrollDown,정답입니다,340.50837050005794,None,340.50837050005794,None,340.50837050005794,None,340.50837050005794,None,341.43345339992084,None,341.43345339992084,341.9462965000421,,,,,,,,,,,,,,,,131,2022-05-23_17h45.40.754,FishGame,2022.1.1,59.83115647238549,
,30,넌 숨김없어,3,Orange,A,4.5,4.933333333333334,ScrollDown,ScrollUp,Orange.png,2,Neutral,Neutral,0,0,0,0,,,,,,,,,,,,,,,,,0,29,29,29,,,,,,,,,,,,,,,,,,,,,,,,,,,,,,,,,,,,,,,,,,,,,,,,,,,,,,,,,,,,,,,,,,,,,,,,,,,,,,,,,1,1.0245711000170559,342.5945331000257,None,ScrollDown,정답입니다,342.5945331000257,None,342.5945331000257,None,342.5945331000257,None,342.5945331000257,None,343.4950298999902,None,343.4950298999902,343.9952193000354,,,,,,,,,,,,,,,,131,2022-05-23_17h45.40.754,FishGame,2022.1.1,59.83115647238549,
,31,넌 훌륭해,2,Green,B,5.916666666666667,4.033333333333333,ScrollUp,ScrollDown,Green.png,2,Positive,Incongruent,0,0,0,0,,,,,,,,,,,,,,,,,0,30,30,30,,,,,,,,,,,,,,,,,,,,,,,,,,,,,,,,,,,,,,,,,,,,,,,,,,,,,,,,,,,,,,,,,,,,,,,,,,,,,,,,,2,0.9904928000178188,344.634991500061,None,ScrollUp,정답입니다,344.634991500061,None,344.634991500061,None,344.634991500061,None,344.634991500061,None,345.51082749990746,None,345.51082749990746,346.01248989999294,,,,,,,,,,,,,,,,131,2022-05-23_17h45.40.754,FishGame,2022.1.1,59.83115647238549,
,32,넌 슬기로워,2,Orange,A,6.166666666666667,4.1,ScrollDown,ScrollUp,Orange.png,2,Positive,Congruent,0,0,0,0,,,,,,,,,,,,,,,,,0,31,31,31,,,,,,,,,,,,,,,,,,,,,,,,,,,,,,,,,,,,,,,,,,,,,,,,,,,,,,,,,,,,,,,,,,,,,,,,,,,,,,,,,1,0.9921623999252915,346.65230379998684,None,ScrollDown,정답입니다,346.65230379998684,None,346.65230379998684,None,346.65230379998684,None,346.65230379998684,None,347.5291529998649,None,347.5291529998649,348.0288519000169,,,,,,,,,,,,,,,,131,2022-05-23_17h45.40.754,FishGame,2022.1.1,59.83115647238549,
,33,넌 냉혹해,5,Orange,A,2.583333333333333,2.1,ScrollDown,ScrollUp,Orange.png,2,Negative,Incongruent,0,0,0,0,,,,,,,,,,,,,,,,,0,32,32,32,,,,,,,,,,,,,,,,,,,,,,,,,,,,,,,,,,,,,,,,,,,,,,,,,,,,,,,,,,,,,,,,,,,,,,,,,,,,,,,,,1,1.0303340000100434,348.6711585999001,None,ScrollDown,정답입니다,348.6711585999001,None,348.6711585999001,None,348.6711585999001,None,348.6711585999001,None,349.58278400008567,None,349.58278400008567,350.0958962000441,,,,,,,,,,,,,,,,131,2022-05-23_17h45.40.754,FishGame,2022.1.1,59.83115647238549,
,34,나를 데려가줘,6,Green,B,0,0,ScrollDown,ScrollUp,Green.png,2,NonTarget,NonTarget,0,0,0,0,,,,,,,,,,,,,,,,,0,33,33,33,,,,,,,,,,,,,,,,,,,,,,,,,,,,,,,,,,,,,,,,,,,,,,,,,,,,,,,,,,,,,,,,,,,,,,,,,,,,,,,,,2,1.3064794999081641,350.73050000006333,None,ScrollUp,오답입니다,350.73050000006333,None,350.73050000006333,None,350.73050000006333,None,350.73050000006333,None,351.9278029999696,None,351.9278029999696,352.42934949998744,,,,,,,,,,,,,,,,131,2022-05-23_17h45.40.754,FishGame,2022.1.1,59.83115647238549,
,35,넌 편파적이야,5,Green,B,2.125,2,ScrollUp,ScrollDown,Green.png,2,Negative,Congruent,0,0,0,0,,,,,,,,,,,,,,,,,0,34,34,34,,,,,,,,,,,,,,,,,,,,,,,,,,,,,,,,,,,,,,,,,,,,,,,,,,,,,,,,,,,,,,,,,,,,,,,,,,,,,,,,,2,1.473596999887377,353.0671608999837,None,ScrollUp,정답입니다,353.0671608999837,None,353.0671608999837,None,353.0671608999837,None,353.0671608999837,None,354.4290869999677,None,354.4290869999677,354.9291167999618,,,,,,,,,,,,,,,,131,2022-05-23_17h45.40.754,FishGame,2022.1.1,59.83115647238549,
,36,넌 슬퍼,4,Orange,A,2.583333333333333,3.066666666666667,ScrollDown,ScrollUp,Orange.png,2,Negative,Incongruent,0,0,0,0,,,,,,,,,,,,,,,,,0,35,35,35,,,,,,,,,,,,,,,,,,,,,,,,,,,,,,,,,,,,,,,,,,,,,,,,,,,,,,,,,,,,,,,,,,,,,,,,,,,,,,,,,1,0.9169143000617623,355.56444630003534,None,ScrollDown,정답입니다,355.56444630003534,None,355.56444630003534,None,355.56444630003534,None,355.56444630003534,None,356.3668575999327,None,356.3668575999327,356.8792771000881,,,,,,,,,,,,,,,,131,2022-05-23_17h45.40.754,FishGame,2022.1.1,59.83115647238549,
,37,나를 데려가줘,6,Green,B,0,0,ScrollDown,ScrollUp,Green.png,2,NonTarget,NonTarget,0,0,0,0,,,,,,,,,,,,,,,,,0,36,36,36,,,,,,,,,,,,,,,,,,,,,,,,,,,,,,,,,,,,,,,,,,,,,,,,,,,,,,,,,,,,,,,,,,,,,,,,,,,,,,,,,2,1.9076304999180138,357.5180533998646,None,ScrollUp,오답입니다,357.5180533998646,None,357.5180533998646,None,357.5180533998646,None,357.5180533998646,None,359.3123834000435,None,359.3123834000435,359.81332110008225,,,,,,,,,,,,,,,,131,2022-05-23_17h45.40.754,FishGame,2022.1.1,59.83115647238549,
,38,넌 친절해,1,Green,B,6.041666666666667,5.533333333333333,ScrollUp,ScrollDown,Green.png,2,Positive,Incongruent,0,0,0,0,,,,,,,,,,,,,,,,,0,37,37,37,,,,,,,,,,,,,,,,,,,,,,,,,,,,,,,,,,,,,,,,,,,,,,,,,,,,,,,,,,,,,,,,,,,,,,,,,,,,,,,,,2,1.5763477999716997,360.4498586000409,None,ScrollUp,정답입니다,360.4498586000409,None,360.4498586000409,None,360.4498586000409,None,360.4498586000409,None,361.9126563000027,None,361.9126563000027,362.41337509988807,,,,,,,,,,,,,,,,131,2022-05-23_17h45.40.754,FishGame,2022.1.1,59.83115647238549,
,1,넌 엉성해,4,Orange,A,3,3.3,ScrollDown,ScrollUp,Orange.png,3,Negative,Incongruent,0,0,0,0,,,,,,,,,,,,,,,,,,,,,0,0,0,0,,,,,,,,,,,,,,,,,,,,,,,,,,,,,,,,,,,,395.4970352000091,396.9970130000729,397.0299923000857,397.97988149989396,398.02994349994697,398.98006189987063,398.98006189987063,None,,,,,,,,,,,,,,,,,,,,,,,,,,,,,,,,,,1,0.9293468999676406,400.1443962000776,None,ScrollDown,정답입니다,400.1443962000776,None,400.1443962000776,None,400.1443962000776,None,400.1443962000776,None,400.90281810006127,None,400.90281810006127,401.4135978000704,362.91303239995614,None,362.91303239995614,None,0.225,-0.050925925,1,0,0,0.01577764004468918,None,392.91313100000843,None,,,131,2022-05-23_17h45.40.754,FishGame,2022.1.1,59.83115647238549,
,2,나를 보내줘,6,Orange,A,0,0,ScrollUp,ScrollDown,Orange.png,3,NonTarget,NonTarget,0,0,0,0,,,,,,,,,,,,,,,,,,,,,0,1,1,1,,,,,,,,,,,,,,,,,,,,,,,,,,,,,,,,,,,,,,,,,,,,,,,,,,,,,,,,,,,,,,,,,,,,,,,,,,,,,1,1.1435602998826653,402.0558793998789,None,ScrollDown,오답입니다,402.0558793998789,None,402.0558793998789,None,402.0558793998789,None,402.0558793998789,None,403.07611460005865,None,403.07611460005865,403.5812677000649,,,,,,,,,,,,,,,,131,2022-05-23_17h45.40.754,FishGame,2022.1.1,59.83115647238549,
,3,넌 활발해,1,Green,B,5.666666666666667,5.6,ScrollUp,ScrollDown,Green.png,3,Positive,Incongruent,0,0,0,0,,,,,,,,,,,,,,,,,,,,,0,2,2,2,,,,,,,,,,,,,,,,,,,,,,,,,,,,,,,,,,,,,,,,,,,,,,,,,,,,,,,,,,,,,,,,,,,,,,,,,,,,,2,0.9677830000873655,404.2263831999153,None,ScrollUp,정답입니다,404.2263831999153,None,404.2263831999153,None,404.2263831999153,None,404.2263831999153,None,405.06807569996454,None,405.06807569996454,405.58034810004756,,,,,,,,,,,,,,,,131,2022-05-23_17h45.40.754,FishGame,2022.1.1,59.83115647238549,
,4,넌 논리적이야,2,Orange,A,5.666666666666666,4.633333333333334,ScrollDown,ScrollUp,Orange.png,3,Positive,Congruent,0,0,0,0,,,,,,,,,,,,,,,,,,,,,0,3,3,3,,,,,,,,,,,,,,,,,,,,,,,,,,,,,,,,,,,,,,,,,,,,,,,,,,,,,,,,,,,,,,,,,,,,,,,,,,,,,1,1.1318371000234038,406.22547849989496,None,ScrollDown,정답입니다,406.22547849989496,None,406.22547849989496,None,406.22547849989496,None,406.22547849989496,None,407.23533519986086,None,407.23533519986086,407.7470025999937,,,,,,,,,,,,,,,,131,2022-05-23_17h45.40.754,FishGame,2022.1.1,59.83115647238549,
,5,넌 과묵해,3,Orange,A,3.875,4.4,ScrollDown,ScrollUp,Orange.png,3,Neutral,Neutral,0,0,0,0,,,,,,,,,,,,,,,,,,,,,0,4,4,4,,,,,,,,,,,,,,,,,,,,,,,,,,,,,,,,,,,,,,,,,,,,,,,,,,,,,,,,,,,,,,,,,,,,,,,,,,,,,1,0.861990800127387,408.39321630005725,None,ScrollDown,정답입니다,408.39321630005725,None,408.39321630005725,None,408.39321630005725,None,408.39321630005725,None,409.1319893000182,None,409.1319893000182,409.6476743000094,,,,,,,,,,,,,,,,131,2022-05-23_17h45.40.754,FishGame,2022.1.1,59.83115647238549,
,6,나를 데려가줘,6,Green,B,0,0,ScrollDown,ScrollUp,Green.png,3,NonTarget,NonTarget,0,0,0,0,,,,,,,,,,,,,,,,,,,,,0,5,5,5,,,,,,,,,,,,,,,,,,,,,,,,,,,,,,,,,,,,,,,,,,,,,,,,,,,,,,,,,,,,,,,,,,,,,,,,,,,,,1,1.5079787001013756,410.2801759999711,None,ScrollDown,정답입니다,410.2801759999711,None,410.2801759999711,None,410.2801759999711,None,410.2801759999711,None,411.6802612999454,None,411.6802612999454,412.1805807000492,,,,,,,,,,,,,,,,131,2022-05-23_17h45.40.754,FishGame,2022.1.1,59.83115647238549,
,7,넌 미숙해,4,Green,B,3,3,ScrollUp,ScrollDown,Green.png,3,Negative,Congruent,0,0,0,0,,,,,,,,,,,,,,,,,,,,,0,6,6,6,,,,,,,,,,,,,,,,,,,,,,,,,,,,,,,,,,,,,,,,,,,,,,,,,,,,,,,,,,,,,,,,,,,,,,,,,,,,,2,1.052255199989304,412.81321519985795,None,ScrollUp,정답입니다,412.81321519985795,None,412.81321519985795,None,412.81321519985795,None,412.81321519985795,None,413.7618928998709,None,413.7618928998709,414.2640511998907,,,,,,,,,,,,,,,,131,2022-05-23_17h45.40.754,FishGame,2022.1.1,59.83115647238549,
,8,나를 보내줘,6,Orange,A,0,0,ScrollUp,ScrollDown,Orange.png,3,NonTarget,NonTarget,0,0,0,0,,,,,,,,,,,,,,,,,,,,,0,7,7,7,,,,,,,,,,,,,,,,,,,,,,,,,,,,,,,,,,,,,,,,,,,,,,,,,,,,,,,,,,,,,,,,,,,,,,,,,,,,,2,1.6193800999317318,414.90405589994043,None,ScrollUp,정답입니다,414.90405589994043,None,414.90405589994043,None,414.90405589994043,None,414.90405589994043,None,416.41241139988415,None,416.41241139988415,416.91381349996664,,,,,,,,,,,,,,,,131,2022-05-23_17h45.40.754,FishGame,2022.1.1,59.83115647238549,
,9,넌 자신만만해,3,Green,B,4.833333333333334,4.333333333333333,ScrollUp,ScrollDown,Green.png,3,Neutral,Neutral,0,0,0,0,,,,,,,,,,,,,,,,,,,,,0,8,8,8,,,,,,,,,,,,,,,,,,,,,,,,,,,,,,,,,,,,,,,,,,,,,,,,,,,,,,,,,,,,,,,,,,,,,,,,,,,,,2,0.9353184998035431,417.54736030008644,None,ScrollUp,정답입니다,417.54736030008644,None,417.54736030008644,None,417.54736030008644,None,417.54736030008644,None,418.36845609988086,None,418.36845609988086,418.88014929997735,,,,,,,,,,,,,,,,131,2022-05-23_17h45.40.754,FishGame,2022.1.1,59.83115647238549,
,10,넌 탐욕스러워,5,Orange,A,2.25,2.1,ScrollDown,ScrollUp,Orange.png,3,Negative,Incongruent,0,0,0,0,,,,,,,,,,,,,,,,,,,,,0,9,9,9,,,,,,,,,,,,,,,,,,,,,,,,,,,,,,,,,,,,,,,,,,,,,,,,,,,,,,,,,,,,,,,,,,,,,,,,,,,,,1,0.9321177001111209,419.53100769990124,None,ScrollDown,정답입니다,419.53100769990124,None,419.53100769990124,None,419.53100769990124,None,419.53100769990124,None,420.3367023000028,None,420.3367023000028,420.84710690006614,,,,,,,,,,,,,,,,131,2022-05-23_17h45.40.754,FishGame,2022.1.1,59.83115647238549,
,11,넌 인기있어,2,Orange,A,5.458333333333333,4.5,ScrollDown,ScrollUp,Orange.png,3,Positive,Congruent,0,0,0,0,,,,,,,,,,,,,,,,,,,,,0,10,10,10,,,,,,,,,,,,,,,,,,,,,,,,,,,,,,,,,,,,,,,,,,,,,,,,,,,,,,,,,,,,,,,,,,,,,,,,,,,,,1,1.0239676998462528,421.48171669989824,None,ScrollDown,정답입니다,421.48171669989824,None,421.48171669989824,None,421.48171669989824,None,421.48171669989824,None,422.3972517999355,None,422.3972517999355,422.8973383998964,,,,,,,,,,,,,,,,131,2022-05-23_17h45.40.754,FishGame,2022.1.1,59.83115647238549,
,12,나를 데려가줘,6,Green,B,0,0,ScrollDown,ScrollUp,Green.png,3,NonTarget,NonTarget,0,0,0,0,,,,,,,,,,,,,,,,,,,,,0,11,11,11,,,,,,,,,,,,,,,,,,,,,,,,,,,,,,,,,,,,,,,,,,,,,,,,,,,,,,,,,,,,,,,,,,,,,,,,,,,,,1,1.1830703001469374,423.5304320999421,None,ScrollDown,정답입니다,423.5304320999421,None,423.5304320999421,None,423.5304320999421,None,423.5304320999421,None,424.6018121999223,None,424.6018121999223,425.1140816998668,,,,,,,,,,,,,,,,131,2022-05-23_17h45.40.754,FishGame,2022.1.1,59.83115647238549,
,13,넌 뛰어나,2,Green,B,6.166666666666667,4,ScrollUp,ScrollDown,Green.png,3,Positive,Incongruent,0,0,0,0,,,,,,,,,,,,,,,,,,,,,0,12,12,12,,,,,,,,,,,,,,,,,,,,,,,,,,,,,,,,,,,,,,,,,,,,,,,,,,,,,,,,,,,,,,,,,,,,,,,,,,,,,2,1.0038865997921675,425.75121219991706,None,ScrollUp,정답입니다,425.75121219991706,None,425.75121219991706,None,425.75121219991706,None,425.75121219991706,None,426.6459673999343,None,426.6459673999343,427.1474413999822,,,,,,,,,,,,,,,,131,2022-05-23_17h45.40.754,FishGame,2022.1.1,59.83115647238549,
,14,넌 낙관적이야,1,Orange,A,5.75,5.8,ScrollDown,ScrollUp,Orange.png,3,Positive,Congruent,0,0,0,0,,,,,,,,,,,,,,,,,,,,,0,13,13,13,,,,,,,,,,,,,,,,,,,,,,,,,,,,,,,,,,,,,,,,,,,,,,,,,,,,,,,,,,,,,,,,,,,,,,,,,,,,,1,0.8912583999335766,427.7871534000151,None,ScrollDown,정답입니다,427.7871534000151,None,427.7871534000151,None,427.7871534000151,None,427.7871534000151,None,428.5638226000592,None,428.5638226000592,429.063666400034,,,,,,,,,,,,,,,,131,2022-05-23_17h45.40.754,FishGame,2022.1.1,59.83115647238549,
,15,넌 산만해,4,Green,B,2.695652173913043,3.033333333333333,ScrollUp,ScrollDown,Green.png,3,Negative,Congruent,0,0,0,0,,,,,,,,,,,,,,,,,,,,,0,14,14,14,,,,,,,,,,,,,,,,,,,,,,,,,,,,,,,,,,,,,,,,,,,,,,,,,,,,,,,,,,,,,,,,,,,,,,,,,,,,,2,0.9948470999952406,429.697757499991,None,ScrollUp,정답입니다,429.697757499991,None,429.697757499991,None,429.697757499991,None,429.697757499991,None,430.5804536999203,None,430.5804536999203,431.0805899000261,,,,,,,,,,,,,,,,131,2022-05-23_17h45.40.754,FishGame,2022.1.1,59.83115647238549,
,16,나를 보내줘,6,Orange,A,0,0,ScrollUp,ScrollDown,Orange.png,3,NonTarget,NonTarget,0,0,0,0,,,,,,,,,,,,,,,,,,,,,0,15,15,15,,,,,,,,,,,,,,,,,,,,,,,,,,,,,,,,,,,,,,,,,,,,,,,,,,,,,,,,,,,,,,,,,,,,,,,,,,,,,2,1.3043629000894725,431.7204613999929,None,ScrollUp,정답입니다,431.7204613999929,None,431.7204613999929,None,431.7204613999929,None,431.7204613999929,None,432.91264369990677,None,432.91264369990677,433.41414020000957,,,,,,,,,,,,,,,,131,2022-05-23_17h45.40.754,FishGame,2022.1.1,59.83115647238549,
,17,넌 교활해,5,Green,B,2.333333333333333,2.133333333333333,ScrollUp,ScrollDown,Green.png,3,Negative,Congruent,0,0,0,0,,,,,,,,,,,,,,,,,,,,,0,16,16,16,,,,,,,,,,,,,,,,,,,,,,,,,,,,,,,,,,,,,,,,,,,,,,,,,,,,,,,,,,,,,,,,,,,,,,,,,,,,,1.8148148208856583,0.9691925998777151,434.0470310000237,None,ScrollUp,정답입니다,434.0470310000237,None,434.0470310000237,None,434.0470310000237,None,434.0470310000237,None,434.91233459999785,None,434.91233459999785,435.4144357999321,,,,,,,,,,,,,,,,131,2022-05-23_17h45.40.754,FishGame,2022.1.1,59.83115647238549,
,18,나를 보내줘,6,Orange,A,0,0,ScrollUp,ScrollDown,Orange.png,3,NonTarget,NonTarget,0,0,0,0,,,,,,,,,,,,,,,,,,,,,0,17,17,17,,,,,,,,,,,,,,,,,,,,,,,,,,,,,,,,,,,,,,,,,,,,,,,,,,,,,,,,,,,,,,,,,,,,,,,,,,,,,1,1.5846566001418978,436.052237899974,None,ScrollDown,오답입니다,436.052237899974,None,436.052237899974,None,436.052237899974,None,436.052237899974,None,437.5201673998963,None,437.5201673998963,438.0307261000853,,,,,,,,,,,,,,,,131,2022-05-23_17h45.40.754,FishGame,2022.1.1,59.83115647238549,
,19,넌 불친절해,5,Green,B,2.208333333333333,2.033333333333333,ScrollUp,ScrollDown,Green.png,3,Negative,Congruent,0,0,0,0,,,,,,,,,,,,,,,,,,,,,0,18,18,18,,,,,,,,,,,,,,,,,,,,,,,,,,,,,,,,,,,,,,,,,,,,,,,,,,,,,,,,,,,,,,,,,,,,,,,,,,,,,2,0.9073025998659432,438.6766810999252,None,ScrollUp,정답입니다,438.6766810999252,None,438.6766810999252,None,438.6766810999252,None,438.6766810999252,None,439.4643767999951,None,439.4643767999951,439.964143600082,,,,,,,,,,,,,,,,131,2022-05-23_17h45.40.754,FishGame,2022.1.1,59.83115647238549,
,20,넌 지적이야,2,Green,B,5.75,4.366666666666666,ScrollUp,ScrollDown,Green.png,3,Positive,Incongruent,0,0,0,0,,,,,,,,,,,,,,,,,,,,,0,19,19,19,,,,,,,,,,,,,,,,,,,,,,,,,,,,,,,,,,,,,,,,,,,,,,,,,,,,,,,,,,,,,,,,,,,,,,,,,,,,,2,0.8445188000332564,440.59977249987423,None,ScrollUp,정답입니다,440.59977249987423,None,440.59977249987423,None,440.59977249987423,None,440.59977249987423,None,441.3309414999094,None,441.3309414999094,441.8312488999218,,,,,,,,,,,,,,,,131,2022-05-23_17h45.40.754,FishGame,2022.1.1,59.83115647238549,
,21,넌 우유부단해,4,Orange,A,2.666666666666667,3.166666666666667,ScrollDown,ScrollUp,Orange.png,3,Negative,Incongruent,0,0,0,0,,,,,,,,,,,,,,,,,,,,,0,20,20,20,,,,,,,,,,,,,,,,,,,,,,,,,,,,,,,,,,,,,,,,,,,,,,,,,,,,,,,,,,,,,,,,,,,,,,,,,,,,,1,0.9274429997894913,442.47757399990223,None,ScrollDown,정답입니다,442.47757399990223,None,442.47757399990223,None,442.47757399990223,None,442.47757399990223,None,443.2807573999744,None,443.2807573999744,443.7807227000594,,,,,,,,,,,,,,,,131,2022-05-23_17h45.40.754,FishGame,2022.1.1,59.83115647238549,
,22,나를 데려가줘,6,Green,B,0,0,ScrollDown,ScrollUp,Green.png,3,NonTarget,NonTarget,0,0,0,0,,,,,,,,,,,,,,,,,,,,,0,21,21,21,,,,,,,,,,,,,,,,,,,,,,,,,,,,,,,,,,,,,,,,,,,,,,,,,,,,,,,,,,,,,,,,,,,,,,,,,,,,,1,1.3512046998366714,444.41240799985826,None,ScrollDown,정답입니다,444.41240799985826,None,444.41240799985826,None,444.41240799985826,None,444.41240799985826,None,445.65275419992395,None,445.65275419992395,446.1655963999219,,,,,,,,,,,,,,,,131,2022-05-23_17h45.40.754,FishGame,2022.1.1,59.83115647238549,
,23,넌 성실해,1,Green,B,6.041666666666666,5.7,ScrollUp,ScrollDown,Green.png,3,Positive,Incongruent,0,0,0,0,,,,,,,,,,,,,,,,,,,,,0,22,22,22,,,,,,,,,,,,,,,,,,,,,,,,,,,,,,,,,,,,,,,,,,,,,,,,,,,,,,,,,,,,,,,,,,,,,,,,,,,,,2,1.005837299861014,446.796541800024,None,ScrollUp,정답입니다,446.796541800024,None,446.796541800024,None,446.796541800024,None,446.796541800024,None,447.6964006999042,None,447.6964006999042,448.19808900007047,,,,,,,,,,,,,,,,131,2022-05-23_17h45.40.754,FishGame,2022.1.1,59.83115647238549,
,24,넌 현실주의적이야,3,Orange,A,4.625,4.4,ScrollDown,ScrollUp,Orange.png,3,Neutral,Neutral,0,0,0,0,,,,,,,,,,,,,,,,,,,,,0,23,23,23,,,,,,,,,,,,,,,,,,,,,,,,,,,,,,,,,,,,,,,,,,,,,,,,,,,,,,,,,,,,,,,,,,,,,,,,,,,,,1,1.0884231999516487,448.8353242999874,None,ScrollDown,정답입니다,448.8353242999874,None,448.8353242999874,None,448.8353242999874,None,448.8353242999874,None,449.81259480002336,None,449.81259480002336,450.3146472000517,,,,,,,,,,,,,,,,131,2022-05-23_17h45.40.754,FishGame,2022.1.1,59.83115647238549,
,25,넌 진실돼,1,Orange,A,6.625,5.566666666666666,ScrollDown,ScrollUp,Orange.png,3,Positive,Congruent,0,0,0,0,,,,,,,,,,,,,,,,,,,,,0,24,24,24,,,,,,,,,,,,,,,,,,,,,,,,,,,,,,,,,,,,,,,,,,,,,,,,,,,,,,,,,,,,,,,,,,,,,,,,,,,,,1,1.0791180999949574,450.9585450999439,None,ScrollDown,정답입니다,450.9585450999439,None,450.9585450999439,None,450.9585450999439,None,450.9585450999439,None,451.9168745998759,None,451.9168745998759,452.4312022998929,,,,,,,,,,,,,,,,131,2022-05-23_17h45.40.754,FishGame,2022.1.1,59.83115647238549,
,26,넌 천진난만해,3,Green,B,4.958333333333334,4.833333333333333,ScrollUp,ScrollDown,Green.png,3,Neutral,Neutral,0,0,0,0,,,,,,,,,,,,,,,,,,,,,0,25,25,25,,,,,,,,,,,,,,,,,,,,,,,,,,,,,,,,,,,,,,,,,,,,,,,,,,,,,,,,,,,,,,,,,,,,,,,,,,,,,2,1.001961400033906,453.0702645999845,None,ScrollUp,정답입니다,453.0702645999845,None,453.0702645999845,None,453.0702645999845,None,453.0702645999845,None,453.952493699966,None,453.952493699966,454.46546839992516,,,,,,,,,,,,,,,,131,2022-05-23_17h45.40.754,FishGame,2022.1.1,59.83115647238549,
,27,넌 교양없어,5,Orange,A,2.416666666666667,2.2,ScrollDown,ScrollUp,Orange.png,3,Negative,Incongruent,0,0,0,0,,,,,,,,,,,,,,,,,,,,,0,26,26,26,,,,,,,,,,,,,,,,,,,,,,,,,,,,,,,,,,,,,,,,,,,,,,,,,,,,,,,,,,,,,,,,,,,,,,,,,,,,,1,0.950007600011304,455.11246789991856,None,ScrollDown,정답입니다,455.11246789991856,None,455.11246789991856,None,455.11246789991856,None,455.11246789991856,None,455.9358198000118,None,455.9358198000118,456.44838079996407,,,,,,,,,,,,,,,,131,2022-05-23_17h45.40.754,FishGame,2022.1.1,59.83115647238549,
,28,나를 보내줘,6,Orange,A,0,0,ScrollUp,ScrollDown,Orange.png,3,NonTarget,NonTarget,0,0,0,0,,,,,,,,,,,,,,,,,,,,,0,27,27,27,,,,,,,,,,,,,,,,,,,,,,,,,,,,,,,,,,,,,,,,,,,,,,,,,,,,,,,,,,,,,,,,,,,,,,,,,,,,,2,1.2050912000704557,457.0820492000785,None,ScrollUp,정답입니다,457.0820492000785,None,457.0820492000785,None,457.0820492000785,None,457.0820492000785,None,458.1801189999096,None,458.1801189999096,458.6819674000144,,,,,,,,,,,,,,,,131,2022-05-23_17h45.40.754,FishGame,2022.1.1,59.83115647238549,
,29,넌 엉뚱스러워,3,Orange,A,4.166666666666667,4.133333333333334,ScrollDown,ScrollUp,Orange.png,3,Neutral,Neutral,0,0,0,0,,,,,,,,,,,,,,,,,,,,,0,28,28,28,,,,,,,,,,,,,,,,,,,,,,,,,,,,,,,,,,,,,,,,,,,,,,,,,,,,,,,,,,,,,,,,,,,,,,,,,,,,,1,1.0839837999083102,459.33143320004456,None,ScrollDown,정답입니다,459.33143320004456,None,459.33143320004456,None,459.33143320004456,None,459.33143320004456,None,460.2867570000235,None,460.2867570000235,460.7982733999379,,,,,,,,,,,,,,,,131,2022-05-23_17h45.40.754,FishGame,2022.1.1,59.83115647238549,
,30,넌 무지해,4,Green,B,2.541666666666667,3.066666666666667,ScrollUp,ScrollDown,Green.png,3,Negative,Congruent,0,0,0,0,,,,,,,,,,,,,,,,,,,,,0,29,29,29,,,,,,,,,,,,,,,,,,,,,,,,,,,,,,,,,,,,,,,,,,,,,,,,,,,,,,,,,,,,,,,,,,,,,,,,,,,,,2,1.6409346999134868,461.4306129999459,None,ScrollUp,정답입니다,461.4306129999459,None,461.4306129999459,None,461.4306129999459,None,461.4306129999459,None,462.96441669994965,None,462.96441669994965,463.46562030003406,,,,,,,,,,,,,,,,131,2022-05-23_17h45.40.754,FishGame,2022.1.1,59.83115647238549,
,31,넌 음울해,5,Green,B,2.25,2.233333333333333,ScrollUp,ScrollDown,Green.png,3,Negative,Congruent,0,0,0,0,,,,,,,,,,,,,,,,,,,,,0,30,30,30,,,,,,,,,,,,,,,,,,,,,,,,,,,,,,,,,,,,,,,,,,,,,,,,,,,,,,,,,,,,,,,,,,,,,,,,,,,,,2,0.9935751999728382,464.1028297999874,None,ScrollUp,정답입니다,464.1028297999874,None,464.1028297999874,None,464.1028297999874,None,464.1028297999874,None,464.9814750000369,None,464.9814750000369,465.4818490999751,,,,,,,,,,,,,,,,131,2022-05-23_17h45.40.754,FishGame,2022.1.1,59.83115647238549,
,32,넌 냉소적이야,5,Orange,A,2.916666666666667,2.4,ScrollDown,ScrollUp,Orange.png,3,Negative,Incongruent,0,0,0,0,,,,,,,,,,,,,,,,,,,,,0,31,31,31,,,,,,,,,,,,,,,,,,,,,,,,,,,,,,,,,,,,,,,,,,,,,,,,,,,,,,,,,,,,,,,,,,,,,,,,,,,,,1,0.9373271998483688,466.11978879990056,None,ScrollDown,정답입니다,466.11978879990056,None,466.11978879990056,None,466.11978879990056,None,466.11978879990056,None,466.9464147000108,None,466.9464147000108,467.4485500000883,,,,,,,,,,,,,,,,131,2022-05-23_17h45.40.754,FishGame,2022.1.1,59.83115647238549,
,33,나를 데려가줘,6,Green,B,0,0,ScrollDown,ScrollUp,Green.png,3,NonTarget,NonTarget,0,0,0,0,,,,,,,,,,,,,,,,,,,,,0,32,32,32,,,,,,,,,,,,,,,,,,,,,,,,,,,,,,,,,,,,,,,,,,,,,,,,,,,,,,,,,,,,,,,,,,,,,,,,,,,,,2,1.099544299999252,468.0825682999566,None,ScrollUp,오답입니다,468.0825682999566,None,468.0825682999566,None,468.0825682999566,None,468.0825682999566,None,469.0714650999289,None,469.0714650999289,469.58159379987046,,,,,,,,,,,,,,,,131,2022-05-23_17h45.40.754,FishGame,2022.1.1,59.83115647238549,
,34,넌 쾌활해,1,Orange,A,5.541666666666666,5.733333333333333,ScrollDown,ScrollUp,Orange.png,3,Positive,Congruent,0,0,0,0,,,,,,,,,,,,,,,,,,,,,0,33,33,33,,,,,,,,,,,,,,,,,,,,,,,,,,,,,,,,,,,,,,,,,,,,,,,,,,,,,,,,,,,,,,,,,,,,,,,,,,,,,1,1.0799318000208586,470.21624589990824,None,ScrollDown,정답입니다,470.21624589990824,None,470.21624589990824,None,470.21624589990824,None,470.21624589990824,None,471.1868006000295,None,471.1868006000295,471.6983061998617,,,,,,,,,,,,,,,,131,2022-05-23_17h45.40.754,FishGame,2022.1.1,59.83115647238549,
,35,나를 보내줘,6,Orange,A,0,0,ScrollUp,ScrollDown,Orange.png,3,NonTarget,NonTarget,0,0,0,0,,,,,,,,,,,,,,,,,,,,,0,34,34,34,,,,,,,,,,,,,,,,,,,,,,,,,,,,,,,,,,,,,,,,,,,,,,,,,,,,,,,,,,,,,,,,,,,,,,,,,,,,,1,1.2517228999640793,472.3329777000472,None,ScrollDown,오답입니다,472.3329777000472,None,472.3329777000472,None,472.3329777000472,None,472.3329777000472,None,473.4724149000831,None,473.4724149000831,473.98179119988345,,,,,,,,,,,,,,,,131,2022-05-23_17h45.40.754,FishGame,2022.1.1,59.83115647238549,
,36,넌 명랑해,1,Green,B,5.739130434782609,5.666666666666667,ScrollUp,ScrollDown,Green.png,3,Positive,Incongruent,0,0,0,0,,,,,,,,,,,,,,,,,,,,,0,35,35,35,,,,,,,,,,,,,,,,,,,,,,,,,,,,,,,,,,,,,,,,,,,,,,,,,,,,,,,,,,,,,,,,,,,,,,,,,,,,,2,1.0219380999915302,474.6186434000265,None,ScrollUp,정답입니다,474.6186434000265,None,474.6186434000265,None,474.6186434000265,None,474.6186434000265,None,475.5233382000588,None,475.5233382000588,476.0313333000522,,,,,,,,,,,,,,,,131,2022-05-23_17h45.40.754,FishGame,2022.1.1,59.83115647238549,
,37,넌 멍해,4,Orange,A,2.833333333333333,3.4,ScrollDown,ScrollUp,Orange.png,3,Negative,Incongruent,0,0,0,0,,,,,,,,,,,,,,,,,,,,,0,36,36,36,,,,,,,,,,,,,,,,,,,,,,,,,,,,,,,,,,,,,,,,,,,,,,,,,,,,,,,,,,,,,,,,,,,,,,,,,,,,,1,1.1372642999049276,476.6708364998922,None,ScrollDown,정답입니다,476.6708364998922,None,476.6708364998922,None,476.6708364998922,None,476.6708364998922,None,477.69693770003505,None,477.69693770003505,478.1985941999592,,,,,,,,,,,,,,,,131,2022-05-23_17h45.40.754,FishGame,2022.1.1,59.83115647238549,
,38,나를 데려가줘,6,Green,B,0,0,ScrollDown,ScrollUp,Green.png,3,NonTarget,NonTarget,0,0,0,0,,,,,,,,,,,,,,,,,,,,,0,37,37,37,,,,,,,,,,,,,,,,,,,,,,,,,,,,,,,,,,,,,,,,,,,,,,,,,,,,,,,,,,,,,,,,,,,,,,,,,,,,,2,1.1255814000032842,478.83254750003107,None,ScrollUp,오답입니다,478.83254750003107,None,478.83254750003107,None,478.83254750003107,None,478.83254750003107,None,479.8484308999032,None,479.8484308999032,480.34867729991674,,,,,,,,,,,,,,,,131,2022-05-23_17h45.40.754,FishGame,2022.1.1,59.83115647238549,
,39,넌 현명해,2,Orange,A,6.541666666666666,4.533333333333333,ScrollDown,ScrollUp,Orange.png,3,Positive,Congruent,0,0,0,0,,,,,,,,,,,,,,,,,,,,,0,38,38,38,,,,,,,,,,,,,,,,,,,,,,,,,,,,,,,,,,,,,,,,,,,,,,,,,,,,,,,,,,,,,,,,,,,,,,,,,,,,,1,1.221093300031498,480.9864407000132,None,ScrollDown,정답입니다,480.9864407000132,None,480.9864407000132,None,480.9864407000132,None,480.9864407000132,None,482.09083499992266,None,482.09083499992266,482.5987225000281,,,,,,,,,,,,,,,,131,2022-05-23_17h45.40.754,FishGame,2022.1.1,59.83115647238549,
,40,넌 수줍어,3,Green,B,3.541666666666666,4.366666666666666,ScrollUp,ScrollDown,Green.png,3,Neutral,Neutral,0,0,0,0,,,,,,,,,,,,,,,,,,,,,0,39,39,39,,,,,,,,,,,,,,,,,,,,,,,,,,,,,,,,,,,,,,,,,,,,,,,,,,,,,,,,,,,,,,,,,,,,,,,,,,,,,2,1.3990521000232548,483.23731640004553,None,ScrollUp,정답입니다,483.23731640004553,None,483.23731640004553,None,483.23731640004553,None,483.23731640004553,None,484.52083639986813,None,484.52083639986813,485.0322670999449,,,,,,,,,,,,,,,,131,2022-05-23_17h45.40.754,FishGame,2022.1.1,59.83115647238549,
,41,나를 데려가줘,6,Green,B,0,0,ScrollDown,ScrollUp,Green.png,3,NonTarget,NonTarget,0,0,0,0,,,,,,,,,,,,,,,,,,,,,0,40,40,40,,,,,,,,,,,,,,,,,,,,,,,,,,,,,,,,,,,,,,,,,,,,,,,,,,,,,,,,,,,,,,,,,,,,,,,,,,,,,1,1.063344300026074,485.6638185000047,None,ScrollDown,정답입니다,485.6638185000047,None,485.6638185000047,None,485.6638185000047,None,485.6638185000047,None,486.6186526999809,None,486.6186526999809,487.1323961999733,,,,,,,,,,,,,,,,131,2022-05-23_17h45.40.754,FishGame,2022.1.1,59.83115647238549,
,42,넌 성숙해,2,Green,B,5.833333333333333,4.533333333333333,ScrollUp,ScrollDown,Green.png,3,Positive,Incongruent,0,0,0,0,,,,,,,,,,,,,,,,,,,,,0,41,41,41,,,,,,,,,,,,,,,,,,,,,,,,,,,,,,,,,,,,,,,,,,,,,,,,,,,,,,,,,,,,,,,,,,,,,,,,,,,,,2,1.1859744999092072,487.76155900000595,None,ScrollUp,정답입니다,487.76155900000595,None,487.76155900000595,None,487.76155900000595,None,487.76155900000595,None,488.8469368000515,None,488.8469368000515,489.3487277000677,,,,,,,,,,,,,,,,131,2022-05-23_17h45.40.754,FishGame,2022.1.1,59.83115647238549,
,1,넌 매력적이야,2,Green,B,6.125,4.666666666666667,ScrollUp,ScrollDown,Green.png,4,Positive,Incongruent,0,0,0,0,,,,,,,,,,,,,,,,,,,,,,,,,0,0,0,0,,,,,,,,,,,,,,,,,,,,,,,,,,,,,,,,521.183178300038,522.6831135000102,522.7161655998789,523.6660624998622,523.7169099999592,524.6667563999072,524.6667563999072,None,,,,,,,,,,,,,,,,,,,,,,,,,,,,,,,,,,2,1.1183635999914259,525.830703600077,None,ScrollUp,정답입니다,525.830703600077,None,525.830703600077,None,525.830703600077,None,525.830703600077,None,526.782667200081,None,526.782667200081,527.2829577000812,489.84914850001223,None,489.84914850001223,None,-0.022222223,-0.072222225,1,0,0,0.01613674033433199,None,519.8497643000446,None,,,131,2022-05-23_17h45.40.754,FishGame,2022.1.1,59.83115647238549,
,2,나를 보내줘,6,Orange,A,0,0,ScrollUp,ScrollDown,Orange.png,4,NonTarget,NonTarget,0,0,0,0,,,,,,,,,,,,,,,,,,,,,,,,,0,1,1,1,,,,,,,,,,,,,,,,,,,,,,,,,,,,,,,,,,,,,,,,,,,,,,,,,,,,,,,,,,,,,,,,,,,,,,,,,2,1.2525279999244958,527.9186805000063,None,ScrollUp,정답입니다,527.9186805000063,None,527.9186805000063,None,527.9186805000063,None,527.9186805000063,None,529.0645822999068,None,529.0645822999068,529.5665517000016,,,,,,,,,,,,,,,,131,2022-05-23_17h45.40.754,FishGame,2022.1.1,59.83115647238549,
,3,넌 조심스러워,3,Orange,A,4.791666666666666,4.666666666666667,ScrollDown,ScrollUp,Orange.png,4,Neutral,Neutral,0,0,0,0,,,,,,,,,,,,,,,,,,,,,,,,,0,2,2,2,,,,,,,,,,,,,,,,,,,,,,,,,,,,,,,,,,,,,,,,,,,,,,,,,,,,,,,,,,,,,,,,,,,,,,,,,1,0.8459282999392599,530.2071282998659,None,ScrollDown,정답입니다,530.2071282998659,None,530.2071282998659,None,530.2071282998659,None,530.2071282998659,None,530.9359591999091,None,530.9359591999091,531.4499896999914,,,,,,,,,,,,,,,,131,2022-05-23_17h45.40.754,FishGame,2022.1.1,59.83115647238549,
,4,넌 철학적이야,3,Green,B,4.5,4.266666666666667,ScrollUp,ScrollDown,Green.png,4,Neutral,Neutral,0,0,0,0,,,,,,,,,,,,,,,,,,,,,,,,,0,3,3,3,,,,,,,,,,,,,,,,,,,,,,,,,,,,,,,,,,,,,,,,,,,,,,,,,,,,,,,,,,,,,,,,,,,,,,,,,2,1.116439500125125,532.0860752000008,None,ScrollUp,정답입니다,532.0860752000008,None,532.0860752000008,None,532.0860752000008,None,532.0860752000008,None,533.087674099952,None,533.087674099952,533.600170899881,,,,,,,,,,,,,,,,131,2022-05-23_17h45.40.754,FishGame,2022.1.1,59.83115647238549,
,5,넌 쩨쩨해,5,Orange,A,2.375,2.133333333333333,ScrollDown,ScrollUp,Orange.png,4,Negative,Incongruent,0,0,0,0,,,,,,,,,,,,,,,,,,,,,,,,,0,4,4,4,,,,,,,,,,,,,,,,,,,,,,,,,,,,,,,,,,,,,,,,,,,,,,,,,,,,,,,,,,,,,,,,,,,,,,,,,1,0.8932705998886377,534.2416858000215,None,ScrollDown,정답입니다,534.2416858000215,None,534.2416858000215,None,534.2416858000215,None,534.2416858000215,None,535.0167775000446,None,535.0167775000446,535.5166883999482,,,,,,,,,,,,,,,,131,2022-05-23_17h45.40.754,FishGame,2022.1.1,59.83115647238549,
,6,나를 데려가줘,6,Green,B,0,0,ScrollDown,ScrollUp,Green.png,4,NonTarget,NonTarget,0,0,0,0,,,,,,,,,,,,,,,,,,,,,,,,,0,5,5,5,,,,,,,,,,,,,,,,,,,,,,,,,,,,,,,,,,,,,,,,,,,,,,,,,,,,,,,,,,,,,,,,,,,,,,,,,1,1.1418068001512438,536.1522037000395,None,ScrollDown,정답입니다,536.1522037000395,None,536.1522037000395,None,536.1522037000395,None,536.1522037000395,None,537.1825415999629,None,537.1825415999629,537.6831821999513,,,,,,,,,,,,,,,,131,2022-05-23_17h45.40.754,FishGame,2022.1.1,59.83115647238549,
,7,넌 고집불통이야,5,Green,B,2.875,2,ScrollUp,ScrollDown,Green.png,4,Negative,Congruent,0,0,0,0,,,,,,,,,,,,,,,,,,,,,,,,,0,6,6,6,,,,,,,,,,,,,,,,,,,,,,,,,,,,,,,,,,,,,,,,,,,,,,,,,,,,,,,,,,,,,,,,,,,,,,,,,2,1.044282800052315,538.3319906999823,None,ScrollUp,정답입니다,538.3319906999823,None,538.3319906999823,None,538.3319906999823,None,538.3319906999823,None,539.2495536999777,None,539.2495536999777,539.7501566999126,,,,,,,,,,,,,,,,131,2022-05-23_17h45.40.754,FishGame,2022.1.1,59.83115647238549,
,8,넌 무심해,4,Orange,A,2.875,3.2,ScrollDown,ScrollUp,Orange.png,4,Negative,Incongruent,0,0,0,0,,,,,,,,,,,,,,,,,,,,,,,,,0,7,7,7,,,,,,,,,,,,,,,,,,,,,,,,,,,,,,,,,,,,,,,,,,,,,,,,,,,,,,,,,,,,,,,,,,,,,,,,,1,0.9989839000627398,540.3875718000345,None,ScrollDown,정답입니다,540.3875718000345,None,540.3875718000345,None,540.3875718000345,None,540.3875718000345,None,541.2722132999916,None,541.2722132999916,541.7831009998918,,,,,,,,,,,,,,,,131,2022-05-23_17h45.40.754,FishGame,2022.1.1,59.83115647238549,
,9,넌 정겨워,1,Orange,A,5.791666666666667,5.666666666666667,ScrollDown,ScrollUp,Orange.png,4,Positive,Congruent,0,0,0,0,,,,,,,,,,,,,,,,,,,,,,,,,0,8,8,8,,,,,,,,,,,,,,,,,,,,,,,,,,,,,,,,,,,,,,,,,,,,,,,,,,,,,,,,,,,,,,,,,,,,,,,,,1,0.932901700027287,542.4284025998786,None,ScrollDown,정답입니다,542.4284025998786,None,542.4284025998786,None,542.4284025998786,None,542.4284025998786,None,543.2378404999617,None,543.2378404999617,543.749560700031,,,,,,,,,,,,,,,,131,2022-05-23_17h45.40.754,FishGame,2022.1.1,59.83115647238549,
,10,나를 데려가줘,6,Green,B,0,0,ScrollDown,ScrollUp,Green.png,4,NonTarget,NonTarget,0,0,0,0,,,,,,,,,,,,,,,,,,,,,,,,,0,9,9,9,,,,,,,,,,,,,,,,,,,,,,,,,,,,,,,,,,,,,,,,,,,,,,,,,,,,,,,,,,,,,,,,,,,,,,,,,1,1.1933116000145674,544.3817467000335,None,ScrollDown,정답입니다,544.3817467000335,None,544.3817467000335,None,544.3817467000335,None,544.3817467000335,None,545.4669141999912,None,545.4669141999912,545.9667452999856,,,,,,,,,,,,,,,,131,2022-05-23_17h45.40.754,FishGame,2022.1.1,59.83115647238549,
,11,넌 체제순응적이야,4,Green,B,3,3.6,ScrollUp,ScrollDown,Green.png,4,Negative,Congruent,0,0,0,0,,,,,,,,,,,,,,,,,,,,,,,,,0,10,10,10,,,,,,,,,,,,,,,,,,,,,,,,,,,,,,,,,,,,,,,,,,,,,,,,,,,,,,,,,,,,,,,,,,,,,,,,,2,1.0153088998049498,546.6160933000501,None,ScrollUp,정답입니다,546.6160933000501,None,546.6160933000501,None,546.6160933000501,None,546.6160933000501,None,547.5052102999762,None,547.5052102999762,548.0172478000168,,,,,,,,,,,,,,,,131,2022-05-23_17h45.40.754,FishGame,2022.1.1,59.83115647238549,
,12,나를 보내줘,6,Orange,A,0,0,ScrollUp,ScrollDown,Orange.png,4,NonTarget,NonTarget,0,0,0,0,,,,,,,,,,,,,,,,,,,,,,,,,0,11,11,11,,,,,,,,,,,,,,,,,,,,,,,,,,,,,,,,,,,,,,,,,,,,,,,,,,,,,,,,,,,,,,,,,,,,,,,,,2,1.2335459999740124,548.6694843999576,None,ScrollUp,정답입니다,548.6694843999576,None,548.6694843999576,None,548.6694843999576,None,548.6694843999576,None,549.7720254000742,None,549.7720254000742,550.2833990000654,,,,,,,,,,,,,,,,131,2022-05-23_17h45.40.754,FishGame,2022.1.1,59.83115647238549,
,13,넌 박식해,2,Orange,A,5.625,3.933333333333333,ScrollDown,ScrollUp,Orange.png,4,Positive,Congruent,0,0,0,0,,,,,,,,,,,,,,,,,,,,,,,,,0,12,12,12,,,,,,,,,,,,,,,,,,,,,,,,,,,,,,,,,,,,,,,,,,,,,,,,,,,,,,,,,,,,,,,,,,,,,,,,,1,1.0052187000401318,550.9317534998991,None,ScrollDown,정답입니다,550.9317534998991,None,550.9317534998991,None,550.9317534998991,None,550.9317534998991,None,551.815432399977,None,551.815432399977,552.3168971999548,,,,,,,,,,,,,,,,131,2022-05-23_17h45.40.754,FishGame,2022.1.1,59.83115647238549,
,14,나를 보내줘,6,Orange,A,0,0,ScrollUp,ScrollDown,Orange.png,4,NonTarget,NonTarget,0,0,0,0,,,,,,,,,,,,,,,,,,,,,,,,,0,13,13,13,,,,,,,,,,,,,,,,,,,,,,,,,,,,,,,,,,,,,,,,,,,,,,,,,,,,,,,,,,,,,,,,,,,,,,,,,2,1.0019115000031888,552.9614456000272,None,ScrollUp,정답입니다,552.9614456000272,None,552.9614456000272,None,552.9614456000272,None,552.9614456000272,None,553.8378067999147,None,553.8378067999147,554.3503077998757,,,,,,,,,,,,,,,,131,2022-05-23_17h45.40.754,FishGame,2022.1.1,59.83115647238549,
,15,넌 침착해,1,Green,B,5.458333333333333,5.566666666666666,ScrollUp,ScrollDown,Green.png,4,Positive,Incongruent,0,0,0,0,,,,,,,,,,,,,,,,,,,,,,,,,0,14,14,14,,,,,,,,,,,,,,,,,,,,,,,,,,,,,,,,,,,,,,,,,,,,,,,,,,,,,,,,,,,,,,,,,,,,,,,,,2,1.0586081999354064,554.9932390998583,None,ScrollUp,정답입니다,554.9932390998583,None,554.9932390998583,None,554.9932390998583,None,554.9932390998583,None,555.933483999921,None,555.933483999921,556.4337402998935,,,,,,,,,,,,,,,,131,2022-05-23_17h45.40.754,FishGame,2022.1.1,59.83115647238549,
,16,나를 데려가줘,6,Green,B,0,0,ScrollDown,ScrollUp,Green.png,4,NonTarget,NonTarget,0,0,0,0,,,,,,,,,,,,,,,,,,,,,,,,,0,15,15,15,,,,,,,,,,,,,,,,,,,,,,,,,,,,,,,,,,,,,,,,,,,,,,,,,,,,,,,,,,,,,,,,,,,,,,,,,2,1.423644999973476,557.0661424000282,None,ScrollUp,오답입니다,557.0661424000282,None,557.0661424000282,None,557.0661424000282,None,557.0661424000282,None,558.3776078000665,None,558.3776078000665,558.8841156999115,,,,,,,,,,,,,,,,131,2022-05-23_17h45.40.754,FishGame,2022.1.1,59.83115647238549,
,17,넌 행복해,1,Orange,A,6.416666666666666,6.166666666666667,ScrollDown,ScrollUp,Orange.png,4,Positive,Congruent,0,0,0,0,,,,,,,,,,,,,,,,,,,,,,,,,0,16,16,16,,,,,,,,,,,,,,,,,,,,,,,,,,,,,,,,,,,,,,,,,,,,,,,,,,,,,,,,,,,,,,,,,,,,,,,,,1,1.0482369000092149,559.5324363000691,None,ScrollDown,정답입니다,559.5324363000691,None,559.5324363000691,None,559.5324363000691,None,559.5324363000691,None,560.4547158998903,None,560.4547158998903,560.9668435999192,,,,,,,,,,,,,,,,131,2022-05-23_17h45.40.754,FishGame,2022.1.1,59.83115647238549,
,18,넌 겸손해,2,Green,B,5.791666666666667,4.766666666666667,ScrollUp,ScrollDown,Green.png,4,Positive,Incongruent,0,0,0,0,,,,,,,,,,,,,,,,,,,,,,,,,0,17,17,17,,,,,,,,,,,,,,,,,,,,,,,,,,,,,,,,,,,,,,,,,,,,,,,,,,,,,,,,,,,,,,,,,,,,,,,,,2,1.0520576999988407,561.6062002000399,None,ScrollUp,정답입니다,561.6062002000399,None,561.6062002000399,None,561.6062002000399,None,561.6062002000399,None,562.5385274,None,562.5385274,563.0506972000003,,,,,,,,,,,,,,,,131,2022-05-23_17h45.40.754,FishGame,2022.1.1,59.83115647238549,
,19,나를 보내줘,6,Orange,A,0,0,ScrollUp,ScrollDown,Orange.png,4,NonTarget,NonTarget,0,0,0,0,,,,,,,,,,,,,,,,,,,,,,,,,0,18,18,18,,,,,,,,,,,,,,,,,,,,,,,,,,,,,,,,,,,,,,,,,,,,,,,,,,,,,,,,,,,,,,,,,,,,,,,,,2,1.1067712001968175,563.6893905000761,None,ScrollUp,정답입니다,563.6893905000761,None,563.6893905000761,None,563.6893905000761,None,563.6893905000761,None,564.6822653000709,None,564.6822653000709,565.1840377000626,,,,,,,,,,,,,,,,131,2022-05-23_17h45.40.754,FishGame,2022.1.1,59.83115647238549,
,20,넌 의심없어,3,Orange,A,4.166666666666667,4.6,ScrollDown,ScrollUp,Orange.png,4,Neutral,Neutral,0,0,0,0,,,,,,,,,,,,,,,,,,,,,,,,,0,19,19,19,,,,,,,,,,,,,,,,,,,,,,,,,,,,,,,,,,,,,,,,,,,,,,,,,,,,,,,,,,,,,,,,,,,,,,,,,1,1.0491736000403762,565.8228720000479,None,ScrollDown,정답입니다,565.8228720000479,None,565.8228720000479,None,565.8228720000479,None,565.8228720000479,None,566.7552713998593,None,566.7552713998593,567.2676661000587,,,,,,,,,,,,,,,,131,2022-05-23_17h45.40.754,FishGame,2022.1.1,59.83115647238549,
,21,넌 시시해,4,Orange,A,2.666666666666667,2.966666666666667,ScrollDown,ScrollUp,Orange.png,4,Negative,Incongruent,0,0,0,0,,,,,,,,,,,,,,,,,,,,,,,,,0,20,20,20,,,,,,,,,,,,,,,,,,,,,,,,,,,,,,,,,,,,,,,,,,,,,,,,,,,,,,,,,,,,,,,,,,,,,,,,,1,1.0042578999418765,567.9086360998917,None,ScrollDown,정답입니다,567.9086360998917,None,567.9086360998917,None,567.9086360998917,None,567.9086360998917,None,568.7991331999656,None,568.7991331999656,569.3008532999083,,,,,,,,,,,,,,,,131,2022-05-23_17h45.40.754,FishGame,2022.1.1,59.83115647238549,
,22,나를 데려가줘,6,Green,B,0,0,ScrollDown,ScrollUp,Green.png,4,NonTarget,NonTarget,0,0,0,0,,,,,,,,,,,,,,,,,,,,,,,,,0,21,21,21,,,,,,,,,,,,,,,,,,,,,,,,,,,,,,,,,,,,,,,,,,,,,,,,,,,,,,,,,,,,,,,,,,,,,,,,,2,0.9849655998405069,569.9346183999442,None,ScrollUp,오답입니다,569.9346183999442,None,569.9346183999442,None,569.9346183999442,None,569.9346183999442,None,570.8069760999642,None,570.8069760999642,571.3171508000232,,,,,,,,,,,,,,,,131,2022-05-23_17h45.40.754,FishGame,2022.1.1,59.83115647238549,
,23,넌 무정해,5,Orange,A,2.5,2.2,ScrollDown,ScrollUp,Orange.png,4,Negative,Incongruent,0,0,0,0,,,,,,,,,,,,,,,,,,,,,,,,,0,22,22,22,,,,,,,,,,,,,,,,,,,,,,,,,,,,,,,,,,,,,,,,,,,,,,,,,,,,,,,,,,,,,,,,,,,,,,,,,1,0.8393470000009984,571.95621199999,None,ScrollDown,정답입니다,571.95621199999,None,571.95621199999,None,571.95621199999,None,571.95621199999,None,572.6766349000391,None,572.6766349000391,573.1837207998615,,,,,,,,,,,,,,,,131,2022-05-23_17h45.40.754,FishGame,2022.1.1,59.83115647238549,
,24,넌 긍정적이야,1,Green,B,6.041666666666667,6.066666666666666,ScrollUp,ScrollDown,Green.png,4,Positive,Incongruent,0,0,0,0,,,,,,,,,,,,,,,,,,,,,,,,,0,23,23,23,,,,,,,,,,,,,,,,,,,,,,,,,,,,,,,,,,,,,,,,,,,,,,,,,,,,,,,,,,,,,,,,,,,,,,,,,2,1.1305996999144554,573.8273386000656,None,ScrollUp,정답입니다,573.8273386000656,None,573.8273386000656,None,573.8273386000656,None,573.8273386000656,None,574.8391287999693,None,574.8391287999693,575.3507024000864,,,,,,,,,,,,,,,,131,2022-05-23_17h45.40.754,FishGame,2022.1.1,59.83115647238549,
,25,나를 보내줘,6,Orange,A,0,0,ScrollUp,ScrollDown,Orange.png,4,NonTarget,NonTarget,0,0,0,0,,,,,,,,,,,,,,,,,,,,,,,,,0,24,24,24,,,,,,,,,,,,,,,,,,,,,,,,,,,,,,,,,,,,,,,,,,,,,,,,,,,,,,,,,,,,,,,,,,,,,,,,,2,1.1401955999899656,575.987524199998,None,ScrollUp,정답입니다,575.987524199998,None,575.987524199998,None,575.987524199998,None,575.987524199998,None,577.0173913000617,None,577.0173913000617,577.5174038000405,,,,,,,,,,,,,,,,131,2022-05-23_17h45.40.754,FishGame,2022.1.1,59.83115647238549,
,26,넌 시기심이 많아,5,Green,B,2.458333333333333,2.233333333333333,ScrollUp,ScrollDown,Green.png,4,Negative,Congruent,0,0,0,0,,,,,,,,,,,,,,,,,,,,,,,,,0,25,25,25,,,,,,,,,,,,,,,,,,,,,,,,,,,,,,,,,,,,,,,,,,,,,,,,,,,,,,,,,,,,,,,,,,,,,,,,,2,1.1519651000853628,578.1639729000162,None,ScrollUp,정답입니다,578.1639729000162,None,578.1639729000162,None,578.1639729000162,None,578.1639729000162,None,579.1991993000265,None,579.1991993000265,579.701071599964,,,,,,,,,,,,,,,,131,2022-05-23_17h45.40.754,FishGame,2022.1.1,59.83115647238549,
,27,넌 탁월해,2,Orange,A,5.708333333333334,4.5,ScrollDown,ScrollUp,Orange.png,4,Positive,Congruent,0,0,0,0,,,,,,,,,,,,,,,,,,,,,,,,,0,26,26,26,,,,,,,,,,,,,,,,,,,,,,,,,,,,,,,,,,,,,,,,,,,,,,,,,,,,,,,,,,,,,,,,,,,,,,,,,1.0246913532416027,0.8739126999862492,580.3458022999112,None,ScrollDown,정답입니다,580.3458022999112,None,580.3458022999112,None,580.3458022999112,None,580.3458022999112,None,581.1001935999375,None,581.1001935999375,581.6007034999784,,,,,,,,,,,,,,,,131,2022-05-23_17h45.40.754,FishGame,2022.1.1,59.83115647238549,
,28,나를 데려가줘,6,Green,B,0,0,ScrollDown,ScrollUp,Green.png,4,NonTarget,NonTarget,0,0,0,0,,,,,,,,,,,,,,,,,,,,,,,,,0,27,27,27,,,,,,,,,,,,,,,,,,,,,,,,,,,,,,,,,,,,,,,,,,,,,,,,,,,,,,,,,,,,,,,,,,,,,,,,,2,1.0577376999426633,582.2332385000773,None,ScrollUp,오답입니다,582.2332385000773,None,582.2332385000773,None,582.2332385000773,None,582.2332385000773,None,583.1840292999987,None,583.1840292999987,583.6840426998679,,,,,,,,,,,,,,,,131,2022-05-23_17h45.40.754,FishGame,2022.1.1,59.83115647238549,
,29,넌 조용해,3,Green,B,4.333333333333333,4.166666666666667,ScrollUp,ScrollDown,Green.png,4,Neutral,Neutral,0,0,0,0,,,,,,,,,,,,,,,,,,,,,,,,,0,28,28,28,,,,,,,,,,,,,,,,,,,,,,,,,,,,,,,,,,,,,,,,,,,,,,,,,,,,,,,,,,,,,,,,,,,,,,,,,2,1.036361400038004,584.3202585000545,None,ScrollUp,정답입니다,584.3202585000545,None,584.3202585000545,None,584.3202585000545,None,584.3202585000545,None,585.2400436999742,None,585.2400436999742,585.7509599998593,,,,,,,,,,,,,,,,131,2022-05-23_17h45.40.754,FishGame,2022.1.1,59.83115647238549,
,30,넌 다정해,1,Orange,A,5.833333333333334,5.7,ScrollDown,ScrollUp,Orange.png,4,Positive,Congruent,0,0,0,0,,,,,,,,,,,,,,,,,,,,,,,,,0,29,29,29,,,,,,,,,,,,,,,,,,,,,,,,,,,,,,,,,,,,,,,,,,,,,,,,,,,,,,,,,,,,,,,,,,,,,,,,,1.040123442808787,0.8892196998931468,586.3945871000178,None,ScrollDown,정답입니다,586.3945871000178,None,586.3945871000178,None,586.3945871000178,None,586.3945871000178,None,587.1675865999423,None,587.1675865999423,587.6674116000067,,,,,,,,,,,,,,,,131,2022-05-23_17h45.40.754,FishGame,2022.1.1,59.83115647238549,
,31,넌 능력있어,2,Green,B,6.166666666666666,4.6,ScrollUp,ScrollDown,Green.png,4,Positive,Incongruent,0,0,0,0,,,,,,,,,,,,,,,,,,,,,,,,,0,30,30,30,,,,,,,,,,,,,,,,,,,,,,,,,,,,,,,,,,,,,,,,,,,,,,,,,,,,,,,,,,,,,,,,,,,,,,,,,2,0.9383076000958681,588.2987196999602,None,ScrollUp,정답입니다,588.2987196999602,None,588.2987196999602,None,588.2987196999602,None,588.2987196999602,None,589.1323609000538,None,589.1323609000538,589.6347797999624,,,,,,,,,,,,,,,,131,2022-05-23_17h45.40.754,FishGame,2022.1.1,59.83115647238549,
,32,넌 불쾌해,5,Orange,A,2.125,1.933333333333333,ScrollDown,ScrollUp,Orange.png,4,Negative,Incongruent,0,0,0,0,,,,,,,,,,,,,,,,,,,,,,,,,0,31,31,31,,,,,,,,,,,,,,,,,,,,,,,,,,,,,,,,,,,,,,,,,,,,,,,,,,,,,,,,,,,,,,,,,,,,,,,,,1.0910493781169255,1.021635200129822,590.2702269998845,None,ScrollDown,정답입니다,590.2702269998845,None,590.2702269998845,None,590.2702269998845,None,590.2702269998845,None,591.183029100066,None,591.183029100066,591.684077099897,,,,,,,,,,,,,,,,131,2022-05-23_17h45.40.754,FishGame,2022.1.1,59.83115647238549,
,33,나를 데려가줘,6,Green,B,0,0,ScrollDown,ScrollUp,Green.png,4,NonTarget,NonTarget,0,0,0,0,,,,,,,,,,,,,,,,,,,,,,,,,0,32,32,32,,,,,,,,,,,,,,,,,,,,,,,,,,,,,,,,,,,,,,,,,,,,,,,,,,,,,,,,,,,,,,,,,,,,,,,,,1.060185174147288,1.9520236998796463,592.3160882000811,None,ScrollDown,정답입니다,592.3160882000811,None,592.3160882000811,None,592.3160882000811,None,592.3160882000811,None,594.1661058999598,None,594.1661058999598,594.6675732999574,,,,,,,,,,,,,,,,131,2022-05-23_17h45.40.754,FishGame,2022.1.1,59.83115647238549,
,34,넌 유순해,3,Orange,A,4.458333333333333,5,ScrollDown,ScrollUp,Orange.png,4,Neutral,Neutral,0,0,0,0,,,,,,,,,,,,,,,,,,,,,,,,,0,33,33,33,,,,,,,,,,,,,,,,,,,,,,,,,,,,,,,,,,,,,,,,,,,,,,,,,,,,,,,,,,,,,,,,,,,,,,,,,1,0.9606946001295,595.3010716000572,None,ScrollDown,정답입니다,595.3010716000572,None,595.3010716000572,None,595.3010716000572,None,595.3010716000572,None,596.151272200048,None,596.151272200048,596.6510819999967,,,,,,,,,,,,,,,,131,2022-05-23_17h45.40.754,FishGame,2022.1.1,59.83115647238549,
,35,넌 근심스러워,4,Green,B,2.708333333333333,3.133333333333333,ScrollUp,ScrollDown,Green.png,4,Negative,Congruent,0,0,0,0,,,,,,,,,,,,,,,,,,,,,,,,,0,34,34,34,,,,,,,,,,,,,,,,,,,,,,,,,,,,,,,,,,,,,,,,,,,,,,,,,,,,,,,,,,,,,,,,,,,,,,,,,2,1.0667920999694616,597.2884442999493,None,ScrollUp,정답입니다,597.2884442999493,None,597.2884442999493,None,597.2884442999493,None,597.2884442999493,None,598.2388071999885,None,598.2388071999885,598.7521077999845,,,,,,,,,,,,,,,,131,2022-05-23_17h45.40.754,FishGame,2022.1.1,59.83115647238549,
,36,넌 세련되었어,2,Orange,A,5.5,4.6,ScrollDown,ScrollUp,Orange.png,4,Positive,Congruent,0,0,0,0,,,,,,,,,,,,,,,,,,,,,,,,,0,35,35,35,,,,,,,,,,,,,,,,,,,,,,,,,,,,,,,,,,,,,,,,,,,,,,,,,,,,,,,,,,,,,,,,,,,,,,,,,1,1.093695699935779,599.4030967000872,None,ScrollDown,정답입니다,599.4030967000872,None,599.4030967000872,None,599.4030967000872,None,599.4030967000872,None,600.3679203998763,None,600.3679203998763,600.8682551998645,,,,,,,,,,,,,,,,131,2022-05-23_17h45.40.754,FishGame,2022.1.1,59.83115647238549,
,37,나를 보내줘,6,Orange,A,0,0,ScrollUp,ScrollDown,Orange.png,4,NonTarget,NonTarget,0,0,0,0,,,,,,,,,,,,,,,,,,,,,,,,,0,36,36,36,,,,,,,,,,,,,,,,,,,,,,,,,,,,,,,,,,,,,,,,,,,,,,,,,,,,,,,,,,,,,,,,,,,,,,,,,1.8888888905445735,1.400968800066039,601.5071181000676,None,ScrollUp,정답입니다,601.5071181000676,None,601.5071181000676,None,601.5071181000676,None,601.5071181000676,None,602.7993371000048,None,602.7993371000048,603.3013899999205,,,,,,,,,,,,,,,,131,2022-05-23_17h45.40.754,FishGame,2022.1.1,59.83115647238549,
,38,넌 확고해,3,Green,B,4.708333333333334,4.566666666666666,ScrollUp,ScrollDown,Green.png,4,Neutral,Neutral,0,0,0,0,,,,,,,,,,,,,,,,,,,,,,,,,0,37,37,37,,,,,,,,,,,,,,,,,,,,,,,,,,,,,,,,,,,,,,,,,,,,,,,,,,,,,,,,,,,,,,,,,,,,,,,,,1,1.400120599893853,603.9349380999338,None,ScrollDown,오답입니다,603.9349380999338,None,603.9349380999338,None,603.9349380999338,None,603.9349380999338,None,605.224481199868,None,605.224481199868,605.7349074999802,,,,,,,,,,,,,,,,131,2022-05-23_17h45.40.754,FishGame,2022.1.1,59.83115647238549,
,39,넌 이해심이 많아,1,Green,B,6.041666666666668,5.533333333333333,ScrollUp,ScrollDown,Green.png,4,Positive,Incongruent,0,0,0,0,,,,,,,,,,,,,,,,,,,,,,,,,0,38,38,38,,,,,,,,,,,,,,,,,,,,,,,,,,,,,,,,,,,,,,,,,,,,,,,,,,,,,,,,,,,,,,,,,,,,,,,,,2,1.3246691999956965,606.3658213000745,None,ScrollUp,정답입니다,606.3658213000745,None,606.3658213000745,None,606.3658213000745,None,606.3658213000745,None,607.5846507998649,None,607.5846507998649,608.0854094000533,,,,,,,,,,,,,,,,131,2022-05-23_17h45.40.754,FishGame,2022.1.1,59.83115647238549,
,40,나를 보내줘,6,Orange,A,0,0,ScrollUp,ScrollDown,Orange.png,4,NonTarget,NonTarget,0,0,0,0,,,,,,,,,,,,,,,,,,,,,,,,,0,39,39,39,,,,,,,,,,,,,,,,,,,,,,,,,,,,,,,,,,,,,,,,,,,,,,,,,,,,,,,,,,,,,,,,,,,,,,,,,1,1.1407319002319127,608.7280806000344,None,ScrollDown,오답입니다,608.7280806000344,None,608.7280806000344,None,608.7280806000344,None,608.7280806000344,None,609.7464550998993,None,609.7464550998993,610.2513562000822,,,,,,,,,,,,,,,,131,2022-05-23_17h45.40.754,FishGame,2022.1.1,59.83115647238549,
,41,넌 거칠어,4,Orange,A,2.625,3.033333333333333,ScrollDown,ScrollUp,Orange.png,4,Negative,Incongruent,0,0,0,0,,,,,,,,,,,,,,,,,,,,,,,,,0,40,40,40,,,,,,,,,,,,,,,,,,,,,,,,,,,,,,,,,,,,,,,,,,,,,,,,,,,,,,,,,,,,,,,,,,,,,,,,,1,1.121228499803692,610.8932002999354,None,ScrollDown,정답입니다,610.8932002999354,None,610.8932002999354,None,610.8932002999354,None,610.8932002999354,None,611.8939545000903,None,611.8939545000903,612.4015997999813,,,,,,,,,,,,,,,,131,2022-05-23_17h45.40.754,FishGame,2022.1.1,59.83115647238549,
,42,넌 변덕맞아,5,Green,B,2.75,2.166666666666667,ScrollUp,ScrollDown,Green.png,4,Negative,Congruent,0,0,0,0,,,,,,,,,,,,,,,,,,,,,,,,,0,41,41,41,,,,,,,,,,,,,,,,,,,,,,,,,,,,,,,,,,,,,,,,,,,,,,,,,,,,,,,,,,,,,,,,,,,,,,,,,2,0.9895520999561995,613.0473160999827,None,ScrollUp,정답입니다,613.0473160999827,None,613.0473160999827,None,613.0473160999827,None,613.0473160999827,None,613.9179938999005,None,613.9179938999005,614.4184741000645,,,,,,,,,,,,,,,,131,2022-05-23_17h45.40.754,FishGame,2022.1.1,59.83115647238549,
,43,나를 데려가줘,6,Green,B,0,0,ScrollDown,ScrollUp,Green.png,4,NonTarget,NonTarget,0,0,0,0,,,,,,,,,,,,,,,,,,,,,,,,,0,42,42,42,,,,,,,,,,,,,,,,,,,,,,,,,,,,,,,,,,,,,,,,,,,,,,,,,,,,,,,,,,,,,,,,,,,,,,,,,1,1.475576899945736,615.0520176999271,None,ScrollDown,정답입니다,615.0520176999271,None,615.0520176999271,None,615.0520176999271,None,615.0520176999271,None,616.4178436000366,None,616.4178436000366,616.918181899935,,,,,,,,,,,,,,,,131,2022-05-23_17h45.40.754,FishGame,2022.1.1,59.83115647238549,
,44,넌 외로워,4,Green,B,2.833333333333333,3.3,ScrollUp,ScrollDown,Green.png,4,Negative,Congruent,0,0,0,0,,,,,,,,,,,,,,,,,,,,,,,,,0,43,43,43,,,,,,,,,,,,,,,,,,,,,,,,,,,,,,,,,,,,,,,,,,,,,,,,,,,,,,,,,,,,,,,,,,,,,,,,,2,1.6941458000801504,617.5574225999881,None,ScrollUp,정답입니다,617.5574225999881,None,617.5574225999881,None,617.5574225999881,None,617.5574225999881,None,619.1349341999739,None,619.1349341999739,619.6353917000815,,,,,,,,,,,,,,,,131,2022-05-23_17h45.40.754,FishGame,2022.1.1,59.83115647238549,
,1,넌 불평스러워,5,Orange,A,2.25,2.066666666666667,ScrollDown,ScrollUp,Orange.png,5,Negative,Incongruent,0,0,0,0,,,,,,,,,,,,,,,,,,,,,,,,,,,,,0,0,0,0,,,,,,,,,,,,,,,,,,,,,,,,,,,,652.7522046000231,654.2523380999919,654.2861848000903,655.2362392998766,655.2861621999182,656.2362909000367,656.2362909000367,None,,,,,,,,,,,,,,,,,,,,,,,,,,,,,,,,,,1,1.399166400078684,657.401519499952,None,ScrollDown,정답입니다,657.401519499952,None,657.401519499952,None,657.401519499952,None,657.401519499952,None,658.6340357998852,None,658.6340357998852,659.1359852000605,620.1353474999778,None,620.1353474999778,None,0.25925925,-0.09351852,1,0,0,0.015679039992392063,None,650.1356967000756,None,,,131,2022-05-23_17h45.40.754,FishGame,2022.1.1,59.83115647238549,
,2,나를 보내줘,6,Orange,A,0,0,ScrollUp,ScrollDown,Orange.png,5,NonTarget,NonTarget,0,0,0,0,,,,,,,,,,,,,,,,,,,,,,,,,,,,,0,1,1,1,,,,,,,,,,,,,,,,,,,,,,,,,,,,,,,,,,,,,,,,,,,,,,,,,,,,,,,,,,,,,,,,,,,,,2,1.1382417001295835,659.7759944000281,None,ScrollUp,정답입니다,659.7759944000281,None,659.7759944000281,None,659.7759944000281,None,659.7759944000281,None,660.8004650999792,None,660.8004650999792,661.3023832000326,,,,,,,,,,,,,,,,131,2022-05-23_17h45.40.754,FishGame,2022.1.1,59.83115647238549,
,3,넌 다재다능해,2,Green,B,6.208333333333333,4.5,ScrollUp,ScrollDown,Green.png,5,Positive,Incongruent,0,0,0,0,,,,,,,,,,,,,,,,,,,,,,,,,,,,,0,2,2,2,,,,,,,,,,,,,,,,,,,,,,,,,,,,,,,,,,,,,,,,,,,,,,,,,,,,,,,,,,,,,,,,,,,,,2,0.9911065001506358,661.936014499981,None,ScrollUp,정답입니다,661.936014499981,None,661.936014499981,None,661.936014499981,None,661.936014499981,None,662.819034999935,None,662.819034999935,663.3195573000703,,,,,,,,,,,,,,,,131,2022-05-23_17h45.40.754,FishGame,2022.1.1,59.83115647238549,
,4,넌 과감해,3,Orange,A,4.833333333333334,4.6,ScrollDown,ScrollUp,Orange.png,5,Neutral,Neutral,0,0,0,0,,,,,,,,,,,,,,,,,,,,,,,,,,,,,0,3,3,3,,,,,,,,,,,,,,,,,,,,,,,,,,,,,,,,,,,,,,,,,,,,,,,,,,,,,,,,,,,,,,,,,,,,,1,0.826767599908635,663.953917699866,None,ScrollDown,정답입니다,663.953917699866,None,663.953917699866,None,663.953917699866,None,663.953917699866,None,664.6691353998613,None,664.6691353998613,665.1696919000242,,,,,,,,,,,,,,,,131,2022-05-23_17h45.40.754,FishGame,2022.1.1,59.83115647238549,
,5,넌 고분고분해,3,Green,B,3.75,4.033333333333333,ScrollUp,ScrollDown,Green.png,5,Neutral,Neutral,0,0,0,0,,,,,,,,,,,,,,,,,,,,,,,,,,,,,0,4,4,4,,,,,,,,,,,,,,,,,,,,,,,,,,,,,,,,,,,,,,,,,,,,,,,,,,,,,,,,,,,,,,,,,,,,,2,0.821651500184089,665.8122139999177,None,ScrollUp,정답입니다,665.8122139999177,None,665.8122139999177,None,665.8122139999177,None,665.8122139999177,None,666.5177734999452,None,666.5177734999452,667.0198041000403,,,,,,,,,,,,,,,,131,2022-05-23_17h45.40.754,FishGame,2022.1.1,59.83115647238549,
,6,나를 보내줘,6,Orange,A,0,0,ScrollUp,ScrollDown,Orange.png,5,NonTarget,NonTarget,0,0,0,0,,,,,,,,,,,,,,,,,,,,,,,,,,,,,0,5,5,5,,,,,,,,,,,,,,,,,,,,,,,,,,,,,,,,,,,,,,,,,,,,,,,,,,,,,,,,,,,,,,,,,,,,,2,1.1263061000499874,667.6538643999957,None,ScrollUp,정답입니다,667.6538643999957,None,667.6538643999957,None,667.6538643999957,None,667.6538643999957,None,668.6694092999678,None,668.6694092999678,669.1696840000805,,,,,,,,,,,,,,,,131,2022-05-23_17h45.40.754,FishGame,2022.1.1,59.83115647238549,
,7,넌 잘 잊어,4,Orange,A,3,3.7,ScrollDown,ScrollUp,Orange.png,5,Negative,Incongruent,0,0,0,0,,,,,,,,,,,,,,,,,,,,,,,,,,,,,0,6,6,6,,,,,,,,,,,,,,,,,,,,,,,,,,,,,,,,,,,,,,,,,,,,,,,,,,,,,,,,,,,,,,,,,,,,,1,1.0455838001798838,669.8247859000694,None,ScrollDown,정답입니다,669.8247859000694,None,669.8247859000694,None,669.8247859000694,None,669.8247859000694,None,670.7391115999781,None,670.7391115999781,671.2526340000331,,,,,,,,,,,,,,,,131,2022-05-23_17h45.40.754,FishGame,2022.1.1,59.83115647238549,
,8,넌 탐구심이없어,4,Green,B,2.833333333333333,3.066666666666667,ScrollUp,ScrollDown,Green.png,5,Negative,Congruent,0,0,0,0,,,,,,,,,,,,,,,,,,,,,,,,,,,,,0,7,7,7,,,,,,,,,,,,,,,,,,,,,,,,,,,,,,,,,,,,,,,,,,,,,,,,,,,,,,,,,,,,,,,,,,,,,2,1.0895295001100749,671.8923943000846,None,ScrollUp,정답입니다,671.8923943000846,None,671.8923943000846,None,671.8923943000846,None,671.8923943000846,None,672.868083700072,None,672.868083700072,673.3692802998703,,,,,,,,,,,,,,,,131,2022-05-23_17h45.40.754,FishGame,2022.1.1,59.83115647238549,
,9,나를 데려가줘,6,Green,B,0,0,ScrollDown,ScrollUp,Green.png,5,NonTarget,NonTarget,0,0,0,0,,,,,,,,,,,,,,,,,,,,,,,,,,,,,0,8,8,8,,,,,,,,,,,,,,,,,,,,,,,,,,,,,,,,,,,,,,,,,,,,,,,,,,,,,,,,,,,,,,,,,,,,,1,1.6563395000994205,673.9997260998935,None,ScrollDown,정답입니다,673.9997260998935,None,673.9997260998935,None,673.9997260998935,None,673.9997260998935,None,675.5507545999717,None,675.5507545999717,676.0536658000201,,,,,,,,,,,,,,,,131,2022-05-23_17h45.40.754,FishGame,2022.1.1,59.83115647238549,
,10,넌 참되어,2,Orange,A,6.041666666666664,4.733333333333333,ScrollDown,ScrollUp,Orange.png,5,Positive,Congruent,0,0,0,0,,,,,,,,,,,,,,,,,,,,,,,,,,,,,0,9,9,9,,,,,,,,,,,,,,,,,,,,,,,,,,,,,,,,,,,,,,,,,,,,,,,,,,,,,,,,,,,,,,,,,,,,,1,1.1579127998556942,676.6940144000109,None,ScrollDown,정답입니다,676.6940144000109,None,676.6940144000109,None,676.6940144000109,None,676.6940144000109,None,677.7358307999093,None,677.7358307999093,678.236660500057,,,,,,,,,,,,,,,,131,2022-05-23_17h45.40.754,FishGame,2022.1.1,59.83115647238549,
,11,넌 생기있어,1,Green,B,5.875,5.633333333333334,ScrollUp,ScrollDown,Green.png,5,Positive,Incongruent,0,0,0,0,,,,,,,,,,,,,,,,,,,,,,,,,,,,,0,10,10,10,,,,,,,,,,,,,,,,,,,,,,,,,,,,,,,,,,,,,,,,,,,,,,,,,,,,,,,,,,,,,,,,,,,,,1.751543199022611,0.8446432999335229,678.8761131998617,None,ScrollUp,정답입니다,678.8761131998617,None,678.8761131998617,None,678.8761131998617,None,678.8761131998617,None,679.6042832999956,None,679.6042832999956,680.1192695999052,,,,,,,,,,,,,,,,131,2022-05-23_17h45.40.754,FishGame,2022.1.1,59.83115647238549,
,12,넌 비사교적이야,4,Green,B,2.875,2.9,ScrollUp,ScrollDown,Green.png,5,Negative,Congruent,0,0,0,0,,,,,,,,,,,,,,,,,,,,,,,,,,,,,0,11,11,11,,,,,,,,,,,,,,,,,,,,,,,,,,,,,,,,,,,,,,,,,,,,,,,,,,,,,,,,,,,,,,,,,,,,,1.6759259278575578,0.9111515001859516,680.7352251999546,None,ScrollUp,정답입니다,680.7352251999546,None,680.7352251999546,None,680.7352251999546,None,680.7352251999546,None,681.5360212000087,None,681.5360212000087,682.036351100076,,,,,,,,,,,,,,,,131,2022-05-23_17h45.40.754,FishGame,2022.1.1,59.83115647238549,
,13,나를 데려가줘,6,Green,B,0,0,ScrollDown,ScrollUp,Green.png,5,NonTarget,NonTarget,0,0,0,0,,,,,,,,,,,,,,,,,,,,,,,,,,,,,0,12,12,12,,,,,,,,,,,,,,,,,,,,,,,,,,,,,,,,,,,,,,,,,,,,,,,,,,,,,,,,,,,,,,,,,,,,,1.1666666616996129,1.2977928000036627,682.6691177999601,None,ScrollDown,정답입니다,682.6691177999601,None,682.6691177999601,None,682.6691177999601,None,682.6691177999601,None,683.8584805000573,None,683.8584805000573,684.3699199000839,,,,,,,,,,,,,,,,131,2022-05-23_17h45.40.754,FishGame,2022.1.1,59.83115647238549,
,14,넌 고독해,4,Orange,A,2.916666666666667,3.233333333333333,ScrollDown,ScrollUp,Orange.png,5,Negative,Incongruent,0,0,0,0,,,,,,,,,,,,,,,,,,,,,,,,,,,,,0,13,13,13,,,,,,,,,,,,,,,,,,,,,,,,,,,,,,,,,,,,,,,,,,,,,,,,,,,,,,,,,,,,,,,,,,,,,1,1.0188285000622272,685.0070012998767,None,ScrollDown,정답입니다,685.0070012998767,None,685.0070012998767,None,685.0070012998767,None,685.0070012998767,None,685.9179185999092,None,685.9179185999092,686.4197481998708,,,,,,,,,,,,,,,,131,2022-05-23_17h45.40.754,FishGame,2022.1.1,59.83115647238549,
,15,넌 신경질적이야,5,Green,B,2.375,2.233333333333333,ScrollUp,ScrollDown,Green.png,5,Negative,Congruent,0,0,0,0,,,,,,,,,,,,,,,,,,,,,,,,,,,,,0,14,14,14,,,,,,,,,,,,,,,,,,,,,,,,,,,,,,,,,,,,,,,,,,,,,,,,,,,,,,,,,,,,,,,,,,,,,1.4243827164173126,0.8201583998743445,687.0572369999718,None,ScrollDown,오답입니다,687.0572369999718,None,687.0572369999718,None,687.0572369999718,None,687.0572369999718,None,687.7614599000663,None,687.7614599000663,688.26986390003,,,,,,,,,,,,,,,,131,2022-05-23_17h45.40.754,FishGame,2022.1.1,59.83115647238549,
,16,넌 똑똑해,2,Green,B,5.666666666666667,3.966666666666667,ScrollUp,ScrollDown,Green.png,5,Positive,Incongruent,0,0,0,0,,,,,,,,,,,,,,,,,,,,,,,,,,,,,0,15,15,15,,,,,,,,,,,,,,,,,,,,,,,,,,,,,,,,,,,,,,,,,,,,,,,,,,,,,,,,,,,,,,,,,,,,,2,1.5420301998965442,688.9031305999961,None,ScrollUp,정답입니다,688.9031305999961,None,688.9031305999961,None,688.9031305999961,None,688.9031305999961,None,690.331690599909,None,690.331690599909,690.8363592999522,,,,,,,,,,,,,,,,131,2022-05-23_17h45.40.754,FishGame,2022.1.1,59.83115647238549,
,17,나를 보내줘,6,Orange,A,0,0,ScrollUp,ScrollDown,Orange.png,5,NonTarget,NonTarget,0,0,0,0,,,,,,,,,,,,,,,,,,,,,,,,,,,,,0,16,16,16,,,,,,,,,,,,,,,,,,,,,,,,,,,,,,,,,,,,,,,,,,,,,,,,,,,,,,,,,,,,,,,,,,,,,2,1.3728295001201332,691.481544099981,None,ScrollUp,정답입니다,691.481544099981,None,691.481544099981,None,691.481544099981,None,691.481544099981,None,692.7349771000445,None,692.7349771000445,693.23648219998,,,,,,,,,,,,,,,,131,2022-05-23_17h45.40.754,FishGame,2022.1.1,59.83115647238549,
,18,넌 협조적이야,1,Orange,A,5.625,5.666666666666667,ScrollDown,ScrollUp,Orange.png,5,Positive,Congruent,0,0,0,0,,,,,,,,,,,,,,,,,,,,,,,,,,,,,0,17,17,17,,,,,,,,,,,,,,,,,,,,,,,,,,,,,,,,,,,,,,,,,,,,,,,,,,,,,,,,,,,,,,,,,,,,,1,1.0716266999952495,693.8756357999519,None,ScrollDown,정답입니다,693.8756357999519,None,693.8756357999519,None,693.8756357999519,None,693.8756357999519,None,694.8352143000811,None,694.8352143000811,695.3370552000124,,,,,,,,,,,,,,,,131,2022-05-23_17h45.40.754,FishGame,2022.1.1,59.83115647238549,
,19,나를 데려가줘,6,Green,B,0,0,ScrollDown,ScrollUp,Green.png,5,NonTarget,NonTarget,0,0,0,0,,,,,,,,,,,,,,,,,,,,,,,,,,,,,0,18,18,18,,,,,,,,,,,,,,,,,,,,,,,,,,,,,,,,,,,,,,,,,,,,,,,,,,,,,,,,,,,,,,,,,,,,,1,1.8668127998244017,695.970873999875,None,ScrollDown,정답입니다,695.970873999875,None,695.970873999875,None,695.970873999875,None,695.970873999875,None,697.7245986000635,None,697.7245986000635,698.2371270998847,,,,,,,,,,,,,,,,131,2022-05-23_17h45.40.754,FishGame,2022.1.1,59.83115647238549,
,20,넌 몰인정해,5,Green,B,2.541666666666667,2.066666666666667,ScrollUp,ScrollDown,Green.png,5,Negative,Congruent,0,0,0,0,,,,,,,,,,,,,,,,,,,,,,,,,,,,,0,19,19,19,,,,,,,,,,,,,,,,,,,,,,,,,,,,,,,,,,,,,,,,,,,,,,,,,,,,,,,,,,,,,,,,,,,,,2,1.750854599988088,698.8734998998698,None,ScrollUp,정답입니다,698.8734998998698,None,698.8734998998698,None,698.8734998998698,None,698.8734998998698,None,700.5080794999376,None,700.5080794999376,701.0203460999765,,,,,,,,,,,,,,,,131,2022-05-23_17h45.40.754,FishGame,2022.1.1,59.83115647238549,
,21,나를 데려가줘,6,Green,B,0,0,ScrollDown,ScrollUp,Green.png,5,NonTarget,NonTarget,0,0,0,0,,,,,,,,,,,,,,,,,,,,,,,,,,,,,0,20,20,20,,,,,,,,,,,,,,,,,,,,,,,,,,,,,,,,,,,,,,,,,,,,,,,,,,,,,,,,,,,,,,,,,,,,,2,1.1802141999360174,701.6532540000044,None,ScrollUp,오답입니다,701.6532540000044,None,701.6532540000044,None,701.6532540000044,None,701.6532540000044,None,702.7200921999756,None,702.7200921999756,703.2200128999539,,,,,,,,,,,,,,,,131,2022-05-23_17h45.40.754,FishGame,2022.1.1,59.83115647238549,
,22,넌 순진해,3,Green,B,4.125,4.166666666666667,ScrollUp,ScrollDown,Green.png,5,Neutral,Neutral,0,0,0,0,,,,,,,,,,,,,,,,,,,,,,,,,,,,,0,21,21,21,,,,,,,,,,,,,,,,,,,,,,,,,,,,,,,,,,,,,,,,,,,,,,,,,,,,,,,,,,,,,,,,,,,,,1.9135802388191223,1.1984872999601066,703.852874299977,None,ScrollUp,정답입니다,703.852874299977,None,703.852874299977,None,703.852874299977,None,703.852874299977,None,704.9422819998581,None,704.9422819998581,705.4537599999458,,,,,,,,,,,,,,,,131,2022-05-23_17h45.40.754,FishGame,2022.1.1,59.83115647238549,
,23,넌 신뢰할만해,1,Orange,A,6.625,5.533333333333333,ScrollDown,ScrollUp,Orange.png,5,Positive,Congruent,0,0,0,0,,,,,,,,,,,,,,,,,,,,,,,,,,,,,0,22,22,22,,,,,,,,,,,,,,,,,,,,,,,,,,,,,,,,,,,,,,,,,,,,,,,,,,,,,,,,,,,,,,,,,,,,,1,1.2259513000026345,706.100554900011,None,ScrollDown,정답입니다,706.100554900011,None,706.100554900011,None,706.100554900011,None,706.100554900011,None,707.2037887999322,None,707.2037887999322,707.7037217000034,,,,,,,,,,,,,,,,131,2022-05-23_17h45.40.754,FishGame,2022.1.1,59.83115647238549,
,24,나를 보내줘,6,Orange,A,0,0,ScrollUp,ScrollDown,Orange.png,5,NonTarget,NonTarget,0,0,0,0,,,,,,,,,,,,,,,,,,,,,,,,,,,,,0,23,23,23,,,,,,,,,,,,,,,,,,,,,,,,,,,,,,,,,,,,,,,,,,,,,,,,,,,,,,,,,,,,,,,,,,,,,2,1.1932309998665005,708.3403666000813,None,ScrollUp,정답입니다,708.3403666000813,None,708.3403666000813,None,708.3403666000813,None,708.3403666000813,None,709.4205209000502,None,709.4205209000502,709.9210929998662,,,,,,,,,,,,,,,,131,2022-05-23_17h45.40.754,FishGame,2022.1.1,59.83115647238549,
,25,넌 인색해,5,Orange,A,2.625,2.233333333333333,ScrollDown,ScrollUp,Orange.png,5,Negative,Incongruent,0,0,0,0,,,,,,,,,,,,,,,,,,,,,,,,,,,,,0,24,24,24,,,,,,,,,,,,,,,,,,,,,,,,,,,,,,,,,,,,,,,,,,,,,,,,,,,,,,,,,,,,,,,,,,,,,1,1.1265722999814898,710.5636817999184,None,ScrollDown,정답입니다,710.5636817999184,None,710.5636817999184,None,710.5636817999184,None,710.5636817999184,None,711.5700701000169,None,711.5700701000169,712.0705369999632,,,,,,,,,,,,,,,,131,2022-05-23_17h45.40.754,FishGame,2022.1.1,59.83115647238549,
,26,넌 유쾌해,1,Green,B,5.833333333333333,5.766666666666667,ScrollUp,ScrollDown,Green.png,5,Positive,Incongruent,0,0,0,0,,,,,,,,,,,,,,,,,,,,,,,,,,,,,0,25,25,25,,,,,,,,,,,,,,,,,,,,,,,,,,,,,,,,,,,,,,,,,,,,,,,,,,,,,,,,,,,,,,,,,,,,,1.9012345770994823,1.2702266999986023,712.7025355000515,None,ScrollUp,정답입니다,712.7025355000515,None,712.7025355000515,None,712.7025355000515,None,712.7025355000515,None,713.8685465999879,None,713.8685465999879,714.3702907999977,,,,,,,,,,,,,,,,131,2022-05-23_17h45.40.754,FishGame,2022.1.1,59.83115647238549,
,27,나를 보내줘,6,Orange,A,0,0,ScrollUp,ScrollDown,Orange.png,5,NonTarget,NonTarget,0,0,0,0,,,,,,,,,,,,,,,,,,,,,,,,,,,,,0,26,26,26,,,,,,,,,,,,,,,,,,,,,,,,,,,,,,,,,,,,,,,,,,,,,,,,,,,,,,,,,,,,,,,,,,,,,1.6111111169060073,0.8672086999285966,715.0057165999897,None,ScrollUp,정답입니다,715.0057165999897,None,715.0057165999897,None,715.0057165999897,None,715.0057165999897,None,715.7582574000116,None,715.7582574000116,716.270443999907,,,,,,,,,,,,,,,,131,2022-05-23_17h45.40.754,FishGame,2022.1.1,59.83115647238549,
