name,TrialNum,Word,WordCategory,FishType,WordList,WordValence,WordReputation,CorrectResp,IncorrectResp,FishTypeFile,Round,WordType,Condition,LoopforOrange.thisRepN,LoopforOrange.thisTrialN,LoopforOrange.thisN,LoopforOrange.thisIndex,LoopForGreen.thisRepN,LoopForGreen.thisTrialN,LoopForGreen.thisN,LoopForGreen.thisIndex,GreenInstLoop.thisRepN,GreenInstLoop.thisTrialN,GreenInstLoop.thisN,GreenInstLoop.thisIndex,GreenPrac.thisRepN,GreenPrac.thisTrialN,GreenPrac.thisN,GreenPrac.thisIndex,trials_2.thisRepN,trials_2.thisTrialN,trials_2.thisN,trials_2.thisIndex,GreenRound1.thisRepN,GreenRound1.thisTrialN,GreenRound1.thisN,GreenRound1.thisIndex,GreenRound2.thisRepN,GreenRound2.thisTrialN,GreenRound2.thisN,GreenRound2.thisIndex,GreenRound3.thisRepN,GreenRound3.thisTrialN,GreenRound3.thisN,GreenRound3.thisIndex,GreenRound4.thisRepN,GreenRound4.thisTrialN,GreenRound4.thisN,GreenRound4.thisIndex,GreenRound5.thisRepN,GreenRound5.thisTrialN,GreenRound5.thisN,GreenRound5.thisIndex,text_2.started,text_2.stopped,text_3.started,text_3.stopped,key_resp.keys,key_resp.rt,key_resp.started,key_resp.stopped,PassI.started,PassI.stopped,PassInst.keys,PassInst.rt,PassInst.started,PassInst.stopped,mouse_2.x,mouse_2.y,mouse_2.leftButton,mouse_2.midButton,mouse_2.rightButton,mouse_2.started,mouse_2.stopped,image.started,image.stopped,text_5.started,text_5.stopped,text_6.started,text_6.stopped,text_7.started,text_7.stopped,text_8.started,text_8.stopped,slider_3.response,slider_3.rt,slider_3.started,slider_3.stopped,Response_3,Feedback_3,BackGround_3.started,BackGround_3.stopped,Fish_3.started,Fish_3.stopped,WordBox_3.started,WordBox_3.stopped,Words_3.started,Words_3.stopped,BackGround_Feedback_3.started,BackGround_Feedback_3.stopped,Feedbacks_3.started,Feedbacks_3.stopped,Continue_or_not_2.keys,Continue_or_not_2.rt,Continue_or_not_2.started,Continue_or_not_2.stopped,image_4.started,image_4.stopped,mouse_3.x,mouse_3.y,mouse_3.leftButton,mouse_3.midButton,mouse_3.rightButton,mouse_3.started,mouse_3.stopped,startmain.started,startmain.stopped,slider_4.response,slider_4.rt,slider_4.started,slider_4.stopped,Response_4,Feedback_4,BackGround_4.started,BackGround_4.stopped,Fish_4.started,Fish_4.stopped,WordBox_4.started,WordBox_4.stopped,Words_4.started,Words_4.stopped,BackGround_Feedback_4.started,BackGround_Feedback_4.stopped,Feedbacks_4.started,Feedbacks_4.stopped,text.started,text.stopped,break_interval.started,break_interval.stopped,mouse.x,mouse.y,mouse.leftButton,mouse.midButton,mouse.rightButton,mouse.started,mouse.stopped,stratnextround.started,stratnextround.stopped,endgame.started,endgame.stopped,participant,date,expName,psychopyVersion,frameRate,
,,,,,,,,,,,,,,,,,,,,,,,,,,,,,,,,,,,,,,,,,,,,,,,,,,,,,,24.6902125000488,None,24.6902125000488,None,space,1.2018744996748865,25.153142800088972,None,,,,,,,,,,,,,,,,,,,,,,,,,,,,,,,,,,,,,,,,,,,,,,,,,,,,,,,,,,,,,,,,,,,,,,,,,,,,,,,,,,,,,,,,,,132,2022-05-17_16h56.09.348,FishGame,2022.1.1,59.96436913789378,
물고기과제_instruction(참가자용)GreenVersion.mp4,,,,,,,,,,,,,,,,,,0,0,0,0,0,0,0,0,,,,,,,,,,,,,,,,,,,,,,,,,,,,,,,,,,,,,93.46976080001332,None,n,5.113894899841398,93.46976080001332,None,,,,,,,,,,,,,,,,,,,,,,,,,,,,,,,,,,,,,,,,,,,,,,,,,,,,,,,,,,,,,,,,,,,,,,,,,,,,,,,,,,,,132,2022-05-17_16h56.09.348,FishGame,2022.1.1,59.96436913789378,
,1,넌 교활해,5,Orange,B,2.333333333333333,2.133333333333333,ScrollUp,ScrollDown,Orange.png,practice,,,,,,,0,0,0,0,,,,,0,0,0,0,0,0,0,0,,,,,,,,,,,,,,,,,,,,,,,,,,,,,,,,,,,0.08981481,-0.19907407,1,0,0,0.5137501303106546,None,98.60466579999775,None,100.93816970009357,102.43814640003256,102.47143759997562,103.42183940019459,103.47153640002944,104.4216881999746,104.4216881999746,None,2,1.7656927001662552,105.59510880010203,None,ScrollUp,정답입니다,105.59510880010203,None,105.59510880010203,None,105.59510880010203,None,105.59510880010203,None,107.18600830016658,None,107.18600830016658,107.68819970008917,,,,,,,,,,,,,,,,,,,,,,,,,,,,,,,,,,,,,,,,,,,,,,,,,132,2022-05-17_16h56.09.348,FishGame,2022.1.1,59.96436913789378,
,2,넌 슬기로워,2,Green,A,6.166666666666667,4.1,ScrollDown,ScrollUp,Green.png,practice,,,,,,,0,0,0,0,,,,,0,0,0,0,0,1,1,1,,,,,,,,,,,,,,,,,,,,,,,,,,,,,,,,,,,,,,,,,,,,,,,,,,,,1,1.2244520999956876,108.34314310015179,None,ScrollDown,정답입니다,108.34314310015179,None,108.34314310015179,None,108.34314310015179,None,108.34314310015179,None,109.43816350004636,None,109.43816350004636,109.93821809999645,,,,,,,,,,,,,,,,,,,,,,,,,,,,,,,,,,,,,,,,,,,,,,,,,132,2022-05-17_16h56.09.348,FishGame,2022.1.1,59.96436913789378,
,3,나를 보내줘,6,Green,A,0,0,ScrollUp,ScrollDown,Green.png,practice,,,,,,,0,0,0,0,,,,,0,0,0,0,0,2,2,2,,,,,,,,,,,,,,,,,,,,,,,,,,,,,,,,,,,,,,,,,,,,,,,,,,,,2,1.1041822000406682,110.58035390009172,None,ScrollUp,정답입니다,110.58035390009172,None,110.58035390009172,None,110.58035390009172,None,110.58035390009172,None,111.57156040007249,None,111.57156040007249,112.07160700019449,,,,,,,,,,,,,,,,,,,,,,,,,,,,,,,,,,,,,,,,,,,,,,,,,132,2022-05-17_16h56.09.348,FishGame,2022.1.1,59.96436913789378,
,4,나를 데려가줘,6,Orange,B,0,0,ScrollDown,ScrollUp,Orange.png,practice,,,,,,,0,0,0,0,,,,,0,0,0,0,0,3,3,3,,,,,,,,,,,,,,,,,,,,,,,,,,,,,,,,,,,,,,,,,,,,,,,,,,,,1,1.0121417997870594,112.71813080017455,None,ScrollDown,정답입니다,112.71813080017455,None,112.71813080017455,None,112.71813080017455,None,112.71813080017455,None,113.60510480008088,None,113.60510480008088,114.10509840003215,,,,,,,,,,,,,,,,,,,,,,,,,,,,,,,,,,,,,,,,,,,,,,,,,132,2022-05-17_16h56.09.348,FishGame,2022.1.1,59.96436913789378,
,1,넌 교활해,5,Orange,B,2.333333333333333,2.133333333333333,ScrollUp,ScrollDown,Orange.png,practice,,,,,,,0,0,0,0,,,,,0,0,0,0,,,,,,,,,,,,,,,,,,,,,,,,,,,,,,,,,,,,,,,,,,,,,,,,,,,,,,,,,,,,,,,,,,,,,,,,,,n,24.716113599715754,114.60496650007553,None,114.60496650007553,None,,,,,,,,,,,,,,,,,,,,,,,,,,,,,,,,,,,,,,,,,,,132,2022-05-17_16h56.09.348,FishGame,2022.1.1,59.96436913789378,
,1,넌 따뜻해,1,Orange,B,6.083333333333333,5.6,ScrollUp,ScrollDown,Orange.png,1,Positive,Incongruent,,,,,0,0,0,0,,,,,,,,,,,,,0,0,0,0,,,,,,,,,,,,,,,,,,,,,,,,,,,,,,,,,,,,,,,,141.1223126000259,142.62237480003387,142.6559349000454,143.606042600004,143.65593800018542,144.6059807999991,144.6059807999991,None,,,,,,,,,,,,,,,,,,,,,,,,,0.08888889,-0.17962962,1,0,0,0.313534629996866,None,139.33918910007924,None,2,1.3855353998951614,145.79877470014617,None,ScrollUp,정답입니다,145.79877470014617,None,145.79877470014617,None,145.79877470014617,None,145.79877470014617,None,146.9882722001057,None,146.9882722001057,147.48904470005073,,,,,,,,,,,,,,,,132,2022-05-17_16h56.09.348,FishGame,2022.1.1,59.96436913789378,
,2,넌 기품있어,2,Orange,B,5.791666666666668,4.5,ScrollUp,ScrollDown,Orange.png,1,Positive,Incongruent,,,,,0,0,0,0,,,,,,,,,,,,,0,1,1,1,,,,,,,,,,,,,,,,,,,,,,,,,,,,,,,,,,,,,,,,,,,,,,,,,,,,,,,,,,,,,,,,,,,,,,,,,,,,,,,,,2,1.2450842000544071,148.15502050006762,None,ScrollUp,정답입니다,148.15502050006762,None,148.15502050006762,None,148.15502050006762,None,148.15502050006762,None,149.2557443000842,None,149.2557443000842,149.7561016001273,,,,,,,,,,,,,,,,132,2022-05-17_16h56.09.348,FishGame,2022.1.1,59.96436913789378,
,3,나를 보내줘,6,Green,A,0,0,ScrollUp,ScrollDown,Green.png,1,NonTarget,NonTarget,,,,,0,0,0,0,,,,,,,,,,,,,0,2,2,2,,,,,,,,,,,,,,,,,,,,,,,,,,,,,,,,,,,,,,,,,,,,,,,,,,,,,,,,,,,,,,,,,,,,,,,,,,,,,,,,,2,1.3265652998816222,150.41051730001345,None,ScrollUp,정답입니다,150.41051730001345,None,150.41051730001345,None,150.41051730001345,None,150.41051730001345,None,151.6058760001324,None,151.6058760001324,152.1059622000903,,,,,,,,,,,,,,,,132,2022-05-17_16h56.09.348,FishGame,2022.1.1,59.96436913789378,
,4,넌 수동적이야,4,Green,A,2.833333333333333,2.933333333333333,ScrollDown,ScrollUp,Green.png,1,Negative,Incongruent,,,,,0,0,0,0,,,,,,,,,,,,,0,3,3,3,,,,,,,,,,,,,,,,,,,,,,,,,,,,,,,,,,,,,,,,,,,,,,,,,,,,,,,,,,,,,,,,,,,,,,,,,,,,,,,,,1,1.0434501999989152,152.7673335999716,None,ScrollDown,정답입니다,152.7673335999716,None,152.7673335999716,None,152.7673335999716,None,152.7673335999716,None,153.6724892000202,None,153.6724892000202,154.17257770011202,,,,,,,,,,,,,,,,132,2022-05-17_16h56.09.348,FishGame,2022.1.1,59.96436913789378,
,5,넌 사심이 없어,3,Orange,B,4.916666666666666,4.333333333333333,ScrollUp,ScrollDown,Orange.png,1,Neutral,Neutral,,,,,0,0,0,0,,,,,,,,,,,,,0,4,4,4,,,,,,,,,,,,,,,,,,,,,,,,,,,,,,,,,,,,,,,,,,,,,,,,,,,,,,,,,,,,,,,,,,,,,,,,,,,,,,,,,2,1.1864894998725504,154.83318990003318,None,ScrollUp,정답입니다,154.83318990003318,None,154.83318990003318,None,154.83318990003318,None,154.83318990003318,None,155.8874367000535,None,155.8874367000535,156.3892793999985,,,,,,,,,,,,,,,,132,2022-05-17_16h56.09.348,FishGame,2022.1.1,59.96436913789378,
,6,넌 헤퍼,5,Green,A,2.458333333333334,2.233333333333333,ScrollDown,ScrollUp,Green.png,1,Negative,Incongruent,,,,,0,0,0,0,,,,,,,,,,,,,0,5,5,5,,,,,,,,,,,,,,,,,,,,,,,,,,,,,,,,,,,,,,,,,,,,,,,,,,,,,,,,,,,,,,,,,,,,,,,,,,,,,,,,,1,0.9204456000588834,157.04062149999663,None,ScrollDown,정답입니다,157.04062149999663,None,157.04062149999663,None,157.04062149999663,None,157.04062149999663,None,157.8375044001732,None,157.8375044001732,158.33913210011087,,,,,,,,,,,,,,,,132,2022-05-17_16h56.09.348,FishGame,2022.1.1,59.96436913789378,
,7,넌 말쑥해,3,Green,A,4.833333333333334,4.333333333333333,ScrollDown,ScrollUp,Green.png,1,Neutral,Neutral,,,,,0,0,0,0,,,,,,,,,,,,,0,6,6,6,,,,,,,,,,,,,,,,,,,,,,,,,,,,,,,,,,,,,,,,,,,,,,,,,,,,,,,,,,,,,,,,,,,,,,,,,,,,,,,,,1,1.1451170998625457,159.00888670003042,None,ScrollDown,정답입니다,159.00888670003042,None,159.00888670003042,None,159.00888670003042,None,159.00888670003042,None,160.00869569997303,None,160.00869569997303,160.52271990012378,,,,,,,,,,,,,,,,132,2022-05-17_16h56.09.348,FishGame,2022.1.1,59.96436913789378,
,8,넌 투덜거려,5,Orange,B,2.541666666666667,2.266666666666667,ScrollUp,ScrollDown,Orange.png,1,Negative,Congruent,,,,,0,0,0,0,,,,,,,,,,,,,0,7,7,7,,,,,,,,,,,,,,,,,,,,,,,,,,,,,,,,,,,,,,,,,,,,,,,,,,,,,,,,,,,,,,,,,,,,,,,,,,,,,,,,,2,1.2178763998672366,161.18271200009622,None,ScrollUp,정답입니다,161.18271200009622,None,161.18271200009622,None,161.18271200009622,None,161.18271200009622,None,162.2610132000409,None,162.2610132000409,162.7727561001666,,,,,,,,,,,,,,,,132,2022-05-17_16h56.09.348,FishGame,2022.1.1,59.96436913789378,
,9,넌 적극적이야,1,Green,A,5.708333333333333,5.533333333333333,ScrollDown,ScrollUp,Green.png,1,Positive,Congruent,,,,,0,0,0,0,,,,,,,,,,,,,0,8,8,8,,,,,,,,,,,,,,,,,,,,,,,,,,,,,,,,,,,,,,,,,,,,,,,,,,,,,,,,,,,,,,,,,,,,,,,,,,,,,,,,,1,1.0772740000393242,163.42410250008106,None,ScrollDown,정답입니다,163.42410250008106,None,163.42410250008106,None,163.42410250008106,None,163.42410250008106,None,164.37268909998238,None,164.37268909998238,164.8728234001901,,,,,,,,,,,,,,,,132,2022-05-17_16h56.09.348,FishGame,2022.1.1,59.96436913789378,
,10,넌 재미없어,4,Orange,B,2.625,2.966666666666667,ScrollUp,ScrollDown,Orange.png,1,Negative,Congruent,,,,,0,0,0,0,,,,,,,,,,,,,0,9,9,9,,,,,,,,,,,,,,,,,,,,,,,,,,,,,,,,,,,,,,,,,,,,,,,,,,,,,,,,,,,,,,,,,,,,,,,,,,,,,,,,,2,1.0945941000245512,165.5292547000572,None,ScrollUp,정답입니다,165.5292547000572,None,165.5292547000572,None,165.5292547000572,None,165.5292547000572,None,166.48942500003614,None,166.48942500003614,166.98949440009892,,,,,,,,,,,,,,,,132,2022-05-17_16h56.09.348,FishGame,2022.1.1,59.96436913789378,
,11,넌 명석해,2,Green,A,5.875,4.033333333333333,ScrollDown,ScrollUp,Green.png,1,Positive,Congruent,,,,,0,0,0,0,,,,,,,,,,,,,0,10,10,10,,,,,,,,,,,,,,,,,,,,,,,,,,,,,,,,,,,,,,,,,,,,,,,,,,,,,,,,,,,,,,,,,,,,,,,,,,,,,,,,,1,0.9960443000309169,167.64011420006864,None,ScrollDown,정답입니다,167.64011420006864,None,167.64011420006864,None,167.64011420006864,None,167.64011420006864,None,168.50867050001398,None,168.50867050001398,169.02286590007134,,,,,,,,,,,,,,,,132,2022-05-17_16h56.09.348,FishGame,2022.1.1,59.96436913789378,
,12,나를 데려가줘,6,Orange,B,0,0,ScrollDown,ScrollUp,Orange.png,1,NonTarget,NonTarget,,,,,0,0,0,0,,,,,,,,,,,,,0,11,11,11,,,,,,,,,,,,,,,,,,,,,,,,,,,,,,,,,,,,,,,,,,,,,,,,,,,,,,,,,,,,,,,,,,,,,,,,,,,,,,,,,1,1.122406000038609,169.67571260011755,None,ScrollDown,정답입니다,169.67571260011755,None,169.67571260011755,None,169.67571260011755,None,169.67571260011755,None,170.67290760017931,None,170.67290760017931,171.17293440015055,,,,,,,,,,,,,,,,132,2022-05-17_16h56.09.348,FishGame,2022.1.1,59.96436913789378,
,13,넌 소심해,4,Green,A,3,3.1,ScrollDown,ScrollUp,Green.png,1,Negative,Incongruent,,,,,0,0,0,0,,,,,,,,,,,,,0,12,12,12,,,,,,,,,,,,,,,,,,,,,,,,,,,,,,,,,,,,,,,,,,,,,,,,,,,,,,,,,,,,,,,,,,,,,,,,,,,,,,,,,1,0.990565299987793,171.81920060003176,None,ScrollDown,정답입니다,171.81920060003176,None,171.81920060003176,None,171.81920060003176,None,171.81920060003176,None,172.68959140009247,None,172.68959140009247,173.18966160016134,,,,,,,,,,,,,,,,132,2022-05-17_16h56.09.348,FishGame,2022.1.1,59.96436913789378,
,14,넌 합리적이야,2,Green,A,5.583333333333333,4.733333333333333,ScrollDown,ScrollUp,Green.png,1,Positive,Congruent,,,,,0,0,0,0,,,,,,,,,,,,,0,13,13,13,,,,,,,,,,,,,,,,,,,,,,,,,,,,,,,,,,,,,,,,,,,,,,,,,,,,,,,,,,,,,,,,,,,,,,,,,,,,,,,,,1,1.0485614999197423,173.85036580008455,None,ScrollDown,정답입니다,173.85036580008455,None,173.85036580008455,None,173.85036580008455,None,173.85036580008455,None,174.7712394001428,None,174.7712394001428,175.27304650004953,,,,,,,,,,,,,,,,132,2022-05-17_16h56.09.348,FishGame,2022.1.1,59.96436913789378,
,15,넌 무자비해,5,Orange,B,2.333333333333333,2.1,ScrollUp,ScrollDown,Orange.png,1,Negative,Congruent,,,,,0,0,0,0,,,,,,,,,,,,,0,14,14,14,,,,,,,,,,,,,,,,,,,,,,,,,,,,,,,,,,,,,,,,,,,,,,,,,,,,,,,,,,,,,,,,,,,,,,,,,,,,,,,,,2,1.0047860001213849,175.9292166000232,None,ScrollUp,정답입니다,175.9292166000232,None,175.9292166000232,None,175.9292166000232,None,175.9292166000232,None,176.80468709999695,None,176.80468709999695,177.30641890014522,,,,,,,,,,,,,,,,132,2022-05-17_16h56.09.348,FishGame,2022.1.1,59.96436913789378,
,16,나를 보내줘,6,Green,A,0,0,ScrollUp,ScrollDown,Green.png,1,NonTarget,NonTarget,,,,,0,0,0,0,,,,,,,,,,,,,0,15,15,15,,,,,,,,,,,,,,,,,,,,,,,,,,,,,,,,,,,,,,,,,,,,,,,,,,,,,,,,,,,,,,,,,,,,,,,,,,,,,,,,,2,1.0370112999808043,177.9464698000811,None,ScrollUp,정답입니다,177.9464698000811,None,177.9464698000811,None,177.9464698000811,None,177.9464698000811,None,178.87139690015465,None,178.87139690015465,179.37315830006264,,,,,,,,,,,,,,,,132,2022-05-17_16h56.09.348,FishGame,2022.1.1,59.96436913789378,
,17,넌 현실적이야,3,Orange,B,4.608695652173913,4.766666666666667,ScrollUp,ScrollDown,Orange.png,1,Neutral,Neutral,,,,,0,0,0,0,,,,,,,,,,,,,0,16,16,16,,,,,,,,,,,,,,,,,,,,,,,,,,,,,,,,,,,,,,,,,,,,,,,,,,,,,,,,,,,,,,,,,,,,,,,,,,,,,,,,,2,1.3593004001304507,180.03199900011532,None,ScrollUp,정답입니다,180.03199900011532,None,180.03199900011532,None,180.03199900011532,None,180.03199900011532,None,181.2564934999682,None,181.2564934999682,181.75640580011532,,,,,,,,,,,,,,,,132,2022-05-17_16h56.09.348,FishGame,2022.1.1,59.96436913789378,
,18,넌 의리있어,1,Orange,B,5.833333333333334,5.633333333333334,ScrollUp,ScrollDown,Orange.png,1,Positive,Incongruent,,,,,0,0,0,0,,,,,,,,,,,,,0,17,17,17,,,,,,,,,,,,,,,,,,,,,,,,,,,,,,,,,,,,,,,,,,,,,,,,,,,,,,,,,,,,,,,,,,,,,,,,,,,,,,,,,2,1.025682199979201,182.41095459996723,None,ScrollUp,정답입니다,182.41095459996723,None,182.41095459996723,None,182.41095459996723,None,182.41095459996723,None,183.30673600011505,None,183.30673600011505,183.80654770019464,,,,,,,,,,,,,,,,132,2022-05-17_16h56.09.348,FishGame,2022.1.1,59.96436913789378,
,19,넌 신경과민이야,5,Green,A,2.541666666666667,2.166666666666667,ScrollDown,ScrollUp,Green.png,1,Negative,Incongruent,,,,,0,0,0,0,,,,,,,,,,,,,0,18,18,18,,,,,,,,,,,,,,,,,,,,,,,,,,,,,,,,,,,,,,,,,,,,,,,,,,,,,,,,,,,,,,,,,,,,,,,,,,,,,,,,,1,0.9306113000493497,184.47011670004576,None,ScrollDown,정답입니다,184.47011670004576,None,184.47011670004576,None,184.47011670004576,None,184.47011670004576,None,185.25695309997536,None,185.25695309997536,185.75666470010765,,,,,,,,,,,,,,,,132,2022-05-17_16h56.09.348,FishGame,2022.1.1,59.96436913789378,
,20,넌 편안해,1,Green,A,5.916666666666666,5.866666666666666,ScrollDown,ScrollUp,Green.png,1,Positive,Congruent,,,,,0,0,0,0,,,,,,,,,,,,,0,19,19,19,,,,,,,,,,,,,,,,,,,,,,,,,,,,,,,,,,,,,,,,,,,,,,,,,,,,,,,,,,,,,,,,,,,,,,,,,,,,,,,,,1,1.0504299998283386,186.40646750014275,None,ScrollDown,정답입니다,186.40646750014275,None,186.40646750014275,None,186.40646750014275,None,186.40646750014275,None,187.33824120019563,None,187.33824120019563,187.84001220017672,,,,,,,,,,,,,,,,132,2022-05-17_16h56.09.348,FishGame,2022.1.1,59.96436913789378,
,21,넌 품위있어,2,Orange,B,5.291666666666666,4.466666666666667,ScrollUp,ScrollDown,Orange.png,1,Positive,Incongruent,,,,,0,0,0,0,,,,,,,,,,,,,0,20,20,20,,,,,,,,,,,,,,,,,,,,,,,,,,,,,,,,,,,,,,,,,,,,,,,,,,,,,,,,,,,,,,,,,,,,,,,,,,,,,,,,,2,0.9274915000423789,188.4931291001849,None,ScrollUp,정답입니다,188.4931291001849,None,188.4931291001849,None,188.4931291001849,None,188.4931291001849,None,189.28946440014988,None,189.28946440014988,189.78991669998504,,,,,,,,,,,,,,,,132,2022-05-17_16h56.09.348,FishGame,2022.1.1,59.96436913789378,
,22,넌 빈틈없어,3,Green,A,4.833333333333333,3.966666666666667,ScrollDown,ScrollUp,Green.png,1,Neutral,Neutral,,,,,0,0,0,0,,,,,,,,,,,,,0,21,21,21,,,,,,,,,,,,,,,,,,,,,,,,,,,,,,,,,,,,,,,,,,,,,,,,,,,,,,,,,,,,,,,,,,,,,,,,,,,,,,,,,1,0.9599623999092728,190.44065530016087,None,ScrollDown,정답입니다,190.44065530016087,None,190.44065530016087,None,190.44065530016087,None,190.44065530016087,None,191.27337800012901,None,191.27337800012901,191.77337150019594,,,,,,,,,,,,,,,,132,2022-05-17_16h56.09.348,FishGame,2022.1.1,59.96436913789378,
,23,넌 상상력없어,4,Orange,B,2.833333333333333,3.133333333333333,ScrollUp,ScrollDown,Orange.png,1,Negative,Congruent,,,,,0,0,0,0,,,,,,,,,,,,,0,22,22,22,,,,,,,,,,,,,,,,,,,,,,,,,,,,,,,,,,,,,,,,,,,,,,,,,,,,,,,,,,,,,,,,,,,,,,,,,,,,,,,,,2,0.9590110001154244,192.42689100001007,None,ScrollUp,정답입니다,192.42689100001007,None,192.42689100001007,None,192.42689100001007,None,192.42689100001007,None,193.25678619998507,None,193.25678619998507,193.75681970012374,,,,,,,,,,,,,,,,132,2022-05-17_16h56.09.348,FishGame,2022.1.1,59.96436913789378,
,24,넌 지혜로워,2,Orange,B,6.333333333333334,4.633333333333334,ScrollUp,ScrollDown,Orange.png,1,Positive,Incongruent,,,,,0,0,0,0,,,,,,,,,,,,,0,23,23,23,,,,,,,,,,,,,,,,,,,,,,,,,,,,,,,,,,,,,,,,,,,,,,,,,,,,,,,,,,,,,,,,,,,,,,,,,,,,,,,,,2,1.111980500165373,194.42013760004193,None,ScrollUp,정답입니다,194.42013760004193,None,194.42013760004193,None,194.42013760004193,None,194.42013760004193,None,195.39056900003925,None,195.39056900003925,195.89028260018677,,,,,,,,,,,,,,,,132,2022-05-17_16h56.09.348,FishGame,2022.1.1,59.96436913789378,
,25,넌 시끄러워,4,Green,A,2.833333333333333,3.033333333333333,ScrollDown,ScrollUp,Green.png,1,Negative,Incongruent,,,,,0,0,0,0,,,,,,,,,,,,,0,24,24,24,,,,,,,,,,,,,,,,,,,,,,,,,,,,,,,,,,,,,,,,,,,,,,,,,,,,,,,,,,,,,,,,,,,,,,,,,,,,,,,,,1,0.9834265999961644,196.5466766001191,None,ScrollDown,정답입니다,196.5466766001191,None,196.5466766001191,None,196.5466766001191,None,196.5466766001191,None,197.4051248000469,None,197.4051248000469,197.90689370012842,,,,,,,,,,,,,,,,132,2022-05-17_16h56.09.348,FishGame,2022.1.1,59.96436913789378,
,26,넌 만사태평이야,3,Orange,B,4,4.333333333333333,ScrollUp,ScrollDown,Orange.png,1,Neutral,Neutral,,,,,0,0,0,0,,,,,,,,,,,,,0,25,25,25,,,,,,,,,,,,,,,,,,,,,,,,,,,,,,,,,,,,,,,,,,,,,,,,,,,,,,,,,,,,,,,,,,,,,,,,,,,,,,,,,2,0.8721353998407722,198.56510190013796,None,ScrollUp,정답입니다,198.56510190013796,None,198.56510190013796,None,198.56510190013796,None,198.56510190013796,None,199.30511840013787,None,199.30511840013787,199.8070326000452,,,,,,,,,,,,,,,,132,2022-05-17_16h56.09.348,FishGame,2022.1.1,59.96436913789378,
,27,넌 붙임성있어,1,Green,A,5.708333333333333,5.633333333333334,ScrollDown,ScrollUp,Green.png,1,Positive,Congruent,,,,,0,0,0,0,,,,,,,,,,,,,0,26,26,26,,,,,,,,,,,,,,,,,,,,,,,,,,,,,,,,,,,,,,,,,,,,,,,,,,,,,,,,,,,,,,,,,,,,,,,,,,,,,,,,,1,1.0000169998966157,200.45618230011314,None,ScrollDown,정답입니다,200.45618230011314,None,200.45618230011314,None,200.45618230011314,None,200.45618230011314,None,201.3288513000589,None,201.3288513000589,201.84035110007972,,,,,,,,,,,,,,,,132,2022-05-17_16h56.09.348,FishGame,2022.1.1,59.96436913789378,
,28,넌 영리해,2,Green,A,6,4.033333333333333,ScrollDown,ScrollUp,Green.png,1,Positive,Congruent,,,,,0,0,0,0,,,,,,,,,,,,,0,27,27,27,,,,,,,,,,,,,,,,,,,,,,,,,,,,,,,,,,,,,,,,,,,,,,,,,,,,,,,,,,,,,,,,,,,,,,,,,,,,,,,,,1,0.9287628000602126,202.48573070019484,None,ScrollDown,정답입니다,202.48573070019484,None,202.48573070019484,None,202.48573070019484,None,202.48573070019484,None,203.2901665000245,None,203.2901665000245,203.7902907000389,,,,,,,,,,,,,,,,132,2022-05-17_16h56.09.348,FishGame,2022.1.1,59.96436913789378,
,29,넌 열심이야,1,Orange,B,6.041666666666667,5.833333333333333,ScrollUp,ScrollDown,Orange.png,1,Positive,Incongruent,,,,,0,0,0,0,,,,,,,,,,,,,0,28,28,28,,,,,,,,,,,,,,,,,,,,,,,,,,,,,,,,,,,,,,,,,,,,,,,,,,,,,,,,,,,,,,,,,,,,,,,,,,,,,,,,,2,0.9874069998040795,204.44092640001327,None,ScrollUp,정답입니다,204.44092640001327,None,204.44092640001327,None,204.44092640001327,None,204.44092640001327,None,205.3069196001161,None,205.3069196001161,205.80729120015167,,,,,,,,,,,,,,,,132,2022-05-17_16h56.09.348,FishGame,2022.1.1,59.96436913789378,
,30,넌 인기없어,4,Orange,B,3,3.3,ScrollUp,ScrollDown,Orange.png,1,Negative,Congruent,,,,,0,0,0,0,,,,,,,,,,,,,0,29,29,29,,,,,,,,,,,,,,,,,,,,,,,,,,,,,,,,,,,,,,,,,,,,,,,,,,,,,,,,,,,,,,,,,,,,,,,,,,,,,,,,,2,0.997232599882409,206.46009450010024,None,ScrollUp,정답입니다,206.46009450010024,None,206.46009450010024,None,206.46009450010024,None,206.46009450010024,None,207.3266187000554,None,207.3266187000554,207.8403750001453,,,,,,,,,,,,,,,,132,2022-05-17_16h56.09.348,FishGame,2022.1.1,59.96436913789378,
,31,넌 익살스러워,3,Green,A,4.708333333333334,4.833333333333333,ScrollDown,ScrollUp,Green.png,1,Neutral,Neutral,,,,,0,0,0,0,,,,,,,,,,,,,0,30,30,30,,,,,,,,,,,,,,,,,,,,,,,,,,,,,,,,,,,,,,,,,,,,,,,,,,,,,,,,,,,,,,,,,,,,,,,,,,,,,,,,,1,0.9463353999890387,208.49479600018822,None,ScrollDown,정답입니다,208.49479600018822,None,208.49479600018822,None,208.49479600018822,None,208.49479600018822,None,209.3093195001129,None,209.3093195001129,209.82379400008358,,,,,,,,,,,,,,,,132,2022-05-17_16h56.09.348,FishGame,2022.1.1,59.96436913789378,
,32,넌 이기적이야,5,Orange,B,2.291666666666667,2.333333333333333,ScrollUp,ScrollDown,Orange.png,1,Negative,Congruent,,,,,0,0,0,0,,,,,,,,,,,,,0,31,31,31,,,,,,,,,,,,,,,,,,,,,,,,,,,,,,,,,,,,,,,,,,,,,,,,,,,,,,,,,,,,,,,,,,,,,,,,,,,,,,,,,2,1.015087699983269,210.47312630014494,None,ScrollUp,정답입니다,210.47312630014494,None,210.47312630014494,None,210.47312630014494,None,210.47312630014494,None,211.362307399977,None,211.362307399977,211.8739209000487,,,,,,,,,,,,,,,,132,2022-05-17_16h56.09.348,FishGame,2022.1.1,59.96436913789378,
,33,나를 데려가줘,6,Orange,B,0,0,ScrollDown,ScrollUp,Orange.png,1,NonTarget,NonTarget,,,,,0,0,0,0,,,,,,,,,,,,,0,32,32,32,,,,,,,,,,,,,,,,,,,,,,,,,,,,,,,,,,,,,,,,,,,,,,,,,,,,,,,,,,,,,,,,,,,,,,,,,,,,,,,,,1,1.1218397999182343,212.52304670005105,None,ScrollDown,정답입니다,212.52304670005105,None,212.52304670005105,None,212.52304670005105,None,212.52304670005105,None,213.5220973000396,None,213.5220973000396,214.02389060007408,,,,,,,,,,,,,,,,132,2022-05-17_16h56.09.348,FishGame,2022.1.1,59.96436913789378,
,34,넌 기회주의자야,5,Green,A,2.875,2.133333333333333,ScrollDown,ScrollUp,Green.png,1,Negative,Incongruent,,,,,0,0,0,0,,,,,,,,,,,,,0,33,33,33,,,,,,,,,,,,,,,,,,,,,,,,,,,,,,,,,,,,,,,,,,,,,,,,,,,,,,,,,,,,,,,,,,,,,,,,,,,,,,,,,1,0.9832166000269353,214.67328710015863,None,ScrollDown,정답입니다,214.67328710015863,None,214.67328710015863,None,214.67328710015863,None,214.67328710015863,None,215.52861779998057,None,215.52861779998057,216.04065950005315,,,,,,,,,,,,,,,,132,2022-05-17_16h56.09.348,FishGame,2022.1.1,59.96436913789378,
,1,넌 미성숙해,4,Green,A,3,3.2,ScrollDown,ScrollUp,Green.png,2,Negative,Incongruent,,,,,0,0,0,0,,,,,,,,,,,,,,,,,0,0,0,0,,,,,,,,,,,,,,,,,,,,,,,,,,,,,,,,,,,,255.74179980019107,257.24158330005594,257.27484720014036,258.2249714001082,258.27504250011407,259.2249978000764,259.2249978000764,None,,,,,,,,,,,,,,,,,,,,,,,,,,,,,,,,,,1,1.4842095000203699,260.38965370017104,None,ScrollDown,정답입니다,260.38965370017104,None,260.38965370017104,None,260.38965370017104,None,260.38965370017104,None,261.7065650001168,None,261.7065650001168,262.208287200192,216.54060080018826,None,216.54060080018826,None,0.18148148,-0.11666667,1,0,0,0.016090829856693745,None,246.5412594000809,None,,,132,2022-05-17_16h56.09.348,FishGame,2022.1.1,59.96436913789378,
,2,넌 반사회적이야,5,Orange,B,2.416666666666667,2.033333333333333,ScrollUp,ScrollDown,Orange.png,2,Negative,Congruent,,,,,0,0,0,0,,,,,,,,,,,,,,,,,0,1,1,1,,,,,,,,,,,,,,,,,,,,,,,,,,,,,,,,,,,,,,,,,,,,,,,,,,,,,,,,,,,,,,,,,,,,,,,,,,,,,1.9768518606821697,1.1214142001699656,262.85979870008305,None,ScrollUp,정답입니다,262.85979870008305,None,262.85979870008305,None,262.85979870008305,None,262.85979870008305,None,263.85648000007495,None,263.85648000007495,264.35831880010664,,,,,,,,,,,,,,,,132,2022-05-17_16h56.09.348,FishGame,2022.1.1,59.96436913789378,
,3,넌 유능해,2,Green,A,6.208333333333333,4.433333333333334,ScrollDown,ScrollUp,Green.png,2,Positive,Congruent,,,,,0,0,0,0,,,,,,,,,,,,,,,,,0,2,2,2,,,,,,,,,,,,,,,,,,,,,,,,,,,,,,,,,,,,,,,,,,,,,,,,,,,,,,,,,,,,,,,,,,,,,,,,,,,,,1,1.0333000998944044,265.0080457001459,None,ScrollDown,정답입니다,265.0080457001459,None,265.0080457001459,None,265.0080457001459,None,265.0080457001459,None,265.9134011999704,None,265.9134011999704,266.4252028001938,,,,,,,,,,,,,,,,132,2022-05-17_16h56.09.348,FishGame,2022.1.1,59.96436913789378,
,4,넌 능숙해,2,Orange,B,5.666666666666667,4.733333333333333,ScrollUp,ScrollDown,Orange.png,2,Positive,Incongruent,,,,,0,0,0,0,,,,,,,,,,,,,,,,,0,3,3,3,,,,,,,,,,,,,,,,,,,,,,,,,,,,,,,,,,,,,,,,,,,,,,,,,,,,,,,,,,,,,,,,,,,,,,,,,,,,,2,1.1528543001040816,267.07268079998903,None,ScrollUp,정답입니다,267.07268079998903,None,267.07268079998903,None,267.07268079998903,None,267.07268079998903,None,268.10667380015366,None,268.10667380015366,268.60848150006495,,,,,,,,,,,,,,,,132,2022-05-17_16h56.09.348,FishGame,2022.1.1,59.96436913789378,
,5,넌 진부해,4,Orange,B,2.458333333333333,3.166666666666667,ScrollUp,ScrollDown,Orange.png,2,Negative,Congruent,,,,,0,0,0,0,,,,,,,,,,,,,,,,,0,4,4,4,,,,,,,,,,,,,,,,,,,,,,,,,,,,,,,,,,,,,,,,,,,,,,,,,,,,,,,,,,,,,,,,,,,,,,,,,,,,,2,0.9723224998451769,269.26226300001144,None,ScrollUp,정답입니다,269.26226300001144,None,269.26226300001144,None,269.26226300001144,None,269.26226300001144,None,270.10670770006254,None,270.10670770006254,270.60844610002823,,,,,,,,,,,,,,,,132,2022-05-17_16h56.09.348,FishGame,2022.1.1,59.96436913789378,
,6,나를 보내줘,6,Green,A,0,0,ScrollUp,ScrollDown,Green.png,2,NonTarget,NonTarget,,,,,0,0,0,0,,,,,,,,,,,,,,,,,0,5,5,5,,,,,,,,,,,,,,,,,,,,,,,,,,,,,,,,,,,,,,,,,,,,,,,,,,,,,,,,,,,,,,,,,,,,,,,,,,,,,1,0.8396936000790447,271.24923230009153,None,ScrollDown,오답입니다,271.24923230009153,None,271.24923230009153,None,271.24923230009153,None,271.24923230009153,None,271.97910360014066,None,271.97910360014066,272.49182130000554,,,,,,,,,,,,,,,,132,2022-05-17_16h56.09.348,FishGame,2022.1.1,59.96436913789378,
,7,넌 엄격해,3,Green,A,4.166666666666666,4.1,ScrollDown,ScrollUp,Green.png,2,Neutral,Neutral,,,,,0,0,0,0,,,,,,,,,,,,,,,,,0,6,6,6,,,,,,,,,,,,,,,,,,,,,,,,,,,,,,,,,,,,,,,,,,,,,,,,,,,,,,,,,,,,,,,,,,,,,,,,,,,,,1,0.9508799999020994,273.1417632000521,None,ScrollDown,정답입니다,273.1417632000521,None,273.1417632000521,None,273.1417632000521,None,273.1417632000521,None,273.96460269996896,None,273.96460269996896,274.47524110018276,,,,,,,,,,,,,,,,132,2022-05-17_16h56.09.348,FishGame,2022.1.1,59.96436913789378,
,8,나를 보내줘,6,Green,A,0,0,ScrollUp,ScrollDown,Green.png,2,NonTarget,NonTarget,,,,,0,0,0,0,,,,,,,,,,,,,,,,,0,7,7,7,,,,,,,,,,,,,,,,,,,,,,,,,,,,,,,,,,,,,,,,,,,,,,,,,,,,,,,,,,,,,,,,,,,,,,,,,,,,,2,1.045945700025186,275.11361700017005,None,ScrollUp,정답입니다,275.11361700017005,None,275.11361700017005,None,275.11361700017005,None,275.11361700017005,None,276.0464143001009,None,276.0464143001009,276.5586769001093,,,,,,,,,,,,,,,,132,2022-05-17_16h56.09.348,FishGame,2022.1.1,59.96436913789378,
,9,넌 대담해,3,Orange,B,4.875,4.866666666666666,ScrollUp,ScrollDown,Orange.png,2,Neutral,Neutral,,,,,0,0,0,0,,,,,,,,,,,,,,,,,0,8,8,8,,,,,,,,,,,,,,,,,,,,,,,,,,,,,,,,,,,,,,,,,,,,,,,,,,,,,,,,,,,,,,,,,,,,,,,,,,,,,2,1.0147122999187559,277.2169723000843,None,ScrollUp,정답입니다,277.2169723000843,None,277.2169723000843,None,277.2169723000843,None,277.2169723000843,None,278.0962100001052,None,278.0962100001052,278.60864530014805,,,,,,,,,,,,,,,,132,2022-05-17_16h56.09.348,FishGame,2022.1.1,59.96436913789378,
,10,넌 꾸준해,1,Green,A,5.916666666666668,5.8,ScrollDown,ScrollUp,Green.png,2,Positive,Congruent,,,,,0,0,0,0,,,,,,,,,,,,,,,,,0,9,9,9,,,,,,,,,,,,,,,,,,,,,,,,,,,,,,,,,,,,,,,,,,,,,,,,,,,,,,,,,,,,,,,,,,,,,,,,,,,,,1,0.9581303000450134,279.26537400018424,None,ScrollDown,정답입니다,279.26537400018424,None,279.26537400018424,None,279.26537400018424,None,279.26537400018424,None,280.09202049998567,None,280.09202049998567,280.5921056000516,,,,,,,,,,,,,,,,132,2022-05-17_16h56.09.348,FishGame,2022.1.1,59.96436913789378,
,11,나를 데려가줘,6,Orange,B,0,0,ScrollDown,ScrollUp,Orange.png,2,NonTarget,NonTarget,,,,,0,0,0,0,,,,,,,,,,,,,,,,,0,10,10,10,,,,,,,,,,,,,,,,,,,,,,,,,,,,,,,,,,,,,,,,,,,,,,,,,,,,,,,,,,,,,,,,,,,,,,,,,,,,,1,1.171635399805382,281.24581810017116,None,ScrollDown,정답입니다,281.24581810017116,None,281.24581810017116,None,281.24581810017116,None,281.24581810017116,None,282.29026340018027,None,282.29026340018027,282.7920306001324,,,,,,,,,,,,,,,,132,2022-05-17_16h56.09.348,FishGame,2022.1.1,59.96436913789378,
,12,넌 독선적이야,5,Green,A,2.458333333333333,1.933333333333333,ScrollDown,ScrollUp,Green.png,2,Negative,Incongruent,,,,,0,0,0,0,,,,,,,,,,,,,,,,,0,11,11,11,,,,,,,,,,,,,,,,,,,,,,,,,,,,,,,,,,,,,,,,,,,,,,,,,,,,,,,,,,,,,,,,,,,,,,,,,,,,,1,0.9163347000721842,283.4419444000814,None,ScrollDown,정답입니다,283.4419444000814,None,283.4419444000814,None,283.4419444000814,None,283.4419444000814,None,284.2301203000825,None,284.2301203000825,284.74209300009534,,,,,,,,,,,,,,,,132,2022-05-17_16h56.09.348,FishGame,2022.1.1,59.96436913789378,
,13,나를 보내줘,6,Green,A,0,0,ScrollUp,ScrollDown,Green.png,2,NonTarget,NonTarget,,,,,0,0,0,0,,,,,,,,,,,,,,,,,0,12,12,12,,,,,,,,,,,,,,,,,,,,,,,,,,,,,,,,,,,,,,,,,,,,,,,,,,,,,,,,,,,,,,,,,,,,,,,,,,,,,2,1.1633726998697966,285.3841305000242,None,ScrollUp,정답입니다,285.3841305000242,None,285.3841305000242,None,285.3841305000242,None,285.3841305000242,None,286.42741080000997,None,286.42741080000997,286.9421079000458,,,,,,,,,,,,,,,,132,2022-05-17_16h56.09.348,FishGame,2022.1.1,59.96436913789378,
,14,넌 책임감있어,1,Orange,B,6.347826086956522,6,ScrollUp,ScrollDown,Orange.png,2,Positive,Incongruent,,,,,0,0,0,0,,,,,,,,,,,,,,,,,0,13,13,13,,,,,,,,,,,,,,,,,,,,,,,,,,,,,,,,,,,,,,,,,,,,,,,,,,,,,,,,,,,,,,,,,,,,,,,,,,,,,2,1.037097199819982,287.6020449001808,None,ScrollUp,정답입니다,287.6020449001808,None,287.6020449001808,None,287.6020449001808,None,287.6020449001808,None,288.5071954000741,None,288.5071954000741,289.00879610003904,,,,,,,,,,,,,,,,132,2022-05-17_16h56.09.348,FishGame,2022.1.1,59.96436913789378,
,15,넌 문학적이야,3,Green,A,4.708333333333334,4.333333333333333,ScrollDown,ScrollUp,Green.png,2,Neutral,Neutral,,,,,0,0,0,0,,,,,,,,,,,,,,,,,0,14,14,14,,,,,,,,,,,,,,,,,,,,,,,,,,,,,,,,,,,,,,,,,,,,,,,,,,,,,,,,,,,,,,,,,,,,,,,,,,,,,1,0.8784796998370439,289.6585033000447,None,ScrollDown,정답입니다,289.6585033000447,None,289.6585033000447,None,289.6585033000447,None,289.6585033000447,None,290.4088944999967,None,290.4088944999967,290.90913669997826,,,,,,,,,,,,,,,,132,2022-05-17_16h56.09.348,FishGame,2022.1.1,59.96436913789378,
,16,넌 재미있어,1,Orange,B,5.875,5.7,ScrollUp,ScrollDown,Orange.png,2,Positive,Incongruent,,,,,0,0,0,0,,,,,,,,,,,,,,,,,0,15,15,15,,,,,,,,,,,,,,,,,,,,,,,,,,,,,,,,,,,,,,,,,,,,,,,,,,,,,,,,,,,,,,,,,,,,,,,,,,,,,2,0.9259548999834806,291.55810110014863,None,ScrollUp,정답입니다,291.55810110014863,None,291.55810110014863,None,291.55810110014863,None,291.55810110014863,None,292.3589429000858,None,292.3589429000858,292.8591246001888,,,,,,,,,,,,,,,,132,2022-05-17_16h56.09.348,FishGame,2022.1.1,59.96436913789378,
,17,나를 데려가줘,6,Orange,B,0,0,ScrollDown,ScrollUp,Orange.png,2,NonTarget,NonTarget,,,,,0,0,0,0,,,,,,,,,,,,,,,,,0,16,16,16,,,,,,,,,,,,,,,,,,,,,,,,,,,,,,,,,,,,,,,,,,,,,,,,,,,,,,,,,,,,,,,,,,,,,,,,,,,,,1,1.073120899964124,293.5065505001694,None,ScrollDown,정답입니다,293.5065505001694,None,293.5065505001694,None,293.5065505001694,None,293.5065505001694,None,294.4591373000294,None,294.4591373000294,294.95914320019074,,,,,,,,,,,,,,,,132,2022-05-17_16h56.09.348,FishGame,2022.1.1,59.96436913789378,
,18,넌 협력적이야,1,Green,A,5.625,5.633333333333334,ScrollDown,ScrollUp,Green.png,2,Positive,Congruent,,,,,0,0,0,0,,,,,,,,,,,,,,,,,0,17,17,17,,,,,,,,,,,,,,,,,,,,,,,,,,,,,,,,,,,,,,,,,,,,,,,,,,,,,,,,,,,,,,,,,,,,,,,,,,,,,1,1.1239863999653608,295.62857060017996,None,ScrollDown,정답입니다,295.62857060017996,None,295.62857060017996,None,295.62857060017996,None,295.62857060017996,None,296.60907160001807,None,296.60907160001807,297.10916170012206,,,,,,,,,,,,,,,,132,2022-05-17_16h56.09.348,FishGame,2022.1.1,59.96436913789378,
,19,넌 평범해,3,Orange,B,4.333333333333332,4.233333333333333,ScrollUp,ScrollDown,Orange.png,2,Neutral,Neutral,,,,,0,0,0,0,,,,,,,,,,,,,,,,,0,18,18,18,,,,,,,,,,,,,,,,,,,,,,,,,,,,,,,,,,,,,,,,,,,,,,,,,,,,,,,,,,,,,,,,,,,,,,,,,,,,,2,1.0660465999972075,297.76347340014763,None,ScrollUp,정답입니다,297.76347340014763,None,297.76347340014763,None,297.76347340014763,None,297.76347340014763,None,298.6971787000075,None,298.6971787000075,299.2090434001293,,,,,,,,,,,,,,,,132,2022-05-17_16h56.09.348,FishGame,2022.1.1,59.96436913789378,
,20,넌 오만해,5,Green,A,2.333333333333333,2,ScrollDown,ScrollUp,Green.png,2,Negative,Incongruent,,,,,0,0,0,0,,,,,,,,,,,,,,,,,0,19,19,19,,,,,,,,,,,,,,,,,,,,,,,,,,,,,,,,,,,,,,,,,,,,,,,,,,,,,,,,,,,,,,,,,,,,,,,,,,,,,1,1.020970799960196,299.8547269999981,None,ScrollDown,정답입니다,299.8547269999981,None,299.8547269999981,None,299.8547269999981,None,299.8547269999981,None,300.75719170016237,None,300.75719170016237,301.2590889001731,,,,,,,,,,,,,,,,132,2022-05-17_16h56.09.348,FishGame,2022.1.1,59.96436913789378,
,21,넌 운이없어,4,Orange,B,3,3.466666666666667,ScrollUp,ScrollDown,Orange.png,2,Negative,Congruent,,,,,0,0,0,0,,,,,,,,,,,,,,,,,0,20,20,20,,,,,,,,,,,,,,,,,,,,,,,,,,,,,,,,,,,,,,,,,,,,,,,,,,,,,,,,,,,,,,,,,,,,,,,,,,,,,2,0.939753299811855,301.91847810009494,None,ScrollUp,정답입니다,301.91847810009494,None,301.91847810009494,None,301.91847810009494,None,301.91847810009494,None,302.7258485001512,None,302.7258485001512,303.22593470010906,,,,,,,,,,,,,,,,132,2022-05-17_16h56.09.348,FishGame,2022.1.1,59.96436913789378,
,22,넌 창조적이야,2,Orange,B,6.125,4.633333333333334,ScrollUp,ScrollDown,Orange.png,2,Positive,Incongruent,,,,,0,0,0,0,,,,,,,,,,,,,,,,,0,21,21,21,,,,,,,,,,,,,,,,,,,,,,,,,,,,,,,,,,,,,,,,,,,,,,,,,,,,,,,,,,,,,,,,,,,,,,,,,,,,,2,0.9688375000841916,303.88221140019596,None,ScrollUp,정답입니다,303.88221140019596,None,303.88221140019596,None,303.88221140019596,None,303.88221140019596,None,304.72409910010174,None,304.72409910010174,305.22586070001125,,,,,,,,,,,,,,,,132,2022-05-17_16h56.09.348,FishGame,2022.1.1,59.96436913789378,
,23,나를 보내줘,6,Green,A,0,0,ScrollUp,ScrollDown,Green.png,2,NonTarget,NonTarget,,,,,0,0,0,0,,,,,,,,,,,,,,,,,0,22,22,22,,,,,,,,,,,,,,,,,,,,,,,,,,,,,,,,,,,,,,,,,,,,,,,,,,,,,,,,,,,,,,,,,,,,,,,,,,,,,2,1.0866679998580366,305.87468170002103,None,ScrollUp,정답입니다,305.87468170002103,None,305.87468170002103,None,305.87468170002103,None,305.87468170002103,None,306.84091560007073,None,306.84091560007073,307.34258900000714,,,,,,,,,,,,,,,,132,2022-05-17_16h56.09.348,FishGame,2022.1.1,59.96436913789378,
,24,넌 통찰력있어,2,Green,A,6.5,4.8,ScrollDown,ScrollUp,Green.png,2,Positive,Congruent,,,,,0,0,0,0,,,,,,,,,,,,,,,,,0,23,23,23,,,,,,,,,,,,,,,,,,,,,,,,,,,,,,,,,,,,,,,,,,,,,,,,,,,,,,,,,,,,,,,,,,,,,,,,,,,,,1,0.8776479000225663,308.00165960006416,None,ScrollDown,정답입니다,308.00165960006416,None,308.00165960006416,None,308.00165960006416,None,308.00165960006416,None,308.74252910004,None,308.74252910004,309.2426265999675,,,,,,,,,,,,,,,,132,2022-05-17_16h56.09.348,FishGame,2022.1.1,59.96436913789378,
,25,넌 경솔해,5,Orange,B,2.458333333333333,2.266666666666667,ScrollUp,ScrollDown,Orange.png,2,Negative,Congruent,,,,,0,0,0,0,,,,,,,,,,,,,,,,,0,24,24,24,,,,,,,,,,,,,,,,,,,,,,,,,,,,,,,,,,,,,,,,,,,,,,,,,,,,,,,,,,,,,,,,,,,,,,,,,,,,,2,1.013815299840644,309.8964552001562,None,ScrollUp,정답입니다,309.8964552001562,None,309.8964552001562,None,309.8964552001562,None,309.8964552001562,None,310.7804946000688,None,310.7804946000688,311.2926922000479,,,,,,,,,,,,,,,,132,2022-05-17_16h56.09.348,FishGame,2022.1.1,59.96436913789378,
,26,넌 초조해,4,Green,A,2.916666666666667,3.133333333333333,ScrollDown,ScrollUp,Green.png,2,Negative,Incongruent,,,,,0,0,0,0,,,,,,,,,,,,,,,,,0,25,25,25,,,,,,,,,,,,,,,,,,,,,,,,,,,,,,,,,,,,,,,,,,,,,,,,,,,,,,,,,,,,,,,,,,,,,,,,,,,,,1,0.9134347999934107,311.94496110011823,None,ScrollDown,정답입니다,311.94496110011823,None,311.94496110011823,None,311.94496110011823,None,311.94496110011823,None,312.72883759997785,None,312.72883759997785,313.24266550014727,,,,,,,,,,,,,,,,132,2022-05-17_16h56.09.348,FishGame,2022.1.1,59.96436913789378,
,27,넌 무관심해,4,Orange,B,2.833333333333333,2.9,ScrollUp,ScrollDown,Orange.png,2,Negative,Congruent,,,,,0,0,0,0,,,,,,,,,,,,,,,,,0,26,26,26,,,,,,,,,,,,,,,,,,,,,,,,,,,,,,,,,,,,,,,,,,,,,,,,,,,,,,,,,,,,,,,,,,,,,,,,,,,,,2,0.9149905999656767,313.9046343001537,None,ScrollUp,정답입니다,313.9046343001537,None,313.9046343001537,None,313.9046343001537,None,313.9046343001537,None,314.6802399000153,None,314.6802399000153,315.1928283001762,,,,,,,,,,,,,,,,132,2022-05-17_16h56.09.348,FishGame,2022.1.1,59.96436913789378,
,28,넌 감성적이야,3,Orange,B,4.125,4.166666666666667,ScrollUp,ScrollDown,Orange.png,2,Neutral,Neutral,,,,,0,0,0,0,,,,,,,,,,,,,,,,,0,27,27,27,,,,,,,,,,,,,,,,,,,,,,,,,,,,,,,,,,,,,,,,,,,,,,,,,,,,,,,,,,,,,,,,,,,,,,,,,,,,,2,0.8885348001495004,315.84097410016693,None,ScrollUp,정답입니다,315.84097410016693,None,315.84097410016693,None,315.84097410016693,None,315.84097410016693,None,316.6100038001314,None,316.6100038001314,317.10954330000095,,,,,,,,,,,,,,,,132,2022-05-17_16h56.09.348,FishGame,2022.1.1,59.96436913789378,
,29,넌 배려심있어,1,Green,A,6.083333333333333,5.5,ScrollDown,ScrollUp,Green.png,2,Positive,Congruent,,,,,0,0,0,0,,,,,,,,,,,,,,,,,0,28,28,28,,,,,,,,,,,,,,,,,,,,,,,,,,,,,,,,,,,,,,,,,,,,,,,,,,,,,,,,,,,,,,,,,,,,,,,,,,,,,1,0.8629582000430673,317.75634610001,None,ScrollDown,정답입니다,317.75634610001,None,317.75634610001,None,317.75634610001,None,317.75634610001,None,318.4962832001038,None,318.4962832001038,319.0095053999685,,,,,,,,,,,,,,,,132,2022-05-17_16h56.09.348,FishGame,2022.1.1,59.96436913789378,
,30,넌 숨김없어,3,Green,A,4.5,4.933333333333334,ScrollDown,ScrollUp,Green.png,2,Neutral,Neutral,,,,,0,0,0,0,,,,,,,,,,,,,,,,,0,29,29,29,,,,,,,,,,,,,,,,,,,,,,,,,,,,,,,,,,,,,,,,,,,,,,,,,,,,,,,,,,,,,,,,,,,,,,,,,,,,,1,0.9845350999385118,319.6596937000286,None,ScrollDown,정답입니다,319.6596937000286,None,319.6596937000286,None,319.6596937000286,None,319.6596937000286,None,320.52450930001214,None,320.52450930001214,321.02633720007725,,,,,,,,,,,,,,,,132,2022-05-17_16h56.09.348,FishGame,2022.1.1,59.96436913789378,
,31,넌 훌륭해,2,Orange,B,5.916666666666667,4.033333333333333,ScrollUp,ScrollDown,Orange.png,2,Positive,Incongruent,,,,,0,0,0,0,,,,,,,,,,,,,,,,,0,30,30,30,,,,,,,,,,,,,,,,,,,,,,,,,,,,,,,,,,,,,,,,,,,,,,,,,,,,,,,,,,,,,,,,,,,,,,,,,,,,,2,1.1647060001268983,321.6859971000813,None,ScrollUp,정답입니다,321.6859971000813,None,321.6859971000813,None,321.6859971000813,None,321.6859971000813,None,322.7138748001307,None,322.7138748001307,323.2263739001937,,,,,,,,,,,,,,,,132,2022-05-17_16h56.09.348,FishGame,2022.1.1,59.96436913789378,
,32,넌 슬기로워,2,Green,A,6.166666666666667,4.1,ScrollDown,ScrollUp,Green.png,2,Positive,Congruent,,,,,0,0,0,0,,,,,,,,,,,,,,,,,0,31,31,31,,,,,,,,,,,,,,,,,,,,,,,,,,,,,,,,,,,,,,,,,,,,,,,,,,,,,,,,,,,,,,,,,,,,,,,,,,,,,1,0.976928099989891,323.8722777001094,None,ScrollDown,정답입니다,323.8722777001094,None,323.8722777001094,None,323.8722777001094,None,323.8722777001094,None,324.7262940001674,None,324.7262940001674,325.22631760011427,,,,,,,,,,,,,,,,132,2022-05-17_16h56.09.348,FishGame,2022.1.1,59.96436913789378,
,33,넌 냉혹해,5,Green,A,2.583333333333333,2.1,ScrollDown,ScrollUp,Green.png,2,Negative,Incongruent,,,,,0,0,0,0,,,,,,,,,,,,,,,,,0,32,32,32,,,,,,,,,,,,,,,,,,,,,,,,,,,,,,,,,,,,,,,,,,,,,,,,,,,,,,,,,,,,,,,,,,,,,,,,,,,,,1,0.9738034999463707,325.87847180012614,None,ScrollDown,정답입니다,325.87847180012614,None,325.87847180012614,None,325.87847180012614,None,325.87847180012614,None,326.72629930009134,None,326.72629930009134,327.22637200006284,,,,,,,,,,,,,,,,132,2022-05-17_16h56.09.348,FishGame,2022.1.1,59.96436913789378,
,34,나를 데려가줘,6,Orange,B,0,0,ScrollDown,ScrollUp,Orange.png,2,NonTarget,NonTarget,,,,,0,0,0,0,,,,,,,,,,,,,,,,,0,33,33,33,,,,,,,,,,,,,,,,,,,,,,,,,,,,,,,,,,,,,,,,,,,,,,,,,,,,,,,,,,,,,,,,,,,,,,,,,,,,,1,0.9522620998322964,327.8779198001139,None,ScrollDown,정답입니다,327.8779198001139,None,327.8779198001139,None,327.8779198001139,None,327.8779198001139,None,328.7096667001024,None,328.7096667001024,329.2096961000934,,,,,,,,,,,,,,,,132,2022-05-17_16h56.09.348,FishGame,2022.1.1,59.96436913789378,
,35,넌 편파적이야,5,Orange,B,2.125,2,ScrollUp,ScrollDown,Orange.png,2,Negative,Congruent,,,,,0,0,0,0,,,,,,,,,,,,,,,,,0,34,34,34,,,,,,,,,,,,,,,,,,,,,,,,,,,,,,,,,,,,,,,,,,,,,,,,,,,,,,,,,,,,,,,,,,,,,,,,,,,,,2,1.0665279000531882,329.8613690000493,None,ScrollUp,정답입니다,329.8613690000493,None,329.8613690000493,None,329.8613690000493,None,329.8613690000493,None,330.8081233999692,None,330.8081233999692,331.3098571000155,,,,,,,,,,,,,,,,132,2022-05-17_16h56.09.348,FishGame,2022.1.1,59.96436913789378,
,36,넌 슬퍼,4,Green,A,2.583333333333333,3.066666666666667,ScrollDown,ScrollUp,Green.png,2,Negative,Incongruent,,,,,0,0,0,0,,,,,,,,,,,,,,,,,0,35,35,35,,,,,,,,,,,,,,,,,,,,,,,,,,,,,,,,,,,,,,,,,,,,,,,,,,,,,,,,,,,,,,,,,,,,,,,,,,,,,1,0.9506916999816895,331.9725095999893,None,ScrollDown,정답입니다,331.9725095999893,None,331.9725095999893,None,331.9725095999893,None,331.9725095999893,None,332.7812193999998,None,332.7812193999998,333.2932078000158,,,,,,,,,,,,,,,,132,2022-05-17_16h56.09.348,FishGame,2022.1.1,59.96436913789378,
,37,나를 데려가줘,6,Orange,B,0,0,ScrollDown,ScrollUp,Orange.png,2,NonTarget,NonTarget,,,,,0,0,0,0,,,,,,,,,,,,,,,,,0,36,36,36,,,,,,,,,,,,,,,,,,,,,,,,,,,,,,,,,,,,,,,,,,,,,,,,,,,,,,,,,,,,,,,,,,,,,,,,,,,,,1,1.2648418999742717,333.9442257001065,None,ScrollDown,정답입니다,333.9442257001065,None,333.9442257001065,None,333.9442257001065,None,333.9442257001065,None,335.079583800165,None,335.079583800165,335.5932240001857,,,,,,,,,,,,,,,,132,2022-05-17_16h56.09.348,FishGame,2022.1.1,59.96436913789378,
,38,넌 친절해,1,Orange,B,6.041666666666667,5.533333333333333,ScrollUp,ScrollDown,Orange.png,2,Positive,Incongruent,,,,,0,0,0,0,,,,,,,,,,,,,,,,,0,37,37,37,,,,,,,,,,,,,,,,,,,,,,,,,,,,,,,,,,,,,,,,,,,,,,,,,,,,,,,,,,,,,,,,,,,,,,,,,,,,,2,1.0535197998397052,336.2636530001182,None,ScrollUp,정답입니다,336.2636530001182,None,336.2636530001182,None,336.2636530001182,None,336.2636530001182,None,337.174907800043,None,337.174907800043,337.67657880019397,,,,,,,,,,,,,,,,132,2022-05-17_16h56.09.348,FishGame,2022.1.1,59.96436913789378,
,1,넌 엉성해,4,Green,A,3,3.3,ScrollDown,ScrollUp,Green.png,3,Negative,Incongruent,,,,,0,0,0,0,,,,,,,,,,,,,,,,,,,,,0,0,0,0,,,,,,,,,,,,,,,,,,,,,,,,,,,,,,,,375.5943053001538,377.0944312000647,377.12751989997923,378.0775525001809,378.12748240004294,379.07765580015257,379.07765580015257,None,,,,,,,,,,,,,,,,,,,,,,,,,,,,,,,,,,1,1.1603198000229895,380.25484449998476,None,ScrollDown,정답입니다,380.25484449998476,None,380.25484449998476,None,380.25484449998476,None,380.25484449998476,None,381.23258150019683,None,381.23258150019683,381.74429289996624,338.1766721000895,None,338.1766721000895,None,0.12314815,-0.108333334,1,0,0,0.016246229875832796,None,368.17730109998956,None,,,132,2022-05-17_16h56.09.348,FishGame,2022.1.1,59.96436913789378,
,2,나를 보내줘,6,Green,A,0,0,ScrollUp,ScrollDown,Green.png,3,NonTarget,NonTarget,,,,,0,0,0,0,,,,,,,,,,,,,,,,,,,,,0,1,1,1,,,,,,,,,,,,,,,,,,,,,,,,,,,,,,,,,,,,,,,,,,,,,,,,,,,,,,,,,,,,,,,,,,,,,,,,,2,1.1994128001388162,382.3923301000614,None,ScrollUp,정답입니다,382.3923301000614,None,382.3923301000614,None,382.3923301000614,None,382.3923301000614,None,383.46519320015796,None,383.46519320015796,383.97760740015656,,,,,,,,,,,,,,,,132,2022-05-17_16h56.09.348,FishGame,2022.1.1,59.96436913789378,
,3,넌 활발해,1,Orange,B,5.666666666666667,5.6,ScrollUp,ScrollDown,Orange.png,3,Positive,Incongruent,,,,,0,0,0,0,,,,,,,,,,,,,,,,,,,,,0,2,2,2,,,,,,,,,,,,,,,,,,,,,,,,,,,,,,,,,,,,,,,,,,,,,,,,,,,,,,,,,,,,,,,,,,,,,,,,,2,1.0048090000636876,384.6350969001651,None,ScrollUp,정답입니다,384.6350969001651,None,384.6350969001651,None,384.6350969001651,None,384.6350969001651,None,385.5092422000598,None,385.5092422000598,386.0110357000958,,,,,,,,,,,,,,,,132,2022-05-17_16h56.09.348,FishGame,2022.1.1,59.96436913789378,
,4,넌 논리적이야,2,Green,A,5.666666666666666,4.633333333333334,ScrollDown,ScrollUp,Green.png,3,Positive,Congruent,,,,,0,0,0,0,,,,,,,,,,,,,,,,,,,,,0,3,3,3,,,,,,,,,,,,,,,,,,,,,,,,,,,,,,,,,,,,,,,,,,,,,,,,,,,,,,,,,,,,,,,,,,,,,,,,,1,0.924479499924928,386.65950080007315,None,ScrollDown,정답입니다,386.65950080007315,None,386.65950080007315,None,386.65950080007315,None,386.65950080007315,None,387.4610741001088,None,387.4610741001088,387.9610139001161,,,,,,,,,,,,,,,,132,2022-05-17_16h56.09.348,FishGame,2022.1.1,59.96436913789378,
,5,넌 과묵해,3,Green,A,3.875,4.4,ScrollDown,ScrollUp,Green.png,3,Neutral,Neutral,,,,,0,0,0,0,,,,,,,,,,,,,,,,,,,,,0,4,4,4,,,,,,,,,,,,,,,,,,,,,,,,,,,,,,,,,,,,,,,,,,,,,,,,,,,,,,,,,,,,,,,,,,,,,,,,,1,0.8747525000944734,388.61565829999745,None,ScrollDown,정답입니다,388.61565829999745,None,388.61565829999745,None,388.61565829999745,None,388.61565829999745,None,389.36108430009335,None,389.36108430009335,389.8612624001689,,,,,,,,,,,,,,,,132,2022-05-17_16h56.09.348,FishGame,2022.1.1,59.96436913789378,
,6,나를 데려가줘,6,Orange,B,0,0,ScrollDown,ScrollUp,Orange.png,3,NonTarget,NonTarget,,,,,0,0,0,0,,,,,,,,,,,,,,,,,,,,,0,5,5,5,,,,,,,,,,,,,,,,,,,,,,,,,,,,,,,,,,,,,,,,,,,,,,,,,,,,,,,,,,,,,,,,,,,,,,,,,1,1.0340166999958456,390.51077400008217,None,ScrollDown,정답입니다,390.51077400008217,None,390.51077400008217,None,390.51077400008217,None,390.51077400008217,None,391.41585330013186,None,391.41585330013186,391.92775550018996,,,,,,,,,,,,,,,,132,2022-05-17_16h56.09.348,FishGame,2022.1.1,59.96436913789378,
,7,넌 미숙해,4,Orange,B,3,3,ScrollUp,ScrollDown,Orange.png,3,Negative,Congruent,,,,,0,0,0,0,,,,,,,,,,,,,,,,,,,,,0,6,6,6,,,,,,,,,,,,,,,,,,,,,,,,,,,,,,,,,,,,,,,,,,,,,,,,,,,,,,,,,,,,,,,,,,,,,,,,,2,0.9875366000924259,392.57353920000605,None,ScrollUp,정답입니다,392.57353920000605,None,392.57353920000605,None,392.57353920000605,None,392.57353920000605,None,393.4427023001481,None,393.4427023001481,393.9444081999827,,,,,,,,,,,,,,,,132,2022-05-17_16h56.09.348,FishGame,2022.1.1,59.96436913789378,
,8,나를 보내줘,6,Green,A,0,0,ScrollUp,ScrollDown,Green.png,3,NonTarget,NonTarget,,,,,0,0,0,0,,,,,,,,,,,,,,,,,,,,,0,7,7,7,,,,,,,,,,,,,,,,,,,,,,,,,,,,,,,,,,,,,,,,,,,,,,,,,,,,,,,,,,,,,,,,,,,,,,,,,2,0.9967099998611957,394.58829570002854,None,ScrollUp,정답입니다,394.58829570002854,None,394.58829570002854,None,394.58829570002854,None,394.58829570002854,None,395.463357700035,None,395.463357700035,395.9778581999708,,,,,,,,,,,,,,,,132,2022-05-17_16h56.09.348,FishGame,2022.1.1,59.96436913789378,
,9,넌 자신만만해,3,Orange,B,4.833333333333334,4.333333333333333,ScrollUp,ScrollDown,Orange.png,3,Neutral,Neutral,,,,,0,0,0,0,,,,,,,,,,,,,,,,,,,,,0,8,8,8,,,,,,,,,,,,,,,,,,,,,,,,,,,,,,,,,,,,,,,,,,,,,,,,,,,,,,,,,,,,,,,,,,,,,,,,,2,0.9616594999097288,396.63062199996784,None,ScrollUp,정답입니다,396.63062199996784,None,396.63062199996784,None,396.63062199996784,None,396.63062199996784,None,397.4613241001498,None,397.4613241001498,397.96136630000547,,,,,,,,,,,,,,,,132,2022-05-17_16h56.09.348,FishGame,2022.1.1,59.96436913789378,
,10,넌 탐욕스러워,5,Green,A,2.25,2.1,ScrollDown,ScrollUp,Green.png,3,Negative,Incongruent,,,,,0,0,0,0,,,,,,,,,,,,,,,,,,,,,0,9,9,9,,,,,,,,,,,,,,,,,,,,,,,,,,,,,,,,,,,,,,,,,,,,,,,,,,,,,,,,,,,,,,,,,,,,,,,,,1,1.0463514002040029,398.61817979998887,None,ScrollDown,정답입니다,398.61817979998887,None,398.61817979998887,None,398.61817979998887,None,398.61817979998887,None,399.5317170000635,None,399.5317170000635,400.044742600061,,,,,,,,,,,,,,,,132,2022-05-17_16h56.09.348,FishGame,2022.1.1,59.96436913789378,
,11,넌 인기있어,2,Green,A,5.458333333333333,4.5,ScrollDown,ScrollUp,Green.png,3,Positive,Congruent,,,,,0,0,0,0,,,,,,,,,,,,,,,,,,,,,0,10,10,10,,,,,,,,,,,,,,,,,,,,,,,,,,,,,,,,,,,,,,,,,,,,,,,,,,,,,,,,,,,,,,,,,,,,,,,,,1,0.918145400006324,400.68966850009747,None,ScrollDown,정답입니다,400.68966850009747,None,400.68966850009747,None,400.68966850009747,None,400.68966850009747,None,401.4827193999663,None,401.4827193999663,401.99472780013457,,,,,,,,,,,,,,,,132,2022-05-17_16h56.09.348,FishGame,2022.1.1,59.96436913789378,
,12,나를 데려가줘,6,Orange,B,0,0,ScrollDown,ScrollUp,Orange.png,3,NonTarget,NonTarget,,,,,0,0,0,0,,,,,,,,,,,,,,,,,,,,,0,11,11,11,,,,,,,,,,,,,,,,,,,,,,,,,,,,,,,,,,,,,,,,,,,,,,,,,,,,,,,,,,,,,,,,,,,,,,,,,1,0.985564999980852,402.64265850000083,None,ScrollDown,정답입니다,402.64265850000083,None,402.64265850000083,None,402.64265850000083,None,402.64265850000083,None,403.50964520010166,None,403.50964520010166,404.0114090000279,,,,,,,,,,,,,,,,132,2022-05-17_16h56.09.348,FishGame,2022.1.1,59.96436913789378,
,13,넌 뛰어나,2,Orange,B,6.166666666666667,4,ScrollUp,ScrollDown,Orange.png,3,Positive,Incongruent,,,,,0,0,0,0,,,,,,,,,,,,,,,,,,,,,0,12,12,12,,,,,,,,,,,,,,,,,,,,,,,,,,,,,,,,,,,,,,,,,,,,,,,,,,,,,,,,,,,,,,,,,,,,,,,,,2,0.9910619999282062,404.66693060006946,None,ScrollUp,정답입니다,404.66693060006946,None,404.66693060006946,None,404.66693060006946,None,404.66693060006946,None,405.52809240017086,None,405.52809240017086,406.0281607999932,,,,,,,,,,,,,,,,132,2022-05-17_16h56.09.348,FishGame,2022.1.1,59.96436913789378,
,14,넌 낙관적이야,1,Green,A,5.75,5.8,ScrollDown,ScrollUp,Green.png,3,Positive,Congruent,,,,,0,0,0,0,,,,,,,,,,,,,,,,,,,,,0,13,13,13,,,,,,,,,,,,,,,,,,,,,,,,,,,,,,,,,,,,,,,,,,,,,,,,,,,,,,,,,,,,,,,,,,,,,,,,,1,0.9173944999929518,406.6880586000625,None,ScrollDown,정답입니다,406.6880586000625,None,406.6880586000625,None,406.6880586000625,None,406.6880586000625,None,407.47650400013663,None,407.47650400013663,407.9781549000181,,,,,,,,,,,,,,,,132,2022-05-17_16h56.09.348,FishGame,2022.1.1,59.96436913789378,
,15,넌 산만해,4,Orange,B,2.695652173913043,3.033333333333333,ScrollUp,ScrollDown,Orange.png,3,Negative,Congruent,,,,,0,0,0,0,,,,,,,,,,,,,,,,,,,,,0,14,14,14,,,,,,,,,,,,,,,,,,,,,,,,,,,,,,,,,,,,,,,,,,,,,,,,,,,,,,,,,,,,,,,,,,,,,,,,,2,0.9869228999596089,408.63491760008037,None,ScrollUp,정답입니다,408.63491760008037,None,408.63491760008037,None,408.63491760008037,None,408.63491760008037,None,409.49552310002036,None,409.49552310002036,409.9949729000218,,,,,,,,,,,,,,,,132,2022-05-17_16h56.09.348,FishGame,2022.1.1,59.96436913789378,
,16,나를 보내줘,6,Green,A,0,0,ScrollUp,ScrollDown,Green.png,3,NonTarget,NonTarget,,,,,0,0,0,0,,,,,,,,,,,,,,,,,,,,,0,15,15,15,,,,,,,,,,,,,,,,,,,,,,,,,,,,,,,,,,,,,,,,,,,,,,,,,,,,,,,,,,,,,,,,,,,,,,,,,2,1.1789675999898463,410.64332060003653,None,ScrollUp,정답입니다,410.64332060003653,None,410.64332060003653,None,410.64332060003653,None,410.64332060003653,None,411.69662030017935,None,411.69662030017935,412.2115923999809,,,,,,,,,,,,,,,,132,2022-05-17_16h56.09.348,FishGame,2022.1.1,59.96436913789378,
,17,넌 교활해,5,Orange,B,2.333333333333333,2.133333333333333,ScrollUp,ScrollDown,Orange.png,3,Negative,Congruent,,,,,0,0,0,0,,,,,,,,,,,,,,,,,,,,,0,16,16,16,,,,,,,,,,,,,,,,,,,,,,,,,,,,,,,,,,,,,,,,,,,,,,,,,,,,,,,,,,,,,,,,,,,,,,,,,2,0.9855887000449002,412.86659460002556,None,ScrollUp,정답입니다,412.86659460002556,None,412.86659460002556,None,412.86659460002556,None,412.86659460002556,None,413.7162997999694,None,413.7162997999694,414.22831400018185,,,,,,,,,,,,,,,,132,2022-05-17_16h56.09.348,FishGame,2022.1.1,59.96436913789378,
,18,나를 보내줘,6,Green,A,0,0,ScrollUp,ScrollDown,Green.png,3,NonTarget,NonTarget,,,,,0,0,0,0,,,,,,,,,,,,,,,,,,,,,0,17,17,17,,,,,,,,,,,,,,,,,,,,,,,,,,,,,,,,,,,,,,,,,,,,,,,,,,,,,,,,,,,,,,,,,,,,,,,,,2,1.0031210000161082,414.87591499998234,None,ScrollUp,정답입니다,414.87591499998234,None,414.87591499998234,None,414.87591499998234,None,414.87591499998234,None,415.75988610018976,None,415.75988610018976,416.2617256999947,,,,,,,,,,,,,,,,132,2022-05-17_16h56.09.348,FishGame,2022.1.1,59.96436913789378,
,19,넌 불친절해,5,Orange,B,2.208333333333333,2.033333333333333,ScrollUp,ScrollDown,Orange.png,3,Negative,Congruent,,,,,0,0,0,0,,,,,,,,,,,,,,,,,,,,,0,18,18,18,,,,,,,,,,,,,,,,,,,,,,,,,,,,,,,,,,,,,,,,,,,,,,,,,,,,,,,,,,,,,,,,,,,,,,,,,2,1.0610117998439819,416.9117736001499,None,ScrollUp,정답입니다,416.9117736001499,None,416.9117736001499,None,416.9117736001499,None,416.9117736001499,None,417.84501410019584,None,417.84501410019584,418.3450124000665,,,,,,,,,,,,,,,,132,2022-05-17_16h56.09.348,FishGame,2022.1.1,59.96436913789378,
,20,넌 지적이야,2,Orange,B,5.75,4.366666666666666,ScrollUp,ScrollDown,Orange.png,3,Positive,Incongruent,,,,,0,0,0,0,,,,,,,,,,,,,,,,,,,,,0,19,19,19,,,,,,,,,,,,,,,,,,,,,,,,,,,,,,,,,,,,,,,,,,,,,,,,,,,,,,,,,,,,,,,,,,,,,,,,,2,0.9397855000570416,418.99993060017005,None,ScrollUp,정답입니다,418.99993060017005,None,418.99993060017005,None,418.99993060017005,None,418.99993060017005,None,419.80996570014395,None,419.80996570014395,420.3117920001969,,,,,,,,,,,,,,,,132,2022-05-17_16h56.09.348,FishGame,2022.1.1,59.96436913789378,
,21,넌 우유부단해,4,Green,A,2.666666666666667,3.166666666666667,ScrollDown,ScrollUp,Green.png,3,Negative,Incongruent,,,,,0,0,0,0,,,,,,,,,,,,,,,,,,,,,0,20,20,20,,,,,,,,,,,,,,,,,,,,,,,,,,,,,,,,,,,,,,,,,,,,,,,,,,,,,,,,,,,,,,,,,,,,,,,,,1,0.8410970999393612,420.97976370016113,None,ScrollDown,정답입니다,420.97976370016113,None,420.97976370016113,None,420.97976370016113,None,420.97976370016113,None,421.67837169999257,None,421.67837169999257,422.1786625001114,,,,,,,,,,,,,,,,132,2022-05-17_16h56.09.348,FishGame,2022.1.1,59.96436913789378,
,22,나를 데려가줘,6,Orange,B,0,0,ScrollDown,ScrollUp,Orange.png,3,NonTarget,NonTarget,,,,,0,0,0,0,,,,,,,,,,,,,,,,,,,,,0,21,21,21,,,,,,,,,,,,,,,,,,,,,,,,,,,,,,,,,,,,,,,,,,,,,,,,,,,,,,,,,,,,,,,,,,,,,,,,,1,1.1164294998161495,422.8304139999673,None,ScrollDown,정답입니다,422.8304139999673,None,422.8304139999673,None,422.8304139999673,None,422.8304139999673,None,423.81649770005606,None,423.81649770005606,424.32853320008144,,,,,,,,,,,,,,,,132,2022-05-17_16h56.09.348,FishGame,2022.1.1,59.96436913789378,
,23,넌 성실해,1,Orange,B,6.041666666666666,5.7,ScrollUp,ScrollDown,Orange.png,3,Positive,Incongruent,,,,,0,0,0,0,,,,,,,,,,,,,,,,,,,,,0,22,22,22,,,,,,,,,,,,,,,,,,,,,,,,,,,,,,,,,,,,,,,,,,,,,,,,,,,,,,,,,,,,,,,,,,,,,,,,,2,1.0951431998983026,424.9756311001256,None,ScrollUp,정답입니다,424.9756311001256,None,424.9756311001256,None,424.9756311001256,None,424.9756311001256,None,425.94647100009024,None,425.94647100009024,426.46192570007406,,,,,,,,,,,,,,,,132,2022-05-17_16h56.09.348,FishGame,2022.1.1,59.96436913789378,
,24,넌 현실주의적이야,3,Green,A,4.625,4.4,ScrollDown,ScrollUp,Green.png,3,Neutral,Neutral,,,,,0,0,0,0,,,,,,,,,,,,,,,,,,,,,0,23,23,23,,,,,,,,,,,,,,,,,,,,,,,,,,,,,,,,,,,,,,,,,,,,,,,,,,,,,,,,,,,,,,,,,,,,,,,,,1,1.3598464000970125,427.0904518000316,None,ScrollDown,정답입니다,427.0904518000316,None,427.0904518000316,None,427.0904518000316,None,427.0904518000316,None,428.3285170001909,None,428.3285170001909,428.8285962000955,,,,,,,,,,,,,,,,132,2022-05-17_16h56.09.348,FishGame,2022.1.1,59.96436913789378,
,25,넌 진실돼,1,Green,A,6.625,5.566666666666666,ScrollDown,ScrollUp,Green.png,3,Positive,Congruent,,,,,0,0,0,0,,,,,,,,,,,,,,,,,,,,,0,24,24,24,,,,,,,,,,,,,,,,,,,,,,,,,,,,,,,,,,,,,,,,,,,,,,,,,,,,,,,,,,,,,,,,,,,,,,,,,1,1.0279373000375926,429.47616650001146,None,ScrollDown,정답입니다,429.47616650001146,None,429.47616650001146,None,429.47616650001146,None,429.47616650001146,None,430.37859770003706,None,430.37859770003706,430.8787171000149,,,,,,,,,,,,,,,,132,2022-05-17_16h56.09.348,FishGame,2022.1.1,59.96436913789378,
,26,넌 천진난만해,3,Orange,B,4.958333333333334,4.833333333333333,ScrollUp,ScrollDown,Orange.png,3,Neutral,Neutral,,,,,0,0,0,0,,,,,,,,,,,,,,,,,,,,,0,25,25,25,,,,,,,,,,,,,,,,,,,,,,,,,,,,,,,,,,,,,,,,,,,,,,,,,,,,,,,,,,,,,,,,,,,,,,,,,2,1.2289688000455499,431.54252210003324,None,ScrollUp,정답입니다,431.54252210003324,None,431.54252210003324,None,431.54252210003324,None,431.54252210003324,None,432.6313978000544,None,432.6313978000544,433.14548250008374,,,,,,,,,,,,,,,,132,2022-05-17_16h56.09.348,FishGame,2022.1.1,59.96436913789378,
,27,넌 교양없어,5,Green,A,2.416666666666667,2.2,ScrollDown,ScrollUp,Green.png,3,Negative,Incongruent,,,,,0,0,0,0,,,,,,,,,,,,,,,,,,,,,0,26,26,26,,,,,,,,,,,,,,,,,,,,,,,,,,,,,,,,,,,,,,,,,,,,,,,,,,,,,,,,,,,,,,,,,,,,,,,,,1,1.023360300110653,433.8066086000763,None,ScrollDown,정답입니다,433.8066086000763,None,433.8066086000763,None,433.8066086000763,None,433.8066086000763,None,434.69547950010747,None,434.69547950010747,435.1954890000634,,,,,,,,,,,,,,,,132,2022-05-17_16h56.09.348,FishGame,2022.1.1,59.96436913789378,
,28,나를 보내줘,6,Green,A,0,0,ScrollUp,ScrollDown,Green.png,3,NonTarget,NonTarget,,,,,0,0,0,0,,,,,,,,,,,,,,,,,,,,,0,27,27,27,,,,,,,,,,,,,,,,,,,,,,,,,,,,,,,,,,,,,,,,,,,,,,,,,,,,,,,,,,,,,,,,,,,,,,,,,2,1.0895448001101613,435.8410932000261,None,ScrollUp,정답입니다,435.8410932000261,None,435.8410932000261,None,435.8410932000261,None,435.8410932000261,None,436.8120701001026,None,436.8120701001026,437.3121617999859,,,,,,,,,,,,,,,,132,2022-05-17_16h56.09.348,FishGame,2022.1.1,59.96436913789378,
,29,넌 엉뚱스러워,3,Green,A,4.166666666666667,4.133333333333334,ScrollDown,ScrollUp,Green.png,3,Neutral,Neutral,,,,,0,0,0,0,,,,,,,,,,,,,,,,,,,,,0,28,28,28,,,,,,,,,,,,,,,,,,,,,,,,,,,,,,,,,,,,,,,,,,,,,,,,,,,,,,,,,,,,,,,,,,,,,,,,,1,0.9264758001081645,437.9565860000439,None,ScrollDown,정답입니다,437.9565860000439,None,437.9565860000439,None,437.9565860000439,None,437.9565860000439,None,438.7622965001501,None,438.7622965001501,439.26231550006196,,,,,,,,,,,,,,,,132,2022-05-17_16h56.09.348,FishGame,2022.1.1,59.96436913789378,
,30,넌 무지해,4,Orange,B,2.541666666666667,3.066666666666667,ScrollUp,ScrollDown,Orange.png,3,Negative,Congruent,,,,,0,0,0,0,,,,,,,,,,,,,,,,,,,,,0,29,29,29,,,,,,,,,,,,,,,,,,,,,,,,,,,,,,,,,,,,,,,,,,,,,,,,,,,,,,,,,,,,,,,,,,,,,,,,,2,1.1193764000199735,439.90673140017316,None,ScrollUp,정답입니다,439.90673140017316,None,439.90673140017316,None,439.90673140017316,None,439.90673140017316,None,440.91049150004983,None,440.91049150004983,441.4122864000965,,,,,,,,,,,,,,,,132,2022-05-17_16h56.09.348,FishGame,2022.1.1,59.96436913789378,
,31,넌 음울해,5,Orange,B,2.25,2.233333333333333,ScrollUp,ScrollDown,Orange.png,3,Negative,Congruent,,,,,0,0,0,0,,,,,,,,,,,,,,,,,,,,,0,30,30,30,,,,,,,,,,,,,,,,,,,,,,,,,,,,,,,,,,,,,,,,,,,,,,,,,,,,,,,,,,,,,,,,,,,,,,,,,2,0.9116344000212848,442.0718988000881,None,ScrollUp,정답입니다,442.0718988000881,None,442.0718988000881,None,442.0718988000881,None,442.0718988000881,None,442.84558039996773,None,442.84558039996773,443.3457841000054,,,,,,,,,,,,,,,,132,2022-05-17_16h56.09.348,FishGame,2022.1.1,59.96436913789378,
,32,넌 냉소적이야,5,Green,A,2.916666666666667,2.4,ScrollDown,ScrollUp,Green.png,3,Negative,Incongruent,,,,,0,0,0,0,,,,,,,,,,,,,,,,,,,,,0,31,31,31,,,,,,,,,,,,,,,,,,,,,,,,,,,,,,,,,,,,,,,,,,,,,,,,,,,,,,,,,,,,,,,,,,,,,,,,,1,0.9527745000086725,443.99016569997184,None,ScrollDown,정답입니다,443.99016569997184,None,443.99016569997184,None,443.99016569997184,None,443.99016569997184,None,444.8272106000222,None,444.8272106000222,445.32905040006153,,,,,,,,,,,,,,,,132,2022-05-17_16h56.09.348,FishGame,2022.1.1,59.96436913789378,
,33,나를 데려가줘,6,Orange,B,0,0,ScrollDown,ScrollUp,Orange.png,3,NonTarget,NonTarget,,,,,0,0,0,0,,,,,,,,,,,,,,,,,,,,,0,32,32,32,,,,,,,,,,,,,,,,,,,,,,,,,,,,,,,,,,,,,,,,,,,,,,,,,,,,,,,,,,,,,,,,,,,,,,,,,1,1.8226223001256585,445.97646869998425,None,ScrollDown,정답입니다,445.97646869998425,None,445.97646869998425,None,445.97646869998425,None,445.97646869998425,None,447.67900380003266,None,447.67900380003266,448.17904520011507,,,,,,,,,,,,,,,,132,2022-05-17_16h56.09.348,FishGame,2022.1.1,59.96436913789378,
,34,넌 쾌활해,1,Green,A,5.541666666666666,5.733333333333333,ScrollDown,ScrollUp,Green.png,3,Positive,Congruent,,,,,0,0,0,0,,,,,,,,,,,,,,,,,,,,,0,33,33,33,,,,,,,,,,,,,,,,,,,,,,,,,,,,,,,,,,,,,,,,,,,,,,,,,,,,,,,,,,,,,,,,,,,,,,,,,1,1.0072804000228643,448.8391110000666,None,ScrollDown,정답입니다,448.8391110000666,None,448.8391110000666,None,448.8391110000666,None,448.8391110000666,None,449.71237049996853,None,449.71237049996853,450.2125624001492,,,,,,,,,,,,,,,,132,2022-05-17_16h56.09.348,FishGame,2022.1.1,59.96436913789378,
,35,나를 보내줘,6,Green,A,0,0,ScrollUp,ScrollDown,Green.png,3,NonTarget,NonTarget,,,,,0,0,0,0,,,,,,,,,,,,,,,,,,,,,0,34,34,34,,,,,,,,,,,,,,,,,,,,,,,,,,,,,,,,,,,,,,,,,,,,,,,,,,,,,,,,,,,,,,,,,,,,,,,,,2,1.152825600001961,450.8551104001235,None,ScrollUp,정답입니다,450.8551104001235,None,450.8551104001235,None,450.8551104001235,None,450.8551104001235,None,451.894063499989,None,451.894063499989,452.3958446001634,,,,,,,,,,,,,,,,132,2022-05-17_16h56.09.348,FishGame,2022.1.1,59.96436913789378,
,36,넌 명랑해,1,Orange,B,5.739130434782609,5.666666666666667,ScrollUp,ScrollDown,Orange.png,3,Positive,Incongruent,,,,,0,0,0,0,,,,,,,,,,,,,,,,,,,,,0,35,35,35,,,,,,,,,,,,,,,,,,,,,,,,,,,,,,,,,,,,,,,,,,,,,,,,,,,,,,,,,,,,,,,,,,,,,,,,,2,1.120549299987033,453.0479407000821,None,ScrollUp,정답입니다,453.0479407000821,None,453.0479407000821,None,453.0479407000821,None,453.0479407000821,None,454.04409900004975,None,454.04409900004975,454.545948300045,,,,,,,,,,,,,,,,132,2022-05-17_16h56.09.348,FishGame,2022.1.1,59.96436913789378,
,37,넌 멍해,4,Green,A,2.833333333333333,3.4,ScrollDown,ScrollUp,Green.png,3,Negative,Incongruent,,,,,0,0,0,0,,,,,,,,,,,,,,,,,,,,,0,36,36,36,,,,,,,,,,,,,,,,,,,,,,,,,,,,,,,,,,,,,,,,,,,,,,,,,,,,,,,,,,,,,,,,,,,,,,,,,1,1.279062599875033,455.19118760013953,None,ScrollDown,정답입니다,455.19118760013953,None,455.19118760013953,None,455.19118760013953,None,455.19118760013953,None,456.34622130007483,None,456.34622130007483,456.84602429997176,,,,,,,,,,,,,,,,132,2022-05-17_16h56.09.348,FishGame,2022.1.1,59.96436913789378,
,38,나를 데려가줘,6,Orange,B,0,0,ScrollDown,ScrollUp,Orange.png,3,NonTarget,NonTarget,,,,,0,0,0,0,,,,,,,,,,,,,,,,,,,,,0,37,37,37,,,,,,,,,,,,,,,,,,,,,,,,,,,,,,,,,,,,,,,,,,,,,,,,,,,,,,,,,,,,,,,,,,,,,,,,,1,1.1086248999927193,457.4932426000014,None,ScrollDown,정답입니다,457.4932426000014,None,457.4932426000014,None,457.4932426000014,None,457.4932426000014,None,458.4792090000119,None,458.4792090000119,458.9792965000961,,,,,,,,,,,,,,,,132,2022-05-17_16h56.09.348,FishGame,2022.1.1,59.96436913789378,
,39,넌 현명해,2,Green,A,6.541666666666666,4.533333333333333,ScrollDown,ScrollUp,Green.png,3,Positive,Congruent,,,,,0,0,0,0,,,,,,,,,,,,,,,,,,,,,0,38,38,38,,,,,,,,,,,,,,,,,,,,,,,,,,,,,,,,,,,,,,,,,,,,,,,,,,,,,,,,,,,,,,,,,,,,,,,,,1,1.0287111001089215,459.62513240007684,None,ScrollDown,정답입니다,459.62513240007684,None,459.62513240007684,None,459.62513240007684,None,459.62513240007684,None,460.52921660011634,None,460.52921660011634,461.0293466001749,,,,,,,,,,,,,,,,132,2022-05-17_16h56.09.348,FishGame,2022.1.1,59.96436913789378,
,40,넌 수줍어,3,Orange,B,3.541666666666666,4.366666666666666,ScrollUp,ScrollDown,Orange.png,3,Neutral,Neutral,,,,,0,0,0,0,,,,,,,,,,,,,,,,,,,,,0,39,39,39,,,,,,,,,,,,,,,,,,,,,,,,,,,,,,,,,,,,,,,,,,,,,,,,,,,,,,,,,,,,,,,,,,,,,,,,,2,0.98673260002397,461.6824313001707,None,ScrollUp,정답입니다,461.6824313001707,None,461.6824313001707,None,461.6824313001707,None,461.6824313001707,None,462.54428660008125,None,462.54428660008125,463.0459214001894,,,,,,,,,,,,,,,,132,2022-05-17_16h56.09.348,FishGame,2022.1.1,59.96436913789378,
,41,나를 데려가줘,6,Orange,B,0,0,ScrollDown,ScrollUp,Orange.png,3,NonTarget,NonTarget,,,,,0,0,0,0,,,,,,,,,,,,,,,,,,,,,0,40,40,40,,,,,,,,,,,,,,,,,,,,,,,,,,,,,,,,,,,,,,,,,,,,,,,,,,,,,,,,,,,,,,,,,,,,,,,,,1,1.1170892999507487,463.6902086001355,None,ScrollDown,정답입니다,463.6902086001355,None,463.6902086001355,None,463.6902086001355,None,463.6902086001355,None,464.68413700000383,None,464.68413700000383,465.1961170001887,,,,,,,,,,,,,,,,132,2022-05-17_16h56.09.348,FishGame,2022.1.1,59.96436913789378,
,42,넌 성숙해,2,Orange,B,5.833333333333333,4.533333333333333,ScrollUp,ScrollDown,Orange.png,3,Positive,Incongruent,,,,,0,0,0,0,,,,,,,,,,,,,,,,,,,,,0,41,41,41,,,,,,,,,,,,,,,,,,,,,,,,,,,,,,,,,,,,,,,,,,,,,,,,,,,,,,,,,,,,,,,,,,,,,,,,,2,1.0561640001833439,465.84391240007244,None,ScrollUp,정답입니다,465.84391240007244,None,465.84391240007244,None,465.84391240007244,None,465.84391240007244,None,466.7794455999974,None,466.7794455999974,467.2794814000372,,,,,,,,,,,,,,,,132,2022-05-17_16h56.09.348,FishGame,2022.1.1,59.96436913789378,
,1,넌 매력적이야,2,Orange,B,6.125,4.666666666666667,ScrollUp,ScrollDown,Orange.png,4,Positive,Incongruent,,,,,0,0,0,0,,,,,,,,,,,,,,,,,,,,,,,,,0,0,0,0,,,,,,,,,,,,,,,,,,,,,,,,,,,,502.1804655001033,503.6804086000193,503.71371000004,504.6637508000713,504.7137553000357,505.66384740010835,505.66384740010835,None,,,,,,,,,,,,,,,,,,,,,,,,,,,,,,,,,,2,1.1990612000226974,506.8476819000207,None,ScrollUp,정답입니다,506.8476819000207,None,506.8476819000207,None,506.8476819000207,None,506.8476819000207,None,507.86199560016394,None,507.86199560016394,508.3638510000892,467.77942869998515,None,467.77942869998515,None,0.23518519,-0.119444445,1,0,0,0.015817130217328668,None,497.7802473001648,None,,,132,2022-05-17_16h56.09.348,FishGame,2022.1.1,59.96436913789378,
,2,나를 보내줘,6,Green,A,0,0,ScrollUp,ScrollDown,Green.png,4,NonTarget,NonTarget,,,,,0,0,0,0,,,,,,,,,,,,,,,,,,,,,,,,,0,1,1,1,,,,,,,,,,,,,,,,,,,,,,,,,,,,,,,,,,,,,,,,,,,,,,,,,,,,,,,,,,,,,,,,,,,,,2,1.000430200016126,509.00727840000764,None,ScrollUp,정답입니다,509.00727840000764,None,509.00727840000764,None,509.00727840000764,None,509.00727840000764,None,509.88568150019273,None,509.88568150019273,510.3970712001901,,,,,,,,,,,,,,,,132,2022-05-17_16h56.09.348,FishGame,2022.1.1,59.96436913789378,
,3,넌 조심스러워,3,Green,A,4.791666666666666,4.666666666666667,ScrollDown,ScrollUp,Green.png,4,Neutral,Neutral,,,,,0,0,0,0,,,,,,,,,,,,,,,,,,,,,,,,,0,2,2,2,,,,,,,,,,,,,,,,,,,,,,,,,,,,,,,,,,,,,,,,,,,,,,,,,,,,,,,,,,,,,,,,,,,,,1,0.951040199957788,511.03631029999815,None,ScrollDown,정답입니다,511.03631029999815,None,511.03631029999815,None,511.03631029999815,None,511.03631029999815,None,511.87872599996626,None,511.87872599996626,512.3809356000274,,,,,,,,,,,,,,,,132,2022-05-17_16h56.09.348,FishGame,2022.1.1,59.96436913789378,
,4,넌 철학적이야,3,Orange,B,4.5,4.266666666666667,ScrollUp,ScrollDown,Orange.png,4,Neutral,Neutral,,,,,0,0,0,0,,,,,,,,,,,,,,,,,,,,,,,,,0,3,3,3,,,,,,,,,,,,,,,,,,,,,,,,,,,,,,,,,,,,,,,,,,,,,,,,,,,,,,,,,,,,,,,,,,,,,2,0.9100382998585701,513.0425774999894,None,ScrollUp,정답입니다,513.0425774999894,None,513.0425774999894,None,513.0425774999894,None,513.0425774999894,None,513.813749199966,None,513.813749199966,514.3138561001979,,,,,,,,,,,,,,,,132,2022-05-17_16h56.09.348,FishGame,2022.1.1,59.96436913789378,
,5,넌 쩨쩨해,5,Green,A,2.375,2.133333333333333,ScrollDown,ScrollUp,Green.png,4,Negative,Incongruent,,,,,0,0,0,0,,,,,,,,,,,,,,,,,,,,,,,,,0,4,4,4,,,,,,,,,,,,,,,,,,,,,,,,,,,,,,,,,,,,,,,,,,,,,,,,,,,,,,,,,,,,,,,,,,,,,1.0385802288850148,0.8539400999434292,514.958407800179,None,ScrollDown,정답입니다,514.958407800179,None,514.958407800179,None,514.958407800179,None,514.958407800179,None,515.6971948000137,None,515.6971948000137,516.1972527999897,,,,,,,,,,,,,,,,132,2022-05-17_16h56.09.348,FishGame,2022.1.1,59.96436913789378,
,6,나를 데려가줘,6,Orange,B,0,0,ScrollDown,ScrollUp,Orange.png,4,NonTarget,NonTarget,,,,,0,0,0,0,,,,,,,,,,,,,,,,,,,,,,,,,0,5,5,5,,,,,,,,,,,,,,,,,,,,,,,,,,,,,,,,,,,,,,,,,,,,,,,,,,,,,,,,,,,,,,,,,,,,,1,1.036272499943152,516.8441316001117,None,ScrollDown,정답입니다,516.8441316001117,None,516.8441316001117,None,516.8441316001117,None,516.8441316001117,None,517.7621623000596,None,517.7621623000596,518.2639103000984,,,,,,,,,,,,,,,,132,2022-05-17_16h56.09.348,FishGame,2022.1.1,59.96436913789378,
,7,넌 고집불통이야,5,Orange,B,2.875,2,ScrollUp,ScrollDown,Orange.png,4,Negative,Congruent,,,,,0,0,0,0,,,,,,,,,,,,,,,,,,,,,,,,,0,6,6,6,,,,,,,,,,,,,,,,,,,,,,,,,,,,,,,,,,,,,,,,,,,,,,,,,,,,,,,,,,,,,,,,,,,,,2,1.0169296998064965,518.9302633001935,None,ScrollUp,정답입니다,518.9302633001935,None,518.9302633001935,None,518.9302633001935,None,518.9302633001935,None,519.8025090000592,None,519.8025090000592,520.3140471000224,,,,,,,,,,,,,,,,132,2022-05-17_16h56.09.348,FishGame,2022.1.1,59.96436913789378,
,8,넌 무심해,4,Green,A,2.875,3.2,ScrollDown,ScrollUp,Green.png,4,Negative,Incongruent,,,,,0,0,0,0,,,,,,,,,,,,,,,,,,,,,,,,,0,7,7,7,,,,,,,,,,,,,,,,,,,,,,,,,,,,,,,,,,,,,,,,,,,,,,,,,,,,,,,,,,,,,,,,,,,,,1,0.9664276000112295,520.9572422001511,None,ScrollDown,정답입니다,520.9572422001511,None,520.9572422001511,None,520.9572422001511,None,520.9572422001511,None,521.8020581000019,None,521.8020581000019,522.3139941000845,,,,,,,,,,,,,,,,132,2022-05-17_16h56.09.348,FishGame,2022.1.1,59.96436913789378,
,9,넌 정겨워,1,Green,A,5.791666666666667,5.666666666666667,ScrollDown,ScrollUp,Green.png,4,Positive,Congruent,,,,,0,0,0,0,,,,,,,,,,,,,,,,,,,,,,,,,0,8,8,8,,,,,,,,,,,,,,,,,,,,,,,,,,,,,,,,,,,,,,,,,,,,,,,,,,,,,,,,,,,,,,,,,,,,,1,0.8669259001035243,522.9638223000802,None,ScrollDown,정답입니다,522.9638223000802,None,522.9638223000802,None,522.9638223000802,None,522.9638223000802,None,523.7020535999909,None,523.7020535999909,524.2141503000166,,,,,,,,,,,,,,,,132,2022-05-17_16h56.09.348,FishGame,2022.1.1,59.96436913789378,
,10,나를 데려가줘,6,Orange,B,0,0,ScrollDown,ScrollUp,Orange.png,4,NonTarget,NonTarget,,,,,0,0,0,0,,,,,,,,,,,,,,,,,,,,,,,,,0,9,9,9,,,,,,,,,,,,,,,,,,,,,,,,,,,,,,,,,,,,,,,,,,,,,,,,,,,,,,,,,,,,,,,,,,,,,1,1.0552937998436391,524.8677554000169,None,ScrollDown,정답입니다,524.8677554000169,None,524.8677554000169,None,524.8677554000169,None,524.8677554000169,None,525.7955716999713,None,525.7955716999713,526.297402900178,,,,,,,,,,,,,,,,132,2022-05-17_16h56.09.348,FishGame,2022.1.1,59.96436913789378,
,11,넌 체제순응적이야,4,Orange,B,3,3.6,ScrollUp,ScrollDown,Orange.png,4,Negative,Congruent,,,,,0,0,0,0,,,,,,,,,,,,,,,,,,,,,,,,,0,10,10,10,,,,,,,,,,,,,,,,,,,,,,,,,,,,,,,,,,,,,,,,,,,,,,,,,,,,,,,,,,,,,,,,,,,,,2,1.0731254001148045,526.9607856001239,None,ScrollUp,정답입니다,526.9607856001239,None,526.9607856001239,None,526.9607856001239,None,526.9607856001239,None,527.8960216999985,None,527.8960216999985,528.397550499998,,,,,,,,,,,,,,,,132,2022-05-17_16h56.09.348,FishGame,2022.1.1,59.96436913789378,
,12,나를 보내줘,6,Green,A,0,0,ScrollUp,ScrollDown,Green.png,4,NonTarget,NonTarget,,,,,0,0,0,0,,,,,,,,,,,,,,,,,,,,,,,,,0,11,11,11,,,,,,,,,,,,,,,,,,,,,,,,,,,,,,,,,,,,,,,,,,,,,,,,,,,,,,,,,,,,,,,,,,,,,2,1.0568740998860449,529.0439059999771,None,ScrollUp,정답입니다,529.0439059999771,None,529.0439059999771,None,529.0439059999771,None,529.0439059999771,None,529.9790231001098,None,529.9790231001098,530.4808777000289,,,,,,,,,,,,,,,,132,2022-05-17_16h56.09.348,FishGame,2022.1.1,59.96436913789378,
,13,넌 박식해,2,Green,A,5.625,3.933333333333333,ScrollDown,ScrollUp,Green.png,4,Positive,Congruent,,,,,0,0,0,0,,,,,,,,,,,,,,,,,,,,,,,,,0,12,12,12,,,,,,,,,,,,,,,,,,,,,,,,,,,,,,,,,,,,,,,,,,,,,,,,,,,,,,,,,,,,,,,,,,,,,1,0.9057709001936018,531.1383637001272,None,ScrollDown,정답입니다,531.1383637001272,None,531.1383637001272,None,531.1383637001272,None,531.1383637001272,None,531.9123810001183,None,531.9123810001183,532.4142040000297,,,,,,,,,,,,,,,,132,2022-05-17_16h56.09.348,FishGame,2022.1.1,59.96436913789378,
,14,나를 보내줘,6,Green,A,0,0,ScrollUp,ScrollDown,Green.png,4,NonTarget,NonTarget,,,,,0,0,0,0,,,,,,,,,,,,,,,,,,,,,,,,,0,13,13,13,,,,,,,,,,,,,,,,,,,,,,,,,,,,,,,,,,,,,,,,,,,,,,,,,,,,,,,,,,,,,,,,,,,,,2,1.0142868000548333,533.0540434001014,None,ScrollUp,정답입니다,533.0540434001014,None,533.0540434001014,None,533.0540434001014,None,533.0540434001014,None,533.951136900112,None,533.951136900112,534.4643477001227,,,,,,,,,,,,,,,,132,2022-05-17_16h56.09.348,FishGame,2022.1.1,59.96436913789378,
,15,넌 침착해,1,Orange,B,5.458333333333333,5.566666666666666,ScrollUp,ScrollDown,Orange.png,4,Positive,Incongruent,,,,,0,0,0,0,,,,,,,,,,,,,,,,,,,,,,,,,0,14,14,14,,,,,,,,,,,,,,,,,,,,,,,,,,,,,,,,,,,,,,,,,,,,,,,,,,,,,,,,,,,,,,,,,,,,,2,1.0809502999763936,535.1169426999986,None,ScrollUp,정답입니다,535.1169426999986,None,535.1169426999986,None,535.1169426999986,None,535.1169426999986,None,536.06957170018,None,536.06957170018,536.5810033001471,,,,,,,,,,,,,,,,132,2022-05-17_16h56.09.348,FishGame,2022.1.1,59.96436913789378,
,16,나를 데려가줘,6,Orange,B,0,0,ScrollDown,ScrollUp,Orange.png,4,NonTarget,NonTarget,,,,,0,0,0,0,,,,,,,,,,,,,,,,,,,,,,,,,0,15,15,15,,,,,,,,,,,,,,,,,,,,,,,,,,,,,,,,,,,,,,,,,,,,,,,,,,,,,,,,,,,,,,,,,,,,,1,1.0794991999864578,537.2297668000683,None,ScrollDown,정답입니다,537.2297668000683,None,537.2297668000683,None,537.2297668000683,None,537.2297668000683,None,538.181408500066,None,538.181408500066,538.6811703001149,,,,,,,,,,,,,,,,132,2022-05-17_16h56.09.348,FishGame,2022.1.1,59.96436913789378,
,17,넌 행복해,1,Green,A,6.416666666666666,6.166666666666667,ScrollDown,ScrollUp,Green.png,4,Positive,Congruent,,,,,0,0,0,0,,,,,,,,,,,,,,,,,,,,,,,,,0,16,16,16,,,,,,,,,,,,,,,,,,,,,,,,,,,,,,,,,,,,,,,,,,,,,,,,,,,,,,,,,,,,,,,,,,,,,1,0.9960070000961423,539.3348334000912,None,ScrollDown,정답입니다,539.3348334000912,None,539.3348334000912,None,539.3348334000912,None,539.3348334000912,None,540.2003629000392,None,540.2003629000392,540.7143469001167,,,,,,,,,,,,,,,,132,2022-05-17_16h56.09.348,FishGame,2022.1.1,59.96436913789378,
,18,넌 겸손해,2,Orange,B,5.791666666666667,4.766666666666667,ScrollUp,ScrollDown,Orange.png,4,Positive,Incongruent,,,,,0,0,0,0,,,,,,,,,,,,,,,,,,,,,,,,,0,17,17,17,,,,,,,,,,,,,,,,,,,,,,,,,,,,,,,,,,,,,,,,,,,,,,,,,,,,,,,,,,,,,,,,,,,,,2,1.153821500018239,541.3738692000043,None,ScrollUp,정답입니다,541.3738692000043,None,541.3738692000043,None,541.3738692000043,None,541.3738692000043,None,542.3960917000659,None,542.3960917000659,542.8977725000586,,,,,,,,,,,,,,,,132,2022-05-17_16h56.09.348,FishGame,2022.1.1,59.96436913789378,
,19,나를 보내줘,6,Green,A,0,0,ScrollUp,ScrollDown,Green.png,4,NonTarget,NonTarget,,,,,0,0,0,0,,,,,,,,,,,,,,,,,,,,,,,,,0,18,18,18,,,,,,,,,,,,,,,,,,,,,,,,,,,,,,,,,,,,,,,,,,,,,,,,,,,,,,,,,,,,,,,,,,,,,2,1.0702994000166655,543.5453580000903,None,ScrollUp,정답입니다,543.5453580000903,None,543.5453580000903,None,543.5453580000903,None,543.5453580000903,None,544.4961502000224,None,544.4961502000224,544.9979396001436,,,,,,,,,,,,,,,,132,2022-05-17_16h56.09.348,FishGame,2022.1.1,59.96436913789378,
,20,넌 의심없어,3,Green,A,4.166666666666667,4.6,ScrollDown,ScrollUp,Green.png,4,Neutral,Neutral,,,,,0,0,0,0,,,,,,,,,,,,,,,,,,,,,,,,,0,19,19,19,,,,,,,,,,,,,,,,,,,,,,,,,,,,,,,,,,,,,,,,,,,,,,,,,,,,,,,,,,,,,,,,,,,,,1,1.2428639999125153,545.6405174999963,None,ScrollDown,정답입니다,545.6405174999963,None,545.6405174999963,None,545.6405174999963,None,545.6405174999963,None,546.7646290999837,None,546.7646290999837,547.2645998001099,,,,,,,,,,,,,,,,132,2022-05-17_16h56.09.348,FishGame,2022.1.1,59.96436913789378,
,21,넌 시시해,4,Green,A,2.666666666666667,2.966666666666667,ScrollDown,ScrollUp,Green.png,4,Negative,Incongruent,,,,,0,0,0,0,,,,,,,,,,,,,,,,,,,,,,,,,0,20,20,20,,,,,,,,,,,,,,,,,,,,,,,,,,,,,,,,,,,,,,,,,,,,,,,,,,,,,,,,,,,,,,,,,,,,,1,0.9217022999655455,547.9067993999925,None,ScrollDown,정답입니다,547.9067993999925,None,547.9067993999925,None,547.9067993999925,None,547.9067993999925,None,548.7111686000135,None,548.7111686000135,549.2146652000956,,,,,,,,,,,,,,,,132,2022-05-17_16h56.09.348,FishGame,2022.1.1,59.96436913789378,
,22,나를 데려가줘,6,Orange,B,0,0,ScrollDown,ScrollUp,Orange.png,4,NonTarget,NonTarget,,,,,0,0,0,0,,,,,,,,,,,,,,,,,,,,,,,,,0,21,21,21,,,,,,,,,,,,,,,,,,,,,,,,,,,,,,,,,,,,,,,,,,,,,,,,,,,,,,,,,,,,,,,,,,,,,1,1.1841374000068754,549.8668844001368,None,ScrollDown,정답입니다,549.8668844001368,None,549.8668844001368,None,549.8668844001368,None,549.8668844001368,None,550.9296403001063,None,550.9296403001063,551.4315991001204,,,,,,,,,,,,,,,,132,2022-05-17_16h56.09.348,FishGame,2022.1.1,59.96436913789378,
,23,넌 무정해,5,Green,A,2.5,2.2,ScrollDown,ScrollUp,Green.png,4,Negative,Incongruent,,,,,0,0,0,0,,,,,,,,,,,,,,,,,,,,,,,,,0,22,22,22,,,,,,,,,,,,,,,,,,,,,,,,,,,,,,,,,,,,,,,,,,,,,,,,,,,,,,,,,,,,,,,,,,,,,1,1.0405103999655694,552.0725909001194,None,ScrollDown,정답입니다,552.0725909001194,None,552.0725909001194,None,552.0725909001194,None,552.0725909001194,None,552.9979817999993,None,552.9979817999993,553.4979956999887,,,,,,,,,,,,,,,,132,2022-05-17_16h56.09.348,FishGame,2022.1.1,59.96436913789378,
,24,넌 긍정적이야,1,Orange,B,6.041666666666667,6.066666666666666,ScrollUp,ScrollDown,Orange.png,4,Positive,Incongruent,,,,,0,0,0,0,,,,,,,,,,,,,,,,,,,,,,,,,0,23,23,23,,,,,,,,,,,,,,,,,,,,,,,,,,,,,,,,,,,,,,,,,,,,,,,,,,,,,,,,,,,,,,,,,,,,,1.9413580397764842,0.9821427999995649,554.1600925000384,None,ScrollUp,정답입니다,554.1600925000384,None,554.1600925000384,None,554.1600925000384,None,554.1600925000384,None,555.0211354000494,None,555.0211354000494,555.5315342000686,,,,,,,,,,,,,,,,132,2022-05-17_16h56.09.348,FishGame,2022.1.1,59.96436913789378,
,25,나를 보내줘,6,Green,A,0,0,ScrollUp,ScrollDown,Green.png,4,NonTarget,NonTarget,,,,,0,0,0,0,,,,,,,,,,,,,,,,,,,,,,,,,0,24,24,24,,,,,,,,,,,,,,,,,,,,,,,,,,,,,,,,,,,,,,,,,,,,,,,,,,,,,,,,,,,,,,,,,,,,,2,1.0619138001929969,556.2015246001538,None,ScrollUp,정답입니다,556.2015246001538,None,556.2015246001538,None,556.2015246001538,None,556.2015246001538,None,557.1177571001463,None,557.1177571001463,557.6315850999672,,,,,,,,,,,,,,,,132,2022-05-17_16h56.09.348,FishGame,2022.1.1,59.96436913789378,
,26,넌 시기심이 많아,5,Orange,B,2.458333333333333,2.233333333333333,ScrollUp,ScrollDown,Orange.png,4,Negative,Congruent,,,,,0,0,0,0,,,,,,,,,,,,,,,,,,,,,,,,,0,25,25,25,,,,,,,,,,,,,,,,,,,,,,,,,,,,,,,,,,,,,,,,,,,,,,,,,,,,,,,,,,,,,,,,,,,,,2,1.0444510001689196,558.3302086000331,None,ScrollUp,정답입니다,558.3302086000331,None,558.3302086000331,None,558.3302086000331,None,558.3302086000331,None,559.2149714000989,None,559.2149714000989,559.7149195000529,,,,,,,,,,,,,,,,132,2022-05-17_16h56.09.348,FishGame,2022.1.1,59.96436913789378,
,27,넌 탁월해,2,Green,A,5.708333333333334,4.5,ScrollDown,ScrollUp,Green.png,4,Positive,Congruent,,,,,0,0,0,0,,,,,,,,,,,,,,,,,,,,,,,,,0,26,26,26,,,,,,,,,,,,,,,,,,,,,,,,,,,,,,,,,,,,,,,,,,,,,,,,,,,,,,,,,,,,,,,,,,,,,1,0.9960473999381065,560.3729805999901,None,ScrollDown,정답입니다,560.3729805999901,None,560.3729805999901,None,560.3729805999901,None,560.3729805999901,None,561.2346085000318,None,561.2346085000318,561.7482906000223,,,,,,,,,,,,,,,,132,2022-05-17_16h56.09.348,FishGame,2022.1.1,59.96436913789378,
,28,나를 데려가줘,6,Orange,B,0,0,ScrollDown,ScrollUp,Orange.png,4,NonTarget,NonTarget,,,,,0,0,0,0,,,,,,,,,,,,,,,,,,,,,,,,,0,27,27,27,,,,,,,,,,,,,,,,,,,,,,,,,,,,,,,,,,,,,,,,,,,,,,,,,,,,,,,,,,,,,,,,,,,,,1,0.9226181001868099,562.4096451001242,None,ScrollDown,정답입니다,562.4096451001242,None,562.4096451001242,None,562.4096451001242,None,562.4096451001242,None,563.1981422000099,None,563.1981422000099,563.6984571001958,,,,,,,,,,,,,,,,132,2022-05-17_16h56.09.348,FishGame,2022.1.1,59.96436913789378,
,29,넌 조용해,3,Orange,B,4.333333333333333,4.166666666666667,ScrollUp,ScrollDown,Orange.png,4,Neutral,Neutral,,,,,0,0,0,0,,,,,,,,,,,,,,,,,,,,,,,,,0,28,28,28,,,,,,,,,,,,,,,,,,,,,,,,,,,,,,,,,,,,,,,,,,,,,,,,,,,,,,,,,,,,,,,,,,,,,2,1.018051699968055,564.3549515001941,None,ScrollUp,정답입니다,564.3549515001941,None,564.3549515001941,None,564.3549515001941,None,564.3549515001941,None,565.236144100083,None,565.236144100083,565.7484171001706,,,,,,,,,,,,,,,,132,2022-05-17_16h56.09.348,FishGame,2022.1.1,59.96436913789378,
,30,넌 다정해,1,Green,A,5.833333333333334,5.7,ScrollDown,ScrollUp,Green.png,4,Positive,Congruent,,,,,0,0,0,0,,,,,,,,,,,,,,,,,,,,,,,,,0,29,29,29,,,,,,,,,,,,,,,,,,,,,,,,,,,,,,,,,,,,,,,,,,,,,,,,,,,,,,,,,,,,,,,,,,,,,1,0.9275436999741942,566.3970786000136,None,ScrollDown,정답입니다,566.3970786000136,None,566.3970786000136,None,566.3970786000136,None,566.3970786000136,None,567.1982931999955,None,567.1982931999955,567.6983690999914,,,,,,,,,,,,,,,,132,2022-05-17_16h56.09.348,FishGame,2022.1.1,59.96436913789378,
,31,넌 능력있어,2,Orange,B,6.166666666666666,4.6,ScrollUp,ScrollDown,Orange.png,4,Positive,Incongruent,,,,,0,0,0,0,,,,,,,,,,,,,,,,,,,,,,,,,0,30,30,30,,,,,,,,,,,,,,,,,,,,,,,,,,,,,,,,,,,,,,,,,,,,,,,,,,,,,,,,,,,,,,,,,,,,,2,1.1008973000571132,568.3643716999795,None,ScrollUp,정답입니다,568.3643716999795,None,568.3643716999795,None,568.3643716999795,None,568.3643716999795,None,569.3197504000273,None,569.3197504000273,569.8316766000353,,,,,,,,,,,,,,,,132,2022-05-17_16h56.09.348,FishGame,2022.1.1,59.96436913789378,
,32,넌 불쾌해,5,Green,A,2.125,1.933333333333333,ScrollDown,ScrollUp,Green.png,4,Negative,Incongruent,,,,,0,0,0,0,,,,,,,,,,,,,,,,,,,,,,,,,0,31,31,31,,,,,,,,,,,,,,,,,,,,,,,,,,,,,,,,,,,,,,,,,,,,,,,,,,,,,,,,,,,,,,,,,,,,,1,1.0201685000211,570.4766222999897,None,ScrollDown,정답입니다,570.4766222999897,None,570.4766222999897,None,570.4766222999897,None,570.4766222999897,None,571.3800533001777,None,571.3800533001777,571.8817804001737,,,,,,,,,,,,,,,,132,2022-05-17_16h56.09.348,FishGame,2022.1.1,59.96436913789378,
,33,나를 데려가줘,6,Orange,B,0,0,ScrollDown,ScrollUp,Orange.png,4,NonTarget,NonTarget,,,,,0,0,0,0,,,,,,,,,,,,,,,,,,,,,,,,,0,32,32,32,,,,,,,,,,,,,,,,,,,,,,,,,,,,,,,,,,,,,,,,,,,,,,,,,,,,,,,,,,,,,,,,,,,,,1,1.4790350999683142,572.5401381000411,None,ScrollDown,정답입니다,572.5401381000411,None,572.5401381000411,None,572.5401381000411,None,572.5401381000411,None,573.8843349001836,None,573.8843349001836,574.3985496000387,,,,,,,,,,,,,,,,132,2022-05-17_16h56.09.348,FishGame,2022.1.1,59.96436913789378,
,34,넌 유순해,3,Green,A,4.458333333333333,5,ScrollDown,ScrollUp,Green.png,4,Neutral,Neutral,,,,,0,0,0,0,,,,,,,,,,,,,,,,,,,,,,,,,0,33,33,33,,,,,,,,,,,,,,,,,,,,,,,,,,,,,,,,,,,,,,,,,,,,,,,,,,,,,,,,,,,,,,,,,,,,,1,0.9441439998336136,575.0334400001448,None,ScrollDown,정답입니다,575.0334400001448,None,575.0334400001448,None,575.0334400001448,None,575.0334400001448,None,575.8651982999872,None,575.8651982999872,576.365339100128,,,,,,,,,,,,,,,,132,2022-05-17_16h56.09.348,FishGame,2022.1.1,59.96436913789378,
,35,넌 근심스러워,4,Orange,B,2.708333333333333,3.133333333333333,ScrollUp,ScrollDown,Orange.png,4,Negative,Congruent,,,,,0,0,0,0,,,,,,,,,,,,,,,,,,,,,,,,,0,34,34,34,,,,,,,,,,,,,,,,,,,,,,,,,,,,,,,,,,,,,,,,,,,,,,,,,,,,,,,,,,,,,,,,,,,,,2,1.0186405000276864,577.0236957999878,None,ScrollUp,정답입니다,577.0236957999878,None,577.0236957999878,None,577.0236957999878,None,577.0236957999878,None,577.9134889000561,None,577.9134889000561,578.4152881000191,,,,,,,,,,,,,,,,132,2022-05-17_16h56.09.348,FishGame,2022.1.1,59.96436913789378,
,36,넌 세련되었어,2,Green,A,5.5,4.6,ScrollDown,ScrollUp,Green.png,4,Positive,Congruent,,,,,0,0,0,0,,,,,,,,,,,,,,,,,,,,,,,,,0,35,35,35,,,,,,,,,,,,,,,,,,,,,,,,,,,,,,,,,,,,,,,,,,,,,,,,,,,,,,,,,,,,,,,,,,,,,1,0.9866257000248879,579.0731334001757,None,ScrollDown,정답입니다,579.0731334001757,None,579.0731334001757,None,579.0731334001757,None,579.0731334001757,None,579.9302561001386,None,579.9302561001386,580.4319166999776,,,,,,,,,,,,,,,,132,2022-05-17_16h56.09.348,FishGame,2022.1.1,59.96436913789378,
,37,나를 보내줘,6,Green,A,0,0,ScrollUp,ScrollDown,Green.png,4,NonTarget,NonTarget,,,,,0,0,0,0,,,,,,,,,,,,,,,,,,,,,,,,,0,36,36,36,,,,,,,,,,,,,,,,,,,,,,,,,,,,,,,,,,,,,,,,,,,,,,,,,,,,,,,,,,,,,,,,,,,,,2,1.104365199804306,581.0774954999797,None,ScrollUp,정답입니다,581.0774954999797,None,581.0774954999797,None,581.0774954999797,None,581.0774954999797,None,582.0636057001539,None,582.0636057001539,582.5655637001619,,,,,,,,,,,,,,,,132,2022-05-17_16h56.09.348,FishGame,2022.1.1,59.96436913789378,
,38,넌 확고해,3,Orange,B,4.708333333333334,4.566666666666666,ScrollUp,ScrollDown,Orange.png,4,Neutral,Neutral,,,,,0,0,0,0,,,,,,,,,,,,,,,,,,,,,,,,,0,37,37,37,,,,,,,,,,,,,,,,,,,,,,,,,,,,,,,,,,,,,,,,,,,,,,,,,,,,,,,,,,,,,,,,,,,,,2,1.0252165000420064,583.2188836999703,None,ScrollUp,정답입니다,583.2188836999703,None,583.2188836999703,None,583.2188836999703,None,583.2188836999703,None,584.1155020000879,None,584.1155020000879,584.6156472000293,,,,,,,,,,,,,,,,132,2022-05-17_16h56.09.348,FishGame,2022.1.1,59.96436913789378,
,39,넌 이해심이 많아,1,Orange,B,6.041666666666668,5.533333333333333,ScrollUp,ScrollDown,Orange.png,4,Positive,Incongruent,,,,,0,0,0,0,,,,,,,,,,,,,,,,,,,,,,,,,0,38,38,38,,,,,,,,,,,,,,,,,,,,,,,,,,,,,,,,,,,,,,,,,,,,,,,,,,,,,,,,,,,,,,,,,,,,,2,1.0688446001149714,585.2903226001654,None,ScrollUp,정답입니다,585.2903226001654,None,585.2903226001654,None,585.2903226001654,None,585.2903226001654,None,586.2137529000174,None,586.2137529000174,586.7159735001624,,,,,,,,,,,,,,,,132,2022-05-17_16h56.09.348,FishGame,2022.1.1,59.96436913789378,
,40,나를 보내줘,6,Green,A,0,0,ScrollUp,ScrollDown,Green.png,4,NonTarget,NonTarget,,,,,0,0,0,0,,,,,,,,,,,,,,,,,,,,,,,,,0,39,39,39,,,,,,,,,,,,,,,,,,,,,,,,,,,,,,,,,,,,,,,,,,,,,,,,,,,,,,,,,,,,,,,,,,,,,2,0.9731502998620272,587.3586450000294,None,ScrollUp,정답입니다,587.3586450000294,None,587.3586450000294,None,587.3586450000294,None,587.3586450000294,None,588.2154763001017,None,588.2154763001017,588.715504599968,,,,,,,,,,,,,,,,132,2022-05-17_16h56.09.348,FishGame,2022.1.1,59.96436913789378,
,41,넌 거칠어,4,Green,A,2.625,3.033333333333333,ScrollDown,ScrollUp,Green.png,4,Negative,Incongruent,,,,,0,0,0,0,,,,,,,,,,,,,,,,,,,,,,,,,0,40,40,40,,,,,,,,,,,,,,,,,,,,,,,,,,,,,,,,,,,,,,,,,,,,,,,,,,,,,,,,,,,,,,,,,,,,,1,0.9699615000281483,589.3677197000943,None,ScrollDown,정답입니다,589.3677197000943,None,589.3677197000943,None,589.3677197000943,None,589.3677197000943,None,590.2138222001959,None,590.2138222001959,590.7156999001745,,,,,,,,,,,,,,,,132,2022-05-17_16h56.09.348,FishGame,2022.1.1,59.96436913789378,
,42,넌 변덕맞아,5,Orange,B,2.75,2.166666666666667,ScrollUp,ScrollDown,Orange.png,4,Negative,Congruent,,,,,0,0,0,0,,,,,,,,,,,,,,,,,,,,,,,,,0,41,41,41,,,,,,,,,,,,,,,,,,,,,,,,,,,,,,,,,,,,,,,,,,,,,,,,,,,,,,,,,,,,,,,,,,,,,2,0.9572563001420349,591.3708013000432,None,ScrollUp,정답입니다,591.3708013000432,None,591.3708013000432,None,591.3708013000432,None,591.3708013000432,None,592.197108700173,None,592.197108700173,592.6989578001667,,,,,,,,,,,,,,,,132,2022-05-17_16h56.09.348,FishGame,2022.1.1,59.96436913789378,
,43,나를 데려가줘,6,Orange,B,0,0,ScrollDown,ScrollUp,Orange.png,4,NonTarget,NonTarget,,,,,0,0,0,0,,,,,,,,,,,,,,,,,,,,,,,,,0,42,42,42,,,,,,,,,,,,,,,,,,,,,,,,,,,,,,,,,,,,,,,,,,,,,,,,,,,,,,,,,,,,,,,,,,,,,1,1.250921999802813,593.350781199988,None,ScrollDown,정답입니다,593.350781199988,None,593.350781199988,None,593.350781199988,None,593.350781199988,None,594.4703728000168,None,594.4703728000168,594.9823460001498,,,,,,,,,,,,,,,,132,2022-05-17_16h56.09.348,FishGame,2022.1.1,59.96436913789378,
,44,넌 외로워,4,Orange,B,2.833333333333333,3.3,ScrollUp,ScrollDown,Orange.png,4,Negative,Congruent,,,,,0,0,0,0,,,,,,,,,,,,,,,,,,,,,,,,,0,43,43,43,,,,,,,,,,,,,,,,,,,,,,,,,,,,,,,,,,,,,,,,,,,,,,,,,,,,,,,,,,,,,,,,,,,,,2,1.1364617999643087,595.6350428999867,None,ScrollUp,정답입니다,595.6350428999867,None,595.6350428999867,None,595.6350428999867,None,595.6350428999867,None,596.6472973001655,None,596.6472973001655,597.1490499000065,,,,,,,,,,,,,,,,132,2022-05-17_16h56.09.348,FishGame,2022.1.1,59.96436913789378,
,1,넌 불평스러워,5,Green,A,2.25,2.066666666666667,ScrollDown,ScrollUp,Green.png,5,Negative,Incongruent,,,,,0,0,0,0,,,,,,,,,,,,,,,,,,,,,,,,,,,,,0,0,0,0,,,,,,,,,,,,,,,,,,,,,,,,634.8000489000697,636.3000194001943,636.3333296000492,637.2834732001647,637.3335385001265,638.283383600181,638.283383600181,None,,,,,,,,,,,,,,,,,,,,,,,,,,,,,,,,,,1,1.0842711001168936,639.4609868000261,None,ScrollDown,정답입니다,639.4609868000261,None,639.4609868000261,None,639.4609868000261,None,639.4609868000261,None,640.3665899001062,None,640.3665899001062,640.8666400001384,597.6489002001472,None,597.6489002001472,None,0.19166666,-0.107407406,1,0,0,0.016251330031082034,None,627.6499197001103,None,,,132,2022-05-17_16h56.09.348,FishGame,2022.1.1,59.96436913789378,
,2,나를 보내줘,6,Green,A,0,0,ScrollUp,ScrollDown,Green.png,5,NonTarget,NonTarget,,,,,0,0,0,0,,,,,,,,,,,,,,,,,,,,,,,,,,,,,0,1,1,1,,,,,,,,,,,,,,,,,,,,,,,,,,,,,,,,,,,,,,,,,,,,,,,,,,,,,,,,,,,,,,,,,2,0.9964334999676794,641.4990664001089,None,ScrollUp,정답입니다,641.4990664001089,None,641.4990664001089,None,641.4990664001089,None,641.4990664001089,None,642.3852240000851,None,642.3852240000851,642.9000087999739,,,,,,,,,,,,,,,,132,2022-05-17_16h56.09.348,FishGame,2022.1.1,59.96436913789378,
,3,넌 다재다능해,2,Orange,B,6.208333333333333,4.5,ScrollUp,ScrollDown,Orange.png,5,Positive,Incongruent,,,,,0,0,0,0,,,,,,,,,,,,,,,,,,,,,,,,,,,,,0,2,2,2,,,,,,,,,,,,,,,,,,,,,,,,,,,,,,,,,,,,,,,,,,,,,,,,,,,,,,,,,,,,,,,,,2,0.9544871000107378,643.5513629000634,None,ScrollUp,정답입니다,643.5513629000634,None,643.5513629000634,None,643.5513629000634,None,643.5513629000634,None,644.3817119000014,None,644.3817119000014,644.883433500072,,,,,,,,,,,,,,,,132,2022-05-17_16h56.09.348,FishGame,2022.1.1,59.96436913789378,
,4,넌 과감해,3,Green,A,4.833333333333334,4.6,ScrollDown,ScrollUp,Green.png,5,Neutral,Neutral,,,,,0,0,0,0,,,,,,,,,,,,,,,,,,,,,,,,,,,,,0,3,3,3,,,,,,,,,,,,,,,,,,,,,,,,,,,,,,,,,,,,,,,,,,,,,,,,,,,,,,,,,,,,,,,,,1,0.868037800071761,645.5221867000218,None,ScrollDown,정답입니다,645.5221867000218,None,645.5221867000218,None,645.5221867000218,None,645.5221867000218,None,646.272007800173,None,646.272007800173,646.7834507001098,,,,,,,,,,,,,,,,132,2022-05-17_16h56.09.348,FishGame,2022.1.1,59.96436913789378,
,5,넌 고분고분해,3,Orange,B,3.75,4.033333333333333,ScrollUp,ScrollDown,Orange.png,5,Neutral,Neutral,,,,,0,0,0,0,,,,,,,,,,,,,,,,,,,,,,,,,,,,,0,4,4,4,,,,,,,,,,,,,,,,,,,,,,,,,,,,,,,,,,,,,,,,,,,,,,,,,,,,,,,,,,,,,,,,,2,0.9235037001781166,647.4331987001933,None,ScrollUp,정답입니다,647.4331987001933,None,647.4331987001933,None,647.4331987001933,None,647.4331987001933,None,648.2383346001152,None,648.2383346001152,648.7503426000476,,,,,,,,,,,,,,,,132,2022-05-17_16h56.09.348,FishGame,2022.1.1,59.96436913789378,
,6,나를 보내줘,6,Green,A,0,0,ScrollUp,ScrollDown,Green.png,5,NonTarget,NonTarget,,,,,0,0,0,0,,,,,,,,,,,,,,,,,,,,,,,,,,,,,0,5,5,5,,,,,,,,,,,,,,,,,,,,,,,,,,,,,,,,,,,,,,,,,,,,,,,,,,,,,,,,,,,,,,,,,2,1.0785337998531759,649.3841481001582,None,ScrollUp,정답입니다,649.3841481001582,None,649.3841481001582,None,649.3841481001582,None,649.3841481001582,None,650.3550433001947,None,650.3550433001947,650.8669748001266,,,,,,,,,,,,,,,,132,2022-05-17_16h56.09.348,FishGame,2022.1.1,59.96436913789378,
,7,넌 잘 잊어,4,Green,A,3,3.7,ScrollDown,ScrollUp,Green.png,5,Negative,Incongruent,,,,,0,0,0,0,,,,,,,,,,,,,,,,,,,,,,,,,,,,,0,6,6,6,,,,,,,,,,,,,,,,,,,,,,,,,,,,,,,,,,,,,,,,,,,,,,,,,,,,,,,,,,,,,,,,,1,1.0175775000825524,651.5224582001101,None,ScrollDown,정답입니다,651.5224582001101,None,651.5224582001101,None,651.5224582001101,None,651.5224582001101,None,652.4051600000821,None,652.4051600000821,652.9170038001612,,,,,,,,,,,,,,,,132,2022-05-17_16h56.09.348,FishGame,2022.1.1,59.96436913789378,
,8,넌 탐구심이없어,4,Orange,B,2.833333333333333,3.066666666666667,ScrollUp,ScrollDown,Orange.png,5,Negative,Congruent,,,,,0,0,0,0,,,,,,,,,,,,,,,,,,,,,,,,,,,,,0,7,7,7,,,,,,,,,,,,,,,,,,,,,,,,,,,,,,,,,,,,,,,,,,,,,,,,,,,,,,,,,,,,,,,,,2,0.9872345000039786,653.5830463001039,None,ScrollUp,정답입니다,653.5830463001039,None,653.5830463001039,None,653.5830463001039,None,653.5830463001039,None,654.431842100108,None,654.431842100108,654.9336702001747,,,,,,,,,,,,,,,,132,2022-05-17_16h56.09.348,FishGame,2022.1.1,59.96436913789378,
,9,나를 데려가줘,6,Orange,B,0,0,ScrollDown,ScrollUp,Orange.png,5,NonTarget,NonTarget,,,,,0,0,0,0,,,,,,,,,,,,,,,,,,,,,,,,,,,,,0,8,8,8,,,,,,,,,,,,,,,,,,,,,,,,,,,,,,,,,,,,,,,,,,,,,,,,,,,,,,,,,,,,,,,,,1,1.0833519999869168,655.6459896001033,None,ScrollDown,정답입니다,655.6459896001033,None,655.6459896001033,None,655.6459896001033,None,655.6459896001033,None,656.5383203001693,None,656.5383203001693,657.0504483999684,,,,,,,,,,,,,,,,132,2022-05-17_16h56.09.348,FishGame,2022.1.1,59.96436913789378,
,10,넌 참되어,2,Green,A,6.041666666666664,4.733333333333333,ScrollDown,ScrollUp,Green.png,5,Positive,Congruent,,,,,0,0,0,0,,,,,,,,,,,,,,,,,,,,,,,,,,,,,0,9,9,9,,,,,,,,,,,,,,,,,,,,,,,,,,,,,,,,,,,,,,,,,,,,,,,,,,,,,,,,,,,,,,,,,1.0262345671653748,0.9942811001092196,657.6972711000126,None,ScrollDown,정답입니다,657.6972711000126,None,657.6972711000126,None,657.6972711000126,None,657.6972711000126,None,658.5671775001101,None,658.5671775001101,659.0670199000742,,,,,,,,,,,,,,,,132,2022-05-17_16h56.09.348,FishGame,2022.1.1,59.96436913789378,
,11,넌 생기있어,1,Orange,B,5.875,5.633333333333334,ScrollUp,ScrollDown,Orange.png,5,Positive,Incongruent,,,,,0,0,0,0,,,,,,,,,,,,,,,,,,,,,,,,,,,,,0,10,10,10,,,,,,,,,,,,,,,,,,,,,,,,,,,,,,,,,,,,,,,,,,,,,,,,,,,,,,,,,,,,,,,,,2,0.9403283998835832,659.7278569000773,None,ScrollUp,정답입니다,659.7278569000773,None,659.7278569000773,None,659.7278569000773,None,659.7278569000773,None,660.5339226999786,None,660.5339226999786,661.0337461000308,,,,,,,,,,,,,,,,132,2022-05-17_16h56.09.348,FishGame,2022.1.1,59.96436913789378,
,12,넌 비사교적이야,4,Orange,B,2.875,2.9,ScrollUp,ScrollDown,Orange.png,5,Negative,Congruent,,,,,0,0,0,0,,,,,,,,,,,,,,,,,,,,,,,,,,,,,0,11,11,11,,,,,,,,,,,,,,,,,,,,,,,,,,,,,,,,,,,,,,,,,,,,,,,,,,,,,,,,,,,,,,,,,2,1.1224613999947906,661.6908529000357,None,ScrollUp,정답입니다,661.6908529000357,None,661.6908529000357,None,661.6908529000357,None,661.6908529000357,None,662.6838144999929,None,662.6838144999929,663.1838748001028,,,,,,,,,,,,,,,,132,2022-05-17_16h56.09.348,FishGame,2022.1.1,59.96436913789378,
,13,나를 데려가줘,6,Orange,B,0,0,ScrollDown,ScrollUp,Orange.png,5,NonTarget,NonTarget,,,,,0,0,0,0,,,,,,,,,,,,,,,,,,,,,,,,,,,,,0,12,12,12,,,,,,,,,,,,,,,,,,,,,,,,,,,,,,,,,,,,,,,,,,,,,,,,,,,,,,,,,,,,,,,,,1,1.0247390000149608,663.8328188001178,None,ScrollDown,정답입니다,663.8328188001178,None,663.8328188001178,None,663.8328188001178,None,663.8328188001178,None,664.7338543001097,None,664.7338543001097,665.2339639000129,,,,,,,,,,,,,,,,132,2022-05-17_16h56.09.348,FishGame,2022.1.1,59.96436913789378,
,14,넌 고독해,4,Green,A,2.916666666666667,3.233333333333333,ScrollDown,ScrollUp,Green.png,5,Negative,Incongruent,,,,,0,0,0,0,,,,,,,,,,,,,,,,,,,,,,,,,,,,,0,13,13,13,,,,,,,,,,,,,,,,,,,,,,,,,,,,,,,,,,,,,,,,,,,,,,,,,,,,,,,,,,,,,,,,,1,1.0328748000320047,665.8775316001847,None,ScrollDown,정답입니다,665.8775316001847,None,665.8775316001847,None,665.8775316001847,None,665.8775316001847,None,666.788577800151,None,666.788577800151,667.3006782000884,,,,,,,,,,,,,,,,132,2022-05-17_16h56.09.348,FishGame,2022.1.1,59.96436913789378,
,15,넌 신경질적이야,5,Orange,B,2.375,2.233333333333333,ScrollUp,ScrollDown,Orange.png,5,Negative,Congruent,,,,,0,0,0,0,,,,,,,,,,,,,,,,,,,,,,,,,,,,,0,14,14,14,,,,,,,,,,,,,,,,,,,,,,,,,,,,,,,,,,,,,,,,,,,,,,,,,,,,,,,,,,,,,,,,,2,1.0254117001313716,667.951456699986,None,ScrollUp,정답입니다,667.951456699986,None,667.951456699986,None,667.951456699986,None,667.951456699986,None,668.8506081001833,None,668.8506081001833,669.3506914000027,,,,,,,,,,,,,,,,132,2022-05-17_16h56.09.348,FishGame,2022.1.1,59.96436913789378,
,16,넌 똑똑해,2,Orange,B,5.666666666666667,3.966666666666667,ScrollUp,ScrollDown,Orange.png,5,Positive,Incongruent,,,,,0,0,0,0,,,,,,,,,,,,,,,,,,,,,,,,,,,,,0,15,15,15,,,,,,,,,,,,,,,,,,,,,,,,,,,,,,,,,,,,,,,,,,,,,,,,,,,,,,,,,,,,,,,,,2,1.1387374999467283,670.0032132000197,None,ScrollUp,정답입니다,670.0032132000197,None,670.0032132000197,None,670.0032132000197,None,670.0032132000197,None,671.0154701001011,None,671.0154701001011,671.5172621000092,,,,,,,,,,,,,,,,132,2022-05-17_16h56.09.348,FishGame,2022.1.1,59.96436913789378,
,17,나를 보내줘,6,Green,A,0,0,ScrollUp,ScrollDown,Green.png,5,NonTarget,NonTarget,,,,,0,0,0,0,,,,,,,,,,,,,,,,,,,,,,,,,,,,,0,16,16,16,,,,,,,,,,,,,,,,,,,,,,,,,,,,,,,,,,,,,,,,,,,,,,,,,,,,,,,,,,,,,,,,,2,1.171022200025618,672.1630567000248,None,ScrollUp,정답입니다,672.1630567000248,None,672.1630567000248,None,672.1630567000248,None,672.1630567000248,None,673.2155857000034,None,673.2155857000034,673.717413400067,,,,,,,,,,,,,,,,132,2022-05-17_16h56.09.348,FishGame,2022.1.1,59.96436913789378,
,18,넌 협조적이야,1,Green,A,5.625,5.666666666666667,ScrollDown,ScrollUp,Green.png,5,Positive,Congruent,,,,,0,0,0,0,,,,,,,,,,,,,,,,,,,,,,,,,,,,,0,17,17,17,,,,,,,,,,,,,,,,,,,,,,,,,,,,,,,,,,,,,,,,,,,,,,,,,,,,,,,,,,,,,,,,,1,1.0437040000688285,674.3621973001864,None,ScrollDown,정답입니다,674.3621973001864,None,674.3621973001864,None,674.3621973001864,None,674.3621973001864,None,675.2840742999688,None,675.2840742999688,675.7840090000536,,,,,,,,,,,,,,,,132,2022-05-17_16h56.09.348,FishGame,2022.1.1,59.96436913789378,
,19,나를 데려가줘,6,Orange,B,0,0,ScrollDown,ScrollUp,Orange.png,5,NonTarget,NonTarget,,,,,0,0,0,0,,,,,,,,,,,,,,,,,,,,,,,,,,,,,0,18,18,18,,,,,,,,,,,,,,,,,,,,,,,,,,,,,,,,,,,,,,,,,,,,,,,,,,,,,,,,,,,,,,,,,1,1.138951500179246,676.429550900124,None,ScrollDown,정답입니다,676.429550900124,None,676.429550900124,None,676.429550900124,None,676.429550900124,None,677.4507883000188,None,677.4507883000188,677.9507022001781,,,,,,,,,,,,,,,,132,2022-05-17_16h56.09.348,FishGame,2022.1.1,59.96436913789378,
,20,넌 몰인정해,5,Orange,B,2.541666666666667,2.066666666666667,ScrollUp,ScrollDown,Orange.png,5,Negative,Congruent,,,,,0,0,0,0,,,,,,,,,,,,,,,,,,,,,,,,,,,,,0,19,19,19,,,,,,,,,,,,,,,,,,,,,,,,,,,,,,,,,,,,,,,,,,,,,,,,,,,,,,,,,,,,,,,,,2,0.8971817002166063,678.6173312000465,None,ScrollUp,정답입니다,678.6173312000465,None,678.6173312000465,None,678.6173312000465,None,678.6173312000465,None,679.3721450001467,None,679.3721450001467,679.884142300114,,,,,,,,,,,,,,,,132,2022-05-17_16h56.09.348,FishGame,2022.1.1,59.96436913789378,
,21,나를 데려가줘,6,Orange,B,0,0,ScrollDown,ScrollUp,Orange.png,5,NonTarget,NonTarget,,,,,0,0,0,0,,,,,,,,,,,,,,,,,,,,,,,,,,,,,0,20,20,20,,,,,,,,,,,,,,,,,,,,,,,,,,,,,,,,,,,,,,,,,,,,,,,,,,,,,,,,,,,,,,,,,1.0246913532416027,1.0503871999680996,680.5302871000022,None,ScrollDown,정답입니다,680.5302871000022,None,680.5302871000022,None,680.5302871000022,None,680.5302871000022,None,681.4555653000716,None,681.4555653000716,681.9675124001224,,,,,,,,,,,,,,,,132,2022-05-17_16h56.09.348,FishGame,2022.1.1,59.96436913789378,
,22,넌 순진해,3,Orange,B,4.125,4.166666666666667,ScrollUp,ScrollDown,Orange.png,5,Neutral,Neutral,,,,,0,0,0,0,,,,,,,,,,,,,,,,,,,,,,,,,,,,,0,21,21,21,,,,,,,,,,,,,,,,,,,,,,,,,,,,,,,,,,,,,,,,,,,,,,,,,,,,,,,,,,,,,,,,,2,0.9596166999544948,682.6209619999863,None,ScrollUp,정답입니다,682.6209619999863,None,682.6209619999863,None,682.6209619999863,None,682.6209619999863,None,683.4508732999675,None,683.4508732999675,683.9506626001094,,,,,,,,,,,,,,,,132,2022-05-17_16h56.09.348,FishGame,2022.1.1,59.96436913789378,
,23,넌 신뢰할만해,1,Green,A,6.625,5.533333333333333,ScrollDown,ScrollUp,Green.png,5,Positive,Congruent,,,,,0,0,0,0,,,,,,,,,,,,,,,,,,,,,,,,,,,,,0,22,22,22,,,,,,,,,,,,,,,,,,,,,,,,,,,,,,,,,,,,,,,,,,,,,,,,,,,,,,,,,,,,,,,,,1,0.9966141001787037,684.6046147001907,None,ScrollDown,정답입니다,684.6046147001907,None,684.6046147001907,None,684.6046147001907,None,684.6046147001907,None,685.4715405001771,None,685.4715405001771,685.9843802000396,,,,,,,,,,,,,,,,132,2022-05-17_16h56.09.348,FishGame,2022.1.1,59.96436913789378,
,24,나를 보내줘,6,Green,A,0,0,ScrollUp,ScrollDown,Green.png,5,NonTarget,NonTarget,,,,,0,0,0,0,,,,,,,,,,,,,,,,,,,,,,,,,,,,,0,23,23,23,,,,,,,,,,,,,,,,,,,,,,,,,,,,,,,,,,,,,,,,,,,,,,,,,,,,,,,,,,,,,,,,,2,0.9592049999628216,686.6291936000343,None,ScrollUp,정답입니다,686.6291936000343,None,686.6291936000343,None,686.6291936000343,None,686.6291936000343,None,687.4676213001367,None,687.4676213001367,687.9676779999863,,,,,,,,,,,,,,,,132,2022-05-17_16h56.09.348,FishGame,2022.1.1,59.96436913789378,
,25,넌 인색해,5,Green,A,2.625,2.233333333333333,ScrollDown,ScrollUp,Green.png,5,Negative,Incongruent,,,,,0,0,0,0,,,,,,,,,,,,,,,,,,,,,,,,,,,,,0,24,24,24,,,,,,,,,,,,,,,,,,,,,,,,,,,,,,,,,,,,,,,,,,,,,,,,,,,,,,,,,,,,,,,,,1,0.9429008001461625,688.6179242001381,None,ScrollDown,정답입니다,688.6179242001381,None,688.6179242001381,None,688.6179242001381,None,688.6179242001381,None,689.4343385000248,None,689.4343385000248,689.9346178001724,,,,,,,,,,,,,,,,132,2022-05-17_16h56.09.348,FishGame,2022.1.1,59.96436913789378,
,26,넌 유쾌해,1,Orange,B,5.833333333333333,5.766666666666667,ScrollUp,ScrollDown,Orange.png,5,Positive,Incongruent,,,,,0,0,0,0,,,,,,,,,,,,,,,,,,,,,,,,,,,,,0,25,25,25,,,,,,,,,,,,,,,,,,,,,,,,,,,,,,,,,,,,,,,,,,,,,,,,,,,,,,,,,,,,,,,,,2,0.9405001001432538,690.5886204000562,None,ScrollUp,정답입니다,690.5886204000562,None,690.5886204000562,None,690.5886204000562,None,690.5886204000562,None,691.4011574001051,None,691.4011574001051,691.9011296001263,,,,,,,,,,,,,,,,132,2022-05-17_16h56.09.348,FishGame,2022.1.1,59.96436913789378,
,27,나를 보내줘,6,Green,A,0,0,ScrollUp,ScrollDown,Green.png,5,NonTarget,NonTarget,,,,,0,0,0,0,,,,,,,,,,,,,,,,,,,,,,,,,,,,,0,26,26,26,,,,,,,,,,,,,,,,,,,,,,,,,,,,,,,,,,,,,,,,,,,,,,,,,,,,,,,,,,,,,,,,,2,1.0275647998787463,692.5528623000719,None,ScrollUp,정답입니다,692.5528623000719,None,692.5528623000719,None,692.5528623000719,None,692.5528623000719,None,693.4510715000797,None,693.4510715000797,693.9510849001817,,,,,,,,,,,,,,,,132,2022-05-17_16h56.09.348,FishGame,2022.1.1,59.96436913789378,
