name,TrialNum,Word,WordCategory,FishType,WordList,WordValence,WordReputation,CorrectResp,IncorrectResp,FishTypeFile,Round,WordType,Condition,LoopforOrange.thisRepN,LoopforOrange.thisTrialN,LoopforOrange.thisN,LoopforOrange.thisIndex,OrangeInstLoop.thisRepN,OrangeInstLoop.thisTrialN,OrangeInstLoop.thisN,OrangeInstLoop.thisIndex,OrangePrac.thisRepN,OrangePrac.thisTrialN,OrangePrac.thisN,OrangePrac.thisIndex,temp1.thisRepN,temp1.thisTrialN,temp1.thisN,temp1.thisIndex,OrangeRound1.thisRepN,OrangeRound1.thisTrialN,OrangeRound1.thisN,OrangeRound1.thisIndex,OrangeRound2.thisRepN,OrangeRound2.thisTrialN,OrangeRound2.thisN,OrangeRound2.thisIndex,OrangeRound3.thisRepN,OrangeRound3.thisTrialN,OrangeRound3.thisN,OrangeRound3.thisIndex,OrangeRound4.thisRepN,OrangeRound4.thisTrialN,OrangeRound4.thisN,OrangeRound4.thisIndex,OrangeRound5.thisRepN,OrangeRound5.thisTrialN,OrangeRound5.thisN,OrangeRound5.thisIndex,LoopForGreen.thisRepN,LoopForGreen.thisTrialN,LoopForGreen.thisN,LoopForGreen.thisIndex,text_2.started,text_2.stopped,text_3.started,text_3.stopped,key_resp.keys,key_resp.rt,key_resp.started,key_resp.stopped,PassI_2.started,PassI_2.stopped,PassInst_2.keys,PassInst_2.rt,PassInst_2.started,PassInst_2.stopped,mouse_2.x,mouse_2.y,mouse_2.leftButton,mouse_2.midButton,mouse_2.rightButton,mouse_2.started,mouse_2.stopped,image.started,image.stopped,text_5.started,text_5.stopped,text_6.started,text_6.stopped,text_7.started,text_7.stopped,text_8.started,text_8.stopped,slider_2.response,slider_2.rt,slider_2.started,slider_2.stopped,Response_2,Feedback_2,BackGround_2.started,BackGround_2.stopped,Fish_2.started,Fish_2.stopped,WordBox_2.started,WordBox_2.stopped,Words_2.started,Words_2.stopped,BackGround_Feedback_2.started,BackGround_Feedback_2.stopped,Feedbacks_2.started,Feedbacks_2.stopped,Continue_or_not.keys,Continue_or_not.rt,Continue_or_not.started,Continue_or_not.stopped,image_3.started,image_3.stopped,mouse_3.x,mouse_3.y,mouse_3.leftButton,mouse_3.midButton,mouse_3.rightButton,mouse_3.started,mouse_3.stopped,startmain.started,startmain.stopped,slider.response,slider.rt,slider.started,slider.stopped,Response,Feedback,BackGround.started,BackGround.stopped,Fish.started,Fish.stopped,WordBox.started,WordBox.stopped,Words.started,Words.stopped,BackGround_Feedback.started,BackGround_Feedback.stopped,Feedbacks.started,Feedbacks.stopped,text.started,text.stopped,break_interval.started,break_interval.stopped,mouse.x,mouse.y,mouse.leftButton,mouse.midButton,mouse.rightButton,mouse.started,mouse.stopped,stratnextround.started,stratnextround.stopped,endgame.started,endgame.stopped,participant,date,expName,psychopyVersion,frameRate,
,,,,,,,,,,,,,,,,,,,,,,,,,,,,,,,,,,,,,,,,,,,,,,,,,,,,,,25.532753400038928,None,25.532753400038928,None,space,15.964497599750757,25.993156499695033,None,,,,,,,,,,,,,,,,,,,,,,,,,,,,,,,,,,,,,,,,,,,,,,,,,,,,,,,,,,,,,,,,,,,,,,,,,,,,,,,,,,,,,,,,,,133,2022-05-31_15h43.35.608,FishGame,2022.1.1,60.04401233054773,
물고기과제_instruction(참가자용)OrangeVersion.mp4,,,,,,,,,,,,,,0,0,0,0,0,0,0,0,,,,,,,,,,,,,,,,,,,,,,,,,,,,,,,,,,,,,,,,,108.57440349971876,None,n,6.551402099896222,108.57440349971876,None,,,,,,,,,,,,,,,,,,,,,,,,,,,,,,,,,,,,,,,,,,,,,,,,,,,,,,,,,,,,,,,,,,,,,,,,,,,,,,,,,,,,133,2022-05-31_15h43.35.608,FishGame,2022.1.1,60.04401233054773,
,1,넌 교활해,5,Green,B,2.333333333333333,2.133333333333333,ScrollUp,ScrollDown,Green.png,practice,,,0,0,0,0,,,,,0,0,0,0,0,0,0,0,,,,,,,,,,,,,,,,,,,,,,,,,,,,,,,,,,,,,,,0.26759258,-0.17407407,1,0,0,0.5128999296575785,None,115.14538609981537,None,140.61378239979967,142.11281559988856,142.14642449980602,143.09660329995677,143.1465823999606,144.09612659970298,144.09612659970298,None,1.7885802586873372,1.194399599917233,145.26784459967166,None,ScrollUp,정답입니다,145.26784459967166,None,145.26784459967166,None,145.26784459967166,None,145.26784459967166,None,146.29219559999183,None,146.29219559999183,146.79625870008022,,,,,,,,,,,,,,,,,,,,,,,,,,,,,,,,,,,,,,,,,,,,,,,,,133,2022-05-31_15h43.35.608,FishGame,2022.1.1,60.04401233054773,
,2,넌 슬기로워,2,Orange,A,6.166666666666667,4.1,ScrollDown,ScrollUp,Orange.png,practice,,,0,0,0,0,,,,,0,0,0,0,0,1,1,1,,,,,,,,,,,,,,,,,,,,,,,,,,,,,,,,,,,,,,,,,,,,,,,,,,,,,,,,1.1234567960103352,1.0500767002813518,147.43734009983018,None,ScrollDown,정답입니다,147.43734009983018,None,147.43734009983018,None,147.43734009983018,None,147.43734009983018,None,148.36763799982145,None,148.36763799982145,148.87994730006903,,,,,,,,,,,,,,,,,,,,,,,,,,,,,,,,,,,,,,,,,,,,,,,,,133,2022-05-31_15h43.35.608,FishGame,2022.1.1,60.04401233054773,
,3,나를 보내줘,6,Orange,A,0,0,ScrollUp,ScrollDown,Orange.png,practice,,,0,0,0,0,,,,,0,0,0,0,0,2,2,2,,,,,,,,,,,,,,,,,,,,,,,,,,,,,,,,,,,,,,,,,,,,,,,,,,,,,,,,1.6574074104428291,1.222861799877137,149.51831909967586,None,ScrollUp,정답입니다,149.51831909967586,None,149.51831909967586,None,149.51831909967586,None,149.51831909967586,None,150.62775090010837,None,150.62775090010837,151.12993549974635,,,,,,,,,,,,,,,,,,,,,,,,,,,,,,,,,,,,,,,,,,,,,,,,,133,2022-05-31_15h43.35.608,FishGame,2022.1.1,60.04401233054773,
,4,나를 데려가줘,6,Green,B,0,0,ScrollDown,ScrollUp,Green.png,practice,,,0,0,0,0,,,,,0,0,0,0,0,3,3,3,,,,,,,,,,,,,,,,,,,,,,,,,,,,,,,,,,,,,,,,,,,,,,,,,,,,,,,,1.2191358109315236,1.2572514996863902,151.76023359969258,None,ScrollDown,정답입니다,151.76023359969258,None,151.76023359969258,None,151.76023359969258,None,151.76023359969258,None,152.91094490000978,None,152.91094490000978,153.41332229971886,,,,,,,,,,,,,,,,,,,,,,,,,,,,,,,,,,,,,,,,,,,,,,,,,133,2022-05-31_15h43.35.608,FishGame,2022.1.1,60.04401233054773,
,1,넌 교활해,5,Green,B,2.333333333333333,2.133333333333333,ScrollUp,ScrollDown,Green.png,practice,,,0,0,0,0,,,,,0,0,0,0,,,,,,,,,,,,,,,,,,,,,,,,,,,,,,,,,,,,,,,,,,,,,,,,,,,,,,,,,,,,,,,,,,,,,,,,,,,,,,n,13.84369850018993,153.91289909975603,None,153.91289909975603,None,,,,,,,,,,,,,,,,,,,,,,,,,,,,,,,,,,,,,,,,,,,133,2022-05-31_15h43.35.608,FishGame,2022.1.1,60.04401233054773,
,1,넌 따뜻해,1,Green,B,6.083333333333333,5.6,ScrollUp,ScrollDown,Green.png,1,Positive,Incongruent,0,0,0,0,,,,,,,,,,,,,0,0,0,0,,,,,,,,,,,,,,,,,,,,,,,,,,,,,,,,,,,,,,,,,,,,169.4968765997328,170.99653449980542,171.03041199967265,171.98051779996604,172.03001989983022,172.9803786999546,172.9803786999546,None,,,,,,,,,,,,,,,,,,,,,,,,,0.19444445,-0.14629629,1,0,0,0.3140483293682337,None,167.7800467000343,None,1.8981481492519379,1.4554498996585608,174.16276839980856,None,ScrollUp,정답입니다,174.16276839980856,None,174.16276839980856,None,174.16276839980856,None,174.16276839980856,None,175.43126149987802,None,175.43126149987802,175.92995919985697,,,,,,,,,,,,,,,,133,2022-05-31_15h43.35.608,FishGame,2022.1.1,60.04401233054773,
,2,넌 기품있어,2,Green,B,5.791666666666668,4.5,ScrollUp,ScrollDown,Green.png,1,Positive,Incongruent,0,0,0,0,,,,,,,,,,,,,0,1,1,1,,,,,,,,,,,,,,,,,,,,,,,,,,,,,,,,,,,,,,,,,,,,,,,,,,,,,,,,,,,,,,,,,,,,,,,,,,,,,,,,,,,,,2,1.152833899948746,176.5956125999801,None,ScrollUp,정답입니다,176.5956125999801,None,176.5956125999801,None,176.5956125999801,None,176.5956125999801,None,177.61826669983566,None,177.61826669983566,178.13004569988698,,,,,,,,,,,,,,,,133,2022-05-31_15h43.35.608,FishGame,2022.1.1,60.04401233054773,
,3,나를 보내줘,6,Orange,A,0,0,ScrollUp,ScrollDown,Orange.png,1,NonTarget,NonTarget,0,0,0,0,,,,,,,,,,,,,0,2,2,2,,,,,,,,,,,,,,,,,,,,,,,,,,,,,,,,,,,,,,,,,,,,,,,,,,,,,,,,,,,,,,,,,,,,,,,,,,,,,,,,,,,,,2,1.182704399805516,178.77660170011222,None,ScrollUp,정답입니다,178.77660170011222,None,178.77660170011222,None,178.77660170011222,None,178.77660170011222,None,179.83556409971789,None,179.83556409971789,180.34721229970455,,,,,,,,,,,,,,,,133,2022-05-31_15h43.35.608,FishGame,2022.1.1,60.04401233054773,
,4,넌 수동적이야,4,Orange,A,2.833333333333333,2.933333333333333,ScrollDown,ScrollUp,Orange.png,1,Negative,Incongruent,0,0,0,0,,,,,,,,,,,,,0,3,3,3,,,,,,,,,,,,,,,,,,,,,,,,,,,,,,,,,,,,,,,,,,,,,,,,,,,,,,,,,,,,,,,,,,,,,,,,,,,,,,,,,,,,,1.0231481393178303,1.2367583001032472,180.99459749972448,None,ScrollDown,정답입니다,180.99459749972448,None,180.99459749972448,None,180.99459749972448,None,180.99459749972448,None,182.11193230003119,None,182.11193230003119,182.61397879989818,,,,,,,,,,,,,,,,133,2022-05-31_15h43.35.608,FishGame,2022.1.1,60.04401233054773,
,5,넌 사심이 없어,3,Green,B,4.916666666666666,4.333333333333333,ScrollUp,ScrollDown,Green.png,1,Neutral,Neutral,0,0,0,0,,,,,,,,,,,,,0,4,4,4,,,,,,,,,,,,,,,,,,,,,,,,,,,,,,,,,,,,,,,,,,,,,,,,,,,,,,,,,,,,,,,,,,,,,,,,,,,,,,,,,,,,,1.9475308458010356,0.9871964999474585,183.25362659990788,None,ScrollUp,정답입니다,183.25362659990788,None,183.25362659990788,None,183.25362659990788,None,183.25362659990788,None,184.12839019997045,None,184.12839019997045,184.63036329997703,,,,,,,,,,,,,,,,133,2022-05-31_15h43.35.608,FishGame,2022.1.1,60.04401233054773,
,6,넌 헤퍼,5,Orange,A,2.458333333333334,2.233333333333333,ScrollDown,ScrollUp,Orange.png,1,Negative,Incongruent,0,0,0,0,,,,,,,,,,,,,0,5,5,5,,,,,,,,,,,,,,,,,,,,,,,,,,,,,,,,,,,,,,,,,,,,,,,,,,,,,,,,,,,,,,,,,,,,,,,,,,,,,,,,,,,,,1,0.9283640002831817,185.27805690001696,None,ScrollDown,정답입니다,185.27805690001696,None,185.27805690001696,None,185.27805690001696,None,185.27805690001696,None,186.0799393998459,None,186.0799393998459,186.58067219983786,,,,,,,,,,,,,,,,133,2022-05-31_15h43.35.608,FishGame,2022.1.1,60.04401233054773,
,7,넌 말쑥해,3,Orange,A,4.833333333333334,4.333333333333333,ScrollDown,ScrollUp,Orange.png,1,Neutral,Neutral,0,0,0,0,,,,,,,,,,,,,0,6,6,6,,,,,,,,,,,,,,,,,,,,,,,,,,,,,,,,,,,,,,,,,,,,,,,,,,,,,,,,,,,,,,,,,,,,,,,,,,,,,,,,,,,,,1.0308642089366913,0.8997685997746885,187.22048529982567,None,ScrollDown,정답입니다,187.22048529982567,None,187.22048529982567,None,187.22048529982567,None,187.22048529982567,None,188.0018968996592,None,188.0018968996592,188.51372940000147,,,,,,,,,,,,,,,,133,2022-05-31_15h43.35.608,FishGame,2022.1.1,60.04401233054773,
,8,넌 투덜거려,5,Green,B,2.541666666666667,2.266666666666667,ScrollUp,ScrollDown,Green.png,1,Negative,Congruent,0,0,0,0,,,,,,,,,,,,,0,7,7,7,,,,,,,,,,,,,,,,,,,,,,,,,,,,,,,,,,,,,,,,,,,,,,,,,,,,,,,,,,,,,,,,,,,,,,,,,,,,,,,,,,,,,2,0.9883707002736628,189.15289309993386,None,ScrollUp,정답입니다,189.15289309993386,None,189.15289309993386,None,189.15289309993386,None,189.15289309993386,None,190.0287648998201,None,190.0287648998201,190.5303090000525,,,,,,,,,,,,,,,,133,2022-05-31_15h43.35.608,FishGame,2022.1.1,60.04401233054773,
,9,넌 적극적이야,1,Orange,A,5.708333333333333,5.533333333333333,ScrollDown,ScrollUp,Orange.png,1,Positive,Congruent,0,0,0,0,,,,,,,,,,,,,0,8,8,8,,,,,,,,,,,,,,,,,,,,,,,,,,,,,,,,,,,,,,,,,,,,,,,,,,,,,,,,,,,,,,,,,,,,,,,,,,,,,,,,,,,,,1,0.9197639999911189,191.17209969973192,None,ScrollDown,정답입니다,191.17209969973192,None,191.17209969973192,None,191.17209969973192,None,191.17209969973192,None,191.9789343997836,None,191.9789343997836,192.48030610010028,,,,,,,,,,,,,,,,133,2022-05-31_15h43.35.608,FishGame,2022.1.1,60.04401233054773,
,10,넌 재미없어,4,Green,B,2.625,2.966666666666667,ScrollUp,ScrollDown,Green.png,1,Negative,Congruent,0,0,0,0,,,,,,,,,,,,,0,9,9,9,,,,,,,,,,,,,,,,,,,,,,,,,,,,,,,,,,,,,,,,,,,,,,,,,,,,,,,,,,,,,,,,,,,,,,,,,,,,,,,,,,,,,1.9953703780968983,0.9383533000946045,193.1164520997554,None,ScrollUp,정답입니다,193.1164520997554,None,193.1164520997554,None,193.1164520997554,None,193.1164520997554,None,193.945342999883,None,193.945342999883,194.44760320009664,,,,,,,,,,,,,,,,133,2022-05-31_15h43.35.608,FishGame,2022.1.1,60.04401233054773,
,11,넌 명석해,2,Orange,A,5.875,4.033333333333333,ScrollDown,ScrollUp,Orange.png,1,Positive,Congruent,0,0,0,0,,,,,,,,,,,,,0,10,10,10,,,,,,,,,,,,,,,,,,,,,,,,,,,,,,,,,,,,,,,,,,,,,,,,,,,,,,,,,,,,,,,,,,,,,,,,,,,,,,,,,,,,,1,0.8905899999663234,195.09335679979995,None,ScrollDown,정답입니다,195.09335679979995,None,195.09335679979995,None,195.09335679979995,None,195.09335679979995,None,195.86406640009955,None,195.86406640009955,196.36378169991076,,,,,,,,,,,,,,,,133,2022-05-31_15h43.35.608,FishGame,2022.1.1,60.04401233054773,
,12,나를 데려가줘,6,Green,B,0,0,ScrollDown,ScrollUp,Green.png,1,NonTarget,NonTarget,0,0,0,0,,,,,,,,,,,,,0,11,11,11,,,,,,,,,,,,,,,,,,,,,,,,,,,,,,,,,,,,,,,,,,,,,,,,,,,,,,,,,,,,,,,,,,,,,,,,,,,,,,,,,,,,,1.0015431940555573,1.0088677001185715,196.9985794997774,None,ScrollDown,정답입니다,196.9985794997774,None,196.9985794997774,None,196.9985794997774,None,196.9985794997774,None,197.8970865998417,None,197.8970865998417,198.39759339997545,,,,,,,,,,,,,,,,133,2022-05-31_15h43.35.608,FishGame,2022.1.1,60.04401233054773,
,13,넌 소심해,4,Orange,A,3,3.1,ScrollDown,ScrollUp,Orange.png,1,Negative,Incongruent,0,0,0,0,,,,,,,,,,,,,0,12,12,12,,,,,,,,,,,,,,,,,,,,,,,,,,,,,,,,,,,,,,,,,,,,,,,,,,,,,,,,,,,,,,,,,,,,,,,,,,,,,,,,,,,,,1.1435185273488362,0.8716949000954628,199.03367919987068,None,ScrollDown,정답입니다,199.03367919987068,None,199.03367919987068,None,199.03367919987068,None,199.03367919987068,None,199.79552609985694,None,199.79552609985694,200.29759899992496,,,,,,,,,,,,,,,,133,2022-05-31_15h43.35.608,FishGame,2022.1.1,60.04401233054773,
,14,넌 합리적이야,2,Orange,A,5.583333333333333,4.733333333333333,ScrollDown,ScrollUp,Orange.png,1,Positive,Congruent,0,0,0,0,,,,,,,,,,,,,0,13,13,13,,,,,,,,,,,,,,,,,,,,,,,,,,,,,,,,,,,,,,,,,,,,,,,,,,,,,,,,,,,,,,,,,,,,,,,,,,,,,,,,,,,,,1.0509259402751923,0.913268799893558,200.951098700054,None,ScrollDown,정답입니다,200.951098700054,None,200.951098700054,None,200.951098700054,None,200.951098700054,None,201.73441629996523,None,201.73441629996523,202.24791399994865,,,,,,,,,,,,,,,,133,2022-05-31_15h43.35.608,FishGame,2022.1.1,60.04401233054773,
,15,넌 무자비해,5,Green,B,2.333333333333333,2.1,ScrollUp,ScrollDown,Green.png,1,Negative,Congruent,0,0,0,0,,,,,,,,,,,,,0,14,14,14,,,,,,,,,,,,,,,,,,,,,,,,,,,,,,,,,,,,,,,,,,,,,,,,,,,,,,,,,,,,,,,,,,,,,,,,,,,,,,,,,,,,,2,0.9288770002312958,202.88414230011404,None,ScrollUp,정답입니다,202.88414230011404,None,202.88414230011404,None,202.88414230011404,None,202.88414230011404,None,203.69654979975894,None,203.69654979975894,204.19760670000687,,,,,,,,,,,,,,,,133,2022-05-31_15h43.35.608,FishGame,2022.1.1,60.04401233054773,
,16,나를 보내줘,6,Orange,A,0,0,ScrollUp,ScrollDown,Orange.png,1,NonTarget,NonTarget,0,0,0,0,,,,,,,,,,,,,0,15,15,15,,,,,,,,,,,,,,,,,,,,,,,,,,,,,,,,,,,,,,,,,,,,,,,,,,,,,,,,,,,,,,,,,,,,,,,,,,,,,,,,,,,,,2,1.7752069998532534,204.82953349966556,None,ScrollUp,정답입니다,204.82953349966556,None,204.82953349966556,None,204.82953349966556,None,204.82953349966556,None,206.49778669979423,None,206.49778669979423,206.99750979989767,,,,,,,,,,,,,,,,133,2022-05-31_15h43.35.608,FishGame,2022.1.1,60.04401233054773,
,17,넌 현실적이야,3,Green,B,4.608695652173913,4.766666666666667,ScrollUp,ScrollDown,Green.png,1,Neutral,Neutral,0,0,0,0,,,,,,,,,,,,,0,16,16,16,,,,,,,,,,,,,,,,,,,,,,,,,,,,,,,,,,,,,,,,,,,,,,,,,,,,,,,,,,,,,,,,,,,,,,,,,,,,,,,,,,,,,2,1.4054159000515938,207.635690999683,None,ScrollUp,정답입니다,207.635690999683,None,207.635690999683,None,207.635690999683,None,207.635690999683,None,208.9289371999912,None,208.9289371999912,209.43097569979727,,,,,,,,,,,,,,,,133,2022-05-31_15h43.35.608,FishGame,2022.1.1,60.04401233054773,
,18,넌 의리있어,1,Green,B,5.833333333333334,5.633333333333334,ScrollUp,ScrollDown,Green.png,1,Positive,Incongruent,0,0,0,0,,,,,,,,,,,,,0,17,17,17,,,,,,,,,,,,,,,,,,,,,,,,,,,,,,,,,,,,,,,,,,,,,,,,,,,,,,,,,,,,,,,,,,,,,,,,,,,,,,,,,,,,,2,0.8626497001387179,210.06520120007917,None,ScrollUp,정답입니다,210.06520120007917,None,210.06520120007917,None,210.06520120007917,None,210.06520120007917,None,210.8142470996827,None,210.8142470996827,211.31396519998088,,,,,,,,,,,,,,,,133,2022-05-31_15h43.35.608,FishGame,2022.1.1,60.04401233054773,
,19,넌 신경과민이야,5,Orange,A,2.541666666666667,2.166666666666667,ScrollDown,ScrollUp,Orange.png,1,Negative,Incongruent,0,0,0,0,,,,,,,,,,,,,0,18,18,18,,,,,,,,,,,,,,,,,,,,,,,,,,,,,,,,,,,,,,,,,,,,,,,,,,,,,,,,,,,,,,,,,,,,,,,,,,,,,,,,,,,,,1,0.9119037999771535,211.96306829992682,None,ScrollDown,정답입니다,211.96306829992682,None,211.96306829992682,None,211.96306829992682,None,211.96306829992682,None,212.74789049988613,None,212.74789049988613,213.24764169985428,,,,,,,,,,,,,,,,133,2022-05-31_15h43.35.608,FishGame,2022.1.1,60.04401233054773,
,20,넌 편안해,1,Orange,A,5.916666666666666,5.866666666666666,ScrollDown,ScrollUp,Orange.png,1,Positive,Congruent,0,0,0,0,,,,,,,,,,,,,0,19,19,19,,,,,,,,,,,,,,,,,,,,,,,,,,,,,,,,,,,,,,,,,,,,,,,,,,,,,,,,,,,,,,,,,,,,,,,,,,,,,,,,,,,,,1,0.9294380000792444,213.88555409992114,None,ScrollDown,정답입니다,213.88555409992114,None,213.88555409992114,None,213.88555409992114,None,213.88555409992114,None,214.69727639993653,None,214.69727639993653,215.19793959986418,,,,,,,,,,,,,,,,133,2022-05-31_15h43.35.608,FishGame,2022.1.1,60.04401233054773,
,21,넌 품위있어,2,Green,B,5.291666666666666,4.466666666666667,ScrollUp,ScrollDown,Green.png,1,Positive,Incongruent,0,0,0,0,,,,,,,,,,,,,0,20,20,20,,,,,,,,,,,,,,,,,,,,,,,,,,,,,,,,,,,,,,,,,,,,,,,,,,,,,,,,,,,,,,,,,,,,,,,,,,,,,,,,,,,,,2,0.9630422000773251,215.8330564997159,None,ScrollUp,정답입니다,215.8330564997159,None,215.8330564997159,None,215.8330564997159,None,215.8330564997159,None,216.68304659985006,None,216.68304659985006,217.19792599976063,,,,,,,,,,,,,,,,133,2022-05-31_15h43.35.608,FishGame,2022.1.1,60.04401233054773,
,22,넌 빈틈없어,3,Orange,A,4.833333333333333,3.966666666666667,ScrollDown,ScrollUp,Orange.png,1,Neutral,Neutral,0,0,0,0,,,,,,,,,,,,,0,21,21,21,,,,,,,,,,,,,,,,,,,,,,,,,,,,,,,,,,,,,,,,,,,,,,,,,,,,,,,,,,,,,,,,,,,,,,,,,,,,,,,,,,,,,1,1.0000856001861393,217.84400179982185,None,ScrollDown,정답입니다,217.84400179982185,None,217.84400179982185,None,217.84400179982185,None,217.84400179982185,None,218.71992769977078,None,218.71992769977078,219.23118079965934,,,,,,,,,,,,,,,,133,2022-05-31_15h43.35.608,FishGame,2022.1.1,60.04401233054773,
,23,넌 상상력없어,4,Green,B,2.833333333333333,3.133333333333333,ScrollUp,ScrollDown,Green.png,1,Negative,Congruent,0,0,0,0,,,,,,,,,,,,,0,22,22,22,,,,,,,,,,,,,,,,,,,,,,,,,,,,,,,,,,,,,,,,,,,,,,,,,,,,,,,,,,,,,,,,,,,,,,,,,,,,,,,,,,,,,1.825617293516795,0.9661902999505401,219.8661266998388,None,ScrollUp,정답입니다,219.8661266998388,None,219.8661266998388,None,219.8661266998388,None,219.8661266998388,None,220.72022329969332,None,220.72022329969332,221.2317718998529,,,,,,,,,,,,,,,,133,2022-05-31_15h43.35.608,FishGame,2022.1.1,60.04401233054773,
,24,넌 지혜로워,2,Green,B,6.333333333333334,4.633333333333334,ScrollUp,ScrollDown,Green.png,1,Positive,Incongruent,0,0,0,0,,,,,,,,,,,,,0,23,23,23,,,,,,,,,,,,,,,,,,,,,,,,,,,,,,,,,,,,,,,,,,,,,,,,,,,,,,,,,,,,,,,,,,,,,,,,,,,,,,,,,,,,,1.9614197711149852,0.980946000199765,221.87433219980448,None,ScrollUp,정답입니다,221.87433219980448,None,221.87433219980448,None,221.87433219980448,None,221.87433219980448,None,222.7355671999976,None,222.7355671999976,223.2478624000214,,,,,,,,,,,,,,,,133,2022-05-31_15h43.35.608,FishGame,2022.1.1,60.04401233054773,
,25,넌 시끄러워,4,Orange,A,2.833333333333333,3.033333333333333,ScrollDown,ScrollUp,Orange.png,1,Negative,Incongruent,0,0,0,0,,,,,,,,,,,,,0,24,24,24,,,,,,,,,,,,,,,,,,,,,,,,,,,,,,,,,,,,,,,,,,,,,,,,,,,,,,,,,,,,,,,,,,,,,,,,,,,,,,,,,,,,,1,0.9468475999310613,223.89349879976362,None,ScrollDown,정답입니다,223.89349879976362,None,223.89349879976362,None,223.89349879976362,None,223.89349879976362,None,224.71743070008233,None,224.71743070008233,225.23110939981416,,,,,,,,,,,,,,,,133,2022-05-31_15h43.35.608,FishGame,2022.1.1,60.04401233054773,
,26,넌 만사태평이야,3,Green,B,4,4.333333333333333,ScrollUp,ScrollDown,Green.png,1,Neutral,Neutral,0,0,0,0,,,,,,,,,,,,,0,25,25,25,,,,,,,,,,,,,,,,,,,,,,,,,,,,,,,,,,,,,,,,,,,,,,,,,,,,,,,,,,,,,,,,,,,,,,,,,,,,,,,,,,,,,2,0.9810998998582363,225.87768930010498,None,ScrollUp,정답입니다,225.87768930010498,None,225.87768930010498,None,225.87768930010498,None,225.87768930010498,None,226.73535509966314,None,226.73535509966314,227.2477520001121,,,,,,,,,,,,,,,,133,2022-05-31_15h43.35.608,FishGame,2022.1.1,60.04401233054773,
,27,넌 붙임성있어,1,Orange,A,5.708333333333333,5.633333333333334,ScrollDown,ScrollUp,Orange.png,1,Positive,Congruent,0,0,0,0,,,,,,,,,,,,,0,26,26,26,,,,,,,,,,,,,,,,,,,,,,,,,,,,,,,,,,,,,,,,,,,,,,,,,,,,,,,,,,,,,,,,,,,,,,,,,,,,,,,,,,,,,1.174382706483205,0.8297041999176145,227.8965209997259,None,ScrollDown,정답입니다,227.8965209997259,None,227.8965209997259,None,227.8965209997259,None,227.8965209997259,None,228.6008826997131,None,228.6008826997131,229.11523159965873,,,,,,,,,,,,,,,,133,2022-05-31_15h43.35.608,FishGame,2022.1.1,60.04401233054773,
,28,넌 영리해,2,Orange,A,6,4.033333333333333,ScrollDown,ScrollUp,Orange.png,1,Positive,Congruent,0,0,0,0,,,,,,,,,,,,,0,27,27,27,,,,,,,,,,,,,,,,,,,,,,,,,,,,,,,,,,,,,,,,,,,,,,,,,,,,,,,,,,,,,,,,,,,,,,,,,,,,,,,,,,,,,1.0524691541989644,0.8404986001551151,229.7522799000144,None,ScrollDown,정답입니다,229.7522799000144,None,229.7522799000144,None,229.7522799000144,None,229.7522799000144,None,230.48139149975032,None,230.48139149975032,230.98098329966888,,,,,,,,,,,,,,,,133,2022-05-31_15h43.35.608,FishGame,2022.1.1,60.04401233054773,
,29,넌 열심이야,1,Green,B,6.041666666666667,5.833333333333333,ScrollUp,ScrollDown,Green.png,1,Positive,Incongruent,0,0,0,0,,,,,,,,,,,,,0,28,28,28,,,,,,,,,,,,,,,,,,,,,,,,,,,,,,,,,,,,,,,,,,,,,,,,,,,,,,,,,,,,,,,,,,,,,,,,,,,,,,,,,,,,,2,0.9430742003023624,231.64991390006617,None,ScrollUp,정답입니다,231.64991390006617,None,231.64991390006617,None,231.64991390006617,None,231.64991390006617,None,232.44787439983338,None,232.44787439983338,232.94775220006704,,,,,,,,,,,,,,,,133,2022-05-31_15h43.35.608,FishGame,2022.1.1,60.04401233054773,
,30,넌 인기없어,4,Green,B,3,3.3,ScrollUp,ScrollDown,Green.png,1,Negative,Congruent,0,0,0,0,,,,,,,,,,,,,0,29,29,29,,,,,,,,,,,,,,,,,,,,,,,,,,,,,,,,,,,,,,,,,,,,,,,,,,,,,,,,,,,,,,,,,,,,,,,,,,,,,,,,,,,,,1.858024686574936,0.9639345998875797,233.59997610002756,None,ScrollUp,정답입니다,233.59997610002756,None,233.59997610002756,None,233.59997610002756,None,233.59997610002756,None,234.43554739980027,None,234.43554739980027,234.9481544001028,,,,,,,,,,,,,,,,133,2022-05-31_15h43.35.608,FishGame,2022.1.1,60.04401233054773,
,31,넌 익살스러워,3,Orange,A,4.708333333333334,4.833333333333333,ScrollDown,ScrollUp,Orange.png,1,Neutral,Neutral,0,0,0,0,,,,,,,,,,,,,0,30,30,30,,,,,,,,,,,,,,,,,,,,,,,,,,,,,,,,,,,,,,,,,,,,,,,,,,,,,,,,,,,,,,,,,,,,,,,,,,,,,,,,,,,,,1.2546296318372092,0.8589340997859836,235.6255494998768,None,ScrollDown,정답입니다,235.6255494998768,None,235.6255494998768,None,235.6255494998768,None,235.6255494998768,None,236.3380863997154,None,236.3380863997154,236.84759829984978,,,,,,,,,,,,,,,,133,2022-05-31_15h43.35.608,FishGame,2022.1.1,60.04401233054773,
,32,넌 이기적이야,5,Green,B,2.291666666666667,2.333333333333333,ScrollUp,ScrollDown,Green.png,1,Negative,Congruent,0,0,0,0,,,,,,,,,,,,,0,31,31,31,,,,,,,,,,,,,,,,,,,,,,,,,,,,,,,,,,,,,,,,,,,,,,,,,,,,,,,,,,,,,,,,,,,,,,,,,,,,,,,,,,,,,1.654320982595285,0.8136404999531806,237.50519719999284,None,ScrollUp,정답입니다,237.50519719999284,None,237.50519719999284,None,237.50519719999284,None,237.50519719999284,None,238.186238899827,None,238.186238899827,238.69829540001228,,,,,,,,,,,,,,,,133,2022-05-31_15h43.35.608,FishGame,2022.1.1,60.04401233054773,
,33,나를 데려가줘,6,Green,B,0,0,ScrollDown,ScrollUp,Green.png,1,NonTarget,NonTarget,0,0,0,0,,,,,,,,,,,,,0,32,32,32,,,,,,,,,,,,,,,,,,,,,,,,,,,,,,,,,,,,,,,,,,,,,,,,,,,,,,,,,,,,,,,,,,,,,,,,,,,,,,,,,,,,,1,1.1894549001008272,239.33067769976333,None,ScrollDown,정답입니다,239.33067769976333,None,239.33067769976333,None,239.33067769976333,None,239.33067769976333,None,240.4131557000801,None,240.4131557000801,240.91513439966366,,,,,,,,,,,,,,,,133,2022-05-31_15h43.35.608,FishGame,2022.1.1,60.04401233054773,
,34,넌 기회주의자야,5,Orange,A,2.875,2.133333333333333,ScrollDown,ScrollUp,Orange.png,1,Negative,Incongruent,0,0,0,0,,,,,,,,,,,,,0,33,33,33,,,,,,,,,,,,,,,,,,,,,,,,,,,,,,,,,,,,,,,,,,,,,,,,,,,,,,,,,,,,,,,,,,,,,,,,,,,,,,,,,,,,,1.320987656712532,0.8258953001350164,241.55889989994466,None,ScrollDown,정답입니다,241.55889989994466,None,241.55889989994466,None,241.55889989994466,None,241.55889989994466,None,242.26469369977713,None,242.26469369977713,242.76498250011355,,,,,,,,,,,,,,,,133,2022-05-31_15h43.35.608,FishGame,2022.1.1,60.04401233054773,
,1,넌 미성숙해,4,Orange,A,3,3.2,ScrollDown,ScrollUp,Orange.png,2,Negative,Incongruent,0,0,0,0,,,,,,,,,,,,,,,,,0,0,0,0,,,,,,,,,,,,,,,,,,,,,,,,,,,,,,,,,,,,,,,,274.1825447999872,275.6828387998976,275.7157005998306,276.6657658996992,276.716186999809,277.66590189980343,277.66590189980343,None,,,,,,,,,,,,,,,,,,,,,,,,,,,,,,,,,,1.234567900498708,1.2026662002317607,278.8228658000007,None,ScrollDown,정답입니다,278.8228658000007,None,278.8228658000007,None,278.8228658000007,None,278.8228658000007,None,279.8570566996932,None,279.8570566996932,280.3661747998558,243.26499139983207,None,243.26499139983207,None,0.21203704,-0.15,1,0,0,0.01576702995225787,None,273.26584120001644,None,,,133,2022-05-31_15h43.35.608,FishGame,2022.1.1,60.04401233054773,
,2,넌 반사회적이야,5,Green,B,2.416666666666667,2.033333333333333,ScrollUp,ScrollDown,Green.png,2,Negative,Congruent,0,0,0,0,,,,,,,,,,,,,,,,,0,1,1,1,,,,,,,,,,,,,,,,,,,,,,,,,,,,,,,,,,,,,,,,,,,,,,,,,,,,,,,,,,,,,,,,,,,,,,,,,,,,,,,,,1.9645061492919922,0.8959691999480128,280.99647119967267,None,ScrollUp,정답입니다,280.99647119967267,None,280.99647119967267,None,280.99647119967267,None,280.99647119967267,None,281.78275629971176,None,281.78275629971176,282.28292219992727,,,,,,,,,,,,,,,,133,2022-05-31_15h43.35.608,FishGame,2022.1.1,60.04401233054773,
,3,넌 유능해,2,Orange,A,6.208333333333333,4.433333333333334,ScrollDown,ScrollUp,Orange.png,2,Positive,Congruent,0,0,0,0,,,,,,,,,,,,,,,,,0,2,2,2,,,,,,,,,,,,,,,,,,,,,,,,,,,,,,,,,,,,,,,,,,,,,,,,,,,,,,,,,,,,,,,,,,,,,,,,,,,,,,,,,1.0833333333333333,0.8364124996587634,282.9226520997472,None,ScrollDown,정답입니다,282.9226520997472,None,282.9226520997472,None,282.9226520997472,None,282.9226520997472,None,283.6474917996675,None,283.6474917996675,284.14952579978853,,,,,,,,,,,,,,,,133,2022-05-31_15h43.35.608,FishGame,2022.1.1,60.04401233054773,
,4,넌 능숙해,2,Green,B,5.666666666666667,4.733333333333333,ScrollUp,ScrollDown,Green.png,2,Positive,Incongruent,0,0,0,0,,,,,,,,,,,,,,,,,0,3,3,3,,,,,,,,,,,,,,,,,,,,,,,,,,,,,,,,,,,,,,,,,,,,,,,,,,,,,,,,,,,,,,,,,,,,,,,,,,,,,,,,,1.9135802388191223,0.8243963001295924,284.7754184999503,None,ScrollUp,정답입니다,284.7754184999503,None,284.7754184999503,None,284.7754184999503,None,284.7754184999503,None,285.49912689998746,None,285.49912689998746,285.9997161999345,,,,,,,,,,,,,,,,133,2022-05-31_15h43.35.608,FishGame,2022.1.1,60.04401233054773,
,5,넌 진부해,4,Green,B,2.458333333333333,3.166666666666667,ScrollUp,ScrollDown,Green.png,2,Negative,Congruent,0,0,0,0,,,,,,,,,,,,,,,,,0,4,4,4,,,,,,,,,,,,,,,,,,,,,,,,,,,,,,,,,,,,,,,,,,,,,,,,,,,,,,,,,,,,,,,,,,,,,,,,,,,,,,,,,1.766975313425064,0.9062319002114236,286.6312563996762,None,ScrollUp,정답입니다,286.6312563996762,None,286.6312563996762,None,286.6312563996762,None,286.6312563996762,None,287.4310200000182,None,287.4310200000182,287.9333035997115,,,,,,,,,,,,,,,,133,2022-05-31_15h43.35.608,FishGame,2022.1.1,60.04401233054773,
,6,나를 보내줘,6,Orange,A,0,0,ScrollUp,ScrollDown,Orange.png,2,NonTarget,NonTarget,0,0,0,0,,,,,,,,,,,,,,,,,0,5,5,5,,,,,,,,,,,,,,,,,,,,,,,,,,,,,,,,,,,,,,,,,,,,,,,,,,,,,,,,,,,,,,,,,,,,,,,,,,,,,,,,,1.8287036965290706,1.003643300384283,288.56455199979246,None,ScrollUp,정답입니다,288.56455199979246,None,288.56455199979246,None,288.56455199979246,None,288.56455199979246,None,289.4643183997832,None,289.4643183997832,289.9660050999373,,,,,,,,,,,,,,,,133,2022-05-31_15h43.35.608,FishGame,2022.1.1,60.04401233054773,
,7,넌 엄격해,3,Orange,A,4.166666666666666,4.1,ScrollDown,ScrollUp,Orange.png,2,Neutral,Neutral,0,0,0,0,,,,,,,,,,,,,,,,,0,6,6,6,,,,,,,,,,,,,,,,,,,,,,,,,,,,,,,,,,,,,,,,,,,,,,,,,,,,,,,,,,,,,,,,,,,,,,,,,,,,,,,,,1.1141975373029709,0.8493038997985423,290.6053209998645,None,ScrollDown,정답입니다,290.6053209998645,None,290.6053209998645,None,290.6053209998645,None,290.6053209998645,None,291.33852169988677,None,291.33852169988677,291.84973239991814,,,,,,,,,,,,,,,,133,2022-05-31_15h43.35.608,FishGame,2022.1.1,60.04401233054773,
,8,나를 보내줘,6,Orange,A,0,0,ScrollUp,ScrollDown,Orange.png,2,NonTarget,NonTarget,0,0,0,0,,,,,,,,,,,,,,,,,0,7,7,7,,,,,,,,,,,,,,,,,,,,,,,,,,,,,,,,,,,,,,,,,,,,,,,,,,,,,,,,,,,,,,,,,,,,,,,,,,,,,,,,,1.7067901194095612,1.020562699995935,292.4802903998643,None,ScrollUp,정답입니다,292.4802903998643,None,292.4802903998643,None,292.4802903998643,None,292.4802903998643,None,293.39761719992384,None,293.39761719992384,293.899490499869,,,,,,,,,,,,,,,,133,2022-05-31_15h43.35.608,FishGame,2022.1.1,60.04401233054773,
,9,넌 대담해,3,Green,B,4.875,4.866666666666666,ScrollUp,ScrollDown,Green.png,2,Neutral,Neutral,0,0,0,0,,,,,,,,,,,,,,,,,0,8,8,8,,,,,,,,,,,,,,,,,,,,,,,,,,,,,,,,,,,,,,,,,,,,,,,,,,,,,,,,,,,,,,,,,,,,,,,,,,,,,,,,,1.7762345721324284,0.857236800249666,294.5737729999237,None,ScrollUp,정답입니다,294.5737729999237,None,294.5737729999237,None,294.5737729999237,None,294.5737729999237,None,295.2829714999534,None,295.2829714999534,295.78275629971176,,,,,,,,,,,,,,,,133,2022-05-31_15h43.35.608,FishGame,2022.1.1,60.04401233054773,
,10,넌 꾸준해,1,Orange,A,5.916666666666668,5.8,ScrollDown,ScrollUp,Orange.png,2,Positive,Congruent,0,0,0,0,,,,,,,,,,,,,,,,,0,9,9,9,,,,,,,,,,,,,,,,,,,,,,,,,,,,,,,,,,,,,,,,,,,,,,,,,,,,,,,,,,,,,,,,,,,,,,,,,,,,,,,,,1.3395061741272607,0.8636035001836717,296.4249319997616,None,ScrollDown,정답입니다,296.4249319997616,None,296.4249319997616,None,296.4249319997616,None,296.4249319997616,None,297.1704115998,None,297.1704115998,297.68281539995223,,,,,,,,,,,,,,,,133,2022-05-31_15h43.35.608,FishGame,2022.1.1,60.04401233054773,
,11,나를 데려가줘,6,Green,B,0,0,ScrollDown,ScrollUp,Green.png,2,NonTarget,NonTarget,0,0,0,0,,,,,,,,,,,,,,,,,0,10,10,10,,,,,,,,,,,,,,,,,,,,,,,,,,,,,,,,,,,,,,,,,,,,,,,,,,,,,,,,,,,,,,,,,,,,,,,,,,,,,,,,,1.2623456766208014,0.963347400072962,298.3087047999725,None,ScrollDown,정답입니다,298.3087047999725,None,298.3087047999725,None,298.3087047999725,None,298.3087047999725,None,299.1685935999267,None,299.1685935999267,299.682980499696,,,,,,,,,,,,,,,,133,2022-05-31_15h43.35.608,FishGame,2022.1.1,60.04401233054773,
,12,넌 독선적이야,5,Orange,A,2.458333333333333,1.933333333333333,ScrollDown,ScrollUp,Orange.png,2,Negative,Incongruent,0,0,0,0,,,,,,,,,,,,,,,,,0,11,11,11,,,,,,,,,,,,,,,,,,,,,,,,,,,,,,,,,,,,,,,,,,,,,,,,,,,,,,,,,,,,,,,,,,,,,,,,,,,,,,,,,1.3549382761120796,0.7644875003024936,300.32385789975524,None,ScrollDown,정답입니다,300.32385789975524,None,300.32385789975524,None,300.32385789975524,None,300.32385789975524,None,300.97152409981936,None,300.97152409981936,301.48337509995326,,,,,,,,,,,,,,,,133,2022-05-31_15h43.35.608,FishGame,2022.1.1,60.04401233054773,
,13,나를 보내줘,6,Orange,A,0,0,ScrollUp,ScrollDown,Orange.png,2,NonTarget,NonTarget,0,0,0,0,,,,,,,,,,,,,,,,,0,12,12,12,,,,,,,,,,,,,,,,,,,,,,,,,,,,,,,,,,,,,,,,,,,,,,,,,,,,,,,,,,,,,,,,,,,,,,,,,,,,,,,,,1.6435185223817825,0.977080199867487,302.11564739979804,None,ScrollUp,정답입니다,302.11564739979804,None,302.11564739979804,None,302.11564739979804,None,302.11564739979804,None,302.98280949983746,None,302.98280949983746,303.4829230001196,,,,,,,,,,,,,,,,133,2022-05-31_15h43.35.608,FishGame,2022.1.1,60.04401233054773,
,14,넌 책임감있어,1,Green,B,6.347826086956522,6,ScrollUp,ScrollDown,Green.png,2,Positive,Incongruent,0,0,0,0,,,,,,,,,,,,,,,,,0,13,13,13,,,,,,,,,,,,,,,,,,,,,,,,,,,,,,,,,,,,,,,,,,,,,,,,,,,,,,,,,,,,,,,,,,,,,,,,,,,,,,,,,1.7901234477758408,0.8395605999976397,304.1174820996821,None,ScrollUp,정답입니다,304.1174820996821,None,304.1174820996821,None,304.1174820996821,None,304.1174820996821,None,304.847764399834,None,304.847764399834,305.3496793000959,,,,,,,,,,,,,,,,133,2022-05-31_15h43.35.608,FishGame,2022.1.1,60.04401233054773,
,15,넌 문학적이야,3,Orange,A,4.708333333333334,4.333333333333333,ScrollDown,ScrollUp,Orange.png,2,Neutral,Neutral,0,0,0,0,,,,,,,,,,,,,,,,,0,14,14,14,,,,,,,,,,,,,,,,,,,,,,,,,,,,,,,,,,,,,,,,,,,,,,,,,,,,,,,,,,,,,,,,,,,,,,,,,,,,,,,,,1.2839506218830743,0.7349974000826478,305.9895659997128,None,ScrollDown,정답입니다,305.9895659997128,None,305.9895659997128,None,305.9895659997128,None,305.9895659997128,None,306.60412740008906,None,306.60412740008906,307.11701289983466,,,,,,,,,,,,,,,,133,2022-05-31_15h43.35.608,FishGame,2022.1.1,60.04401233054773,
,16,넌 재미있어,1,Green,B,5.875,5.7,ScrollUp,ScrollDown,Green.png,2,Positive,Incongruent,0,0,0,0,,,,,,,,,,,,,,,,,0,15,15,15,,,,,,,,,,,,,,,,,,,,,,,,,,,,,,,,,,,,,,,,,,,,,,,,,,,,,,,,,,,,,,,,,,,,,,,,,,,,,,,,,1.527777779226502,0.8128303000703454,307.7439092998393,None,NoResponse,무응답입니다,307.7439092998393,None,307.7439092998393,None,307.7439092998393,None,307.7439092998393,None,308.4555144999176,None,308.4555144999176,308.96639359975234,,,,,,,,,,,,,,,,133,2022-05-31_15h43.35.608,FishGame,2022.1.1,60.04401233054773,
,17,나를 데려가줘,6,Green,B,0,0,ScrollDown,ScrollUp,Green.png,2,NonTarget,NonTarget,0,0,0,0,,,,,,,,,,,,,,,,,0,16,16,16,,,,,,,,,,,,,,,,,,,,,,,,,,,,,,,,,,,,,,,,,,,,,,,,,,,,,,,,,,,,,,,,,,,,,,,,,,,,,,,,,1.1327160547176998,1.0828963997773826,309.6019168999046,None,ScrollDown,정답입니다,309.6019168999046,None,309.6019168999046,None,309.6019168999046,None,309.6019168999046,None,310.5735273999162,None,310.5735273999162,311.08285819971934,,,,,,,,,,,,,,,,133,2022-05-31_15h43.35.608,FishGame,2022.1.1,60.04401233054773,
,18,넌 협력적이야,1,Orange,A,5.625,5.633333333333334,ScrollDown,ScrollUp,Orange.png,2,Positive,Congruent,0,0,0,0,,,,,,,,,,,,,,,,,0,17,17,17,,,,,,,,,,,,,,,,,,,,,,,,,,,,,,,,,,,,,,,,,,,,,,,,,,,,,,,,,,,,,,,,,,,,,,,,,,,,,,,,,1.2438271592060726,1.1877816002815962,311.7192362998612,None,ScrollDown,정답입니다,311.7192362998612,None,311.7192362998612,None,311.7192362998612,None,311.7192362998612,None,312.7980458000675,None,312.7980458000675,313.2996080000885,,,,,,,,,,,,,,,,133,2022-05-31_15h43.35.608,FishGame,2022.1.1,60.04401233054773,
,19,넌 평범해,3,Green,B,4.333333333333332,4.233333333333333,ScrollUp,ScrollDown,Green.png,2,Neutral,Neutral,0,0,0,0,,,,,,,,,,,,,,,,,0,18,18,18,,,,,,,,,,,,,,,,,,,,,,,,,,,,,,,,,,,,,,,,,,,,,,,,,,,,,,,,,,,,,,,,,,,,,,,,,,,,,,,,,1.8981481492519379,1.0166373997926712,313.930961499922,None,ScrollUp,정답입니다,313.930961499922,None,313.930961499922,None,313.930961499922,None,313.930961499922,None,314.8377645998262,None,314.8377645998262,315.350100599695,,,,,,,,,,,,,,,,133,2022-05-31_15h43.35.608,FishGame,2022.1.1,60.04401233054773,
,20,넌 오만해,5,Orange,A,2.333333333333333,2,ScrollDown,ScrollUp,Orange.png,2,Negative,Incongruent,0,0,0,0,,,,,,,,,,,,,,,,,0,19,19,19,,,,,,,,,,,,,,,,,,,,,,,,,,,,,,,,,,,,,,,,,,,,,,,,,,,,,,,,,,,,,,,,,,,,,,,,,,,,,,,,,1.1558641890684764,0.7951181000098586,315.98457260010764,None,ScrollDown,정답입니다,315.98457260010764,None,315.98457260010764,None,315.98457260010764,None,315.98457260010764,None,316.66812229994684,None,316.66812229994684,317.18375189974904,,,,,,,,,,,,,,,,133,2022-05-31_15h43.35.608,FishGame,2022.1.1,60.04401233054773,
,21,넌 운이없어,4,Green,B,3,3.466666666666667,ScrollUp,ScrollDown,Green.png,2,Negative,Congruent,0,0,0,0,,,,,,,,,,,,,,,,,0,20,20,20,,,,,,,,,,,,,,,,,,,,,,,,,,,,,,,,,,,,,,,,,,,,,,,,,,,,,,,,,,,,,,,,,,,,,,,,,,,,,,,,,1.8333333383003871,0.779838299844414,317.8148694001138,None,ScrollUp,정답입니다,317.8148694001138,None,317.8148694001138,None,317.8148694001138,None,317.8148694001138,None,318.4849417996593,None,318.4849417996593,318.99985669972375,,,,,,,,,,,,,,,,133,2022-05-31_15h43.35.608,FishGame,2022.1.1,60.04401233054773,
,22,넌 창조적이야,2,Green,B,6.125,4.633333333333334,ScrollUp,ScrollDown,Green.png,2,Positive,Incongruent,0,0,0,0,,,,,,,,,,,,,,,,,0,21,21,21,,,,,,,,,,,,,,,,,,,,,,,,,,,,,,,,,,,,,,,,,,,,,,,,,,,,,,,,,,,,,,,,,,,,,,,,,,,,,,,,,1.6651234552264214,0.8415216002613306,319.63739119982347,None,ScrollUp,정답입니다,319.63739119982347,None,319.63739119982347,None,319.63739119982347,None,319.63739119982347,None,320.36657080007717,None,320.36657080007717,320.8671659999527,,,,,,,,,,,,,,,,133,2022-05-31_15h43.35.608,FishGame,2022.1.1,60.04401233054773,
,23,나를 보내줘,6,Orange,A,0,0,ScrollUp,ScrollDown,Orange.png,2,NonTarget,NonTarget,0,0,0,0,,,,,,,,,,,,,,,,,0,22,22,22,,,,,,,,,,,,,,,,,,,,,,,,,,,,,,,,,,,,,,,,,,,,,,,,,,,,,,,,,,,,,,,,,,,,,,,,,,,,,,,,,2,0.902689800132066,321.50101709971204,None,ScrollUp,정답입니다,321.50101709971204,None,321.50101709971204,None,321.50101709971204,None,321.50101709971204,None,322.2983941999264,None,322.2983941999264,322.8006223998964,,,,,,,,,,,,,,,,133,2022-05-31_15h43.35.608,FishGame,2022.1.1,60.04401233054773,
,24,넌 통찰력있어,2,Orange,A,6.5,4.8,ScrollDown,ScrollUp,Orange.png,2,Positive,Congruent,0,0,0,0,,,,,,,,,,,,,,,,,0,23,23,23,,,,,,,,,,,,,,,,,,,,,,,,,,,,,,,,,,,,,,,,,,,,,,,,,,,,,,,,,,,,,,,,,,,,,,,,,,,,,,,,,1.3780864228804905,0.7145743002183735,323.4443866997026,None,ScrollDown,정답입니다,323.4443866997026,None,323.4443866997026,None,323.4443866997026,None,323.4443866997026,None,324.0384495998733,None,324.0384495998733,324.55018140003085,,,,,,,,,,,,,,,,133,2022-05-31_15h43.35.608,FishGame,2022.1.1,60.04401233054773,
,25,넌 경솔해,5,Green,B,2.458333333333333,2.266666666666667,ScrollUp,ScrollDown,Green.png,2,Negative,Congruent,0,0,0,0,,,,,,,,,,,,,,,,,0,24,24,24,,,,,,,,,,,,,,,,,,,,,,,,,,,,,,,,,,,,,,,,,,,,,,,,,,,,,,,,,,,,,,,,,,,,,,,,,,,,,,,,,1.501543209849236,0.7049678000621498,325.17808269988745,None,NoResponse,무응답입니다,325.17808269988745,None,325.17808269988745,None,325.17808269988745,None,325.17808269988745,None,325.7749590999447,None,325.7749590999447,326.28375410009176,,,,,,,,,,,,,,,,133,2022-05-31_15h43.35.608,FishGame,2022.1.1,60.04401233054773,
,26,넌 초조해,4,Orange,A,2.916666666666667,3.133333333333333,ScrollDown,ScrollUp,Orange.png,2,Negative,Incongruent,0,0,0,0,,,,,,,,,,,,,,,,,0,25,25,25,,,,,,,,,,,,,,,,,,,,,,,,,,,,,,,,,,,,,,,,,,,,,,,,,,,,,,,,,,,,,,,,,,,,,,,,,,,,,,,,,1.1975308656692505,0.8035741001367569,326.9215465998277,None,ScrollDown,정답입니다,326.9215465998277,None,326.9215465998277,None,326.9215465998277,None,326.9215465998277,None,327.6092578000389,None,327.6092578000389,328.116598600056,,,,,,,,,,,,,,,,133,2022-05-31_15h43.35.608,FishGame,2022.1.1,60.04401233054773,
,27,넌 무관심해,4,Green,B,2.833333333333333,2.9,ScrollUp,ScrollDown,Green.png,2,Negative,Congruent,0,0,0,0,,,,,,,,,,,,,,,,,0,26,26,26,,,,,,,,,,,,,,,,,,,,,,,,,,,,,,,,,,,,,,,,,,,,,,,,,,,,,,,,,,,,,,,,,,,,,,,,,,,,,,,,,2,0.8193627996370196,328.7489612000063,None,ScrollUp,정답입니다,328.7489612000063,None,328.7489612000063,None,328.7489612000063,None,328.7489612000063,None,329.45559069979936,None,329.45559069979936,329.9674539999105,,,,,,,,,,,,,,,,133,2022-05-31_15h43.35.608,FishGame,2022.1.1,60.04401233054773,
,28,넌 감성적이야,3,Green,B,4.125,4.166666666666667,ScrollUp,ScrollDown,Green.png,2,Neutral,Neutral,0,0,0,0,,,,,,,,,,,,,,,,,0,27,27,27,,,,,,,,,,,,,,,,,,,,,,,,,,,,,,,,,,,,,,,,,,,,,,,,,,,,,,,,,,,,,,,,,,,,,,,,,,,,,,,,,2,0.802016899921,330.59858979983255,None,ScrollUp,정답입니다,330.59858979983255,None,330.59858979983255,None,330.59858979983255,None,330.59858979983255,None,331.28846979979426,None,331.28846979979426,331.8000986999832,,,,,,,,,,,,,,,,133,2022-05-31_15h43.35.608,FishGame,2022.1.1,60.04401233054773,
,29,넌 배려심있어,1,Orange,A,6.083333333333333,5.5,ScrollDown,ScrollUp,Orange.png,2,Positive,Congruent,0,0,0,0,,,,,,,,,,,,,,,,,0,28,28,28,,,,,,,,,,,,,,,,,,,,,,,,,,,,,,,,,,,,,,,,,,,,,,,,,,,,,,,,,,,,,,,,,,,,,,,,,,,,,,,,,1,0.8254336002282798,332.43588489992544,None,ScrollDown,정답입니다,332.43588489992544,None,332.43588489992544,None,332.43588489992544,None,332.43588489992544,None,333.15017729997635,None,333.15017729997635,333.6505253999494,,,,,,,,,,,,,,,,133,2022-05-31_15h43.35.608,FishGame,2022.1.1,60.04401233054773,
,30,넌 숨김없어,3,Orange,A,4.5,4.933333333333334,ScrollDown,ScrollUp,Orange.png,2,Neutral,Neutral,0,0,0,0,,,,,,,,,,,,,,,,,0,29,29,29,,,,,,,,,,,,,,,,,,,,,,,,,,,,,,,,,,,,,,,,,,,,,,,,,,,,,,,,,,,,,,,,,,,,,,,,,,,,,,,,,1.1111111094554265,0.8916016998700798,334.2894234000705,None,ScrollDown,정답입니다,334.2894234000705,None,334.2894234000705,None,334.2894234000705,None,334.2894234000705,None,335.0669399998151,None,335.0669399998151,335.5670571997762,,,,,,,,,,,,,,,,133,2022-05-31_15h43.35.608,FishGame,2022.1.1,60.04401233054773,
,31,넌 훌륭해,2,Green,B,5.916666666666667,4.033333333333333,ScrollUp,ScrollDown,Green.png,2,Positive,Incongruent,0,0,0,0,,,,,,,,,,,,,,,,,0,30,30,30,,,,,,,,,,,,,,,,,,,,,,,,,,,,,,,,,,,,,,,,,,,,,,,,,,,,,,,,,,,,,,,,,,,,,,,,,,,,,,,,,2,0.7981261997483671,336.19925069995224,None,ScrollUp,정답입니다,336.19925069995224,None,336.19925069995224,None,336.19925069995224,None,336.19925069995224,None,336.88494660006836,None,336.88494660006836,337.4006090997718,,,,,,,,,,,,,,,,133,2022-05-31_15h43.35.608,FishGame,2022.1.1,60.04401233054773,
,32,넌 슬기로워,2,Orange,A,6.166666666666667,4.1,ScrollDown,ScrollUp,Orange.png,2,Positive,Congruent,0,0,0,0,,,,,,,,,,,,,,,,,0,31,31,31,,,,,,,,,,,,,,,,,,,,,,,,,,,,,,,,,,,,,,,,,,,,,,,,,,,,,,,,,,,,,,,,,,,,,,,,,,,,,,,,,1,0.8394615999422967,338.04126659967005,None,ScrollDown,정답입니다,338.04126659967005,None,338.04126659967005,None,338.04126659967005,None,338.04126659967005,None,338.7669440996833,None,338.7669440996833,339.26705939974636,,,,,,,,,,,,,,,,133,2022-05-31_15h43.35.608,FishGame,2022.1.1,60.04401233054773,
,33,넌 냉혹해,5,Orange,A,2.583333333333333,2.1,ScrollDown,ScrollUp,Orange.png,2,Negative,Incongruent,0,0,0,0,,,,,,,,,,,,,,,,,0,32,32,32,,,,,,,,,,,,,,,,,,,,,,,,,,,,,,,,,,,,,,,,,,,,,,,,,,,,,,,,,,,,,,,,,,,,,,,,,,,,,,,,,1,0.7857933999039233,339.9055248000659,None,ScrollDown,정답입니다,339.9055248000659,None,339.9055248000659,None,339.9055248000659,None,339.9055248000659,None,340.57216589991003,None,340.57216589991003,341.08414050005376,,,,,,,,,,,,,,,,133,2022-05-31_15h43.35.608,FishGame,2022.1.1,60.04401233054773,
,34,나를 데려가줘,6,Green,B,0,0,ScrollDown,ScrollUp,Green.png,2,NonTarget,NonTarget,0,0,0,0,,,,,,,,,,,,,,,,,0,33,33,33,,,,,,,,,,,,,,,,,,,,,,,,,,,,,,,,,,,,,,,,,,,,,,,,,,,,,,,,,,,,,,,,,,,,,,,,,,,,,,,,,1,1.5112038999795914,341.71516649983823,None,ScrollDown,정답입니다,341.71516649983823,None,341.71516649983823,None,341.71516649983823,None,341.71516649983823,None,343.117200799752,None,343.117200799752,343.61731719970703,,,,,,,,,,,,,,,,133,2022-05-31_15h43.35.608,FishGame,2022.1.1,60.04401233054773,
,35,넌 편파적이야,5,Green,B,2.125,2,ScrollUp,ScrollDown,Green.png,2,Negative,Congruent,0,0,0,0,,,,,,,,,,,,,,,,,0,34,34,34,,,,,,,,,,,,,,,,,,,,,,,,,,,,,,,,,,,,,,,,,,,,,,,,,,,,,,,,,,,,,,,,,,,,,,,,,,,,,,,,,2,0.8494347999803722,344.2508808998391,None,ScrollUp,정답입니다,344.2508808998391,None,344.2508808998391,None,344.2508808998391,None,344.2508808998391,None,344.9886932997033,None,344.9886932997033,345.5008963998407,,,,,,,,,,,,,,,,133,2022-05-31_15h43.35.608,FishGame,2022.1.1,60.04401233054773,
,36,넌 슬퍼,4,Orange,A,2.583333333333333,3.066666666666667,ScrollDown,ScrollUp,Orange.png,2,Negative,Incongruent,0,0,0,0,,,,,,,,,,,,,,,,,0,35,35,35,,,,,,,,,,,,,,,,,,,,,,,,,,,,,,,,,,,,,,,,,,,,,,,,,,,,,,,,,,,,,,,,,,,,,,,,,,,,,,,,,1,0.9460069998167455,346.1321311998181,None,ScrollDown,정답입니다,346.1321311998181,None,346.1321311998181,None,346.1321311998181,None,346.1321311998181,None,346.9696072000079,None,346.9696072000079,347.48415099969134,,,,,,,,,,,,,,,,133,2022-05-31_15h43.35.608,FishGame,2022.1.1,60.04401233054773,
,37,나를 데려가줘,6,Green,B,0,0,ScrollDown,ScrollUp,Green.png,2,NonTarget,NonTarget,0,0,0,0,,,,,,,,,,,,,,,,,0,36,36,36,,,,,,,,,,,,,,,,,,,,,,,,,,,,,,,,,,,,,,,,,,,,,,,,,,,,,,,,,,,,,,,,,,,,,,,,,,,,,,,,,1,0.9267651000991464,348.1109905000776,None,ScrollDown,정답입니다,348.1109905000776,None,348.1109905000776,None,348.1109905000776,None,348.1109905000776,None,348.9336230996996,None,348.9336230996996,349.4341754997149,,,,,,,,,,,,,,,,133,2022-05-31_15h43.35.608,FishGame,2022.1.1,60.04401233054773,
,38,넌 친절해,1,Green,B,6.041666666666667,5.533333333333333,ScrollUp,ScrollDown,Green.png,2,Positive,Incongruent,0,0,0,0,,,,,,,,,,,,,,,,,0,37,37,37,,,,,,,,,,,,,,,,,,,,,,,,,,,,,,,,,,,,,,,,,,,,,,,,,,,,,,,,,,,,,,,,,,,,,,,,,,,,,,,,,2,0.8735659997910261,350.06885589985177,None,ScrollUp,정답입니다,350.06885589985177,None,350.06885589985177,None,350.06885589985177,None,350.06885589985177,None,350.83224059967324,None,350.83224059967324,351.33418079977855,,,,,,,,,,,,,,,,133,2022-05-31_15h43.35.608,FishGame,2022.1.1,60.04401233054773,
,1,넌 엉성해,4,Orange,A,3,3.3,ScrollDown,ScrollUp,Orange.png,3,Negative,Incongruent,0,0,0,0,,,,,,,,,,,,,,,,,,,,,0,0,0,0,,,,,,,,,,,,,,,,,,,,,,,,,,,,,,,,,,,,382.9182841000147,384.4178957999684,384.4518208997324,385.40133269969374,385.45203689998016,386.40178989991546,386.40178989991546,None,,,,,,,,,,,,,,,,,,,,,,,,,,,,,,,,,,1,1.4078951999545097,387.55688209971413,None,ScrollDown,정답입니다,387.55688209971413,None,387.55688209971413,None,387.55688209971413,None,387.55688209971413,None,388.80141029972583,None,388.80141029972583,389.30184679990634,351.83447599969804,None,351.83447599969804,None,0.11574074,-0.14722222,1,0,0,0.01618733024224639,None,381.83470289967954,None,,,133,2022-05-31_15h43.35.608,FishGame,2022.1.1,60.04401233054773,
,2,나를 보내줘,6,Orange,A,0,0,ScrollUp,ScrollDown,Orange.png,3,NonTarget,NonTarget,0,0,0,0,,,,,,,,,,,,,,,,,,,,,0,1,1,1,,,,,,,,,,,,,,,,,,,,,,,,,,,,,,,,,,,,,,,,,,,,,,,,,,,,,,,,,,,,,,,,,,,,,,,,,,,,,1.9243827362855275,1.0746510000899434,389.9371478999965,None,ScrollUp,정답입니다,389.9371478999965,None,389.9371478999965,None,389.9371478999965,None,389.9371478999965,None,390.90166699979454,None,390.90166699979454,391.40182429971173,,,,,,,,,,,,,,,,133,2022-05-31_15h43.35.608,FishGame,2022.1.1,60.04401233054773,
,3,넌 활발해,1,Green,B,5.666666666666667,5.6,ScrollUp,ScrollDown,Green.png,3,Positive,Incongruent,0,0,0,0,,,,,,,,,,,,,,,,,,,,,0,2,2,2,,,,,,,,,,,,,,,,,,,,,,,,,,,,,,,,,,,,,,,,,,,,,,,,,,,,,,,,,,,,,,,,,,,,,,,,,,,,,1.8888888905445735,0.9439371000044048,392.0425006998703,None,ScrollUp,정답입니다,392.0425006998703,None,392.0425006998703,None,392.0425006998703,None,392.0425006998703,None,392.86814069980755,None,392.86814069980755,393.3681232999079,,,,,,,,,,,,,,,,133,2022-05-31_15h43.35.608,FishGame,2022.1.1,60.04401233054773,
,4,넌 논리적이야,2,Orange,A,5.666666666666666,4.633333333333334,ScrollDown,ScrollUp,Orange.png,3,Positive,Congruent,0,0,0,0,,,,,,,,,,,,,,,,,,,,,0,3,3,3,,,,,,,,,,,,,,,,,,,,,,,,,,,,,,,,,,,,,,,,,,,,,,,,,,,,,,,,,,,,,,,,,,,,,,,,,,,,,1.1589506169160206,0.8268678998574615,394.0065351999365,None,ScrollDown,정답입니다,394.0065351999365,None,394.0065351999365,None,394.0065351999365,None,394.0065351999365,None,394.7185173998587,None,394.7185173998587,395.2186000999063,,,,,,,,,,,,,,,,133,2022-05-31_15h43.35.608,FishGame,2022.1.1,60.04401233054773,
,5,넌 과묵해,3,Orange,A,3.875,4.4,ScrollDown,ScrollUp,Orange.png,3,Neutral,Neutral,0,0,0,0,,,,,,,,,,,,,,,,,,,,,0,4,4,4,,,,,,,,,,,,,,,,,,,,,,,,,,,,,,,,,,,,,,,,,,,,,,,,,,,,,,,,,,,,,,,,,,,,,,,,,,,,,1.1358024577299755,0.7774367998354137,395.8600318999961,None,ScrollDown,정답입니다,395.8600318999961,None,395.8600318999961,None,395.8600318999961,None,395.8600318999961,None,396.5184388998896,None,396.5184388998896,397.0185980000533,,,,,,,,,,,,,,,,133,2022-05-31_15h43.35.608,FishGame,2022.1.1,60.04401233054773,
,6,나를 데려가줘,6,Green,B,0,0,ScrollDown,ScrollUp,Green.png,3,NonTarget,NonTarget,0,0,0,0,,,,,,,,,,,,,,,,,,,,,0,5,5,5,,,,,,,,,,,,,,,,,,,,,,,,,,,,,,,,,,,,,,,,,,,,,,,,,,,,,,,,,,,,,,,,,,,,,,,,,,,,,1,0.9915376002900302,397.6483669998124,None,ScrollDown,정답입니다,397.6483669998124,None,397.6483669998124,None,397.6483669998124,None,397.6483669998124,None,398.53490579966456,None,398.53490579966456,399.0352627998218,,,,,,,,,,,,,,,,133,2022-05-31_15h43.35.608,FishGame,2022.1.1,60.04401233054773,
,7,넌 미숙해,4,Green,B,3,3,ScrollUp,ScrollDown,Green.png,3,Negative,Congruent,0,0,0,0,,,,,,,,,,,,,,,,,,,,,0,6,6,6,,,,,,,,,,,,,,,,,,,,,,,,,,,,,,,,,,,,,,,,,,,,,,,,,,,,,,,,,,,,,,,,,,,,,,,,,,,,,1.879629631837209,0.9737950996495783,399.66618270007893,None,ScrollUp,정답입니다,399.66618270007893,None,399.66618270007893,None,399.66618270007893,None,399.66618270007893,None,400.53515429981053,None,400.53515429981053,401.03494049981236,,,,,,,,,,,,,,,,133,2022-05-31_15h43.35.608,FishGame,2022.1.1,60.04401233054773,
,8,나를 보내줘,6,Orange,A,0,0,ScrollUp,ScrollDown,Orange.png,3,NonTarget,NonTarget,0,0,0,0,,,,,,,,,,,,,,,,,,,,,0,7,7,7,,,,,,,,,,,,,,,,,,,,,,,,,,,,,,,,,,,,,,,,,,,,,,,,,,,,,,,,,,,,,,,,,,,,,,,,,,,,,1.8549382835626602,0.9505415000021458,401.6759208999574,None,ScrollUp,정답입니다,401.6759208999574,None,401.6759208999574,None,401.6759208999574,None,401.6759208999574,None,402.506520899944,None,402.506520899944,403.01854599965736,,,,,,,,,,,,,,,,133,2022-05-31_15h43.35.608,FishGame,2022.1.1,60.04401233054773,
,9,넌 자신만만해,3,Green,B,4.833333333333334,4.333333333333333,ScrollUp,ScrollDown,Green.png,3,Neutral,Neutral,0,0,0,0,,,,,,,,,,,,,,,,,,,,,0,8,8,8,,,,,,,,,,,,,,,,,,,,,,,,,,,,,,,,,,,,,,,,,,,,,,,,,,,,,,,,,,,,,,,,,,,,,,,,,,,,,1.837962955236435,1.0433061998337507,403.64620109973475,None,ScrollUp,정답입니다,403.64620109973475,None,403.64620109973475,None,403.64620109973475,None,403.64620109973475,None,404.584885600023,None,404.584885600023,405.0851324000396,,,,,,,,,,,,,,,,133,2022-05-31_15h43.35.608,FishGame,2022.1.1,60.04401233054773,
,10,넌 탐욕스러워,5,Orange,A,2.25,2.1,ScrollDown,ScrollUp,Orange.png,3,Negative,Incongruent,0,0,0,0,,,,,,,,,,,,,,,,,,,,,0,9,9,9,,,,,,,,,,,,,,,,,,,,,,,,,,,,,,,,,,,,,,,,,,,,,,,,,,,,,,,,,,,,,,,,,,,,,,,,,,,,,1,0.8467975002713501,405.73109979974106,None,ScrollDown,정답입니다,405.73109979974106,None,405.73109979974106,None,405.73109979974106,None,405.73109979974106,None,406.4558083000593,None,406.4558083000593,406.96866580005735,,,,,,,,,,,,,,,,133,2022-05-31_15h43.35.608,FishGame,2022.1.1,60.04401233054773,
,11,넌 인기있어,2,Orange,A,5.458333333333333,4.5,ScrollDown,ScrollUp,Orange.png,3,Positive,Congruent,0,0,0,0,,,,,,,,,,,,,,,,,,,,,0,10,10,10,,,,,,,,,,,,,,,,,,,,,,,,,,,,,,,,,,,,,,,,,,,,,,,,,,,,,,,,,,,,,,,,,,,,,,,,,,,,,1.3086419701576233,0.7607472003437579,407.6042073997669,None,ScrollDown,정답입니다,407.6042073997669,None,407.6042073997669,None,407.6042073997669,None,407.6042073997669,None,408.25284070009366,None,408.25284070009366,408.7526552998461,,,,,,,,,,,,,,,,133,2022-05-31_15h43.35.608,FishGame,2022.1.1,60.04401233054773,
,12,나를 데려가줘,6,Green,B,0,0,ScrollDown,ScrollUp,Green.png,3,NonTarget,NonTarget,0,0,0,0,,,,,,,,,,,,,,,,,,,,,0,11,11,11,,,,,,,,,,,,,,,,,,,,,,,,,,,,,,,,,,,,,,,,,,,,,,,,,,,,,,,,,,,,,,,,,,,,,,,,,,,,,1.1882716069618862,0.8996816999278963,409.379215199966,None,ScrollDown,정답입니다,409.379215199966,None,409.379215199966,None,409.379215199966,None,409.379215199966,None,410.1732414998114,None,410.1732414998114,410.6853700997308,,,,,,,,,,,,,,,,133,2022-05-31_15h43.35.608,FishGame,2022.1.1,60.04401233054773,
,13,넌 뛰어나,2,Green,B,6.166666666666667,4,ScrollUp,ScrollDown,Green.png,3,Positive,Incongruent,0,0,0,0,,,,,,,,,,,,,,,,,,,,,0,12,12,12,,,,,,,,,,,,,,,,,,,,,,,,,,,,,,,,,,,,,,,,,,,,,,,,,,,,,,,,,,,,,,,,,,,,,,,,,,,,,1.7793209999799728,0.9561399002559483,411.3166795996949,None,ScrollUp,정답입니다,411.3166795996949,None,411.3166795996949,None,411.3166795996949,None,411.3166795996949,None,412.1671728999354,None,412.1671728999354,412.6687475000508,,,,,,,,,,,,,,,,133,2022-05-31_15h43.35.608,FishGame,2022.1.1,60.04401233054773,
,14,넌 낙관적이야,1,Orange,A,5.75,5.8,ScrollDown,ScrollUp,Orange.png,3,Positive,Congruent,0,0,0,0,,,,,,,,,,,,,,,,,,,,,0,13,13,13,,,,,,,,,,,,,,,,,,,,,,,,,,,,,,,,,,,,,,,,,,,,,,,,,,,,,,,,,,,,,,,,,,,,,,,,,,,,,1.040123442808787,0.8394264001399279,413.3086200999096,None,ScrollDown,정답입니다,413.3086200999096,None,413.3086200999096,None,413.3086200999096,None,413.3086200999096,None,414.03340480010957,None,414.03340480010957,414.53530239965767,,,,,,,,,,,,,,,,133,2022-05-31_15h43.35.608,FishGame,2022.1.1,60.04401233054773,
,15,넌 산만해,4,Green,B,2.695652173913043,3.033333333333333,ScrollUp,ScrollDown,Green.png,3,Negative,Congruent,0,0,0,0,,,,,,,,,,,,,,,,,,,,,0,14,14,14,,,,,,,,,,,,,,,,,,,,,,,,,,,,,,,,,,,,,,,,,,,,,,,,,,,,,,,,,,,,,,,,,,,,,,,,,,,,,1.873456800977389,0.8366417000070214,415.1716851997189,None,ScrollUp,정답입니다,415.1716851997189,None,415.1716851997189,None,415.1716851997189,None,415.1716851997189,None,415.90010689990595,None,415.90010689990595,416.40212660003453,,,,,,,,,,,,,,,,133,2022-05-31_15h43.35.608,FishGame,2022.1.1,60.04401233054773,
,16,나를 보내줘,6,Orange,A,0,0,ScrollUp,ScrollDown,Orange.png,3,NonTarget,NonTarget,0,0,0,0,,,,,,,,,,,,,,,,,,,,,0,15,15,15,,,,,,,,,,,,,,,,,,,,,,,,,,,,,,,,,,,,,,,,,,,,,,,,,,,,,,,,,,,,,,,,,,,,,,,,,,,,,1.8024691343307495,0.926935900002718,417.03739539999515,None,ScrollUp,정답입니다,417.03739539999515,None,417.03739539999515,None,417.03739539999515,None,417.03739539999515,None,417.85233279969543,None,417.85233279969543,418.3522644001059,,,,,,,,,,,,,,,,133,2022-05-31_15h43.35.608,FishGame,2022.1.1,60.04401233054773,
,17,넌 교활해,5,Green,B,2.333333333333333,2.133333333333333,ScrollUp,ScrollDown,Green.png,3,Negative,Congruent,0,0,0,0,,,,,,,,,,,,,,,,,,,,,0,16,16,16,,,,,,,,,,,,,,,,,,,,,,,,,,,,,,,,,,,,,,,,,,,,,,,,,,,,,,,,,,,,,,,,,,,,,,,,,,,,,1.9259259502092998,0.8891843999736011,418.9836633000523,None,ScrollUp,정답입니다,418.9836633000523,None,418.9836633000523,None,418.9836633000523,None,418.9836633000523,None,419.7674036999233,None,419.7674036999233,420.2686381996609,,,,,,,,,,,,,,,,133,2022-05-31_15h43.35.608,FishGame,2022.1.1,60.04401233054773,
,18,나를 보내줘,6,Orange,A,0,0,ScrollUp,ScrollDown,Orange.png,3,NonTarget,NonTarget,0,0,0,0,,,,,,,,,,,,,,,,,,,,,0,17,17,17,,,,,,,,,,,,,,,,,,,,,,,,,,,,,,,,,,,,,,,,,,,,,,,,,,,,,,,,,,,,,,,,,,,,,,,,,,,,,1.8518518557151158,0.9120451002381742,420.90033609978855,None,ScrollUp,정답입니다,420.90033609978855,None,420.90033609978855,None,420.90033609978855,None,420.90033609978855,None,421.70359099982306,None,421.70359099982306,422.21935469983146,,,,,,,,,,,,,,,,133,2022-05-31_15h43.35.608,FishGame,2022.1.1,60.04401233054773,
,19,넌 불친절해,5,Green,B,2.208333333333333,2.033333333333333,ScrollUp,ScrollDown,Green.png,3,Negative,Congruent,0,0,0,0,,,,,,,,,,,,,,,,,,,,,0,18,18,18,,,,,,,,,,,,,,,,,,,,,,,,,,,,,,,,,,,,,,,,,,,,,,,,,,,,,,,,,,,,,,,,,,,,,,,,,,,,,2,0.8901276998221874,422.8493026997894,None,ScrollUp,정답입니다,422.8493026997894,None,422.8493026997894,None,422.8493026997894,None,422.8493026997894,None,423.63380359997973,None,423.63380359997973,424.13558449968696,,,,,,,,,,,,,,,,133,2022-05-31_15h43.35.608,FishGame,2022.1.1,60.04401233054773,
,20,넌 지적이야,2,Green,B,5.75,4.366666666666666,ScrollUp,ScrollDown,Green.png,3,Positive,Incongruent,0,0,0,0,,,,,,,,,,,,,,,,,,,,,0,19,19,19,,,,,,,,,,,,,,,,,,,,,,,,,,,,,,,,,,,,,,,,,,,,,,,,,,,,,,,,,,,,,,,,,,,,,,,,,,,,,1.9336419701576233,1.1452556001022458,424.7623187000863,None,ScrollUp,정답입니다,424.7623187000863,None,424.7623187000863,None,424.7623187000863,None,424.7623187000863,None,425.80238949973136,None,425.80238949973136,426.3024949999526,,,,,,,,,,,,,,,,133,2022-05-31_15h43.35.608,FishGame,2022.1.1,60.04401233054773,
,21,넌 우유부단해,4,Orange,A,2.666666666666667,3.166666666666667,ScrollDown,ScrollUp,Orange.png,3,Negative,Incongruent,0,0,0,0,,,,,,,,,,,,,,,,,,,,,0,20,20,20,,,,,,,,,,,,,,,,,,,,,,,,,,,,,,,,,,,,,,,,,,,,,,,,,,,,,,,,,,,,,,,,,,,,,,,,,,,,,1,1.0225641997531056,426.94308059988543,None,ScrollDown,정답입니다,426.94308059988543,None,426.94308059988543,None,426.94308059988543,None,426.94308059988543,None,427.85060889972374,None,427.85060889972374,428.35247929999605,,,,,,,,,,,,,,,,133,2022-05-31_15h43.35.608,FishGame,2022.1.1,60.04401233054773,
,22,나를 데려가줘,6,Green,B,0,0,ScrollDown,ScrollUp,Green.png,3,NonTarget,NonTarget,0,0,0,0,,,,,,,,,,,,,,,,,,,,,0,21,21,21,,,,,,,,,,,,,,,,,,,,,,,,,,,,,,,,,,,,,,,,,,,,,,,,,,,,,,,,,,,,,,,,,,,,,,,,,,,,,1.1435185273488362,0.9566045999526978,428.9864888996817,None,ScrollDown,정답입니다,428.9864888996817,None,428.9864888996817,None,428.9864888996817,None,428.9864888996817,None,429.83395259967074,None,429.83395259967074,430.3356520999223,,,,,,,,,,,,,,,,133,2022-05-31_15h43.35.608,FishGame,2022.1.1,60.04401233054773,
,23,넌 성실해,1,Green,B,6.041666666666666,5.7,ScrollUp,ScrollDown,Green.png,3,Positive,Incongruent,0,0,0,0,,,,,,,,,,,,,,,,,,,,,0,22,22,22,,,,,,,,,,,,,,,,,,,,,,,,,,,,,,,,,,,,,,,,,,,,,,,,,,,,,,,,,,,,,,,,,,,,,,,,,,,,,1.9475308458010356,0.7569752000272274,430.9668974997476,None,ScrollUp,정답입니다,430.9668974997476,None,430.9668974997476,None,430.9668974997476,None,430.9668974997476,None,431.6172926998697,None,431.6172926998697,432.11915779998526,,,,,,,,,,,,,,,,133,2022-05-31_15h43.35.608,FishGame,2022.1.1,60.04401233054773,
,24,넌 현실주의적이야,3,Orange,A,4.625,4.4,ScrollDown,ScrollUp,Orange.png,3,Neutral,Neutral,0,0,0,0,,,,,,,,,,,,,,,,,,,,,0,23,23,23,,,,,,,,,,,,,,,,,,,,,,,,,,,,,,,,,,,,,,,,,,,,,,,,,,,,,,,,,,,,,,,,,,,,,,,,,,,,,1.0246913532416027,0.8355912999249995,432.75713380007073,None,ScrollDown,정답입니다,432.75713380007073,None,432.75713380007073,None,432.75713380007073,None,432.75713380007073,None,433.48394009983167,None,433.48394009983167,433.9858217998408,,,,,,,,,,,,,,,,133,2022-05-31_15h43.35.608,FishGame,2022.1.1,60.04401233054773,
,25,넌 진실돼,1,Orange,A,6.625,5.566666666666666,ScrollDown,ScrollUp,Orange.png,3,Positive,Congruent,0,0,0,0,,,,,,,,,,,,,,,,,,,,,0,24,24,24,,,,,,,,,,,,,,,,,,,,,,,,,,,,,,,,,,,,,,,,,,,,,,,,,,,,,,,,,,,,,,,,,,,,,,,,,,,,,1.1496913582086563,0.824361499864608,434.62365859979764,None,ScrollDown,정답입니다,434.62365859979764,None,434.62365859979764,None,434.62365859979764,None,434.62365859979764,None,435.3359366999939,None,435.3359366999939,435.835996999871,,,,,,,,,,,,,,,,133,2022-05-31_15h43.35.608,FishGame,2022.1.1,60.04401233054773,
,26,넌 천진난만해,3,Green,B,4.958333333333334,4.833333333333333,ScrollUp,ScrollDown,Green.png,3,Neutral,Neutral,0,0,0,0,,,,,,,,,,,,,,,,,,,,,0,25,25,25,,,,,,,,,,,,,,,,,,,,,,,,,,,,,,,,,,,,,,,,,,,,,,,,,,,,,,,,,,,,,,,,,,,,,,,,,,,,,1.8950617214043934,0.7812858996912837,436.47622179985046,None,ScrollUp,정답입니다,436.47622179985046,None,436.47622179985046,None,436.47622179985046,None,436.47622179985046,None,437.14064530003816,None,437.14064530003816,437.65277409972623,,,,,,,,,,,,,,,,133,2022-05-31_15h43.35.608,FishGame,2022.1.1,60.04401233054773,
,27,넌 교양없어,5,Orange,A,2.416666666666667,2.2,ScrollDown,ScrollUp,Orange.png,3,Negative,Incongruent,0,0,0,0,,,,,,,,,,,,,,,,,,,,,0,26,26,26,,,,,,,,,,,,,,,,,,,,,,,,,,,,,,,,,,,,,,,,,,,,,,,,,,,,,,,,,,,,,,,,,,,,,,,,,,,,,1.1712963034709294,0.6530860001221299,438.2890864997171,None,ScrollDown,정답입니다,438.2890864997171,None,438.2890864997171,None,438.2890864997171,None,438.2890864997171,None,438.83430089987814,None,438.83430089987814,439.3363995999098,,,,,,,,,,,,,,,,133,2022-05-31_15h43.35.608,FishGame,2022.1.1,60.04401233054773,
,28,나를 보내줘,6,Orange,A,0,0,ScrollUp,ScrollDown,Orange.png,3,NonTarget,NonTarget,0,0,0,0,,,,,,,,,,,,,,,,,,,,,0,27,27,27,,,,,,,,,,,,,,,,,,,,,,,,,,,,,,,,,,,,,,,,,,,,,,,,,,,,,,,,,,,,,,,,,,,,,,,,,,,,,1.5802469129363694,0.9839625000022352,439.96659650001675,None,ScrollUp,정답입니다,439.96659650001675,None,439.96659650001675,None,439.96659650001675,None,439.96659650001675,None,440.8404622999951,None,440.8404622999951,441.3529090997763,,,,,,,,,,,,,,,,133,2022-05-31_15h43.35.608,FishGame,2022.1.1,60.04401233054773,
,29,넌 엉뚱스러워,3,Orange,A,4.166666666666667,4.133333333333334,ScrollDown,ScrollUp,Orange.png,3,Neutral,Neutral,0,0,0,0,,,,,,,,,,,,,,,,,,,,,0,28,28,28,,,,,,,,,,,,,,,,,,,,,,,,,,,,,,,,,,,,,,,,,,,,,,,,,,,,,,,,,,,,,,,,,,,,,,,,,,,,,1.3688271641731262,0.8220902998000383,441.9967609997839,None,ScrollDown,정답입니다,441.9967609997839,None,441.9967609997839,None,441.9967609997839,None,441.9967609997839,None,442.7009135996923,None,442.7009135996923,443.2029758999124,,,,,,,,,,,,,,,,133,2022-05-31_15h43.35.608,FishGame,2022.1.1,60.04401233054773,
,30,넌 무지해,4,Green,B,2.541666666666667,3.066666666666667,ScrollUp,ScrollDown,Green.png,3,Negative,Congruent,0,0,0,0,,,,,,,,,,,,,,,,,,,,,0,29,29,29,,,,,,,,,,,,,,,,,,,,,,,,,,,,,,,,,,,,,,,,,,,,,,,,,,,,,,,,,,,,,,,,,,,,,,,,,,,,,1.6759259278575578,0.8197301002219319,443.83009109972045,None,ScrollUp,정답입니다,443.83009109972045,None,443.83009109972045,None,443.83009109972045,None,443.83009109972045,None,444.5508244000375,None,444.5508244000375,445.0531015000306,,,,,,,,,,,,,,,,133,2022-05-31_15h43.35.608,FishGame,2022.1.1,60.04401233054773,
,31,넌 음울해,5,Green,B,2.25,2.233333333333333,ScrollUp,ScrollDown,Green.png,3,Negative,Congruent,0,0,0,0,,,,,,,,,,,,,,,,,,,,,0,30,30,30,,,,,,,,,,,,,,,,,,,,,,,,,,,,,,,,,,,,,,,,,,,,,,,,,,,,,,,,,,,,,,,,,,,,,,,,,,,,,1.8024691343307495,0.7434211000800133,445.68668349971995,None,ScrollUp,정답입니다,445.68668349971995,None,445.68668349971995,None,445.68668349971995,None,445.68668349971995,None,446.3194347000681,None,446.3194347000681,446.8193235998042,,,,,,,,,,,,,,,,133,2022-05-31_15h43.35.608,FishGame,2022.1.1,60.04401233054773,
,32,넌 냉소적이야,5,Orange,A,2.916666666666667,2.4,ScrollDown,ScrollUp,Orange.png,3,Negative,Incongruent,0,0,0,0,,,,,,,,,,,,,,,,,,,,,0,31,31,31,,,,,,,,,,,,,,,,,,,,,,,,,,,,,,,,,,,,,,,,,,,,,,,,,,,,,,,,,,,,,,,,,,,,,,,,,,,,,1.276234577099482,0.9153257003054023,447.4590253001079,None,ScrollDown,정답입니다,447.4590253001079,None,447.4590253001079,None,447.4590253001079,None,447.4590253001079,None,448.2584361997433,None,448.2584361997433,448.76980639994144,,,,,,,,,,,,,,,,133,2022-05-31_15h43.35.608,FishGame,2022.1.1,60.04401233054773,
,33,나를 데려가줘,6,Green,B,0,0,ScrollDown,ScrollUp,Green.png,3,NonTarget,NonTarget,0,0,0,0,,,,,,,,,,,,,,,,,,,,,0,32,32,32,,,,,,,,,,,,,,,,,,,,,,,,,,,,,,,,,,,,,,,,,,,,,,,,,,,,,,,,,,,,,,,,,,,,,,,,,,,,,1.28086419403553,0.9297748999670148,449.3961744001135,None,ScrollDown,정답입니다,449.3961744001135,None,449.3961744001135,None,449.3961744001135,None,449.3961744001135,None,450.2225656998344,None,450.2225656998344,450.73619939992204,,,,,,,,,,,,,,,,133,2022-05-31_15h43.35.608,FishGame,2022.1.1,60.04401233054773,
,34,넌 쾌활해,1,Orange,A,5.541666666666666,5.733333333333333,ScrollDown,ScrollUp,Orange.png,3,Positive,Congruent,0,0,0,0,,,,,,,,,,,,,,,,,,,,,0,33,33,33,,,,,,,,,,,,,,,,,,,,,,,,,,,,,,,,,,,,,,,,,,,,,,,,,,,,,,,,,,,,,,,,,,,,,,,,,,,,,1.2746913631757102,0.719198300037533,451.37589839985594,None,ScrollDown,정답입니다,451.37589839985594,None,451.37589839985594,None,451.37589839985594,None,451.37589839985594,None,451.9837448000908,None,451.9837448000908,452.4866748000495,,,,,,,,,,,,,,,,133,2022-05-31_15h43.35.608,FishGame,2022.1.1,60.04401233054773,
,35,나를 보내줘,6,Orange,A,0,0,ScrollUp,ScrollDown,Orange.png,3,NonTarget,NonTarget,0,0,0,0,,,,,,,,,,,,,,,,,,,,,0,34,34,34,,,,,,,,,,,,,,,,,,,,,,,,,,,,,,,,,,,,,,,,,,,,,,,,,,,,,,,,,,,,,,,,,,,,,,,,,,,,,1.6064814875523248,0.9254072001203895,453.1206765999086,None,ScrollUp,정답입니다,453.1206765999086,None,453.1206765999086,None,453.1206765999086,None,453.1206765999086,None,453.93613769998774,None,453.93613769998774,454.4369402998127,,,,,,,,,,,,,,,,133,2022-05-31_15h43.35.608,FishGame,2022.1.1,60.04401233054773,
,36,넌 명랑해,1,Green,B,5.739130434782609,5.666666666666667,ScrollUp,ScrollDown,Green.png,3,Positive,Incongruent,0,0,0,0,,,,,,,,,,,,,,,,,,,,,0,35,35,35,,,,,,,,,,,,,,,,,,,,,,,,,,,,,,,,,,,,,,,,,,,,,,,,,,,,,,,,,,,,,,,,,,,,,,,,,,,,,1.634259263674418,0.7141225999221206,455.0763568999246,None,ScrollUp,정답입니다,455.0763568999246,None,455.0763568999246,None,455.0763568999246,None,455.0763568999246,None,455.6745229996741,None,455.6745229996741,456.1867720000446,,,,,,,,,,,,,,,,133,2022-05-31_15h43.35.608,FishGame,2022.1.1,60.04401233054773,
,37,넌 멍해,4,Orange,A,2.833333333333333,3.4,ScrollDown,ScrollUp,Orange.png,3,Negative,Incongruent,0,0,0,0,,,,,,,,,,,,,,,,,,,,,0,36,36,36,,,,,,,,,,,,,,,,,,,,,,,,,,,,,,,,,,,,,,,,,,,,,,,,,,,,,,,,,,,,,,,,,,,,,,,,,,,,,1.28703702489535,0.7248041997663677,456.8230367000215,None,ScrollDown,정답입니다,456.8230367000215,None,456.8230367000215,None,456.8230367000215,None,456.8230367000215,None,457.43193290010095,None,457.43193290010095,457.9363516997546,,,,,,,,,,,,,,,,133,2022-05-31_15h43.35.608,FishGame,2022.1.1,60.04401233054773,
,38,나를 데려가줘,6,Green,B,0,0,ScrollDown,ScrollUp,Green.png,3,NonTarget,NonTarget,0,0,0,0,,,,,,,,,,,,,,,,,,,,,0,37,37,37,,,,,,,,,,,,,,,,,,,,,,,,,,,,,,,,,,,,,,,,,,,,,,,,,,,,,,,,,,,,,,,,,,,,,,,,,,,,,1.1466049303611119,0.8869195003062487,458.5631821998395,None,ScrollDown,정답입니다,458.5631821998395,None,458.5631821998395,None,458.5631821998395,None,458.5631821998395,None,459.3510922999121,None,459.3510922999121,459.8528829999268,,,,,,,,,,,,,,,,133,2022-05-31_15h43.35.608,FishGame,2022.1.1,60.04401233054773,
,39,넌 현명해,2,Orange,A,6.541666666666666,4.533333333333333,ScrollDown,ScrollUp,Orange.png,3,Positive,Congruent,0,0,0,0,,,,,,,,,,,,,,,,,,,,,0,38,38,38,,,,,,,,,,,,,,,,,,,,,,,,,,,,,,,,,,,,,,,,,,,,,,,,,,,,,,,,,,,,,,,,,,,,,,,,,,,,,1.367283950249354,0.804486199747771,460.48979849973693,None,ScrollDown,정답입니다,460.48979849973693,None,460.48979849973693,None,460.48979849973693,None,460.48979849973693,None,461.1869469997473,None,461.1869469997473,461.68677179981023,,,,,,,,,,,,,,,,133,2022-05-31_15h43.35.608,FishGame,2022.1.1,60.04401233054773,
,40,넌 수줍어,3,Green,B,3.541666666666666,4.366666666666666,ScrollUp,ScrollDown,Green.png,3,Neutral,Neutral,0,0,0,0,,,,,,,,,,,,,,,,,,,,,0,39,39,39,,,,,,,,,,,,,,,,,,,,,,,,,,,,,,,,,,,,,,,,,,,,,,,,,,,,,,,,,,,,,,,,,,,,,,,,,,,,,1.7500000099341075,0.7672234000638127,462.32052419986576,None,ScrollUp,정답입니다,462.32052419986576,None,462.32052419986576,None,462.32052419986576,None,462.32052419986576,None,462.97453589970246,None,462.97453589970246,463.4864992997609,,,,,,,,,,,,,,,,133,2022-05-31_15h43.35.608,FishGame,2022.1.1,60.04401233054773,
,41,나를 데려가줘,6,Green,B,0,0,ScrollDown,ScrollUp,Green.png,3,NonTarget,NonTarget,0,0,0,0,,,,,,,,,,,,,,,,,,,,,0,40,40,40,,,,,,,,,,,,,,,,,,,,,,,,,,,,,,,,,,,,,,,,,,,,,,,,,,,,,,,,,,,,,,,,,,,,,,,,,,,,,1.0756172637144725,0.975437699817121,464.1133475997485,None,ScrollDown,정답입니다,464.1133475997485,None,464.1133475997485,None,464.1133475997485,None,464.1133475997485,None,464.9864193997346,None,464.9864193997346,465.48626169981435,,,,,,,,,,,,,,,,133,2022-05-31_15h43.35.608,FishGame,2022.1.1,60.04401233054773,
,42,넌 성숙해,2,Green,B,5.833333333333333,4.533333333333333,ScrollUp,ScrollDown,Green.png,3,Positive,Incongruent,0,0,0,0,,,,,,,,,,,,,,,,,,,,,0,41,41,41,,,,,,,,,,,,,,,,,,,,,,,,,,,,,,,,,,,,,,,,,,,,,,,,,,,,,,,,,,,,,,,,,,,,,,,,,,,,,1.7932098756233852,1.1072035999968648,466.1142166997306,None,ScrollUp,정답입니다,466.1142166997306,None,466.1142166997306,None,466.1142166997306,None,466.1142166997306,None,467.1200582999736,None,467.1200582999736,467.6201319997199,,,,,,,,,,,,,,,,133,2022-05-31_15h43.35.608,FishGame,2022.1.1,60.04401233054773,
,1,넌 매력적이야,2,Green,B,6.125,4.666666666666667,ScrollUp,ScrollDown,Green.png,4,Positive,Incongruent,0,0,0,0,,,,,,,,,,,,,,,,,,,,,,,,,0,0,0,0,,,,,,,,,,,,,,,,,,,,,,,,,,,,,,,,499.5878653000109,501.0876690996811,501.1205655001104,502.070978499949,502.12090549990535,503.07111730007455,503.07111730007455,None,,,,,,,,,,,,,,,,,,,,,,,,,,,,,,,,,,1.8240740795930226,0.9734995998442173,504.2281708000228,None,ScrollUp,정답입니다,504.2281708000228,None,504.2281708000228,None,504.2281708000228,None,504.2281708000228,None,505.03758740006015,None,505.03758740006015,505.53825639979914,468.1199374999851,None,468.1199374999851,None,0.15462963,-0.16666667,1,0,0,0.015818330459296703,None,498.12039820011705,None,,,133,2022-05-31_15h43.35.608,FishGame,2022.1.1,60.04401233054773,
,2,나를 보내줘,6,Orange,A,0,0,ScrollUp,ScrollDown,Orange.png,4,NonTarget,NonTarget,0,0,0,0,,,,,,,,,,,,,,,,,,,,,,,,,0,1,1,1,,,,,,,,,,,,,,,,,,,,,,,,,,,,,,,,,,,,,,,,,,,,,,,,,,,,,,,,,,,,,,,,,,,,,,,,,2,0.9426924996078014,506.1689100996591,None,ScrollUp,정답입니다,506.1689100996591,None,506.1689100996591,None,506.1689100996591,None,506.1689100996591,None,507.0037865997292,None,507.0037865997292,507.5043049999513,,,,,,,,,,,,,,,,133,2022-05-31_15h43.35.608,FishGame,2022.1.1,60.04401233054773,
,3,넌 조심스러워,3,Orange,A,4.791666666666666,4.666666666666667,ScrollDown,ScrollUp,Orange.png,4,Neutral,Neutral,0,0,0,0,,,,,,,,,,,,,,,,,,,,,,,,,0,2,2,2,,,,,,,,,,,,,,,,,,,,,,,,,,,,,,,,,,,,,,,,,,,,,,,,,,,,,,,,,,,,,,,,,,,,,,,,,1.200617293516795,0.8221975998021662,508.14140309998766,None,ScrollDown,정답입니다,508.14140309998766,None,508.14140309998766,None,508.14140309998766,None,508.14140309998766,None,508.8540606996976,None,508.8540606996976,509.3542916998267,,,,,,,,,,,,,,,,133,2022-05-31_15h43.35.608,FishGame,2022.1.1,60.04401233054773,
,4,넌 철학적이야,3,Green,B,4.5,4.266666666666667,ScrollUp,ScrollDown,Green.png,4,Neutral,Neutral,0,0,0,0,,,,,,,,,,,,,,,,,,,,,,,,,0,3,3,3,,,,,,,,,,,,,,,,,,,,,,,,,,,,,,,,,,,,,,,,,,,,,,,,,,,,,,,,,,,,,,,,,,,,,,,,,1.507716049440205,0.9196556000970304,509.9911405998282,None,NoResponse,무응답입니다,509.9911405998282,None,509.9911405998282,None,509.9911405998282,None,509.9911405998282,None,510.7946506999433,None,510.7946506999433,511.3046252001077,,,,,,,,,,,,,,,,133,2022-05-31_15h43.35.608,FishGame,2022.1.1,60.04401233054773,
,5,넌 쩨쩨해,5,Orange,A,2.375,2.133333333333333,ScrollDown,ScrollUp,Orange.png,4,Negative,Incongruent,0,0,0,0,,,,,,,,,,,,,,,,,,,,,,,,,0,4,4,4,,,,,,,,,,,,,,,,,,,,,,,,,,,,,,,,,,,,,,,,,,,,,,,,,,,,,,,,,,,,,,,,,,,,,,,,,1.2623456766208014,0.8709697001613677,511.94016469968483,None,ScrollDown,정답입니다,511.94016469968483,None,511.94016469968483,None,511.94016469968483,None,511.94016469968483,None,512.6955690998584,None,512.6955690998584,513.2044679997489,,,,,,,,,,,,,,,,133,2022-05-31_15h43.35.608,FishGame,2022.1.1,60.04401233054773,
,6,나를 데려가줘,6,Green,B,0,0,ScrollDown,ScrollUp,Green.png,4,NonTarget,NonTarget,0,0,0,0,,,,,,,,,,,,,,,,,,,,,,,,,0,5,5,5,,,,,,,,,,,,,,,,,,,,,,,,,,,,,,,,,,,,,,,,,,,,,,,,,,,,,,,,,,,,,,,,,,,,,,,,,1.2608024626970291,0.9347031000070274,513.8354706000537,None,ScrollDown,정답입니다,513.8354706000537,None,513.8354706000537,None,513.8354706000537,None,513.8354706000537,None,514.6693683997728,None,514.6693683997728,515.1709789996967,,,,,,,,,,,,,,,,133,2022-05-31_15h43.35.608,FishGame,2022.1.1,60.04401233054773,
,7,넌 고집불통이야,5,Green,B,2.875,2,ScrollUp,ScrollDown,Green.png,4,Negative,Congruent,0,0,0,0,,,,,,,,,,,,,,,,,,,,,,,,,0,6,6,6,,,,,,,,,,,,,,,,,,,,,,,,,,,,,,,,,,,,,,,,,,,,,,,,,,,,,,,,,,,,,,,,,,,,,,,,,1.699074074625969,0.8306335001252592,515.8103578998707,None,ScrollUp,정답입니다,515.8103578998707,None,515.8103578998707,None,515.8103578998707,None,515.8103578998707,None,516.5249103996903,None,516.5249103996903,517.0377068999223,,,,,,,,,,,,,,,,133,2022-05-31_15h43.35.608,FishGame,2022.1.1,60.04401233054773,
,8,넌 무심해,4,Orange,A,2.875,3.2,ScrollDown,ScrollUp,Orange.png,4,Negative,Incongruent,0,0,0,0,,,,,,,,,,,,,,,,,,,,,,,,,0,7,7,7,,,,,,,,,,,,,,,,,,,,,,,,,,,,,,,,,,,,,,,,,,,,,,,,,,,,,,,,,,,,,,,,,,,,,,,,,1.3688271641731262,0.7634455999359488,517.6685031000525,None,ScrollDown,정답입니다,517.6685031000525,None,517.6685031000525,None,517.6685031000525,None,517.6685031000525,None,518.3260021000169,None,518.3260021000169,518.8380780001171,,,,,,,,,,,,,,,,133,2022-05-31_15h43.35.608,FishGame,2022.1.1,60.04401233054773,
,9,넌 정겨워,1,Orange,A,5.791666666666667,5.666666666666667,ScrollDown,ScrollUp,Orange.png,4,Positive,Congruent,0,0,0,0,,,,,,,,,,,,,,,,,,,,,,,,,0,8,8,8,,,,,,,,,,,,,,,,,,,,,,,,,,,,,,,,,,,,,,,,,,,,,,,,,,,,,,,,,,,,,,,,,,,,,,,,,1.3348765447735786,0.7738023996353149,519.476383399684,None,ScrollDown,정답입니다,519.476383399684,None,519.476383399684,None,519.476383399684,None,519.476383399684,None,520.137493299786,None,520.137493299786,520.6376308999024,,,,,,,,,,,,,,,,133,2022-05-31_15h43.35.608,FishGame,2022.1.1,60.04401233054773,
,10,나를 데려가줘,6,Green,B,0,0,ScrollDown,ScrollUp,Green.png,4,NonTarget,NonTarget,0,0,0,0,,,,,,,,,,,,,,,,,,,,,,,,,0,9,9,9,,,,,,,,,,,,,,,,,,,,,,,,,,,,,,,,,,,,,,,,,,,,,,,,,,,,,,,,,,,,,,,,,,,,,,,,,1.0200617114702861,0.8675513002090156,521.2658370998688,None,ScrollDown,정답입니다,521.2658370998688,None,521.2658370998688,None,521.2658370998688,None,521.2658370998688,None,522.0258502997458,None,522.0258502997458,522.5381045998074,,,,,,,,,,,,,,,,133,2022-05-31_15h43.35.608,FishGame,2022.1.1,60.04401233054773,
,11,넌 체제순응적이야,4,Green,B,3,3.6,ScrollUp,ScrollDown,Green.png,4,Negative,Congruent,0,0,0,0,,,,,,,,,,,,,,,,,,,,,,,,,0,10,10,10,,,,,,,,,,,,,,,,,,,,,,,,,,,,,,,,,,,,,,,,,,,,,,,,,,,,,,,,,,,,,,,,,,,,,,,,,1.6728395000100136,0.6864886996336281,523.1816028999165,None,ScrollUp,정답입니다,523.1816028999165,None,523.1816028999165,None,523.1816028999165,None,523.1816028999165,None,523.7528177998029,None,523.7528177998029,524.2547863000073,,,,,,,,,,,,,,,,133,2022-05-31_15h43.35.608,FishGame,2022.1.1,60.04401233054773,
,12,나를 보내줘,6,Orange,A,0,0,ScrollUp,ScrollDown,Orange.png,4,NonTarget,NonTarget,0,0,0,0,,,,,,,,,,,,,,,,,,,,,,,,,0,11,11,11,,,,,,,,,,,,,,,,,,,,,,,,,,,,,,,,,,,,,,,,,,,,,,,,,,,,,,,,,,,,,,,,,,,,,,,,,1.7268518507480621,1.018974999897182,524.8901156997308,None,ScrollUp,정답입니다,524.8901156997308,None,524.8901156997308,None,524.8901156997308,None,524.8901156997308,None,525.7924636998214,None,525.7924636998214,526.3043331000954,,,,,,,,,,,,,,,,133,2022-05-31_15h43.35.608,FishGame,2022.1.1,60.04401233054773,
,13,넌 박식해,2,Orange,A,5.625,3.933333333333333,ScrollDown,ScrollUp,Orange.png,4,Positive,Congruent,0,0,0,0,,,,,,,,,,,,,,,,,,,,,,,,,0,12,12,12,,,,,,,,,,,,,,,,,,,,,,,,,,,,,,,,,,,,,,,,,,,,,,,,,,,,,,,,,,,,,,,,,,,,,,,,,1.2623456766208014,0.7927870000712574,526.9487263998017,None,ScrollDown,정답입니다,526.9487263998017,None,526.9487263998017,None,526.9487263998017,None,526.9487263998017,None,527.6212482997216,None,527.6212482997216,528.1209845999256,,,,,,,,,,,,,,,,133,2022-05-31_15h43.35.608,FishGame,2022.1.1,60.04401233054773,
,14,나를 보내줘,6,Orange,A,0,0,ScrollUp,ScrollDown,Orange.png,4,NonTarget,NonTarget,0,0,0,0,,,,,,,,,,,,,,,,,,,,,,,,,0,13,13,13,,,,,,,,,,,,,,,,,,,,,,,,,,,,,,,,,,,,,,,,,,,,,,,,,,,,,,,,,,,,,,,,,,,,,,,,,1.7500000099341075,0.9068999998271465,528.7585267997347,None,ScrollUp,정답입니다,528.7585267997347,None,528.7585267997347,None,528.7585267997347,None,528.7585267997347,None,529.554389799945,None,529.554389799945,530.054949699901,,,,,,,,,,,,,,,,133,2022-05-31_15h43.35.608,FishGame,2022.1.1,60.04401233054773,
,15,넌 침착해,1,Green,B,5.458333333333333,5.566666666666666,ScrollUp,ScrollDown,Green.png,4,Positive,Incongruent,0,0,0,0,,,,,,,,,,,,,,,,,,,,,,,,,0,14,14,14,,,,,,,,,,,,,,,,,,,,,,,,,,,,,,,,,,,,,,,,,,,,,,,,,,,,,,,,,,,,,,,,,,,,,,,,,2,1.5794315002858639,530.6893192999996,None,ScrollUp,정답입니다,530.6893192999996,None,530.6893192999996,None,530.6893192999996,None,530.6893192999996,None,532.1549309999682,None,532.1549309999682,532.6547773997299,,,,,,,,,,,,,,,,133,2022-05-31_15h43.35.608,FishGame,2022.1.1,60.04401233054773,
,16,나를 데려가줘,6,Green,B,0,0,ScrollDown,ScrollUp,Green.png,4,NonTarget,NonTarget,0,0,0,0,,,,,,,,,,,,,,,,,,,,,,,,,0,15,15,15,,,,,,,,,,,,,,,,,,,,,,,,,,,,,,,,,,,,,,,,,,,,,,,,,,,,,,,,,,,,,,,,,,,,,,,,,1.1095678955316544,1.053285799920559,533.2870614998974,None,ScrollDown,정답입니다,533.2870614998974,None,533.2870614998974,None,533.2870614998974,None,533.2870614998974,None,534.2363450000994,None,534.2363450000994,534.7385660000145,,,,,,,,,,,,,,,,133,2022-05-31_15h43.35.608,FishGame,2022.1.1,60.04401233054773,
,17,넌 행복해,1,Orange,A,6.416666666666666,6.166666666666667,ScrollDown,ScrollUp,Orange.png,4,Positive,Congruent,0,0,0,0,,,,,,,,,,,,,,,,,,,,,,,,,0,16,16,16,,,,,,,,,,,,,,,,,,,,,,,,,,,,,,,,,,,,,,,,,,,,,,,,,,,,,,,,,,,,,,,,,,,,,,,,,1.1280864129463832,1.0203360999003053,535.3784030997194,None,ScrollDown,정답입니다,535.3784030997194,None,535.3784030997194,None,535.3784030997194,None,535.3784030997194,None,536.2865923997015,None,536.2865923997015,536.7880866997875,,,,,,,,,,,,,,,,133,2022-05-31_15h43.35.608,FishGame,2022.1.1,60.04401233054773,
,18,넌 겸손해,2,Green,B,5.791666666666667,4.766666666666667,ScrollUp,ScrollDown,Green.png,4,Positive,Incongruent,0,0,0,0,,,,,,,,,,,,,,,,,,,,,,,,,0,17,17,17,,,,,,,,,,,,,,,,,,,,,,,,,,,,,,,,,,,,,,,,,,,,,,,,,,,,,,,,,,,,,,,,,,,,,,,,,1.8549382835626602,0.9655355997383595,537.4211319996975,None,ScrollUp,정답입니다,537.4211319996975,None,537.4211319996975,None,537.4211319996975,None,537.4211319996975,None,538.2760418998078,None,538.2760418998078,538.7881626999006,,,,,,,,,,,,,,,,133,2022-05-31_15h43.35.608,FishGame,2022.1.1,60.04401233054773,
,19,나를 보내줘,6,Orange,A,0,0,ScrollUp,ScrollDown,Orange.png,4,NonTarget,NonTarget,0,0,0,0,,,,,,,,,,,,,,,,,,,,,,,,,0,18,18,18,,,,,,,,,,,,,,,,,,,,,,,,,,,,,,,,,,,,,,,,,,,,,,,,,,,,,,,,,,,,,,,,,,,,,,,,,1.765432099501292,1.0376172000542283,539.4216259000823,None,ScrollUp,정답입니다,539.4216259000823,None,539.4216259000823,None,539.4216259000823,None,539.4216259000823,None,540.344737299718,None,540.344737299718,540.8551178998314,,,,,,,,,,,,,,,,133,2022-05-31_15h43.35.608,FishGame,2022.1.1,60.04401233054773,
,20,넌 의심없어,3,Orange,A,4.166666666666667,4.6,ScrollDown,ScrollUp,Orange.png,4,Neutral,Neutral,0,0,0,0,,,,,,,,,,,,,,,,,,,,,,,,,0,19,19,19,,,,,,,,,,,,,,,,,,,,,,,,,,,,,,,,,,,,,,,,,,,,,,,,,,,,,,,,,,,,,,,,,,,,,,,,,1.2021604826052983,1.0531116002239287,541.4881895999424,None,ScrollDown,정답입니다,541.4881895999424,None,541.4881895999424,None,541.4881895999424,None,541.4881895999424,None,542.4364692000672,None,542.4364692000672,542.938544199802,,,,,,,,,,,,,,,,133,2022-05-31_15h43.35.608,FishGame,2022.1.1,60.04401233054773,
,21,넌 시시해,4,Orange,A,2.666666666666667,2.966666666666667,ScrollDown,ScrollUp,Orange.png,4,Negative,Incongruent,0,0,0,0,,,,,,,,,,,,,,,,,,,,,,,,,0,20,20,20,,,,,,,,,,,,,,,,,,,,,,,,,,,,,,,,,,,,,,,,,,,,,,,,,,,,,,,,,,,,,,,,,,,,,,,,,1.28703702489535,0.7343909000046551,543.5704636001028,None,ScrollDown,정답입니다,543.5704636001028,None,543.5704636001028,None,543.5704636001028,None,543.5704636001028,None,544.1934853000566,None,544.1934853000566,544.7052335999906,,,,,,,,,,,,,,,,133,2022-05-31_15h43.35.608,FishGame,2022.1.1,60.04401233054773,
,22,나를 데려가줘,6,Green,B,0,0,ScrollDown,ScrollUp,Green.png,4,NonTarget,NonTarget,0,0,0,0,,,,,,,,,,,,,,,,,,,,,,,,,0,21,21,21,,,,,,,,,,,,,,,,,,,,,,,,,,,,,,,,,,,,,,,,,,,,,,,,,,,,,,,,,,,,,,,,,,,,,,,,,1.194444437821706,0.9730577999725938,545.3569036996923,None,ScrollDown,정답입니다,545.3569036996923,None,545.3569036996923,None,545.3569036996923,None,545.3569036996923,None,546.2044187998399,None,546.2044187998399,546.7052285000682,,,,,,,,,,,,,,,,133,2022-05-31_15h43.35.608,FishGame,2022.1.1,60.04401233054773,
,23,넌 무정해,5,Orange,A,2.5,2.2,ScrollDown,ScrollUp,Orange.png,4,Negative,Incongruent,0,0,0,0,,,,,,,,,,,,,,,,,,,,,,,,,0,22,22,22,,,,,,,,,,,,,,,,,,,,,,,,,,,,,,,,,,,,,,,,,,,,,,,,,,,,,,,,,,,,,,,,,,,,,,,,,1.2268518557151158,0.8246995997615159,547.340395399835,None,ScrollDown,정답입니다,547.340395399835,None,547.340395399835,None,547.340395399835,None,547.340395399835,None,548.0511536998674,None,548.0511536998674,548.5549157997593,,,,,,,,,,,,,,,,133,2022-05-31_15h43.35.608,FishGame,2022.1.1,60.04401233054773,
,24,넌 긍정적이야,1,Green,B,6.041666666666667,6.066666666666666,ScrollUp,ScrollDown,Green.png,4,Positive,Incongruent,0,0,0,0,,,,,,,,,,,,,,,,,,,,,,,,,0,23,23,23,,,,,,,,,,,,,,,,,,,,,,,,,,,,,,,,,,,,,,,,,,,,,,,,,,,,,,,,,,,,,,,,,,,,,,,,,1.7808641890684764,0.7953673000447452,549.1949904998764,None,ScrollUp,정답입니다,549.1949904998764,None,549.1949904998764,None,549.1949904998764,None,549.1949904998764,None,549.8741091997363,None,549.8741091997363,550.3888380997814,,,,,,,,,,,,,,,,133,2022-05-31_15h43.35.608,FishGame,2022.1.1,60.04401233054773,
,25,나를 보내줘,6,Orange,A,0,0,ScrollUp,ScrollDown,Orange.png,4,NonTarget,NonTarget,0,0,0,0,,,,,,,,,,,,,,,,,,,,,,,,,0,24,24,24,,,,,,,,,,,,,,,,,,,,,,,,,,,,,,,,,,,,,,,,,,,,,,,,,,,,,,,,,,,,,,,,,,,,,,,,,1.584876542290052,0.9588636998087168,551.0251859999262,None,ScrollUp,정답입니다,551.0251859999262,None,551.0251859999262,None,551.0251859999262,None,551.0251859999262,None,551.8715109997429,None,551.8715109997429,552.3726053000428,,,,,,,,,,,,,,,,133,2022-05-31_15h43.35.608,FishGame,2022.1.1,60.04401233054773,
,26,넌 시기심이 많아,5,Green,B,2.458333333333333,2.233333333333333,ScrollUp,ScrollDown,Green.png,4,Negative,Congruent,0,0,0,0,,,,,,,,,,,,,,,,,,,,,,,,,0,25,25,25,,,,,,,,,,,,,,,,,,,,,,,,,,,,,,,,,,,,,,,,,,,,,,,,,,,,,,,,,,,,,,,,,,,,,,,,,1.884259248773257,0.9387256996706128,553.007590400055,None,ScrollUp,정답입니다,553.007590400055,None,553.007590400055,None,553.007590400055,None,553.007590400055,None,553.8365882998332,None,553.8365882998332,554.33894590009,,,,,,,,,,,,,,,,133,2022-05-31_15h43.35.608,FishGame,2022.1.1,60.04401233054773,
,27,넌 탁월해,2,Orange,A,5.708333333333334,4.5,ScrollDown,ScrollUp,Orange.png,4,Positive,Congruent,0,0,0,0,,,,,,,,,,,,,,,,,,,,,,,,,0,26,26,26,,,,,,,,,,,,,,,,,,,,,,,,,,,,,,,,,,,,,,,,,,,,,,,,,,,,,,,,,,,,,,,,,,,,,,,,,1.3827160522341728,0.7523586000315845,554.9813385996968,None,ScrollDown,정답입니다,554.9813385996968,None,554.9813385996968,None,554.9813385996968,None,554.9813385996968,None,555.6108546000905,None,555.6108546000905,556.1224910998717,,,,,,,,,,,,,,,,133,2022-05-31_15h43.35.608,FishGame,2022.1.1,60.04401233054773,
,28,나를 데려가줘,6,Green,B,0,0,ScrollDown,ScrollUp,Green.png,4,NonTarget,NonTarget,0,0,0,0,,,,,,,,,,,,,,,,,,,,,,,,,0,27,27,27,,,,,,,,,,,,,,,,,,,,,,,,,,,,,,,,,,,,,,,,,,,,,,,,,,,,,,,,,,,,,,,,,,,,,,,,,1.0432098706563313,0.9635425000451505,556.7557739000767,None,ScrollDown,정답입니다,556.7557739000767,None,556.7557739000767,None,556.7557739000767,None,556.7557739000767,None,557.6080919997767,None,557.6080919997767,558.1225176998414,,,,,,,,,,,,,,,,133,2022-05-31_15h43.35.608,FishGame,2022.1.1,60.04401233054773,
,29,넌 조용해,3,Green,B,4.333333333333333,4.166666666666667,ScrollUp,ScrollDown,Green.png,4,Neutral,Neutral,0,0,0,0,,,,,,,,,,,,,,,,,,,,,,,,,0,28,28,28,,,,,,,,,,,,,,,,,,,,,,,,,,,,,,,,,,,,,,,,,,,,,,,,,,,,,,,,,,,,,,,,,,,,,,,,,1.765432099501292,0.916285099927336,558.7574418000877,None,ScrollUp,정답입니다,558.7574418000877,None,558.7574418000877,None,558.7574418000877,None,558.7574418000877,None,559.5600561997853,None,559.5600561997853,560.0722913998179,,,,,,,,,,,,,,,,133,2022-05-31_15h43.35.608,FishGame,2022.1.1,60.04401233054773,
,30,넌 다정해,1,Orange,A,5.833333333333334,5.7,ScrollDown,ScrollUp,Orange.png,4,Positive,Congruent,0,0,0,0,,,,,,,,,,,,,,,,,,,,,,,,,0,29,29,29,,,,,,,,,,,,,,,,,,,,,,,,,,,,,,,,,,,,,,,,,,,,,,,,,,,,,,,,,,,,,,,,,,,,,,,,,1.1064814925193787,0.9895872003398836,560.704671499785,None,ScrollDown,정답입니다,560.704671499785,None,560.704671499785,None,560.704671499785,None,560.704671499785,None,561.5884977998212,None,561.5884977998212,562.0888501000591,,,,,,,,,,,,,,,,133,2022-05-31_15h43.35.608,FishGame,2022.1.1,60.04401233054773,
,31,넌 능력있어,2,Green,B,6.166666666666666,4.6,ScrollUp,ScrollDown,Green.png,4,Positive,Incongruent,0,0,0,0,,,,,,,,,,,,,,,,,,,,,,,,,0,30,30,30,,,,,,,,,,,,,,,,,,,,,,,,,,,,,,,,,,,,,,,,,,,,,,,,,,,,,,,,,,,,,,,,,,,,,,,,,1.8040123482545216,1.0907727000303566,562.718469500076,None,ScrollUp,정답입니다,562.718469500076,None,562.718469500076,None,562.718469500076,None,562.718469500076,None,563.705188699998,None,563.705188699998,564.2053119996563,,,,,,,,,,,,,,,,133,2022-05-31_15h43.35.608,FishGame,2022.1.1,60.04401233054773,
,32,넌 불쾌해,5,Orange,A,2.125,1.933333333333333,ScrollDown,ScrollUp,Orange.png,4,Negative,Incongruent,0,0,0,0,,,,,,,,,,,,,,,,,,,,,,,,,0,31,31,31,,,,,,,,,,,,,,,,,,,,,,,,,,,,,,,,,,,,,,,,,,,,,,,,,,,,,,,,,,,,,,,,,,,,,,,,,1.3611111069718995,1.5979158002883196,564.8379806000739,None,ScrollDown,정답입니다,564.8379806000739,None,564.8379806000739,None,564.8379806000739,None,564.8379806000739,None,566.3264040998183,None,566.3264040998183,566.8391762999818,,,,,,,,,,,,,,,,133,2022-05-31_15h43.35.608,FishGame,2022.1.1,60.04401233054773,
,33,나를 데려가줘,6,Green,B,0,0,ScrollDown,ScrollUp,Green.png,4,NonTarget,NonTarget,0,0,0,0,,,,,,,,,,,,,,,,,,,,,,,,,0,32,32,32,,,,,,,,,,,,,,,,,,,,,,,,,,,,,,,,,,,,,,,,,,,,,,,,,,,,,,,,,,,,,,,,,,,,,,,,,1.174382706483205,0.9166878000833094,567.4653166998178,None,ScrollDown,정답입니다,567.4653166998178,None,567.4653166998178,None,567.4653166998178,None,567.4653166998178,None,568.2764849998057,None,568.2764849998057,568.789274699986,,,,,,,,,,,,,,,,133,2022-05-31_15h43.35.608,FishGame,2022.1.1,60.04401233054773,
,34,넌 유순해,3,Orange,A,4.458333333333333,5,ScrollDown,ScrollUp,Orange.png,4,Neutral,Neutral,0,0,0,0,,,,,,,,,,,,,,,,,,,,,,,,,0,33,33,33,,,,,,,,,,,,,,,,,,,,,,,,,,,,,,,,,,,,,,,,,,,,,,,,,,,,,,,,,,,,,,,,,,,,,,,,,1.2592592487732568,0.7461179001256824,569.4208492999896,None,ScrollDown,정답입니다,569.4208492999896,None,569.4208492999896,None,569.4208492999896,None,569.4208492999896,None,570.057503100019,None,570.057503100019,570.5722527997568,,,,,,,,,,,,,,,,133,2022-05-31_15h43.35.608,FishGame,2022.1.1,60.04401233054773,
,35,넌 근심스러워,4,Green,B,2.708333333333333,3.133333333333333,ScrollUp,ScrollDown,Green.png,4,Negative,Congruent,0,0,0,0,,,,,,,,,,,,,,,,,,,,,,,,,0,34,34,34,,,,,,,,,,,,,,,,,,,,,,,,,,,,,,,,,,,,,,,,,,,,,,,,,,,,,,,,,,,,,,,,,,,,,,,,,1.6929012313485146,0.9790575001388788,571.2107170000672,None,ScrollUp,정답입니다,571.2107170000672,None,571.2107170000672,None,571.2107170000672,None,571.2107170000672,None,572.0719252000563,None,572.0719252000563,572.5727371000685,,,,,,,,,,,,,,,,133,2022-05-31_15h43.35.608,FishGame,2022.1.1,60.04401233054773,
,36,넌 세련되었어,2,Orange,A,5.5,4.6,ScrollDown,ScrollUp,Orange.png,4,Positive,Congruent,0,0,0,0,,,,,,,,,,,,,,,,,,,,,,,,,0,35,35,35,,,,,,,,,,,,,,,,,,,,,,,,,,,,,,,,,,,,,,,,,,,,,,,,,,,,,,,,,,,,,,,,,,,,,,,,,1.2685185074806213,0.949454199988395,573.2264513997361,None,ScrollDown,정답입니다,573.2264513997361,None,573.2264513997361,None,573.2264513997361,None,573.2264513997361,None,574.0436494997703,None,574.0436494997703,574.5556656997651,,,,,,,,,,,,,,,,133,2022-05-31_15h43.35.608,FishGame,2022.1.1,60.04401233054773,
,37,나를 보내줘,6,Orange,A,0,0,ScrollUp,ScrollDown,Orange.png,4,NonTarget,NonTarget,0,0,0,0,,,,,,,,,,,,,,,,,,,,,,,,,0,36,36,36,,,,,,,,,,,,,,,,,,,,,,,,,,,,,,,,,,,,,,,,,,,,,,,,,,,,,,,,,,,,,,,,,,,,,,,,,1.7361111094554267,1.5295218997634947,575.1909169000573,None,ScrollUp,정답입니다,575.1909169000573,None,575.1909169000573,None,575.1909169000573,None,575.1909169000573,None,576.6093387999572,None,576.6093387999572,577.1228521000594,,,,,,,,,,,,,,,,133,2022-05-31_15h43.35.608,FishGame,2022.1.1,60.04401233054773,
,38,넌 확고해,3,Green,B,4.708333333333334,4.566666666666666,ScrollUp,ScrollDown,Green.png,4,Neutral,Neutral,0,0,0,0,,,,,,,,,,,,,,,,,,,,,,,,,0,37,37,37,,,,,,,,,,,,,,,,,,,,,,,,,,,,,,,,,,,,,,,,,,,,,,,,,,,,,,,,,,,,,,,,,,,,,,,,,1.6913580298423767,0.9522581999190152,577.7529107998125,None,ScrollUp,정답입니다,577.7529107998125,None,577.7529107998125,None,577.7529107998125,None,577.7529107998125,None,578.6036912999116,None,578.6036912999116,579.1060804999433,,,,,,,,,,,,,,,,133,2022-05-31_15h43.35.608,FishGame,2022.1.1,60.04401233054773,
,39,넌 이해심이 많아,1,Green,B,6.041666666666668,5.533333333333333,ScrollUp,ScrollDown,Green.png,4,Positive,Incongruent,0,0,0,0,,,,,,,,,,,,,,,,,,,,,,,,,0,38,38,38,,,,,,,,,,,,,,,,,,,,,,,,,,,,,,,,,,,,,,,,,,,,,,,,,,,,,,,,,,,,,,,,,,,,,,,,,1.7793209999799728,0.7867716997861862,579.7341750999913,None,ScrollUp,정답입니다,579.7341750999913,None,579.7341750999913,None,579.7341750999913,None,579.7341750999913,None,580.4207824999467,None,580.4207824999467,580.9230622998439,,,,,,,,,,,,,,,,133,2022-05-31_15h43.35.608,FishGame,2022.1.1,60.04401233054773,
,40,나를 보내줘,6,Orange,A,0,0,ScrollUp,ScrollDown,Orange.png,4,NonTarget,NonTarget,0,0,0,0,,,,,,,,,,,,,,,,,,,,,,,,,0,39,39,39,,,,,,,,,,,,,,,,,,,,,,,,,,,,,,,,,,,,,,,,,,,,,,,,,,,,,,,,,,,,,,,,,,,,,,,,,1.2191358109315236,1.46923749987036,581.5553787997924,None,ScrollDown,오답입니다,581.5553787997924,None,581.5553787997924,None,581.5553787997924,None,581.5553787997924,None,582.9129185997881,None,582.9129185997881,583.4222419001162,,,,,,,,,,,,,,,,133,2022-05-31_15h43.35.608,FishGame,2022.1.1,60.04401233054773,
,41,넌 거칠어,4,Orange,A,2.625,3.033333333333333,ScrollDown,ScrollUp,Orange.png,4,Negative,Incongruent,0,0,0,0,,,,,,,,,,,,,,,,,,,,,,,,,0,40,40,40,,,,,,,,,,,,,,,,,,,,,,,,,,,,,,,,,,,,,,,,,,,,,,,,,,,,,,,,,,,,,,,,,,,,,,,,,1.3086419701576233,1.1197885000146925,584.0625263997354,None,ScrollDown,정답입니다,584.0625263997354,None,584.0625263997354,None,584.0625263997354,None,584.0625263997354,None,585.0631344998255,None,585.0631344998255,585.5725112999789,,,,,,,,,,,,,,,,133,2022-05-31_15h43.35.608,FishGame,2022.1.1,60.04401233054773,
,42,넌 변덕맞아,5,Green,B,2.75,2.166666666666667,ScrollUp,ScrollDown,Green.png,4,Negative,Congruent,0,0,0,0,,,,,,,,,,,,,,,,,,,,,,,,,0,41,41,41,,,,,,,,,,,,,,,,,,,,,,,,,,,,,,,,,,,,,,,,,,,,,,,,,,,,,,,,,,,,,,,,,,,,,,,,,1.7114197611808777,0.8910798998549581,586.2137025999837,None,ScrollUp,정답입니다,586.2137025999837,None,586.2137025999837,None,586.2137025999837,None,586.2137025999837,None,586.9891355996951,None,586.9891355996951,587.4889398999512,,,,,,,,,,,,,,,,133,2022-05-31_15h43.35.608,FishGame,2022.1.1,60.04401233054773,
,43,나를 데려가줘,6,Green,B,0,0,ScrollDown,ScrollUp,Green.png,4,NonTarget,NonTarget,0,0,0,0,,,,,,,,,,,,,,,,,,,,,,,,,0,42,42,42,,,,,,,,,,,,,,,,,,,,,,,,,,,,,,,,,,,,,,,,,,,,,,,,,,,,,,,,,,,,,,,,,,,,,,,,,1.2885802388191223,1.2096059997566044,588.1186716998927,None,ScrollDown,정답입니다,588.1186716998927,None,588.1186716998927,None,588.1186716998927,None,588.1186716998927,None,589.222413700074,None,589.222413700074,589.723102199845,,,,,,,,,,,,,,,,133,2022-05-31_15h43.35.608,FishGame,2022.1.1,60.04401233054773,
,44,넌 외로워,4,Green,B,2.833333333333333,3.3,ScrollUp,ScrollDown,Green.png,4,Negative,Congruent,0,0,0,0,,,,,,,,,,,,,,,,,,,,,,,,,0,43,43,43,,,,,,,,,,,,,,,,,,,,,,,,,,,,,,,,,,,,,,,,,,,,,,,,,,,,,,,,,,,,,,,,,,,,,,,,,1.6728395000100136,0.8874202999286354,590.3805800001137,None,ScrollUp,정답입니다,590.3805800001137,None,590.3805800001137,None,590.3805800001137,None,590.3805800001137,None,591.1375086000189,None,591.1375086000189,591.6390422997065,,,,,,,,,,,,,,,,133,2022-05-31_15h43.35.608,FishGame,2022.1.1,60.04401233054773,
,1,넌 불평스러워,5,Orange,A,2.25,2.066666666666667,ScrollDown,ScrollUp,Orange.png,5,Negative,Incongruent,0,0,0,0,,,,,,,,,,,,,,,,,,,,,,,,,,,,,0,0,0,0,,,,,,,,,,,,,,,,,,,,,,,,,,,,623.0903082001023,624.5899485996924,624.6240786998533,625.5737525001168,625.6234208000824,626.5736773996614,626.5736773996614,None,,,,,,,,,,,,,,,,,,,,,,,,,,,,,,,,,,1.1574074029922485,1.0661070998758078,627.7404864998534,None,ScrollDown,정답입니다,627.7404864998534,None,627.7404864998534,None,627.7404864998534,None,627.7404864998534,None,628.6330740996636,None,628.6330740996636,629.1400664998218,592.1391871999949,None,592.1391871999949,None,-0.10185185,-0.16203703,1,0,0,0.016233330126851797,None,622.14050089987,None,,,133,2022-05-31_15h43.35.608,FishGame,2022.1.1,60.04401233054773,
,2,나를 보내줘,6,Orange,A,0,0,ScrollUp,ScrollDown,Orange.png,5,NonTarget,NonTarget,0,0,0,0,,,,,,,,,,,,,,,,,,,,,,,,,,,,,0,1,1,1,,,,,,,,,,,,,,,,,,,,,,,,,,,,,,,,,,,,,,,,,,,,,,,,,,,,,,,,,,,,,,,,,,,,,1.8719135870536168,0.9439293998293579,629.7764300997369,None,ScrollUp,정답입니다,629.7764300997369,None,629.7764300997369,None,629.7764300997369,None,629.7764300997369,None,630.6067343000323,None,630.6067343000323,631.1071460000239,,,,,,,,,,,,,,,,133,2022-05-31_15h43.35.608,FishGame,2022.1.1,60.04401233054773,
,3,넌 다재다능해,2,Green,B,6.208333333333333,4.5,ScrollUp,ScrollDown,Green.png,5,Positive,Incongruent,0,0,0,0,,,,,,,,,,,,,,,,,,,,,,,,,,,,,0,2,2,2,,,,,,,,,,,,,,,,,,,,,,,,,,,,,,,,,,,,,,,,,,,,,,,,,,,,,,,,,,,,,,,,,,,,,1.7561728407939274,0.7520709000527859,631.7422361997887,None,ScrollUp,정답입니다,631.7422361997887,None,631.7422361997887,None,631.7422361997887,None,631.7422361997887,None,632.3885941999033,None,632.3885941999033,632.8902414999902,,,,,,,,,,,,,,,,133,2022-05-31_15h43.35.608,FishGame,2022.1.1,60.04401233054773,
,4,넌 과감해,3,Orange,A,4.833333333333334,4.6,ScrollDown,ScrollUp,Orange.png,5,Neutral,Neutral,0,0,0,0,,,,,,,,,,,,,,,,,,,,,,,,,,,,,0,3,3,3,,,,,,,,,,,,,,,,,,,,,,,,,,,,,,,,,,,,,,,,,,,,,,,,,,,,,,,,,,,,,,,,,,,,,1.4398148121933143,0.8253009002655745,633.5228699999861,None,ScrollDown,정답입니다,633.5228699999861,None,633.5228699999861,None,633.5228699999861,None,633.5228699999861,None,634.240271399729,None,634.240271399729,634.7403698996641,,,,,,,,,,,,,,,,133,2022-05-31_15h43.35.608,FishGame,2022.1.1,60.04401233054773,
,5,넌 고분고분해,3,Green,B,3.75,4.033333333333333,ScrollUp,ScrollDown,Green.png,5,Neutral,Neutral,0,0,0,0,,,,,,,,,,,,,,,,,,,,,,,,,,,,,0,4,4,4,,,,,,,,,,,,,,,,,,,,,,,,,,,,,,,,,,,,,,,,,,,,,,,,,,,,,,,,,,,,,,,,,,,,,1.6280864203969636,0.7176254000514746,635.3805970000103,None,ScrollUp,정답입니다,635.3805970000103,None,635.3805970000103,None,635.3805970000103,None,635.3805970000103,None,635.9784142998978,None,635.9784142998978,636.4907105998136,,,,,,,,,,,,,,,,133,2022-05-31_15h43.35.608,FishGame,2022.1.1,60.04401233054773,
,6,나를 보내줘,6,Orange,A,0,0,ScrollUp,ScrollDown,Orange.png,5,NonTarget,NonTarget,0,0,0,0,,,,,,,,,,,,,,,,,,,,,,,,,,,,,0,5,5,5,,,,,,,,,,,,,,,,,,,,,,,,,,,,,,,,,,,,,,,,,,,,,,,,,,,,,,,,,,,,,,,,,,,,,1.6944444452722869,0.9507598001509905,637.12766070012,None,ScrollUp,정답입니다,637.12766070012,None,637.12766070012,None,637.12766070012,None,637.12766070012,None,637.9618306998163,None,637.9618306998163,638.4739454998635,,,,,,,,,,,,,,,,133,2022-05-31_15h43.35.608,FishGame,2022.1.1,60.04401233054773,
,7,넌 잘 잊어,4,Orange,A,3,3.7,ScrollDown,ScrollUp,Orange.png,5,Negative,Incongruent,0,0,0,0,,,,,,,,,,,,,,,,,,,,,,,,,,,,,0,6,6,6,,,,,,,,,,,,,,,,,,,,,,,,,,,,,,,,,,,,,,,,,,,,,,,,,,,,,,,,,,,,,,,,,,,,,1.0787036915620167,0.8228409001603723,639.1227730000392,None,ScrollDown,정답입니다,639.1227730000392,None,639.1227730000392,None,639.1227730000392,None,639.1227730000392,None,639.8220206997357,None,639.8220206997357,640.3239668998867,,,,,,,,,,,,,,,,133,2022-05-31_15h43.35.608,FishGame,2022.1.1,60.04401233054773,
,8,넌 탐구심이없어,4,Green,B,2.833333333333333,3.066666666666667,ScrollUp,ScrollDown,Green.png,5,Negative,Congruent,0,0,0,0,,,,,,,,,,,,,,,,,,,,,,,,,,,,,0,7,7,7,,,,,,,,,,,,,,,,,,,,,,,,,,,,,,,,,,,,,,,,,,,,,,,,,,,,,,,,,,,,,,,,,,,,,1.6466049378116927,0.6708944998681545,640.9713318999857,None,ScrollUp,정답입니다,640.9713318999857,None,640.9713318999857,None,640.9713318999857,None,640.9713318999857,None,641.5220711999573,None,641.5220711999573,642.0240619997494,,,,,,,,,,,,,,,,133,2022-05-31_15h43.35.608,FishGame,2022.1.1,60.04401233054773,
,9,나를 데려가줘,6,Green,B,0,0,ScrollDown,ScrollUp,Green.png,5,NonTarget,NonTarget,0,0,0,0,,,,,,,,,,,,,,,,,,,,,,,,,,,,,0,8,8,8,,,,,,,,,,,,,,,,,,,,,,,,,,,,,,,,,,,,,,,,,,,,,,,,,,,,,,,,,,,,,,,,,,,,,1.31635802735885,1.40389349963516,642.6545971999876,None,ScrollDown,정답입니다,642.6545971999876,None,642.6545971999876,None,642.6545971999876,None,642.6545971999876,None,643.9481852999888,None,643.9481852999888,644.4574992000125,,,,,,,,,,,,,,,,133,2022-05-31_15h43.35.608,FishGame,2022.1.1,60.04401233054773,
,10,넌 참되어,2,Orange,A,6.041666666666664,4.733333333333333,ScrollDown,ScrollUp,Orange.png,5,Positive,Congruent,0,0,0,0,,,,,,,,,,,,,,,,,,,,,,,,,,,,,0,9,9,9,,,,,,,,,,,,,,,,,,,,,,,,,,,,,,,,,,,,,,,,,,,,,,,,,,,,,,,,,,,,,,,,,,,,,1.126543199022611,0.9011343000456691,645.0963620999828,None,ScrollDown,정답입니다,645.0963620999828,None,645.0963620999828,None,645.0963620999828,None,645.0963620999828,None,645.8790124999359,None,645.8790124999359,646.390915799886,,,,,,,,,,,,,,,,133,2022-05-31_15h43.35.608,FishGame,2022.1.1,60.04401233054773,
,11,넌 생기있어,1,Green,B,5.875,5.633333333333334,ScrollUp,ScrollDown,Green.png,5,Positive,Incongruent,0,0,0,0,,,,,,,,,,,,,,,,,,,,,,,,,,,,,0,10,10,10,,,,,,,,,,,,,,,,,,,,,,,,,,,,,,,,,,,,,,,,,,,,,,,,,,,,,,,,,,,,,,,,,,,,,1.564814817160368,0.8531027003191411,647.0283284997568,None,ScrollUp,정답입니다,647.0283284997568,None,647.0283284997568,None,647.0283284997568,None,647.0283284997568,None,647.762271199841,None,647.762271199841,648.274212599732,,,,,,,,,,,,,,,,133,2022-05-31_15h43.35.608,FishGame,2022.1.1,60.04401233054773,
,12,넌 비사교적이야,4,Green,B,2.875,2.9,ScrollUp,ScrollDown,Green.png,5,Negative,Congruent,0,0,0,0,,,,,,,,,,,,,,,,,,,,,,,,,,,,,0,11,11,11,,,,,,,,,,,,,,,,,,,,,,,,,,,,,,,,,,,,,,,,,,,,,,,,,,,,,,,,,,,,,,,,,,,,,1.6466049378116927,1.0501033999025822,648.910292699933,None,ScrollUp,정답입니다,648.910292699933,None,648.910292699933,None,648.910292699933,None,648.910292699933,None,649.8461795998737,None,649.8461795998737,650.357088000048,,,,,,,,,,,,,,,,133,2022-05-31_15h43.35.608,FishGame,2022.1.1,60.04401233054773,
,13,나를 데려가줘,6,Green,B,0,0,ScrollDown,ScrollUp,Green.png,5,NonTarget,NonTarget,0,0,0,0,,,,,,,,,,,,,,,,,,,,,,,,,,,,,0,12,12,12,,,,,,,,,,,,,,,,,,,,,,,,,,,,,,,,,,,,,,,,,,,,,,,,,,,,,,,,,,,,,,,,,,,,,1,1.0379508999176323,650.9849560000002,None,ScrollDown,정답입니다,650.9849560000002,None,650.9849560000002,None,650.9849560000002,None,650.9849560000002,None,651.9221037998796,None,651.9221037998796,652.4245108999312,,,,,,,,,,,,,,,,133,2022-05-31_15h43.35.608,FishGame,2022.1.1,60.04401233054773,
,14,넌 고독해,4,Orange,A,2.916666666666667,3.233333333333333,ScrollDown,ScrollUp,Orange.png,5,Negative,Incongruent,0,0,0,0,,,,,,,,,,,,,,,,,,,,,,,,,,,,,0,13,13,13,,,,,,,,,,,,,,,,,,,,,,,,,,,,,,,,,,,,,,,,,,,,,,,,,,,,,,,,,,,,,,,,,,,,,1.3611111069718995,0.6665384997613728,653.0582379000261,None,ScrollDown,정답입니다,653.0582379000261,None,653.0582379000261,None,653.0582379000261,None,653.0582379000261,None,653.6120138997212,None,653.6120138997212,654.1239057998173,,,,,,,,,,,,,,,,133,2022-05-31_15h43.35.608,FishGame,2022.1.1,60.04401233054773,
,15,넌 신경질적이야,5,Green,B,2.375,2.233333333333333,ScrollUp,ScrollDown,Green.png,5,Negative,Congruent,0,0,0,0,,,,,,,,,,,,,,,,,,,,,,,,,,,,,0,14,14,14,,,,,,,,,,,,,,,,,,,,,,,,,,,,,,,,,,,,,,,,,,,,,,,,,,,,,,,,,,,,,,,,,,,,,1.7592592686414719,1.5571033000014722,654.7603631000966,None,ScrollUp,정답입니다,654.7603631000966,None,654.7603631000966,None,654.7603631000966,None,654.7603631000966,None,656.2076016999781,None,656.2076016999781,656.707661499735,,,,,,,,,,,,,,,,133,2022-05-31_15h43.35.608,FishGame,2022.1.1,60.04401233054773,
,16,넌 똑똑해,2,Green,B,5.666666666666667,3.966666666666667,ScrollUp,ScrollDown,Green.png,5,Positive,Incongruent,0,0,0,0,,,,,,,,,,,,,,,,,,,,,,,,,,,,,0,15,15,15,,,,,,,,,,,,,,,,,,,,,,,,,,,,,,,,,,,,,,,,,,,,,,,,,,,,,,,,,,,,,,,,,,,,,1.7947530895471573,0.8672344000078738,657.3564023999497,None,ScrollUp,정답입니다,657.3564023999497,None,657.3564023999497,None,657.3564023999497,None,657.3564023999497,None,658.0963649996556,None,658.0963649996556,658.6079561999068,,,,,,,,,,,,,,,,133,2022-05-31_15h43.35.608,FishGame,2022.1.1,60.04401233054773,
,17,나를 보내줘,6,Orange,A,0,0,ScrollUp,ScrollDown,Orange.png,5,NonTarget,NonTarget,0,0,0,0,,,,,,,,,,,,,,,,,,,,,,,,,,,,,0,16,16,16,,,,,,,,,,,,,,,,,,,,,,,,,,,,,,,,,,,,,,,,,,,,,,,,,,,,,,,,,,,,,,,,,,,,,1.68364197264115,0.888987900223583,659.2473772000521,None,ScrollUp,정답입니다,659.2473772000521,None,659.2473772000521,None,659.2473772000521,None,659.2473772000521,None,660.0239364998415,None,660.0239364998415,660.524377499707,,,,,,,,,,,,,,,,133,2022-05-31_15h43.35.608,FishGame,2022.1.1,60.04401233054773,
,18,넌 협조적이야,1,Orange,A,5.625,5.666666666666667,ScrollDown,ScrollUp,Orange.png,5,Positive,Congruent,0,0,0,0,,,,,,,,,,,,,,,,,,,,,,,,,,,,,0,17,17,17,,,,,,,,,,,,,,,,,,,,,,,,,,,,,,,,,,,,,,,,,,,,,,,,,,,,,,,,,,,,,,,,,,,,,1.0879629751046498,1.0594071000814438,661.1586163998581,None,ScrollDown,정답입니다,661.1586163998581,None,661.1586163998581,None,661.1586163998581,None,661.1586163998581,None,662.1074785999954,None,662.1074785999954,662.6075502000749,,,,,,,,,,,,,,,,133,2022-05-31_15h43.35.608,FishGame,2022.1.1,60.04401233054773,
,19,나를 데려가줘,6,Green,B,0,0,ScrollDown,ScrollUp,Green.png,5,NonTarget,NonTarget,0,0,0,0,,,,,,,,,,,,,,,,,,,,,,,,,,,,,0,18,18,18,,,,,,,,,,,,,,,,,,,,,,,,,,,,,,,,,,,,,,,,,,,,,,,,,,,,,,,,,,,,,,,,,,,,,1.3580246915419898,1.7653071000240743,663.2398870000616,None,ScrollDown,정답입니다,663.2398870000616,None,663.2398870000616,None,663.2398870000616,None,663.2398870000616,None,664.8968130997382,None,664.8968130997382,665.407398100011,,,,,,,,,,,,,,,,133,2022-05-31_15h43.35.608,FishGame,2022.1.1,60.04401233054773,
,20,넌 몰인정해,5,Green,B,2.541666666666667,2.066666666666667,ScrollUp,ScrollDown,Green.png,5,Negative,Congruent,0,0,0,0,,,,,,,,,,,,,,,,,,,,,,,,,,,,,0,19,19,19,,,,,,,,,,,,,,,,,,,,,,,,,,,,,,,,,,,,,,,,,,,,,,,,,,,,,,,,,,,,,,,,,,,,,1.5956790149211884,2.1032683001831174,666.0432176999748,None,ScrollUp,정답입니다,666.0432176999748,None,666.0432176999748,None,666.0432176999748,None,666.0432176999748,None,668.0391375999898,None,668.0391375999898,668.5409087999724,,,,,,,,,,,,,,,,133,2022-05-31_15h43.35.608,FishGame,2022.1.1,60.04401233054773,
,21,나를 데려가줘,6,Green,B,0,0,ScrollDown,ScrollUp,Green.png,5,NonTarget,NonTarget,0,0,0,0,,,,,,,,,,,,,,,,,,,,,,,,,,,,,0,20,20,20,,,,,,,,,,,,,,,,,,,,,,,,,,,,,,,,,,,,,,,,,,,,,,,,,,,,,,,,,,,,,,,,,,,,,1.5725308619439602,1.1086150999180973,669.1714683999307,None,ScrollUp,오답입니다,669.1714683999307,None,669.1714683999307,None,669.1714683999307,None,669.1714683999307,None,670.1707967999391,None,670.1707967999391,670.6745253000408,,,,,,,,,,,,,,,,133,2022-05-31_15h43.35.608,FishGame,2022.1.1,60.04401233054773,
,22,넌 순진해,3,Green,B,4.125,4.166666666666667,ScrollUp,ScrollDown,Green.png,5,Neutral,Neutral,0,0,0,0,,,,,,,,,,,,,,,,,,,,,,,,,,,,,0,21,21,21,,,,,,,,,,,,,,,,,,,,,,,,,,,,,,,,,,,,,,,,,,,,,,,,,,,,,,,,,,,,,,,,,,,,,1.723765422900518,1.020645100157708,671.3056626999751,None,ScrollUp,정답입니다,671.3056626999751,None,671.3056626999751,None,671.3056626999751,None,671.3056626999751,None,672.2669581999071,None,672.2669581999071,672.7747013997287,,,,,,,,,,,,,,,,133,2022-05-31_15h43.35.608,FishGame,2022.1.1,60.04401233054773,
