name,TrialNum,Word,WordCategory,FishType,WordList,WordValence,WordReputation,CorrectResp,IncorrectResp,FishTypeFile,Round,WordType,Condition,LoopforOrange.thisRepN,LoopforOrange.thisTrialN,LoopforOrange.thisN,LoopforOrange.thisIndex,OrangeInstLoop.thisRepN,OrangeInstLoop.thisTrialN,OrangeInstLoop.thisN,OrangeInstLoop.thisIndex,OrangePrac.thisRepN,OrangePrac.thisTrialN,OrangePrac.thisN,OrangePrac.thisIndex,temp1.thisRepN,temp1.thisTrialN,temp1.thisN,temp1.thisIndex,OrangeRound1.thisRepN,OrangeRound1.thisTrialN,OrangeRound1.thisN,OrangeRound1.thisIndex,OrangeRound2.thisRepN,OrangeRound2.thisTrialN,OrangeRound2.thisN,OrangeRound2.thisIndex,OrangeRound3.thisRepN,OrangeRound3.thisTrialN,OrangeRound3.thisN,OrangeRound3.thisIndex,OrangeRound4.thisRepN,OrangeRound4.thisTrialN,OrangeRound4.thisN,OrangeRound4.thisIndex,OrangeRound5.thisRepN,OrangeRound5.thisTrialN,OrangeRound5.thisN,OrangeRound5.thisIndex,LoopForGreen.thisRepN,LoopForGreen.thisTrialN,LoopForGreen.thisN,LoopForGreen.thisIndex,text_2.started,text_2.stopped,text_3.started,text_3.stopped,key_resp.keys,key_resp.rt,key_resp.started,key_resp.stopped,PassI_2.started,PassI_2.stopped,PassInst_2.keys,PassInst_2.rt,PassInst_2.started,PassInst_2.stopped,mouse_2.x,mouse_2.y,mouse_2.leftButton,mouse_2.midButton,mouse_2.rightButton,mouse_2.started,mouse_2.stopped,image.started,image.stopped,text_5.started,text_5.stopped,text_6.started,text_6.stopped,text_7.started,text_7.stopped,text_8.started,text_8.stopped,slider_2.response,slider_2.rt,slider_2.started,slider_2.stopped,Response_2,Feedback_2,BackGround_2.started,BackGround_2.stopped,Fish_2.started,Fish_2.stopped,WordBox_2.started,WordBox_2.stopped,Words_2.started,Words_2.stopped,BackGround_Feedback_2.started,BackGround_Feedback_2.stopped,Feedbacks_2.started,Feedbacks_2.stopped,Continue_or_not.keys,Continue_or_not.rt,Continue_or_not.started,Continue_or_not.stopped,image_3.started,image_3.stopped,mouse_3.x,mouse_3.y,mouse_3.leftButton,mouse_3.midButton,mouse_3.rightButton,mouse_3.started,mouse_3.stopped,startmain.started,startmain.stopped,slider.response,slider.rt,slider.started,slider.stopped,Response,Feedback,BackGround.started,BackGround.stopped,Fish.started,Fish.stopped,WordBox.started,WordBox.stopped,Words.started,Words.stopped,BackGround_Feedback.started,BackGround_Feedback.stopped,Feedbacks.started,Feedbacks.stopped,text.started,text.stopped,break_interval.started,break_interval.stopped,mouse.x,mouse.y,mouse.leftButton,mouse.midButton,mouse.rightButton,mouse.started,mouse.stopped,stratnextround.started,stratnextround.stopped,endgame.started,endgame.stopped,participant,date,expName,psychopyVersion,frameRate,
,,,,,,,,,,,,,,,,,,,,,,,,,,,,,,,,,,,,,,,,,,,,,,,,,,,,,,19.556341500000144,None,19.556341500000144,None,space,3.8365851999997176,20.035258200000044,None,,,,,,,,,,,,,,,,,,,,,,,,,,,,,,,,,,,,,,,,,,,,,,,,,,,,,,,,,,,,,,,,,,,,,,,,,,,,,,,,,,,,,,,,,,201,2022-04-26_13h40.10.509,FishGame,2022.1.1,60.01990259971459,
물고기과제_instruction(참가자용)OrangeVersion.mp4,,,,,,,,,,,,,,0,0,0,0,0,0,0,0,,,,,,,,,,,,,,,,,,,,,,,,,,,,,,,,,,,,,,,,,90.73908680000022,None,n,5.405249799999638,90.73908680000022,None,,,,,,,,,,,,,,,,,,,,,,,,,,,,,,,,,,,,,,,,,,,,,,,,,,,,,,,,,,,,,,,,,,,,,,,,,,,,,,,,,,,,201,2022-04-26_13h40.10.509,FishGame,2022.1.1,60.01990259971459,
,1,넌 교활해,5,Green,B,2.333333333333333,2.133333333333333,ScrollUp,ScrollDown,Green.png,practice,,,0,0,0,0,,,,,0,0,0,0,0,0,0,0,,,,,,,,,,,,,,,,,,,,,,,,,,,,,,,,,,,,,,,0.05277778,-0.23888889,1,0,0,0.5136349700001119,None,96.17528520000042,None,103.74093830000038,105.24059230000012,105.27405830000043,106.22408780000023,106.27397610000025,107.22385180000038,107.22385180000038,None,1.873456800977389,1.9022752999999284,108.42122800000016,None,ScrollUp,정답입니다,108.42122800000016,None,108.42122800000016,None,108.42122800000016,None,108.42122800000016,None,110.13976770000045,None,110.13976770000045,110.63977290000003,,,,,,,,,,,,,,,,,,,,,,,,,,,,,,,,,,,,,,,,,,,,,,,,,201,2022-04-26_13h40.10.509,FishGame,2022.1.1,60.01990259971459,
,2,넌 슬기로워,2,Orange,A,6.166666666666667,4.1,ScrollDown,ScrollUp,Orange.png,practice,,,0,0,0,0,,,,,0,0,0,0,0,1,1,1,,,,,,,,,,,,,,,,,,,,,,,,,,,,,,,,,,,,,,,,,,,,,,,,,,,,,,,,1.1512345721324284,1.0292687999999544,111.30778940000027,None,ScrollDown,정답입니다,111.30778940000027,None,111.30778940000027,None,111.30778940000027,None,111.30778940000027,None,112.19257890000017,None,112.19257890000017,112.706232,,,,,,,,,,,,,,,,,,,,,,,,,,,,,,,,,,,,,,,,,,,,,,,,,201,2022-04-26_13h40.10.509,FishGame,2022.1.1,60.01990259971459,
,3,나를 보내줘,6,Orange,A,0,0,ScrollUp,ScrollDown,Orange.png,practice,,,0,0,0,0,,,,,0,0,0,0,0,2,2,2,,,,,,,,,,,,,,,,,,,,,,,,,,,,,,,,,,,,,,,,,,,,,,,,,,,,,,,,1.7500000099341075,1.1767339999996693,113.36391000000003,None,ScrollUp,정답입니다,113.36391000000003,None,113.36391000000003,None,113.36391000000003,None,113.36391000000003,None,114.40121330000011,None,114.40121330000011,114.90606760000037,,,,,,,,,,,,,,,,,,,,,,,,,,,,,,,,,,,,,,,,,,,,,,,,,201,2022-04-26_13h40.10.509,FishGame,2022.1.1,60.01990259971459,
,4,나를 데려가줘,6,Green,B,0,0,ScrollDown,ScrollUp,Green.png,practice,,,0,0,0,0,,,,,0,0,0,0,0,3,3,3,,,,,,,,,,,,,,,,,,,,,,,,,,,,,,,,,,,,,,,,,,,,,,,,,,,,,,,,1.180555562178294,1.2121127000000342,115.55654920000006,None,ScrollDown,정답입니다,115.55654920000006,None,115.55654920000006,None,115.55654920000006,None,115.55654920000006,None,116.63905730000033,None,116.63905730000033,117.13903660000005,,,,,,,,,,,,,,,,,,,,,,,,,,,,,,,,,,,,,,,,,,,,,,,,,201,2022-04-26_13h40.10.509,FishGame,2022.1.1,60.01990259971459,
,1,넌 교활해,5,Green,B,2.333333333333333,2.133333333333333,ScrollUp,ScrollDown,Green.png,practice,,,0,0,0,0,,,,,0,0,0,0,,,,,,,,,,,,,,,,,,,,,,,,,,,,,,,,,,,,,,,,,,,,,,,,,,,,,,,,,,,,,,,,,,,,,,,,,,,,,,n,5.922573999999713,117.63893410000037,None,117.63893410000037,None,,,,,,,,,,,,,,,,,,,,,,,,,,,,,,,,,,,,,,,,,,,201,2022-04-26_13h40.10.509,FishGame,2022.1.1,60.01990259971459,
,1,넌 따뜻해,1,Green,B,6.083333333333333,5.6,ScrollUp,ScrollDown,Green.png,1,Positive,Incongruent,0,0,0,0,,,,,,,,,,,,,0,0,0,0,,,,,,,,,,,,,,,,,,,,,,,,,,,,,,,,,,,,,,,,,,,,126.15503200000012,127.6544385000002,127.68771730000026,128.63764210000045,128.68765440000016,129.63752730000033,129.63752730000033,None,,,,,,,,,,,,,,,,,,,,,,,,,0.06388889,-0.21296297,1,0,0,0.31356017000052816,None,123.5882431,None,1.6604938258727393,1.4982562000000144,130.84927370000014,None,ScrollUp,정답입니다,130.84927370000014,None,130.84927370000014,None,130.84927370000014,None,130.84927370000014,None,132.15568350000012,None,132.15568350000012,132.6702792000001,,,,,,,,,,,,,,,,201,2022-04-26_13h40.10.509,FishGame,2022.1.1,60.01990259971459,
,2,넌 기품있어,2,Green,B,5.791666666666668,4.5,ScrollUp,ScrollDown,Green.png,1,Positive,Incongruent,0,0,0,0,,,,,,,,,,,,,0,1,1,1,,,,,,,,,,,,,,,,,,,,,,,,,,,,,,,,,,,,,,,,,,,,,,,,,,,,,,,,,,,,,,,,,,,,,,,,,,,,,,,,,,,,,1.7839506169160206,1.1411950000001525,133.31827220000014,None,ScrollUp,정답입니다,133.31827220000014,None,133.31827220000014,None,133.31827220000014,None,133.31827220000014,None,134.32027880000032,None,134.32027880000032,134.82013190000043,,,,,,,,,,,,,,,,201,2022-04-26_13h40.10.509,FishGame,2022.1.1,60.01990259971459,
,3,나를 보내줘,6,Orange,A,0,0,ScrollUp,ScrollDown,Orange.png,1,NonTarget,NonTarget,0,0,0,0,,,,,,,,,,,,,0,2,2,2,,,,,,,,,,,,,,,,,,,,,,,,,,,,,,,,,,,,,,,,,,,,,,,,,,,,,,,,,,,,,,,,,,,,,,,,,,,,,,,,,,,,,1.7608024577299755,1.184696299999814,135.48986950000017,None,ScrollUp,정답입니다,135.48986950000017,None,135.48986950000017,None,135.48986950000017,None,135.48986950000017,None,136.5267313000004,None,136.5267313000004,137.03648170000042,,,,,,,,,,,,,,,,201,2022-04-26_13h40.10.509,FishGame,2022.1.1,60.01990259971459,
,4,넌 수동적이야,4,Orange,A,2.833333333333333,2.933333333333333,ScrollDown,ScrollUp,Orange.png,1,Negative,Incongruent,0,0,0,0,,,,,,,,,,,,,0,3,3,3,,,,,,,,,,,,,,,,,,,,,,,,,,,,,,,,,,,,,,,,,,,,,,,,,,,,,,,,,,,,,,,,,,,,,,,,,,,,,,,,,,,,,1.121913582086563,1.321763099999771,137.71578550000004,None,ScrollDown,정답입니다,137.71578550000004,None,137.71578550000004,None,137.71578550000004,None,137.71578550000004,None,138.8864305000002,None,138.8864305000002,139.38627350000024,,,,,,,,,,,,,,,,201,2022-04-26_13h40.10.509,FishGame,2022.1.1,60.01990259971459,
,5,넌 사심이 없어,3,Green,B,4.916666666666666,4.333333333333333,ScrollUp,ScrollDown,Green.png,1,Neutral,Neutral,0,0,0,0,,,,,,,,,,,,,0,4,4,4,,,,,,,,,,,,,,,,,,,,,,,,,,,,,,,,,,,,,,,,,,,,,,,,,,,,,,,,,,,,,,,,,,,,,,,,,,,,,,,,,,,,,1.765432099501292,1.1434886000001825,140.04620980000027,None,ScrollUp,정답입니다,140.04620980000027,None,140.04620980000027,None,140.04620980000027,None,140.04620980000027,None,141.05268160000014,None,141.05268160000014,141.55249860000004,,,,,,,,,,,,,,,,201,2022-04-26_13h40.10.509,FishGame,2022.1.1,60.01990259971459,
,6,넌 헤퍼,5,Orange,A,2.458333333333334,2.233333333333333,ScrollDown,ScrollUp,Orange.png,1,Negative,Incongruent,0,0,0,0,,,,,,,,,,,,,0,5,5,5,,,,,,,,,,,,,,,,,,,,,,,,,,,,,,,,,,,,,,,,,,,,,,,,,,,,,,,,,,,,,,,,,,,,,,,,,,,,,,,,,,,,,1.1666666616996129,1.1874525000002905,142.21586920000027,None,ScrollDown,정답입니다,142.21586920000027,None,142.21586920000027,None,142.21586920000027,None,142.21586920000027,None,143.2625763000001,None,143.2625763000001,143.76889280000023,,,,,,,,,,,,,,,,201,2022-04-26_13h40.10.509,FishGame,2022.1.1,60.01990259971459,
,7,넌 말쑥해,3,Orange,A,4.833333333333334,4.333333333333333,ScrollDown,ScrollUp,Orange.png,1,Neutral,Neutral,0,0,0,0,,,,,,,,,,,,,0,6,6,6,,,,,,,,,,,,,,,,,,,,,,,,,,,,,,,,,,,,,,,,,,,,,,,,,,,,,,,,,,,,,,,,,,,,,,,,,,,,,,,,,,,,,1.3595679054657617,1.1784222000001137,144.43216410000014,None,ScrollDown,정답입니다,144.43216410000014,None,144.43216410000014,None,144.43216410000014,None,144.43216410000014,None,145.4689671000001,None,145.4689671000001,145.96856350000007,,,,,,,,,,,,,,,,201,2022-04-26_13h40.10.509,FishGame,2022.1.1,60.01990259971459,
,8,넌 투덜거려,5,Green,B,2.541666666666667,2.266666666666667,ScrollUp,ScrollDown,Green.png,1,Negative,Congruent,0,0,0,0,,,,,,,,,,,,,0,7,7,7,,,,,,,,,,,,,,,,,,,,,,,,,,,,,,,,,,,,,,,,,,,,,,,,,,,,,,,,,,,,,,,,,,,,,,,,,,,,,,,,,,,,,1.7746913582086563,1.242658399999982,146.63386870000022,None,ScrollUp,정답입니다,146.63386870000022,None,146.63386870000022,None,146.63386870000022,None,146.63386870000022,None,147.73497880000014,None,147.73497880000014,148.23497280000038,,,,,,,,,,,,,,,,201,2022-04-26_13h40.10.509,FishGame,2022.1.1,60.01990259971459,
,9,넌 적극적이야,1,Orange,A,5.708333333333333,5.533333333333333,ScrollDown,ScrollUp,Orange.png,1,Positive,Congruent,0,0,0,0,,,,,,,,,,,,,0,8,8,8,,,,,,,,,,,,,,,,,,,,,,,,,,,,,,,,,,,,,,,,,,,,,,,,,,,,,,,,,,,,,,,,,,,,,,,,,,,,,,,,,,,,,1.2685185074806213,1.1335339000002023,148.89626670000007,None,ScrollDown,정답입니다,148.89626670000007,None,148.89626670000007,None,148.89626670000007,None,148.89626670000007,None,149.89145260000032,None,149.89145260000032,150.40157500000032,,,,,,,,,,,,,,,,201,2022-04-26_13h40.10.509,FishGame,2022.1.1,60.01990259971459,
,10,넌 재미없어,4,Green,B,2.625,2.966666666666667,ScrollUp,ScrollDown,Green.png,1,Negative,Congruent,0,0,0,0,,,,,,,,,,,,,0,9,9,9,,,,,,,,,,,,,,,,,,,,,,,,,,,,,,,,,,,,,,,,,,,,,,,,,,,,,,,,,,,,,,,,,,,,,,,,,,,,,,,,,,,,,1.632716049750646,1.1992285999999694,151.05297020000035,None,ScrollUp,정답입니다,151.05297020000035,None,151.05297020000035,None,151.05297020000035,None,151.05297020000035,None,152.12497710000025,None,152.12497710000025,152.6344299000002,,,,,,,,,,,,,,,,201,2022-04-26_13h40.10.509,FishGame,2022.1.1,60.01990259971459,
,11,넌 명석해,2,Orange,A,5.875,4.033333333333333,ScrollDown,ScrollUp,Orange.png,1,Positive,Congruent,0,0,0,0,,,,,,,,,,,,,0,10,10,10,,,,,,,,,,,,,,,,,,,,,,,,,,,,,,,,,,,,,,,,,,,,,,,,,,,,,,,,,,,,,,,,,,,,,,,,,,,,,,,,,,,,,1.1898148208856583,1.2622078000003967,153.3007407,None,ScrollDown,정답입니다,153.3007407,None,153.3007407,None,153.3007407,None,153.3007407,None,154.41779780000024,None,154.41779780000024,154.9175140000002,,,,,,,,,,,,,,,,201,2022-04-26_13h40.10.509,FishGame,2022.1.1,60.01990259971459,
,12,나를 데려가줘,6,Green,B,0,0,ScrollDown,ScrollUp,Green.png,1,NonTarget,NonTarget,0,0,0,0,,,,,,,,,,,,,0,11,11,11,,,,,,,,,,,,,,,,,,,,,,,,,,,,,,,,,,,,,,,,,,,,,,,,,,,,,,,,,,,,,,,,,,,,,,,,,,,,,,,,,,,,,1,1.3487552000001415,155.5817508,None,ScrollDown,정답입니다,155.5817508,None,155.5817508,None,155.5817508,None,155.5817508,None,156.78833900000018,None,156.78833900000018,157.30046100000027,,,,,,,,,,,,,,,,201,2022-04-26_13h40.10.509,FishGame,2022.1.1,60.01990259971459,
,13,넌 소심해,4,Orange,A,3,3.1,ScrollDown,ScrollUp,Orange.png,1,Negative,Incongruent,0,0,0,0,,,,,,,,,,,,,0,12,12,12,,,,,,,,,,,,,,,,,,,,,,,,,,,,,,,,,,,,,,,,,,,,,,,,,,,,,,,,,,,,,,,,,,,,,,,,,,,,,,,,,,,,,1.016975333293279,1.2946565999995983,157.9614886000004,None,ScrollDown,정답입니다,157.9614886000004,None,157.9614886000004,None,157.9614886000004,None,157.9614886000004,None,159.11311980000028,None,159.11311980000028,159.61679680000043,,,,,,,,,,,,,,,,201,2022-04-26_13h40.10.509,FishGame,2022.1.1,60.01990259971459,
,14,넌 합리적이야,2,Orange,A,5.583333333333333,4.733333333333333,ScrollDown,ScrollUp,Orange.png,1,Positive,Congruent,0,0,0,0,,,,,,,,,,,,,0,13,13,13,,,,,,,,,,,,,,,,,,,,,,,,,,,,,,,,,,,,,,,,,,,,,,,,,,,,,,,,,,,,,,,,,,,,,,,,,,,,,,,,,,,,,1.0138889054457347,1.1793075999999019,160.2875154000003,None,ScrollDown,정답입니다,160.2875154000003,None,160.2875154000003,None,160.2875154000003,None,160.2875154000003,None,161.31875890000038,None,161.31875890000038,161.8332604000002,,,,,,,,,,,,,,,,201,2022-04-26_13h40.10.509,FishGame,2022.1.1,60.01990259971459,
,15,넌 무자비해,5,Green,B,2.333333333333333,2.1,ScrollUp,ScrollDown,Green.png,1,Negative,Congruent,0,0,0,0,,,,,,,,,,,,,0,14,14,14,,,,,,,,,,,,,,,,,,,,,,,,,,,,,,,,,,,,,,,,,,,,,,,,,,,,,,,,,,,,,,,,,,,,,,,,,,,,,,,,,,,,,1.7006172885497413,1.1358227999999144,162.4926102000004,None,ScrollUp,정답입니다,162.4926102000004,None,162.4926102000004,None,162.4926102000004,None,162.4926102000004,None,163.4905772000002,None,163.4905772000002,163.99966170000016,,,,,,,,,,,,,,,,201,2022-04-26_13h40.10.509,FishGame,2022.1.1,60.01990259971459,
,16,나를 보내줘,6,Orange,A,0,0,ScrollUp,ScrollDown,Orange.png,1,NonTarget,NonTarget,0,0,0,0,,,,,,,,,,,,,0,15,15,15,,,,,,,,,,,,,,,,,,,,,,,,,,,,,,,,,,,,,,,,,,,,,,,,,,,,,,,,,,,,,,,,,,,,,,,,,,,,,,,,,,,,,1.8163580348094304,1.384708700000374,164.65382640000007,None,ScrollUp,정답입니다,164.65382640000007,None,164.65382640000007,None,164.65382640000007,None,164.65382640000007,None,165.90578780000033,None,165.90578780000033,166.41606710000042,,,,,,,,,,,,,,,,201,2022-04-26_13h40.10.509,FishGame,2022.1.1,60.01990259971459,
,17,넌 현실적이야,3,Green,B,4.608695652173913,4.766666666666667,ScrollUp,ScrollDown,Green.png,1,Neutral,Neutral,0,0,0,0,,,,,,,,,,,,,0,16,16,16,,,,,,,,,,,,,,,,,,,,,,,,,,,,,,,,,,,,,,,,,,,,,,,,,,,,,,,,,,,,,,,,,,,,,,,,,,,,,,,,,,,,,1.9521604875723522,1.4997591999999713,167.07553180000014,None,ScrollUp,정답입니다,167.07553180000014,None,167.07553180000014,None,167.07553180000014,None,167.07553180000014,None,168.4377727000001,None,168.4377727000001,168.9488491000002,,,,,,,,,,,,,,,,201,2022-04-26_13h40.10.509,FishGame,2022.1.1,60.01990259971459,
,18,넌 의리있어,1,Green,B,5.833333333333334,5.633333333333334,ScrollUp,ScrollDown,Green.png,1,Positive,Incongruent,0,0,0,0,,,,,,,,,,,,,0,17,17,17,,,,,,,,,,,,,,,,,,,,,,,,,,,,,,,,,,,,,,,,,,,,,,,,,,,,,,,,,,,,,,,,,,,,,,,,,,,,,,,,,,,,,1.8935185074806213,1.2292073999997228,169.60537720000002,None,ScrollUp,정답입니다,169.60537720000002,None,169.60537720000002,None,169.60537720000002,None,169.60537720000002,None,170.70135040000014,None,170.70135040000014,171.21536220000007,,,,,,,,,,,,,,,,201,2022-04-26_13h40.10.509,FishGame,2022.1.1,60.01990259971459,
,19,넌 신경과민이야,5,Orange,A,2.541666666666667,2.166666666666667,ScrollDown,ScrollUp,Orange.png,1,Negative,Incongruent,0,0,0,0,,,,,,,,,,,,,0,18,18,18,,,,,,,,,,,,,,,,,,,,,,,,,,,,,,,,,,,,,,,,,,,,,,,,,,,,,,,,,,,,,,,,,,,,,,,,,,,,,,,,,,,,,1.1466049303611119,1.2505802000000585,171.88584610000044,None,ScrollDown,정답입니다,171.88584610000044,None,171.88584610000044,None,171.88584610000044,None,171.88584610000044,None,172.98804280000013,None,172.98804280000013,173.49841090000018,,,,,,,,,,,,,,,,201,2022-04-26_13h40.10.509,FishGame,2022.1.1,60.01990259971459,
,20,넌 편안해,1,Orange,A,5.916666666666666,5.866666666666666,ScrollDown,ScrollUp,Orange.png,1,Positive,Congruent,0,0,0,0,,,,,,,,,,,,,0,19,19,19,,,,,,,,,,,,,,,,,,,,,,,,,,,,,,,,,,,,,,,,,,,,,,,,,,,,,,,,,,,,,,,,,,,,,,,,,,,,,,,,,,,,,1.1373456716537476,1.1170901999998932,174.16080030000012,None,ScrollDown,정답입니다,174.16080030000012,None,174.16080030000012,None,174.16080030000012,None,174.16080030000012,None,175.13726350000024,None,175.13726350000024,175.6481243000003,,,,,,,,,,,,,,,,201,2022-04-26_13h40.10.509,FishGame,2022.1.1,60.01990259971459,
,21,넌 품위있어,2,Green,B,5.291666666666666,4.466666666666667,ScrollUp,ScrollDown,Green.png,1,Positive,Incongruent,0,0,0,0,,,,,,,,,,,,,0,20,20,20,,,,,,,,,,,,,,,,,,,,,,,,,,,,,,,,,,,,,,,,,,,,,,,,,,,,,,,,,,,,,,,,,,,,,,,,,,,,,,,,,,,,,1.7314814925193787,1.139962000000196,176.30383520000032,None,ScrollUp,정답입니다,176.30383520000032,None,176.30383520000032,None,176.30383520000032,None,176.30383520000032,None,177.31455440000036,None,177.31455440000036,177.81453120000015,,,,,,,,,,,,,,,,201,2022-04-26_13h40.10.509,FishGame,2022.1.1,60.01990259971459,
,22,넌 빈틈없어,3,Orange,A,4.833333333333333,3.966666666666667,ScrollDown,ScrollUp,Orange.png,1,Neutral,Neutral,0,0,0,0,,,,,,,,,,,,,0,21,21,21,,,,,,,,,,,,,,,,,,,,,,,,,,,,,,,,,,,,,,,,,,,,,,,,,,,,,,,,,,,,,,,,,,,,,,,,,,,,,,,,,,,,,1.0540123681227367,1.1710226000000148,178.47919930000035,None,ScrollDown,정답입니다,178.47919930000035,None,178.47919930000035,None,178.47919930000035,None,178.47919930000035,None,179.50770960000045,None,179.50770960000045,180.0141176000002,,,,,,,,,,,,,,,,201,2022-04-26_13h40.10.509,FishGame,2022.1.1,60.01990259971459,
,23,넌 상상력없어,4,Green,B,2.833333333333333,3.133333333333333,ScrollUp,ScrollDown,Green.png,1,Negative,Congruent,0,0,0,0,,,,,,,,,,,,,0,22,22,22,,,,,,,,,,,,,,,,,,,,,,,,,,,,,,,,,,,,,,,,,,,,,,,,,,,,,,,,,,,,,,,,,,,,,,,,,,,,,,,,,,,,,1.8333333383003871,1.0353546999999708,180.6708964000004,None,ScrollUp,정답입니다,180.6708964000004,None,180.6708964000004,None,180.6708964000004,None,180.6708964000004,None,181.57205780000004,None,181.57205780000004,182.0805237000004,,,,,,,,,,,,,,,,201,2022-04-26_13h40.10.509,FishGame,2022.1.1,60.01990259971459,
,24,넌 지혜로워,2,Green,B,6.333333333333334,4.633333333333334,ScrollUp,ScrollDown,Green.png,1,Positive,Incongruent,0,0,0,0,,,,,,,,,,,,,0,23,23,23,,,,,,,,,,,,,,,,,,,,,,,,,,,,,,,,,,,,,,,,,,,,,,,,,,,,,,,,,,,,,,,,,,,,,,,,,,,,,,,,,,,,,1.8317901243766148,1.1596324000001914,182.74311260000013,None,ScrollUp,정답입니다,182.74311260000013,None,182.74311260000013,None,182.74311260000013,None,182.74311260000013,None,183.76401480000004,None,183.76401480000004,184.26370250000036,,,,,,,,,,,,,,,,201,2022-04-26_13h40.10.509,FishGame,2022.1.1,60.01990259971459,
,25,넌 시끄러워,4,Orange,A,2.833333333333333,3.033333333333333,ScrollDown,ScrollUp,Orange.png,1,Negative,Incongruent,0,0,0,0,,,,,,,,,,,,,0,24,24,24,,,,,,,,,,,,,,,,,,,,,,,,,,,,,,,,,,,,,,,,,,,,,,,,,,,,,,,,,,,,,,,,,,,,,,,,,,,,,,,,,,,,,1.0185184975465138,1.0898873000001004,184.94623480000018,None,ScrollDown,정답입니다,184.94623480000018,None,184.94623480000018,None,184.94623480000018,None,184.94623480000018,None,185.87362820000044,None,185.87362820000044,186.38013770000043,,,,,,,,,,,,,,,,201,2022-04-26_13h40.10.509,FishGame,2022.1.1,60.01990259971459,
,26,넌 만사태평이야,3,Green,B,4,4.333333333333333,ScrollUp,ScrollDown,Green.png,1,Neutral,Neutral,0,0,0,0,,,,,,,,,,,,,0,25,25,25,,,,,,,,,,,,,,,,,,,,,,,,,,,,,,,,,,,,,,,,,,,,,,,,,,,,,,,,,,,,,,,,,,,,,,,,,,,,,,,,,,,,,1.9783950746059418,1.211195299999872,187.04830170000014,None,ScrollUp,정답입니다,187.04830170000014,None,187.04830170000014,None,187.04830170000014,None,187.04830170000014,None,188.11337430000003,None,188.11337430000003,188.613022,,,,,,,,,,,,,,,,201,2022-04-26_13h40.10.509,FishGame,2022.1.1,60.01990259971459,
,27,넌 붙임성있어,1,Orange,A,5.708333333333333,5.633333333333334,ScrollDown,ScrollUp,Orange.png,1,Positive,Congruent,0,0,0,0,,,,,,,,,,,,,0,26,26,26,,,,,,,,,,,,,,,,,,,,,,,,,,,,,,,,,,,,,,,,,,,,,,,,,,,,,,,,,,,,,,,,,,,,,,,,,,,,,,,,,,,,,1.276234577099482,1.0519076999999015,189.27933140000005,None,ScrollDown,정답입니다,189.27933140000005,None,189.27933140000005,None,189.27933140000005,None,189.27933140000005,None,190.1871328000002,None,190.1871328000002,190.69597920000024,,,,,,,,,,,,,,,,201,2022-04-26_13h40.10.509,FishGame,2022.1.1,60.01990259971459,
,28,넌 영리해,2,Orange,A,6,4.033333333333333,ScrollDown,ScrollUp,Orange.png,1,Positive,Congruent,0,0,0,0,,,,,,,,,,,,,0,27,27,27,,,,,,,,,,,,,,,,,,,,,,,,,,,,,,,,,,,,,,,,,,,,,,,,,,,,,,,,,,,,,,,,,,,,,,,,,,,,,,,,,,,,,1.0462962985038757,1.2114725999999791,191.35632330000044,None,ScrollDown,정답입니다,191.35632330000044,None,191.35632330000044,None,191.35632330000044,None,191.35632330000044,None,192.42969810000022,None,192.42969810000022,192.9292956000004,,,,,,,,,,,,,,,,201,2022-04-26_13h40.10.509,FishGame,2022.1.1,60.01990259971459,
,29,넌 열심이야,1,Green,B,6.041666666666667,5.833333333333333,ScrollUp,ScrollDown,Green.png,1,Positive,Incongruent,0,0,0,0,,,,,,,,,,,,,0,28,28,28,,,,,,,,,,,,,,,,,,,,,,,,,,,,,,,,,,,,,,,,,,,,,,,,,,,,,,,,,,,,,,,,,,,,,,,,,,,,,,,,,,,,,1.765432099501292,1.1439141999999265,193.5795006000003,None,ScrollUp,정답입니다,193.5795006000003,None,193.5795006000003,None,193.5795006000003,None,193.5795006000003,None,194.59162210000022,None,194.59162210000022,195.09561330000042,,,,,,,,,,,,,,,,201,2022-04-26_13h40.10.509,FishGame,2022.1.1,60.01990259971459,
,30,넌 인기없어,4,Green,B,3,3.3,ScrollUp,ScrollDown,Green.png,1,Negative,Congruent,0,0,0,0,,,,,,,,,,,,,0,29,29,29,,,,,,,,,,,,,,,,,,,,,,,,,,,,,,,,,,,,,,,,,,,,,,,,,,,,,,,,,,,,,,,,,,,,,,,,,,,,,,,,,,,,,1.8950617214043934,1.239582100000007,195.75212040000042,None,ScrollUp,정답입니다,195.75212040000042,None,195.75212040000042,None,195.75212040000042,None,195.75212040000042,None,196.86235960000022,None,196.86235960000022,197.36183700000038,,,,,,,,,,,,,,,,201,2022-04-26_13h40.10.509,FishGame,2022.1.1,60.01990259971459,
,31,넌 익살스러워,3,Orange,A,4.708333333333334,4.833333333333333,ScrollDown,ScrollUp,Orange.png,1,Neutral,Neutral,0,0,0,0,,,,,,,,,,,,,0,30,30,30,,,,,,,,,,,,,,,,,,,,,,,,,,,,,,,,,,,,,,,,,,,,,,,,,,,,,,,,,,,,,,,,,,,,,,,,,,,,,,,,,,,,,1.0061728358268738,1.5735964000000422,198.02791970000044,None,ScrollDown,정답입니다,198.02791970000044,None,198.02791970000044,None,198.02791970000044,None,198.02791970000044,None,199.46180280000044,None,199.46180280000044,199.9616006000001,,,,,,,,,,,,,,,,201,2022-04-26_13h40.10.509,FishGame,2022.1.1,60.01990259971459,
,32,넌 이기적이야,5,Green,B,2.291666666666667,2.333333333333333,ScrollUp,ScrollDown,Green.png,1,Negative,Congruent,0,0,0,0,,,,,,,,,,,,,0,31,31,31,,,,,,,,,,,,,,,,,,,,,,,,,,,,,,,,,,,,,,,,,,,,,,,,,,,,,,,,,,,,,,,,,,,,,,,,,,,,,,,,,,,,,1.9861110945542653,1.061942899999849,200.61379320000015,None,ScrollUp,정답입니다,200.61379320000015,None,200.61379320000015,None,200.61379320000015,None,200.61379320000015,None,201.54502000000002,None,201.54502000000002,202.0446982000003,,,,,,,,,,,,,,,,201,2022-04-26_13h40.10.509,FishGame,2022.1.1,60.01990259971459,
,33,나를 데려가줘,6,Green,B,0,0,ScrollDown,ScrollUp,Green.png,1,NonTarget,NonTarget,0,0,0,0,,,,,,,,,,,,,0,32,32,32,,,,,,,,,,,,,,,,,,,,,,,,,,,,,,,,,,,,,,,,,,,,,,,,,,,,,,,,,,,,,,,,,,,,,,,,,,,,,,,,,,,,,1,1.1891363000004276,202.69418720000021,None,ScrollDown,정답입니다,202.69418720000021,None,202.69418720000021,None,202.69418720000021,None,202.69418720000021,None,203.75402520000034,None,203.75402520000034,204.26097340000024,,,,,,,,,,,,,,,,201,2022-04-26_13h40.10.509,FishGame,2022.1.1,60.01990259971459,
,34,넌 기회주의자야,5,Orange,A,2.875,2.133333333333333,ScrollDown,ScrollUp,Orange.png,1,Negative,Incongruent,0,0,0,0,,,,,,,,,,,,,0,33,33,33,,,,,,,,,,,,,,,,,,,,,,,,,,,,,,,,,,,,,,,,,,,,,,,,,,,,,,,,,,,,,,,,,,,,,,,,,,,,,,,,,,,,,1.0216049253940582,1.2121830000000955,204.92685400000028,None,ScrollDown,정답입니다,204.92685400000028,None,204.92685400000028,None,204.92685400000028,None,204.92685400000028,None,205.99707390000003,None,205.99707390000003,206.51079320000008,,,,,,,,,,,,,,,,201,2022-04-26_13h40.10.509,FishGame,2022.1.1,60.01990259971459,
,1,넌 미성숙해,4,Orange,A,3,3.2,ScrollDown,ScrollUp,Orange.png,2,Negative,Incongruent,0,0,0,0,,,,,,,,,,,,,,,,,0,0,0,0,,,,,,,,,,,,,,,,,,,,,,,,,,,,,,,,,,,,,,,,239.25673460000007,240.75647170000002,240.78972630000044,241.73961450000024,241.78963220000014,242.7395289000001,242.7395289000001,None,,,,,,,,,,,,,,,,,,,,,,,,,,,,,,,,,,1.0679012437661488,1.3218544999999722,243.93737660000033,None,ScrollDown,정답입니다,243.93737660000033,None,243.93737660000033,None,243.93737660000033,None,243.93737660000033,None,245.07249500000034,None,245.07249500000034,245.57227430000012,207.01064610000003,None,207.01064610000003,None,0.2175926,-0.09259259,1,0,0,0.016075070000169944,None,237.00677480000013,None,,,201,2022-04-26_13h40.10.509,FishGame,2022.1.1,60.01990259971459,
,2,넌 반사회적이야,5,Green,B,2.416666666666667,2.033333333333333,ScrollUp,ScrollDown,Green.png,2,Negative,Congruent,0,0,0,0,,,,,,,,,,,,,,,,,0,1,1,1,,,,,,,,,,,,,,,,,,,,,,,,,,,,,,,,,,,,,,,,,,,,,,,,,,,,,,,,,,,,,,,,,,,,,,,,,,,,,,,,,1.8472222139437993,1.0632006999999248,246.23028980000026,None,ScrollUp,정답입니다,246.23028980000026,None,246.23028980000026,None,246.23028980000026,None,246.23028980000026,None,247.1585358000002,None,247.1585358000002,247.6721574000003,,,,,,,,,,,,,,,,201,2022-04-26_13h40.10.509,FishGame,2022.1.1,60.01990259971459,
,3,넌 유능해,2,Orange,A,6.208333333333333,4.433333333333334,ScrollDown,ScrollUp,Orange.png,2,Positive,Congruent,0,0,0,0,,,,,,,,,,,,,,,,,0,2,2,2,,,,,,,,,,,,,,,,,,,,,,,,,,,,,,,,,,,,,,,,,,,,,,,,,,,,,,,,,,,,,,,,,,,,,,,,,,,,,,,,,1.2098765522241592,1.0687120000002324,248.33457260000023,None,ScrollDown,정답입니다,248.33457260000023,None,248.33457260000023,None,248.33457260000023,None,248.33457260000023,None,249.2625721000004,None,249.2625721000004,249.7718036000001,,,,,,,,,,,,,,,,201,2022-04-26_13h40.10.509,FishGame,2022.1.1,60.01990259971459,
,4,넌 능숙해,2,Green,B,5.666666666666667,4.733333333333333,ScrollUp,ScrollDown,Green.png,2,Positive,Incongruent,0,0,0,0,,,,,,,,,,,,,,,,,0,3,3,3,,,,,,,,,,,,,,,,,,,,,,,,,,,,,,,,,,,,,,,,,,,,,,,,,,,,,,,,,,,,,,,,,,,,,,,,,,,,,,,,,2,1.514312400000108,250.42040850000012,None,ScrollUp,정답입니다,250.42040850000012,None,250.42040850000012,None,250.42040850000012,None,250.42040850000012,None,251.80822920000037,None,251.80822920000037,252.3214254000004,,,,,,,,,,,,,,,,201,2022-04-26_13h40.10.509,FishGame,2022.1.1,60.01990259971459,
,5,넌 진부해,4,Green,B,2.458333333333333,3.166666666666667,ScrollUp,ScrollDown,Green.png,2,Negative,Congruent,0,0,0,0,,,,,,,,,,,,,,,,,0,4,4,4,,,,,,,,,,,,,,,,,,,,,,,,,,,,,,,,,,,,,,,,,,,,,,,,,,,,,,,,,,,,,,,,,,,,,,,,,,,,,,,,,1.7901234477758408,1.5269497999997839,252.9773541000004,None,ScrollUp,정답입니다,252.9773541000004,None,252.9773541000004,None,252.9773541000004,None,252.9773541000004,None,254.37116570000035,None,254.37116570000035,254.87114530000008,,,,,,,,,,,,,,,,201,2022-04-26_13h40.10.509,FishGame,2022.1.1,60.01990259971459,
,6,나를 보내줘,6,Orange,A,0,0,ScrollUp,ScrollDown,Orange.png,2,NonTarget,NonTarget,0,0,0,0,,,,,,,,,,,,,,,,,0,5,5,5,,,,,,,,,,,,,,,,,,,,,,,,,,,,,,,,,,,,,,,,,,,,,,,,,,,,,,,,,,,,,,,,,,,,,,,,,,,,,,,,,1.746913582086563,1.432648099999824,255.5267262000002,None,ScrollUp,정답입니다,255.5267262000002,None,255.5267262000002,None,255.5267262000002,None,255.5267262000002,None,256.8308699000004,None,256.8308699000004,257.3376943000003,,,,,,,,,,,,,,,,201,2022-04-26_13h40.10.509,FishGame,2022.1.1,60.01990259971459,
,7,넌 엄격해,3,Orange,A,4.166666666666666,4.1,ScrollDown,ScrollUp,Orange.png,2,Neutral,Neutral,0,0,0,0,,,,,,,,,,,,,,,,,0,6,6,6,,,,,,,,,,,,,,,,,,,,,,,,,,,,,,,,,,,,,,,,,,,,,,,,,,,,,,,,,,,,,,,,,,,,,,,,,,,,,,,,,1.1481481442848842,1.087463999999727,257.99886110000034,None,ScrollDown,정답입니다,257.99886110000034,None,257.99886110000034,None,257.99886110000034,None,257.99886110000034,None,258.95424200000025,None,258.95424200000025,259.453935,,,,,,,,,,,,,,,,201,2022-04-26_13h40.10.509,FishGame,2022.1.1,60.01990259971459,
,8,나를 보내줘,6,Orange,A,0,0,ScrollUp,ScrollDown,Orange.png,2,NonTarget,NonTarget,0,0,0,0,,,,,,,,,,,,,,,,,0,7,7,7,,,,,,,,,,,,,,,,,,,,,,,,,,,,,,,,,,,,,,,,,,,,,,,,,,,,,,,,,,,,,,,,,,,,,,,,,,,,,,,,,1.879629631837209,1.1398956000002727,260.1096099000001,None,ScrollUp,정답입니다,260.1096099000001,None,260.1096099000001,None,260.1096099000001,None,260.1096099000001,None,261.12048700000014,None,261.12048700000014,261.62018290000015,,,,,,,,,,,,,,,,201,2022-04-26_13h40.10.509,FishGame,2022.1.1,60.01990259971459,
,9,넌 대담해,3,Green,B,4.875,4.866666666666666,ScrollUp,ScrollDown,Green.png,2,Neutral,Neutral,0,0,0,0,,,,,,,,,,,,,,,,,0,8,8,8,,,,,,,,,,,,,,,,,,,,,,,,,,,,,,,,,,,,,,,,,,,,,,,,,,,,,,,,,,,,,,,,,,,,,,,,,,,,,,,,,1.8503086417913437,1.166354500000125,262.27792420000014,None,ScrollUp,정답입니다,262.27792420000014,None,262.27792420000014,None,262.27792420000014,None,262.27792420000014,None,263.30857810000043,None,263.30857810000043,263.81997820000015,,,,,,,,,,,,,,,,201,2022-04-26_13h40.10.509,FishGame,2022.1.1,60.01990259971459,
,10,넌 꾸준해,1,Orange,A,5.916666666666668,5.8,ScrollDown,ScrollUp,Orange.png,2,Positive,Congruent,0,0,0,0,,,,,,,,,,,,,,,,,0,9,9,9,,,,,,,,,,,,,,,,,,,,,,,,,,,,,,,,,,,,,,,,,,,,,,,,,,,,,,,,,,,,,,,,,,,,,,,,,,,,,,,,,1,1.1925112000003537,264.47603590000017,None,ScrollDown,정답입니다,264.47603590000017,None,264.47603590000017,None,264.47603590000017,None,264.47603590000017,None,265.5364955,None,265.5364955,266.03640510000014,,,,,,,,,,,,,,,,201,2022-04-26_13h40.10.509,FishGame,2022.1.1,60.01990259971459,
,11,나를 데려가줘,6,Green,B,0,0,ScrollDown,ScrollUp,Green.png,2,NonTarget,NonTarget,0,0,0,0,,,,,,,,,,,,,,,,,0,10,10,10,,,,,,,,,,,,,,,,,,,,,,,,,,,,,,,,,,,,,,,,,,,,,,,,,,,,,,,,,,,,,,,,,,,,,,,,,,,,,,,,,1,1.2309617999999318,266.6881073000004,None,ScrollDown,정답입니다,266.6881073000004,None,266.6881073000004,None,266.6881073000004,None,266.6881073000004,None,267.7909427000004,None,267.7909427000004,268.30276790000016,,,,,,,,,,,,,,,,201,2022-04-26_13h40.10.509,FishGame,2022.1.1,60.01990259971459,
,12,넌 독선적이야,5,Orange,A,2.458333333333333,1.933333333333333,ScrollDown,ScrollUp,Orange.png,2,Negative,Incongruent,0,0,0,0,,,,,,,,,,,,,,,,,0,11,11,11,,,,,,,,,,,,,,,,,,,,,,,,,,,,,,,,,,,,,,,,,,,,,,,,,,,,,,,,,,,,,,,,,,,,,,,,,,,,,,,,,1,1.173555700000179,268.9683454000001,None,ScrollDown,정답입니다,268.9683454000001,None,268.9683454000001,None,268.9683454000001,None,268.9683454000001,None,270.0027619000002,None,270.0027619000002,270.5025277000004,,,,,,,,,,,,,,,,201,2022-04-26_13h40.10.509,FishGame,2022.1.1,60.01990259971459,
,13,나를 보내줘,6,Orange,A,0,0,ScrollUp,ScrollDown,Orange.png,2,NonTarget,NonTarget,0,0,0,0,,,,,,,,,,,,,,,,,0,12,12,12,,,,,,,,,,,,,,,,,,,,,,,,,,,,,,,,,,,,,,,,,,,,,,,,,,,,,,,,,,,,,,,,,,,,,,,,,,,,,,,,,1.7685185273488362,1.1515841999998884,271.15790130000005,None,ScrollUp,정답입니다,271.15790130000005,None,271.15790130000005,None,271.15790130000005,None,271.15790130000005,None,272.17556440000044,None,272.17556440000044,272.6855876000004,,,,,,,,,,,,,,,,201,2022-04-26_13h40.10.509,FishGame,2022.1.1,60.01990259971459,
,14,넌 책임감있어,1,Green,B,6.347826086956522,6,ScrollUp,ScrollDown,Green.png,2,Positive,Incongruent,0,0,0,0,,,,,,,,,,,,,,,,,0,13,13,13,,,,,,,,,,,,,,,,,,,,,,,,,,,,,,,,,,,,,,,,,,,,,,,,,,,,,,,,,,,,,,,,,,,,,,,,,,,,,,,,,1.7777777860562007,1.2015830999998798,273.3444592000001,None,ScrollUp,정답입니다,273.3444592000001,None,273.3444592000001,None,273.3444592000001,None,273.3444592000001,None,274.4080061000004,None,274.4080061000004,274.91858230000025,,,,,,,,,,,,,,,,201,2022-04-26_13h40.10.509,FishGame,2022.1.1,60.01990259971459,
,15,넌 문학적이야,3,Orange,A,4.708333333333334,4.333333333333333,ScrollDown,ScrollUp,Orange.png,2,Neutral,Neutral,0,0,0,0,,,,,,,,,,,,,,,,,0,14,14,14,,,,,,,,,,,,,,,,,,,,,,,,,,,,,,,,,,,,,,,,,,,,,,,,,,,,,,,,,,,,,,,,,,,,,,,,,,,,,,,,,1.1388888855775197,1.0449373000001287,275.5772836000001,None,ScrollDown,정답입니다,275.5772836000001,None,275.5772836000001,None,275.5772836000001,None,275.5772836000001,None,276.48576280000043,None,276.48576280000043,276.98504260000027,,,,,,,,,,,,,,,,201,2022-04-26_13h40.10.509,FishGame,2022.1.1,60.01990259971459,
,16,넌 재미있어,1,Green,B,5.875,5.7,ScrollUp,ScrollDown,Green.png,2,Positive,Incongruent,0,0,0,0,,,,,,,,,,,,,,,,,0,15,15,15,,,,,,,,,,,,,,,,,,,,,,,,,,,,,,,,,,,,,,,,,,,,,,,,,,,,,,,,,,,,,,,,,,,,,,,,,,,,,,,,,1.703703703979651,1.0099193999999443,277.6355722000003,None,ScrollUp,정답입니다,277.6355722000003,None,277.6355722000003,None,277.6355722000003,None,277.6355722000003,None,278.51306680000016,None,278.51306680000016,279.0181015000003,,,,,,,,,,,,,,,,201,2022-04-26_13h40.10.509,FishGame,2022.1.1,60.01990259971459,
,17,나를 데려가줘,6,Green,B,0,0,ScrollDown,ScrollUp,Green.png,2,NonTarget,NonTarget,0,0,0,0,,,,,,,,,,,,,,,,,0,16,16,16,,,,,,,,,,,,,,,,,,,,,,,,,,,,,,,,,,,,,,,,,,,,,,,,,,,,,,,,,,,,,,,,,,,,,,,,,,,,,,,,,1.3040123408039412,1.2927448000000368,279.66334210000014,None,ScrollDown,정답입니다,279.66334210000014,None,279.66334210000014,None,279.66334210000014,None,279.66334210000014,None,280.8310762000001,None,280.8310762000001,281.33442700000023,,,,,,,,,,,,,,,,201,2022-04-26_13h40.10.509,FishGame,2022.1.1,60.01990259971459,
,18,넌 협력적이야,1,Orange,A,5.625,5.633333333333334,ScrollDown,ScrollUp,Orange.png,2,Positive,Congruent,0,0,0,0,,,,,,,,,,,,,,,,,0,17,17,17,,,,,,,,,,,,,,,,,,,,,,,,,,,,,,,,,,,,,,,,,,,,,,,,,,,,,,,,,,,,,,,,,,,,,,,,,,,,,,,,,1.0648148159186046,1.0506138999999166,281.99420250000003,None,ScrollDown,정답입니다,281.99420250000003,None,281.99420250000003,None,281.99420250000003,None,281.99420250000003,None,282.9079375000001,None,282.9079375000001,283.4174250000001,,,,,,,,,,,,,,,,201,2022-04-26_13h40.10.509,FishGame,2022.1.1,60.01990259971459,
,19,넌 평범해,3,Green,B,4.333333333333332,4.233333333333333,ScrollUp,ScrollDown,Green.png,2,Neutral,Neutral,0,0,0,0,,,,,,,,,,,,,,,,,0,18,18,18,,,,,,,,,,,,,,,,,,,,,,,,,,,,,,,,,,,,,,,,,,,,,,,,,,,,,,,,,,,,,,,,,,,,,,,,,,,,,,,,,1.7824074029922485,1.1296151999999893,284.070099,None,ScrollUp,정답입니다,284.070099,None,284.070099,None,284.070099,None,284.070099,None,285.06878870000037,None,285.06878870000037,285.5838861000002,,,,,,,,,,,,,,,,201,2022-04-26_13h40.10.509,FishGame,2022.1.1,60.01990259971459,
,20,넌 오만해,5,Orange,A,2.333333333333333,2,ScrollDown,ScrollUp,Orange.png,2,Negative,Incongruent,0,0,0,0,,,,,,,,,,,,,,,,,0,19,19,19,,,,,,,,,,,,,,,,,,,,,,,,,,,,,,,,,,,,,,,,,,,,,,,,,,,,,,,,,,,,,,,,,,,,,,,,,,,,,,,,,1.1589506169160206,0.9986339000001863,286.24218290000044,None,ScrollDown,정답입니다,286.24218290000044,None,286.24218290000044,None,286.24218290000044,None,286.24218290000044,None,287.1050001000003,None,287.1050001000003,287.61686560000044,,,,,,,,,,,,,,,,201,2022-04-26_13h40.10.509,FishGame,2022.1.1,60.01990259971459,
,21,넌 운이없어,4,Green,B,3,3.466666666666667,ScrollUp,ScrollDown,Green.png,2,Negative,Congruent,0,0,0,0,,,,,,,,,,,,,,,,,0,20,20,20,,,,,,,,,,,,,,,,,,,,,,,,,,,,,,,,,,,,,,,,,,,,,,,,,,,,,,,,,,,,,,,,,,,,,,,,,,,,,,,,,1.7546296268701553,1.2528497999996944,288.2692826000002,None,ScrollUp,정답입니다,288.2692826000002,None,288.2692826000002,None,288.2692826000002,None,288.2692826000002,None,289.39196710000033,None,289.39196710000033,289.9000640000004,,,,,,,,,,,,,,,,201,2022-04-26_13h40.10.509,FishGame,2022.1.1,60.01990259971459,
,22,넌 창조적이야,2,Green,B,6.125,4.633333333333334,ScrollUp,ScrollDown,Green.png,2,Positive,Incongruent,0,0,0,0,,,,,,,,,,,,,,,,,0,21,21,21,,,,,,,,,,,,,,,,,,,,,,,,,,,,,,,,,,,,,,,,,,,,,,,,,,,,,,,,,,,,,,,,,,,,,,,,,,,,,,,,,1.8148148208856583,1.257442600000104,290.55077570000003,None,ScrollUp,정답입니다,290.55077570000003,None,290.55077570000003,None,290.55077570000003,None,290.55077570000003,None,291.6829552000004,None,291.6829552000004,292.18294970000034,,,,,,,,,,,,,,,,201,2022-04-26_13h40.10.509,FishGame,2022.1.1,60.01990259971459,
,23,나를 보내줘,6,Orange,A,0,0,ScrollUp,ScrollDown,Orange.png,2,NonTarget,NonTarget,0,0,0,0,,,,,,,,,,,,,,,,,0,22,22,22,,,,,,,,,,,,,,,,,,,,,,,,,,,,,,,,,,,,,,,,,,,,,,,,,,,,,,,,,,,,,,,,,,,,,,,,,,,,,,,,,1.6805555572112403,1.315682200000083,292.83262680000007,None,ScrollUp,정답입니다,292.83262680000007,None,292.83262680000007,None,292.83262680000007,None,292.83262680000007,None,294.02187760000015,None,294.02187760000015,294.53271570000015,,,,,,,,,,,,,,,,201,2022-04-26_13h40.10.509,FishGame,2022.1.1,60.01990259971459,
,24,넌 통찰력있어,2,Orange,A,6.5,4.8,ScrollDown,ScrollUp,Orange.png,2,Positive,Congruent,0,0,0,0,,,,,,,,,,,,,,,,,0,23,23,23,,,,,,,,,,,,,,,,,,,,,,,,,,,,,,,,,,,,,,,,,,,,,,,,,,,,,,,,,,,,,,,,,,,,,,,,,,,,,,,,,1.2407407313585281,1.0179572000001826,295.2022442000002,None,ScrollDown,정답입니다,295.2022442000002,None,295.2022442000002,None,295.2022442000002,None,295.2022442000002,None,296.0737349000001,None,296.0737349000001,296.58254920000036,,,,,,,,,,,,,,,,201,2022-04-26_13h40.10.509,FishGame,2022.1.1,60.01990259971459,
,25,넌 경솔해,5,Green,B,2.458333333333333,2.266666666666667,ScrollUp,ScrollDown,Green.png,2,Negative,Congruent,0,0,0,0,,,,,,,,,,,,,,,,,0,24,24,24,,,,,,,,,,,,,,,,,,,,,,,,,,,,,,,,,,,,,,,,,,,,,,,,,,,,,,,,,,,,,,,,,,,,,,,,,,,,,,,,,1.8441358109315236,0.944460700000036,297.2380873000002,None,ScrollUp,정답입니다,297.2380873000002,None,297.2380873000002,None,297.2380873000002,None,297.2380873000002,None,298.04891750000024,None,298.04891750000024,298.54872390000037,,,,,,,,,,,,,,,,201,2022-04-26_13h40.10.509,FishGame,2022.1.1,60.01990259971459,
,26,넌 초조해,4,Orange,A,2.916666666666667,3.133333333333333,ScrollDown,ScrollUp,Orange.png,2,Negative,Incongruent,0,0,0,0,,,,,,,,,,,,,,,,,0,25,25,25,,,,,,,,,,,,,,,,,,,,,,,,,,,,,,,,,,,,,,,,,,,,,,,,,,,,,,,,,,,,,,,,,,,,,,,,,,,,,,,,,1.1774691343307495,0.9734935999999834,299.2031985000003,None,ScrollDown,정답입니다,299.2031985000003,None,299.2031985000003,None,299.2031985000003,None,299.2031985000003,None,300.04479820000006,None,300.04479820000006,300.5486156000002,,,,,,,,,,,,,,,,201,2022-04-26_13h40.10.509,FishGame,2022.1.1,60.01990259971459,
,27,넌 무관심해,4,Green,B,2.833333333333333,2.9,ScrollUp,ScrollDown,Green.png,2,Negative,Congruent,0,0,0,0,,,,,,,,,,,,,,,,,0,26,26,26,,,,,,,,,,,,,,,,,,,,,,,,,,,,,,,,,,,,,,,,,,,,,,,,,,,,,,,,,,,,,,,,,,,,,,,,,,,,,,,,,1.785493830839793,1.0792409999999109,301.20273270000007,None,ScrollUp,정답입니다,301.20273270000007,None,301.20273270000007,None,301.20273270000007,None,301.20273270000007,None,302.1514116000003,None,302.1514116000003,302.6650396,,,,,,,,,,,,,,,,201,2022-04-26_13h40.10.509,FishGame,2022.1.1,60.01990259971459,
,28,넌 감성적이야,3,Green,B,4.125,4.166666666666667,ScrollUp,ScrollDown,Green.png,2,Neutral,Neutral,0,0,0,0,,,,,,,,,,,,,,,,,0,27,27,27,,,,,,,,,,,,,,,,,,,,,,,,,,,,,,,,,,,,,,,,,,,,,,,,,,,,,,,,,,,,,,,,,,,,,,,,,,,,,,,,,1.807098776102066,1.0952296999998907,303.3095178000003,None,ScrollUp,정답입니다,303.3095178000003,None,303.3095178000003,None,303.3095178000003,None,303.3095178000003,None,304.28393440000036,None,304.28393440000036,304.79797190000045,,,,,,,,,,,,,,,,201,2022-04-26_13h40.10.509,FishGame,2022.1.1,60.01990259971459,
,29,넌 배려심있어,1,Orange,A,6.083333333333333,5.5,ScrollDown,ScrollUp,Orange.png,2,Positive,Congruent,0,0,0,0,,,,,,,,,,,,,,,,,0,28,28,28,,,,,,,,,,,,,,,,,,,,,,,,,,,,,,,,,,,,,,,,,,,,,,,,,,,,,,,,,,,,,,,,,,,,,,,,,,,,,,,,,1.212962955236435,0.9192511000001105,305.4531788000004,None,ScrollDown,정답입니다,305.4531788000004,None,305.4531788000004,None,305.4531788000004,None,305.4531788000004,None,306.2389890000004,None,306.2389890000004,306.7478258000001,,,,,,,,,,,,,,,,201,2022-04-26_13h40.10.509,FishGame,2022.1.1,60.01990259971459,
,30,넌 숨김없어,3,Orange,A,4.5,4.933333333333334,ScrollDown,ScrollUp,Orange.png,2,Neutral,Neutral,0,0,0,0,,,,,,,,,,,,,,,,,0,29,29,29,,,,,,,,,,,,,,,,,,,,,,,,,,,,,,,,,,,,,,,,,,,,,,,,,,,,,,,,,,,,,,,,,,,,,,,,,,,,,,,,,1.2160493830839794,0.9509158999999272,307.4096711000002,None,ScrollDown,정답입니다,307.4096711000002,None,307.4096711000002,None,307.4096711000002,None,307.4096711000002,None,308.22110410000005,None,308.22110410000005,308.73082120000026,,,,,,,,,,,,,,,,201,2022-04-26_13h40.10.509,FishGame,2022.1.1,60.01990259971459,
,31,넌 훌륭해,2,Green,B,5.916666666666667,4.033333333333333,ScrollUp,ScrollDown,Green.png,2,Positive,Incongruent,0,0,0,0,,,,,,,,,,,,,,,,,0,30,30,30,,,,,,,,,,,,,,,,,,,,,,,,,,,,,,,,,,,,,,,,,,,,,,,,,,,,,,,,,,,,,,,,,,,,,,,,,,,,,,,,,1.654320982595285,1.0166188000002876,309.3883291000002,None,ScrollUp,정답입니다,309.3883291000002,None,309.3883291000002,None,309.3883291000002,None,309.3883291000002,None,310.2699281,None,310.2699281,310.7805505000001,,,,,,,,,,,,,,,,201,2022-04-26_13h40.10.509,FishGame,2022.1.1,60.01990259971459,
,32,넌 슬기로워,2,Orange,A,6.166666666666667,4.1,ScrollDown,ScrollUp,Orange.png,2,Positive,Congruent,0,0,0,0,,,,,,,,,,,,,,,,,0,31,31,31,,,,,,,,,,,,,,,,,,,,,,,,,,,,,,,,,,,,,,,,,,,,,,,,,,,,,,,,,,,,,,,,,,,,,,,,,,,,,,,,,1.2083333383003871,0.9936508000000686,311.43919350000033,None,ScrollDown,정답입니다,311.43919350000033,None,311.43919350000033,None,311.43919350000033,None,311.43919350000033,None,312.2926987000001,None,312.2926987000001,312.7969433000003,,,,,,,,,,,,,,,,201,2022-04-26_13h40.10.509,FishGame,2022.1.1,60.01990259971459,
,33,넌 냉혹해,5,Orange,A,2.583333333333333,2.1,ScrollDown,ScrollUp,Orange.png,2,Negative,Incongruent,0,0,0,0,,,,,,,,,,,,,,,,,0,32,32,32,,,,,,,,,,,,,,,,,,,,,,,,,,,,,,,,,,,,,,,,,,,,,,,,,,,,,,,,,,,,,,,,,,,,,,,,,,,,,,,,,1.3966049402952194,0.9001342000001387,313.4513321000004,None,ScrollDown,정답입니다,313.4513321000004,None,313.4513321000004,None,313.4513321000004,None,313.4513321000004,None,314.2207419000001,None,314.2207419000001,314.73000760000014,,,,,,,,,,,,,,,,201,2022-04-26_13h40.10.509,FishGame,2022.1.1,60.01990259971459,
,34,나를 데려가줘,6,Green,B,0,0,ScrollDown,ScrollUp,Green.png,2,NonTarget,NonTarget,0,0,0,0,,,,,,,,,,,,,,,,,0,33,33,33,,,,,,,,,,,,,,,,,,,,,,,,,,,,,,,,,,,,,,,,,,,,,,,,,,,,,,,,,,,,,,,,,,,,,,,,,,,,,,,,,1.1049382785956066,1.1654025000002548,315.3750149000002,None,ScrollDown,정답입니다,315.3750149000002,None,315.3750149000002,None,315.3750149000002,None,315.3750149000002,None,316.41848500000015,None,316.41848500000015,316.9297438000003,,,,,,,,,,,,,,,,201,2022-04-26_13h40.10.509,FishGame,2022.1.1,60.01990259971459,
,35,넌 편파적이야,5,Green,B,2.125,2,ScrollUp,ScrollDown,Green.png,2,Negative,Congruent,0,0,0,0,,,,,,,,,,,,,,,,,0,34,34,34,,,,,,,,,,,,,,,,,,,,,,,,,,,,,,,,,,,,,,,,,,,,,,,,,,,,,,,,,,,,,,,,,,,,,,,,,,,,,,,,,1.7561728407939274,0.9860469000000194,317.58504170000015,None,ScrollUp,정답입니다,317.58504170000015,None,317.58504170000015,None,317.58504170000015,None,317.58504170000015,None,318.43743110000014,None,318.43743110000014,318.9462187000004,,,,,,,,,,,,,,,,201,2022-04-26_13h40.10.509,FishGame,2022.1.1,60.01990259971459,
,36,넌 슬퍼,4,Orange,A,2.583333333333333,3.066666666666667,ScrollDown,ScrollUp,Orange.png,2,Negative,Incongruent,0,0,0,0,,,,,,,,,,,,,,,,,0,35,35,35,,,,,,,,,,,,,,,,,,,,,,,,,,,,,,,,,,,,,,,,,,,,,,,,,,,,,,,,,,,,,,,,,,,,,,,,,,,,,,,,,1.1697530895471573,0.9293596000002253,319.59458680000034,None,ScrollDown,정답입니다,319.59458680000034,None,319.59458680000034,None,319.59458680000034,None,319.59458680000034,None,320.39618710000013,None,320.39618710000013,320.896021,,,,,,,,,,,,,,,,201,2022-04-26_13h40.10.509,FishGame,2022.1.1,60.01990259971459,
,37,나를 데려가줘,6,Green,B,0,0,ScrollDown,ScrollUp,Green.png,2,NonTarget,NonTarget,0,0,0,0,,,,,,,,,,,,,,,,,0,36,36,36,,,,,,,,,,,,,,,,,,,,,,,,,,,,,,,,,,,,,,,,,,,,,,,,,,,,,,,,,,,,,,,,,,,,,,,,,,,,,,,,,1.1990740795930226,1.1798429000000397,321.5455095000002,None,ScrollDown,정답입니다,321.5455095000002,None,321.5455095000002,None,321.5455095000002,None,321.5455095000002,None,322.60080910000033,None,322.60080910000033,323.1122972000003,,,,,,,,,,,,,,,,201,2022-04-26_13h40.10.509,FishGame,2022.1.1,60.01990259971459,
,38,넌 친절해,1,Green,B,6.041666666666667,5.533333333333333,ScrollUp,ScrollDown,Green.png,2,Positive,Incongruent,0,0,0,0,,,,,,,,,,,,,,,,,0,37,37,37,,,,,,,,,,,,,,,,,,,,,,,,,,,,,,,,,,,,,,,,,,,,,,,,,,,,,,,,,,,,,,,,,,,,,,,,,,,,,,,,,1.6157407462596893,1.076818799999728,323.77781810000033,None,ScrollUp,정답입니다,323.77781810000033,None,323.77781810000033,None,323.77781810000033,None,323.77781810000033,None,324.7133323000003,None,324.7133323000003,325.22870790000024,,,,,,,,,,,,,,,,201,2022-04-26_13h40.10.509,FishGame,2022.1.1,60.01990259971459,
,1,넌 엉성해,4,Orange,A,3,3.3,ScrollDown,ScrollUp,Orange.png,3,Negative,Incongruent,0,0,0,0,,,,,,,,,,,,,,,,,,,,,0,0,0,0,,,,,,,,,,,,,,,,,,,,,,,,,,,,,,,,,,,,358.15794780000033,359.6576473,359.6908897000003,360.6408722000001,360.6908311000002,361.64076160000013,361.64076160000013,None,,,,,,,,,,,,,,,,,,,,,,,,,,,,,,,,,,1.486111110386749,1.1515143000001444,362.8391539000004,None,NoResponse,무응답입니다,362.8391539000004,None,362.8391539000004,None,362.8391539000004,None,362.8391539000004,None,363.8103596000001,None,363.8103596000001,364.3235944000003,325.7286015000004,None,325.7286015000004,None,0.22222222,-0.10277778,1,0,0,0.01622146999989127,None,355.7249458000001,None,,,201,2022-04-26_13h40.10.509,FishGame,2022.1.1,60.01990259971459,
,2,나를 보내줘,6,Orange,A,0,0,ScrollUp,ScrollDown,Orange.png,3,NonTarget,NonTarget,0,0,0,0,,,,,,,,,,,,,,,,,,,,,0,1,1,1,,,,,,,,,,,,,,,,,,,,,,,,,,,,,,,,,,,,,,,,,,,,,,,,,,,,,,,,,,,,,,,,,,,,,,,,,,,,,1.7777777860562007,2.1237075000003642,364.9736468000001,None,ScrollUp,정답입니다,364.9736468000001,None,364.9736468000001,None,364.9736468000001,None,364.9736468000001,None,366.9676688000004,None,366.9676688000004,367.47327240000004,,,,,,,,,,,,,,,,201,2022-04-26_13h40.10.509,FishGame,2022.1.1,60.01990259971459,
,3,넌 활발해,1,Green,B,5.666666666666667,5.6,ScrollUp,ScrollDown,Green.png,3,Positive,Incongruent,0,0,0,0,,,,,,,,,,,,,,,,,,,,,0,2,2,2,,,,,,,,,,,,,,,,,,,,,,,,,,,,,,,,,,,,,,,,,,,,,,,,,,,,,,,,,,,,,,,,,,,,,,,,,,,,,1.6712962985038757,1.3831223999995927,368.1306354000003,None,ScrollUp,정답입니다,368.1306354000003,None,368.1306354000003,None,368.1306354000003,None,368.1306354000003,None,369.3791618,None,369.3791618,369.8895137000004,,,,,,,,,,,,,,,,201,2022-04-26_13h40.10.509,FishGame,2022.1.1,60.01990259971459,
,4,넌 논리적이야,2,Orange,A,5.666666666666666,4.633333333333334,ScrollDown,ScrollUp,Orange.png,3,Positive,Congruent,0,0,0,0,,,,,,,,,,,,,,,,,,,,,0,3,3,3,,,,,,,,,,,,,,,,,,,,,,,,,,,,,,,,,,,,,,,,,,,,,,,,,,,,,,,,,,,,,,,,,,,,,,,,,,,,,1.0756172637144725,1.3486281000000417,370.5430693000003,None,ScrollDown,정답입니다,370.5430693000003,None,370.5430693000003,None,370.5430693000003,None,370.5430693000003,None,371.76099520000025,None,371.76099520000025,372.2727218,,,,,,,,,,,,,,,,201,2022-04-26_13h40.10.509,FishGame,2022.1.1,60.01990259971459,
,5,넌 과묵해,3,Orange,A,3.875,4.4,ScrollDown,ScrollUp,Orange.png,3,Neutral,Neutral,0,0,0,0,,,,,,,,,,,,,,,,,,,,,0,4,4,4,,,,,,,,,,,,,,,,,,,,,,,,,,,,,,,,,,,,,,,,,,,,,,,,,,,,,,,,,,,,,,,,,,,,,,,,,,,,,1.1913580348094304,1.837901399999737,372.9281269000003,None,ScrollDown,정답입니다,372.9281269000003,None,372.9281269000003,None,372.9281269000003,None,372.9281269000003,None,374.63163970000005,None,374.63163970000005,375.1389312000001,,,,,,,,,,,,,,,,201,2022-04-26_13h40.10.509,FishGame,2022.1.1,60.01990259971459,
,6,나를 데려가줘,6,Green,B,0,0,ScrollDown,ScrollUp,Green.png,3,NonTarget,NonTarget,0,0,0,0,,,,,,,,,,,,,,,,,,,,,0,5,5,5,,,,,,,,,,,,,,,,,,,,,,,,,,,,,,,,,,,,,,,,,,,,,,,,,,,,,,,,,,,,,,,,,,,,,,,,,,,,,1.160493830839793,1.1449311999999736,375.7877618000002,None,ScrollDown,정답입니다,375.7877618000002,None,375.7877618000002,None,375.7877618000002,None,375.7877618000002,None,376.8072589000003,None,376.8072589000003,377.32190930000024,,,,,,,,,,,,,,,,201,2022-04-26_13h40.10.509,FishGame,2022.1.1,60.01990259971459,
,7,넌 미숙해,4,Green,B,3,3,ScrollUp,ScrollDown,Green.png,3,Negative,Congruent,0,0,0,0,,,,,,,,,,,,,,,,,,,,,0,6,6,6,,,,,,,,,,,,,,,,,,,,,,,,,,,,,,,,,,,,,,,,,,,,,,,,,,,,,,,,,,,,,,,,,,,,,,,,,,,,,1.6311728358268738,1.218948900000214,377.96754310000006,None,ScrollUp,정답입니다,377.96754310000006,None,377.96754310000006,None,377.96754310000006,None,377.96754310000006,None,379.0636803000002,None,379.0636803000002,379.5716398000004,,,,,,,,,,,,,,,,201,2022-04-26_13h40.10.509,FishGame,2022.1.1,60.01990259971459,
,8,나를 보내줘,6,Orange,A,0,0,ScrollUp,ScrollDown,Orange.png,3,NonTarget,NonTarget,0,0,0,0,,,,,,,,,,,,,,,,,,,,,0,7,7,7,,,,,,,,,,,,,,,,,,,,,,,,,,,,,,,,,,,,,,,,,,,,,,,,,,,,,,,,,,,,,,,,,,,,,,,,,,,,,1.8425925970077515,1.110262000000148,380.2216623000004,None,ScrollUp,정답입니다,380.2216623000004,None,380.2216623000004,None,380.2216623000004,None,380.2216623000004,None,381.2048267,None,381.2048267,381.7047047000001,,,,,,,,,,,,,,,,201,2022-04-26_13h40.10.509,FishGame,2022.1.1,60.01990259971459,
,9,넌 자신만만해,3,Green,B,4.833333333333334,4.333333333333333,ScrollUp,ScrollDown,Green.png,3,Neutral,Neutral,0,0,0,0,,,,,,,,,,,,,,,,,,,,,0,8,8,8,,,,,,,,,,,,,,,,,,,,,,,,,,,,,,,,,,,,,,,,,,,,,,,,,,,,,,,,,,,,,,,,,,,,,,,,,,,,,1.799382706483205,1.1317253000001983,382.35614840000017,None,ScrollUp,정답입니다,382.35614840000017,None,382.35614840000017,None,382.35614840000017,None,382.35614840000017,None,383.35912940000026,None,383.35912940000026,383.87103970000044,,,,,,,,,,,,,,,,201,2022-04-26_13h40.10.509,FishGame,2022.1.1,60.01990259971459,
,10,넌 탐욕스러워,5,Orange,A,2.25,2.1,ScrollDown,ScrollUp,Orange.png,3,Negative,Incongruent,0,0,0,0,,,,,,,,,,,,,,,,,,,,,0,9,9,9,,,,,,,,,,,,,,,,,,,,,,,,,,,,,,,,,,,,,,,,,,,,,,,,,,,,,,,,,,,,,,,,,,,,,,,,,,,,,1,1.673946899999919,384.5323532000002,None,ScrollDown,정답입니다,384.5323532000002,None,384.5323532000002,None,384.5323532000002,None,384.5323532000002,None,386.0708165000001,None,386.0708165000001,386.5707327,,,,,,,,,,,,,,,,201,2022-04-26_13h40.10.509,FishGame,2022.1.1,60.01990259971459,
,11,넌 인기있어,2,Orange,A,5.458333333333333,4.5,ScrollDown,ScrollUp,Orange.png,3,Positive,Congruent,0,0,0,0,,,,,,,,,,,,,,,,,,,,,0,10,10,10,,,,,,,,,,,,,,,,,,,,,,,,,,,,,,,,,,,,,,,,,,,,,,,,,,,,,,,,,,,,,,,,,,,,,,,,,,,,,1.016975333293279,1.0448787000000266,387.22486290000006,None,ScrollDown,정답입니다,387.22486290000006,None,387.22486290000006,None,387.22486290000006,None,387.22486290000006,None,388.1336314,None,388.1336314,388.6370833000001,,,,,,,,,,,,,,,,201,2022-04-26_13h40.10.509,FishGame,2022.1.1,60.01990259971459,
,12,나를 데려가줘,6,Green,B,0,0,ScrollDown,ScrollUp,Green.png,3,NonTarget,NonTarget,0,0,0,0,,,,,,,,,,,,,,,,,,,,,0,11,11,11,,,,,,,,,,,,,,,,,,,,,,,,,,,,,,,,,,,,,,,,,,,,,,,,,,,,,,,,,,,,,,,,,,,,,,,,,,,,,1,1.0997738999999456,389.2820141000002,None,ScrollDown,정답입니다,389.2820141000002,None,389.2820141000002,None,389.2820141000002,None,389.2820141000002,None,390.2606971,None,390.2606971,390.7701911000004,,,,,,,,,,,,,,,,201,2022-04-26_13h40.10.509,FishGame,2022.1.1,60.01990259971459,
,13,넌 뛰어나,2,Green,B,6.166666666666667,4,ScrollUp,ScrollDown,Green.png,3,Positive,Incongruent,0,0,0,0,,,,,,,,,,,,,,,,,,,,,0,12,12,12,,,,,,,,,,,,,,,,,,,,,,,,,,,,,,,,,,,,,,,,,,,,,,,,,,,,,,,,,,,,,,,,,,,,,,,,,,,,,1.8364197413126628,0.9234867999998642,391.4217838000004,None,ScrollUp,정답입니다,391.4217838000004,None,391.4217838000004,None,391.4217838000004,None,391.4217838000004,None,392.21370030000026,None,392.21370030000026,392.7199620000001,,,,,,,,,,,,,,,,201,2022-04-26_13h40.10.509,FishGame,2022.1.1,60.01990259971459,
,14,넌 낙관적이야,1,Orange,A,5.75,5.8,ScrollDown,ScrollUp,Orange.png,3,Positive,Congruent,0,0,0,0,,,,,,,,,,,,,,,,,,,,,0,13,13,13,,,,,,,,,,,,,,,,,,,,,,,,,,,,,,,,,,,,,,,,,,,,,,,,,,,,,,,,,,,,,,,,,,,,,,,,,,,,,1.1635802586873372,0.9662622000000738,393.38009850000026,None,ScrollDown,정답입니다,393.38009850000026,None,393.38009850000026,None,393.38009850000026,None,393.38009850000026,None,394.20909900000015,None,394.20909900000015,394.7197417000002,,,,,,,,,,,,,,,,201,2022-04-26_13h40.10.509,FishGame,2022.1.1,60.01990259971459,
,15,넌 산만해,4,Green,B,2.695652173913043,3.033333333333333,ScrollUp,ScrollDown,Green.png,3,Negative,Congruent,0,0,0,0,,,,,,,,,,,,,,,,,,,,,0,14,14,14,,,,,,,,,,,,,,,,,,,,,,,,,,,,,,,,,,,,,,,,,,,,,,,,,,,,,,,,,,,,,,,,,,,,,,,,,,,,,1.8657407313585281,0.9041427999995904,395.3686345000001,None,ScrollUp,정답입니다,395.3686345000001,None,395.3686345000001,None,395.3686345000001,None,395.3686345000001,None,396.1458372000002,None,396.1458372000002,396.6528967000004,,,,,,,,,,,,,,,,201,2022-04-26_13h40.10.509,FishGame,2022.1.1,60.01990259971459,
,16,나를 보내줘,6,Orange,A,0,0,ScrollUp,ScrollDown,Orange.png,3,NonTarget,NonTarget,0,0,0,0,,,,,,,,,,,,,,,,,,,,,0,15,15,15,,,,,,,,,,,,,,,,,,,,,,,,,,,,,,,,,,,,,,,,,,,,,,,,,,,,,,,,,,,,,,,,,,,,,,,,,,,,,1.703703703979651,1.0116400000001704,397.3036892,None,ScrollUp,정답입니다,397.3036892,None,397.3036892,None,397.3036892,None,397.3036892,None,398.18559430000005,None,398.18559430000005,398.6858357000001,,,,,,,,,,,,,,,,201,2022-04-26_13h40.10.509,FishGame,2022.1.1,60.01990259971459,
,17,넌 교활해,5,Green,B,2.333333333333333,2.133333333333333,ScrollUp,ScrollDown,Green.png,3,Negative,Congruent,0,0,0,0,,,,,,,,,,,,,,,,,,,,,0,16,16,16,,,,,,,,,,,,,,,,,,,,,,,,,,,,,,,,,,,,,,,,,,,,,,,,,,,,,,,,,,,,,,,,,,,,,,,,,,,,,1.8456790000200272,1.01030129999981,399.33956850000004,None,ScrollUp,정답입니다,399.33956850000004,None,399.33956850000004,None,399.33956850000004,None,399.33956850000004,None,400.21934680000004,None,400.21934680000004,400.7189959000002,,,,,,,,,,,,,,,,201,2022-04-26_13h40.10.509,FishGame,2022.1.1,60.01990259971459,
,18,나를 보내줘,6,Orange,A,0,0,ScrollUp,ScrollDown,Orange.png,3,NonTarget,NonTarget,0,0,0,0,,,,,,,,,,,,,,,,,,,,,0,17,17,17,,,,,,,,,,,,,,,,,,,,,,,,,,,,,,,,,,,,,,,,,,,,,,,,,,,,,,,,,,,,,,,,,,,,,,,,,,,,,1.9737654328346252,1.2321821000000455,401.36323370000036,None,ScrollUp,정답입니다,401.36323370000036,None,401.36323370000036,None,401.36323370000036,None,401.36323370000036,None,402.4737957000002,None,402.4737957000002,402.9853909000003,,,,,,,,,,,,,,,,201,2022-04-26_13h40.10.509,FishGame,2022.1.1,60.01990259971459,
,19,넌 불친절해,5,Green,B,2.208333333333333,2.033333333333333,ScrollUp,ScrollDown,Green.png,3,Negative,Congruent,0,0,0,0,,,,,,,,,,,,,,,,,,,,,0,18,18,18,,,,,,,,,,,,,,,,,,,,,,,,,,,,,,,,,,,,,,,,,,,,,,,,,,,,,,,,,,,,,,,,,,,,,,,,,,,,,1.8364197413126628,1.1445447000000968,403.64179030000014,None,ScrollUp,정답입니다,403.64179030000014,None,403.64179030000014,None,403.64179030000014,None,403.64179030000014,None,404.65176480000036,None,404.65176480000036,405.15166320000026,,,,,,,,,,,,,,,,201,2022-04-26_13h40.10.509,FishGame,2022.1.1,60.01990259971459,
,20,넌 지적이야,2,Green,B,5.75,4.366666666666666,ScrollUp,ScrollDown,Green.png,3,Positive,Incongruent,0,0,0,0,,,,,,,,,,,,,,,,,,,,,0,19,19,19,,,,,,,,,,,,,,,,,,,,,,,,,,,,,,,,,,,,,,,,,,,,,,,,,,,,,,,,,,,,,,,,,,,,,,,,,,,,,1.7638888855775197,0.9474960000002284,405.79864670000006,None,ScrollUp,정답입니다,405.79864670000006,None,405.79864670000006,None,405.79864670000006,None,405.79864670000006,None,406.62321250000014,None,406.62321250000014,407.1349997000002,,,,,,,,,,,,,,,,201,2022-04-26_13h40.10.509,FishGame,2022.1.1,60.01990259971459,
,21,넌 우유부단해,4,Orange,A,2.666666666666667,3.166666666666667,ScrollDown,ScrollUp,Orange.png,3,Negative,Incongruent,0,0,0,0,,,,,,,,,,,,,,,,,,,,,0,20,20,20,,,,,,,,,,,,,,,,,,,,,,,,,,,,,,,,,,,,,,,,,,,,,,,,,,,,,,,,,,,,,,,,,,,,,,,,,,,,,1.0108024775981903,1.0591663000000153,407.78906840000036,None,ScrollDown,정답입니다,407.78906840000036,None,407.78906840000036,None,407.78906840000036,None,407.78906840000036,None,408.71779810000044,None,408.71779810000044,409.2176612000003,,,,,,,,,,,,,,,,201,2022-04-26_13h40.10.509,FishGame,2022.1.1,60.01990259971459,
,22,나를 데려가줘,6,Green,B,0,0,ScrollDown,ScrollUp,Green.png,3,NonTarget,NonTarget,0,0,0,0,,,,,,,,,,,,,,,,,,,,,0,21,21,21,,,,,,,,,,,,,,,,,,,,,,,,,,,,,,,,,,,,,,,,,,,,,,,,,,,,,,,,,,,,,,,,,,,,,,,,,,,,,1.2515432039896646,1.1289467999999943,409.87060390000033,None,ScrollDown,정답입니다,409.87060390000033,None,409.87060390000033,None,409.87060390000033,None,409.87060390000033,None,410.87052700000004,None,410.87052700000004,411.3841746000003,,,,,,,,,,,,,,,,201,2022-04-26_13h40.10.509,FishGame,2022.1.1,60.01990259971459,
,23,넌 성실해,1,Green,B,6.041666666666666,5.7,ScrollUp,ScrollDown,Green.png,3,Positive,Incongruent,0,0,0,0,,,,,,,,,,,,,,,,,,,,,0,22,22,22,,,,,,,,,,,,,,,,,,,,,,,,,,,,,,,,,,,,,,,,,,,,,,,,,,,,,,,,,,,,,,,,,,,,,,,,,,,,,1.7685185273488362,0.8990733999999065,412.0293607000003,None,ScrollUp,정답입니다,412.0293607000003,None,412.0293607000003,None,412.0293607000003,None,412.0293607000003,None,412.8054556000002,None,412.8054556000002,413.31731670000045,,,,,,,,,,,,,,,,201,2022-04-26_13h40.10.509,FishGame,2022.1.1,60.01990259971459,
,24,넌 현실주의적이야,3,Orange,A,4.625,4.4,ScrollDown,ScrollUp,Orange.png,3,Neutral,Neutral,0,0,0,0,,,,,,,,,,,,,,,,,,,,,0,23,23,23,,,,,,,,,,,,,,,,,,,,,,,,,,,,,,,,,,,,,,,,,,,,,,,,,,,,,,,,,,,,,,,,,,,,,,,,,,,,,1.3148148134350777,0.9765962999999829,413.9707199000004,None,ScrollDown,정답입니다,413.9707199000004,None,413.9707199000004,None,413.9707199000004,None,413.9707199000004,None,414.8185668000001,None,414.8185668000001,415.3336615000003,,,,,,,,,,,,,,,,201,2022-04-26_13h40.10.509,FishGame,2022.1.1,60.01990259971459,
,25,넌 진실돼,1,Orange,A,6.625,5.566666666666666,ScrollDown,ScrollUp,Orange.png,3,Positive,Congruent,0,0,0,0,,,,,,,,,,,,,,,,,,,,,0,24,24,24,,,,,,,,,,,,,,,,,,,,,,,,,,,,,,,,,,,,,,,,,,,,,,,,,,,,,,,,,,,,,,,,,,,,,,,,,,,,,1.3503086467583976,0.9364679000000251,416.00132900000017,None,ScrollDown,정답입니다,416.00132900000017,None,416.00132900000017,None,416.00132900000017,None,416.00132900000017,None,416.79210220000004,None,416.79210220000004,417.3001164000002,,,,,,,,,,,,,,,,201,2022-04-26_13h40.10.509,FishGame,2022.1.1,60.01990259971459,
,26,넌 천진난만해,3,Green,B,4.958333333333334,4.833333333333333,ScrollUp,ScrollDown,Green.png,3,Neutral,Neutral,0,0,0,0,,,,,,,,,,,,,,,,,,,,,0,25,25,25,,,,,,,,,,,,,,,,,,,,,,,,,,,,,,,,,,,,,,,,,,,,,,,,,,,,,,,,,,,,,,,,,,,,,,,,,,,,,1.71913580596447,1.1229217000000062,417.95537170000034,None,ScrollUp,정답입니다,417.95537170000034,None,417.95537170000034,None,417.95537170000034,None,417.95537170000034,None,418.9438285000001,None,418.9438285000001,419.4498494000004,,,,,,,,,,,,,,,,201,2022-04-26_13h40.10.509,FishGame,2022.1.1,60.01990259971459,
,27,넌 교양없어,5,Orange,A,2.416666666666667,2.2,ScrollDown,ScrollUp,Orange.png,3,Negative,Incongruent,0,0,0,0,,,,,,,,,,,,,,,,,,,,,0,26,26,26,,,,,,,,,,,,,,,,,,,,,,,,,,,,,,,,,,,,,,,,,,,,,,,,,,,,,,,,,,,,,,,,,,,,,,,,,,,,,1.3858024676640828,0.9520366000001559,420.11143900000025,None,ScrollDown,정답입니다,420.11143900000025,None,420.11143900000025,None,420.11143900000025,None,420.11143900000025,None,420.9238123,None,420.9238123,421.4333607000003,,,,,,,,,,,,,,,,201,2022-04-26_13h40.10.509,FishGame,2022.1.1,60.01990259971459,
,28,나를 보내줘,6,Orange,A,0,0,ScrollUp,ScrollDown,Orange.png,3,NonTarget,NonTarget,0,0,0,0,,,,,,,,,,,,,,,,,,,,,0,27,27,27,,,,,,,,,,,,,,,,,,,,,,,,,,,,,,,,,,,,,,,,,,,,,,,,,,,,,,,,,,,,,,,,,,,,,,,,,,,,,1.7700617164373398,0.9837977000001956,422.08798320000005,None,ScrollUp,정답입니다,422.08798320000005,None,422.08798320000005,None,422.08798320000005,None,422.08798320000005,None,422.9397191000003,None,422.9397191000003,423.4494252000004,,,,,,,,,,,,,,,,201,2022-04-26_13h40.10.509,FishGame,2022.1.1,60.01990259971459,
,29,넌 엉뚱스러워,3,Orange,A,4.166666666666667,4.133333333333334,ScrollDown,ScrollUp,Orange.png,3,Neutral,Neutral,0,0,0,0,,,,,,,,,,,,,,,,,,,,,0,28,28,28,,,,,,,,,,,,,,,,,,,,,,,,,,,,,,,,,,,,,,,,,,,,,,,,,,,,,,,,,,,,,,,,,,,,,,,,,,,,,1.0293209950129192,1.3063747000001058,424.1166400000002,None,ScrollDown,정답입니다,424.1166400000002,None,424.1166400000002,None,424.1166400000002,None,424.1166400000002,None,425.28232270000035,None,425.28232270000035,425.78279980000025,,,,,,,,,,,,,,,,201,2022-04-26_13h40.10.509,FishGame,2022.1.1,60.01990259971459,
,30,넌 무지해,4,Green,B,2.541666666666667,3.066666666666667,ScrollUp,ScrollDown,Green.png,3,Negative,Congruent,0,0,0,0,,,,,,,,,,,,,,,,,,,,,0,29,29,29,,,,,,,,,,,,,,,,,,,,,,,,,,,,,,,,,,,,,,,,,,,,,,,,,,,,,,,,,,,,,,,,,,,,,,,,,,,,,1.6466049378116927,1.0794325999995635,426.4351393000002,None,ScrollUp,정답입니다,426.4351393000002,None,426.4351393000002,None,426.4351393000002,None,426.4351393000002,None,427.3835591000002,None,427.3835591000002,427.8988260000001,,,,,,,,,,,,,,,,201,2022-04-26_13h40.10.509,FishGame,2022.1.1,60.01990259971459,
,31,넌 음울해,5,Green,B,2.25,2.233333333333333,ScrollUp,ScrollDown,Green.png,3,Negative,Congruent,0,0,0,0,,,,,,,,,,,,,,,,,,,,,0,30,30,30,,,,,,,,,,,,,,,,,,,,,,,,,,,,,,,,,,,,,,,,,,,,,,,,,,,,,,,,,,,,,,,,,,,,,,,,,,,,,1.6435185223817825,1.0536655999999311,428.56245800000033,None,ScrollUp,정답입니다,428.56245800000033,None,428.56245800000033,None,428.56245800000033,None,428.56245800000033,None,429.4774014000004,None,429.4774014000004,429.9818588000003,,,,,,,,,,,,,,,,201,2022-04-26_13h40.10.509,FishGame,2022.1.1,60.01990259971459,
,32,넌 냉소적이야,5,Orange,A,2.916666666666667,2.4,ScrollDown,ScrollUp,Orange.png,3,Negative,Incongruent,0,0,0,0,,,,,,,,,,,,,,,,,,,,,0,31,31,31,,,,,,,,,,,,,,,,,,,,,,,,,,,,,,,,,,,,,,,,,,,,,,,,,,,,,,,,,,,,,,,,,,,,,,,,,,,,,1.200617293516795,1.0177816000000348,430.6579992000002,None,ScrollDown,정답입니다,430.6579992000002,None,430.6579992000002,None,430.6579992000002,None,430.6579992000002,None,431.5264393000002,None,431.5264393000002,432.03163170000016,,,,,,,,,,,,,,,,201,2022-04-26_13h40.10.509,FishGame,2022.1.1,60.01990259971459,
,33,나를 데려가줘,6,Green,B,0,0,ScrollDown,ScrollUp,Green.png,3,NonTarget,NonTarget,0,0,0,0,,,,,,,,,,,,,,,,,,,,,0,32,32,32,,,,,,,,,,,,,,,,,,,,,,,,,,,,,,,,,,,,,,,,,,,,,,,,,,,,,,,,,,,,,,,,,,,,,,,,,,,,,1.1311728407939274,1.054755600000135,432.67353140000023,None,ScrollDown,정답입니다,432.67353140000023,None,432.67353140000023,None,432.67353140000023,None,432.67353140000023,None,433.60980910000035,None,433.60980910000035,434.1146011000001,,,,,,,,,,,,,,,,201,2022-04-26_13h40.10.509,FishGame,2022.1.1,60.01990259971459,
,34,넌 쾌활해,1,Orange,A,5.541666666666666,5.733333333333333,ScrollDown,ScrollUp,Orange.png,3,Positive,Congruent,0,0,0,0,,,,,,,,,,,,,,,,,,,,,0,33,33,33,,,,,,,,,,,,,,,,,,,,,,,,,,,,,,,,,,,,,,,,,,,,,,,,,,,,,,,,,,,,,,,,,,,,,,,,,,,,,1.3317901293436685,1.3382524000003286,434.7714125000002,None,ScrollDown,정답입니다,434.7714125000002,None,434.7714125000002,None,434.7714125000002,None,434.7714125000002,None,435.97413370000004,None,435.97413370000004,436.48088880000023,,,,,,,,,,,,,,,,201,2022-04-26_13h40.10.509,FishGame,2022.1.1,60.01990259971459,
,35,나를 보내줘,6,Orange,A,0,0,ScrollUp,ScrollDown,Orange.png,3,NonTarget,NonTarget,0,0,0,0,,,,,,,,,,,,,,,,,,,,,0,34,34,34,,,,,,,,,,,,,,,,,,,,,,,,,,,,,,,,,,,,,,,,,,,,,,,,,,,,,,,,,,,,,,,,,,,,,,,,,,,,,1.6018518519898257,0.9709464000002299,437.1351675000001,None,ScrollUp,정답입니다,437.1351675000001,None,437.1351675000001,None,437.1351675000001,None,437.1351675000001,None,437.9742825000003,None,437.9742825000003,438.48102900000004,,,,,,,,,,,,,,,,201,2022-04-26_13h40.10.509,FishGame,2022.1.1,60.01990259971459,
,36,넌 명랑해,1,Green,B,5.739130434782609,5.666666666666667,ScrollUp,ScrollDown,Green.png,3,Positive,Incongruent,0,0,0,0,,,,,,,,,,,,,,,,,,,,,0,35,35,35,,,,,,,,,,,,,,,,,,,,,,,,,,,,,,,,,,,,,,,,,,,,,,,,,,,,,,,,,,,,,,,,,,,,,,,,,,,,,1.9552469154198964,1.6153322000000117,439.1306214000001,None,ScrollUp,정답입니다,439.1306214000001,None,439.1306214000001,None,439.1306214000001,None,439.1306214000001,None,440.6183331000002,None,440.6183331000002,441.1303648000003,,,,,,,,,,,,,,,,201,2022-04-26_13h40.10.509,FishGame,2022.1.1,60.01990259971459,
,37,넌 멍해,4,Orange,A,2.833333333333333,3.4,ScrollDown,ScrollUp,Orange.png,3,Negative,Incongruent,0,0,0,0,,,,,,,,,,,,,,,,,,,,,0,36,36,36,,,,,,,,,,,,,,,,,,,,,,,,,,,,,,,,,,,,,,,,,,,,,,,,,,,,,,,,,,,,,,,,,,,,,,,,,,,,,1.2407407313585281,1.1627772000001642,441.7850899,None,ScrollDown,정답입니다,441.7850899,None,441.7850899,None,441.7850899,None,441.7850899,None,442.8165849000002,None,442.8165849000002,443.3300385000002,,,,,,,,,,,,,,,,201,2022-04-26_13h40.10.509,FishGame,2022.1.1,60.01990259971459,
,38,나를 데려가줘,6,Green,B,0,0,ScrollDown,ScrollUp,Green.png,3,NonTarget,NonTarget,0,0,0,0,,,,,,,,,,,,,,,,,,,,,0,37,37,37,,,,,,,,,,,,,,,,,,,,,,,,,,,,,,,,,,,,,,,,,,,,,,,,,,,,,,,,,,,,,,,,,,,,,,,,,,,,,1.0648148159186046,1.150010100000145,443.97902360000035,None,ScrollDown,정답입니다,443.97902360000035,None,443.97902360000035,None,443.97902360000035,None,443.97902360000035,None,445.00341750000007,None,445.00341750000007,445.51300830000037,,,,,,,,,,,,,,,,201,2022-04-26_13h40.10.509,FishGame,2022.1.1,60.01990259971459,
,39,넌 현명해,2,Orange,A,6.541666666666666,4.533333333333333,ScrollDown,ScrollUp,Orange.png,3,Positive,Congruent,0,0,0,0,,,,,,,,,,,,,,,,,,,,,0,38,38,38,,,,,,,,,,,,,,,,,,,,,,,,,,,,,,,,,,,,,,,,,,,,,,,,,,,,,,,,,,,,,,,,,,,,,,,,,,,,,1.214506169160207,1.1360359000000244,446.1643224000004,None,ScrollDown,정답입니다,446.1643224000004,None,446.1643224000004,None,446.1643224000004,None,446.1643224000004,None,447.1719081000001,None,447.1719081000001,447.6794981000003,,,,,,,,,,,,,,,,201,2022-04-26_13h40.10.509,FishGame,2022.1.1,60.01990259971459,
,40,넌 수줍어,3,Green,B,3.541666666666666,4.366666666666666,ScrollUp,ScrollDown,Green.png,3,Neutral,Neutral,0,0,0,0,,,,,,,,,,,,,,,,,,,,,0,39,39,39,,,,,,,,,,,,,,,,,,,,,,,,,,,,,,,,,,,,,,,,,,,,,,,,,,,,,,,,,,,,,,,,,,,,,,,,,,,,,1.7067901194095612,0.915218300000106,448.3341360000004,None,ScrollUp,정답입니다,448.3341360000004,None,448.3341360000004,None,448.3341360000004,None,448.3341360000004,None,449.1179589000003,None,449.1179589000003,449.6292118000001,,,,,,,,,,,,,,,,201,2022-04-26_13h40.10.509,FishGame,2022.1.1,60.01990259971459,
,41,나를 데려가줘,6,Green,B,0,0,ScrollDown,ScrollUp,Green.png,3,NonTarget,NonTarget,0,0,0,0,,,,,,,,,,,,,,,,,,,,,0,40,40,40,,,,,,,,,,,,,,,,,,,,,,,,,,,,,,,,,,,,,,,,,,,,,,,,,,,,,,,,,,,,,,,,,,,,,,,,,,,,,1.1558641890684764,1.0859040000000277,450.2728151000001,None,ScrollDown,정답입니다,450.2728151000001,None,450.2728151000001,None,450.2728151000001,None,450.2728151000001,None,451.23613460000024,None,451.23613460000024,451.74560690000044,,,,,,,,,,,,,,,,201,2022-04-26_13h40.10.509,FishGame,2022.1.1,60.01990259971459,
,42,넌 성숙해,2,Green,B,5.833333333333333,4.533333333333333,ScrollUp,ScrollDown,Green.png,3,Positive,Incongruent,0,0,0,0,,,,,,,,,,,,,,,,,,,,,0,41,41,41,,,,,,,,,,,,,,,,,,,,,,,,,,,,,,,,,,,,,,,,,,,,,,,,,,,,,,,,,,,,,,,,,,,,,,,,,,,,,1.8086419651905696,1.014738800000032,452.39035330000024,None,ScrollUp,정답입니다,452.39035330000024,None,452.39035330000024,None,452.39035330000024,None,452.39035330000024,None,453.2840994000003,None,453.2840994000003,453.7954211000001,,,,,,,,,,,,,,,,201,2022-04-26_13h40.10.509,FishGame,2022.1.1,60.01990259971459,
,1,넌 매력적이야,2,Green,B,6.125,4.666666666666667,ScrollUp,ScrollDown,Green.png,4,Positive,Incongruent,0,0,0,0,,,,,,,,,,,,,,,,,,,,,,,,,0,0,0,0,,,,,,,,,,,,,,,,,,,,,,,,,,,,,,,,485.79168340000024,487.2911144000004,487.3245089000002,488.27440720000004,488.3244056000003,489.27424210000027,489.27424210000027,None,,,,,,,,,,,,,,,,,,,,,,,,,,,,,,,,,,1.4953703702582668,1.1211511999999857,490.4594839000001,None,NoResponse,무응답입니다,490.4594839000001,None,490.4594839000001,None,490.4594839000001,None,490.4594839000001,None,491.4041110000003,None,491.4041110000003,491.9070643,454.2953174000004,None,454.2953174000004,None,0.055555556,-0.13333334,1,0,0,0.016205870000703726,None,484.2914145000004,None,,,201,2022-04-26_13h40.10.509,FishGame,2022.1.1,60.01990259971459,
,2,나를 보내줘,6,Orange,A,0,0,ScrollUp,ScrollDown,Orange.png,4,NonTarget,NonTarget,0,0,0,0,,,,,,,,,,,,,,,,,,,,,,,,,0,1,1,1,,,,,,,,,,,,,,,,,,,,,,,,,,,,,,,,,,,,,,,,,,,,,,,,,,,,,,,,,,,,,,,,,,,,,,,,,1.6157407462596893,2.564818899999864,492.5574737000002,None,ScrollUp,정답입니다,492.5574737000002,None,492.5574737000002,None,492.5574737000002,None,492.5574737000002,None,494.9978279000002,None,494.9978279000002,495.5067445000004,,,,,,,,,,,,,,,,201,2022-04-26_13h40.10.509,FishGame,2022.1.1,60.01990259971459,
,3,넌 조심스러워,3,Orange,A,4.791666666666666,4.666666666666667,ScrollDown,ScrollUp,Orange.png,4,Neutral,Neutral,0,0,0,0,,,,,,,,,,,,,,,,,,,,,,,,,0,2,2,2,,,,,,,,,,,,,,,,,,,,,,,,,,,,,,,,,,,,,,,,,,,,,,,,,,,,,,,,,,,,,,,,,,,,,,,,,1.160493830839793,2.3584987999997793,496.15814370000044,None,ScrollDown,정답입니다,496.15814370000044,None,496.15814370000044,None,496.15814370000044,None,496.15814370000044,None,498.3898084000002,None,498.3898084000002,498.8894398000002,,,,,,,,,,,,,,,,201,2022-04-26_13h40.10.509,FishGame,2022.1.1,60.01990259971459,
,4,넌 철학적이야,3,Green,B,4.5,4.266666666666667,ScrollUp,ScrollDown,Green.png,4,Neutral,Neutral,0,0,0,0,,,,,,,,,,,,,,,,,,,,,,,,,0,3,3,3,,,,,,,,,,,,,,,,,,,,,,,,,,,,,,,,,,,,,,,,,,,,,,,,,,,,,,,,,,,,,,,,,,,,,,,,,1.7160493781169257,1.2027312999998685,499.5471948000004,None,ScrollUp,정답입니다,499.5471948000004,None,499.5471948000004,None,499.5471948000004,None,499.5471948000004,None,500.61491650000016,None,500.61491650000016,501.12262990000045,,,,,,,,,,,,,,,,201,2022-04-26_13h40.10.509,FishGame,2022.1.1,60.01990259971459,
,5,넌 쩨쩨해,5,Orange,A,2.375,2.133333333333333,ScrollDown,ScrollUp,Orange.png,4,Negative,Incongruent,0,0,0,0,,,,,,,,,,,,,,,,,,,,,,,,,0,4,4,4,,,,,,,,,,,,,,,,,,,,,,,,,,,,,,,,,,,,,,,,,,,,,,,,,,,,,,,,,,,,,,,,,,,,,,,,,1.0231481393178303,1.1732575000000907,501.78900060000024,None,ScrollDown,정답입니다,501.78900060000024,None,501.78900060000024,None,501.78900060000024,None,501.78900060000024,None,502.82227260000036,None,502.82227260000036,503.32231850000016,,,,,,,,,,,,,,,,201,2022-04-26_13h40.10.509,FishGame,2022.1.1,60.01990259971459,
,6,나를 데려가줘,6,Green,B,0,0,ScrollDown,ScrollUp,Green.png,4,NonTarget,NonTarget,0,0,0,0,,,,,,,,,,,,,,,,,,,,,,,,,0,5,5,5,,,,,,,,,,,,,,,,,,,,,,,,,,,,,,,,,,,,,,,,,,,,,,,,,,,,,,,,,,,,,,,,,,,,,,,,,1,1.0580629999999474,503.9679960000003,None,ScrollDown,정답입니다,503.9679960000003,None,503.9679960000003,None,503.9679960000003,None,503.9679960000003,None,504.90570690000004,None,504.90570690000004,505.4053232000001,,,,,,,,,,,,,,,,201,2022-04-26_13h40.10.509,FishGame,2022.1.1,60.01990259971459,
,7,넌 고집불통이야,5,Green,B,2.875,2,ScrollUp,ScrollDown,Green.png,4,Negative,Congruent,0,0,0,0,,,,,,,,,,,,,,,,,,,,,,,,,0,6,6,6,,,,,,,,,,,,,,,,,,,,,,,,,,,,,,,,,,,,,,,,,,,,,,,,,,,,,,,,,,,,,,,,,,,,,,,,,1.8827160596847534,0.940193299999919,506.0688046,None,ScrollUp,정답입니다,506.0688046,None,506.0688046,None,506.0688046,None,506.0688046,None,506.8720589000004,None,506.8720589000004,507.37180390000003,,,,,,,,,,,,,,,,201,2022-04-26_13h40.10.509,FishGame,2022.1.1,60.01990259971459,
,8,넌 무심해,4,Orange,A,2.875,3.2,ScrollDown,ScrollUp,Orange.png,4,Negative,Incongruent,0,0,0,0,,,,,,,,,,,,,,,,,,,,,,,,,0,7,7,7,,,,,,,,,,,,,,,,,,,,,,,,,,,,,,,,,,,,,,,,,,,,,,,,,,,,,,,,,,,,,,,,,,,,,,,,,1.0694444576899211,0.977737199999865,508.01375160000043,None,ScrollDown,정답입니다,508.01375160000043,None,508.01375160000043,None,508.01375160000043,None,508.01375160000043,None,508.87169440000025,None,508.87169440000025,509.3714352000002,,,,,,,,,,,,,,,,201,2022-04-26_13h40.10.509,FishGame,2022.1.1,60.01990259971459,
,9,넌 정겨워,1,Orange,A,5.791666666666667,5.666666666666667,ScrollDown,ScrollUp,Orange.png,4,Positive,Congruent,0,0,0,0,,,,,,,,,,,,,,,,,,,,,,,,,0,8,8,8,,,,,,,,,,,,,,,,,,,,,,,,,,,,,,,,,,,,,,,,,,,,,,,,,,,,,,,,,,,,,,,,,,,,,,,,,1,0.9616671999997379,510.02949820000003,None,ScrollDown,정답입니다,510.02949820000003,None,510.02949820000003,None,510.02949820000003,None,510.02949820000003,None,510.8566347000001,None,510.8566347000001,511.3711594000001,,,,,,,,,,,,,,,,201,2022-04-26_13h40.10.509,FishGame,2022.1.1,60.01990259971459,
,10,나를 데려가줘,6,Green,B,0,0,ScrollDown,ScrollUp,Green.png,4,NonTarget,NonTarget,0,0,0,0,,,,,,,,,,,,,,,,,,,,,,,,,0,9,9,9,,,,,,,,,,,,,,,,,,,,,,,,,,,,,,,,,,,,,,,,,,,,,,,,,,,,,,,,,,,,,,,,,,,,,,,,,1.2361111144224803,0.9693575000001147,512.0198013000004,None,ScrollDown,정답입니다,512.0198013000004,None,512.0198013000004,None,512.0198013000004,None,512.0198013000004,None,512.8628221000004,None,512.8628221000004,513.3708475000003,,,,,,,,,,,,,,,,201,2022-04-26_13h40.10.509,FishGame,2022.1.1,60.01990259971459,
,11,넌 체제순응적이야,4,Green,B,3,3.6,ScrollUp,ScrollDown,Green.png,4,Negative,Congruent,0,0,0,0,,,,,,,,,,,,,,,,,,,,,,,,,0,10,10,10,,,,,,,,,,,,,,,,,,,,,,,,,,,,,,,,,,,,,,,,,,,,,,,,,,,,,,,,,,,,,,,,,,,,,,,,,1.7160493781169257,1.0344026000002486,514.0300232000004,None,ScrollUp,정답입니다,514.0300232000004,None,514.0300232000004,None,514.0300232000004,None,514.0300232000004,None,514.9275314000001,None,514.9275314000001,515.4373970000001,,,,,,,,,,,,,,,,201,2022-04-26_13h40.10.509,FishGame,2022.1.1,60.01990259971459,
,12,나를 보내줘,6,Orange,A,0,0,ScrollUp,ScrollDown,Orange.png,4,NonTarget,NonTarget,0,0,0,0,,,,,,,,,,,,,,,,,,,,,,,,,0,11,11,11,,,,,,,,,,,,,,,,,,,,,,,,,,,,,,,,,,,,,,,,,,,,,,,,,,,,,,,,,,,,,,,,,,,,,,,,,1.9259259502092998,1.0315170999997463,516.0878447,None,ScrollUp,정답입니다,516.0878447,None,516.0878447,None,516.0878447,None,516.0878447,None,516.9912785000001,None,516.9912785000001,517.5037104000003,,,,,,,,,,,,,,,,201,2022-04-26_13h40.10.509,FishGame,2022.1.1,60.01990259971459,
,13,넌 박식해,2,Orange,A,5.625,3.933333333333333,ScrollDown,ScrollUp,Orange.png,4,Positive,Congruent,0,0,0,0,,,,,,,,,,,,,,,,,,,,,,,,,0,12,12,12,,,,,,,,,,,,,,,,,,,,,,,,,,,,,,,,,,,,,,,,,,,,,,,,,,,,,,,,,,,,,,,,,,,,,,,,,1.1913580348094304,1.0008238999998866,518.1664185000004,None,ScrollDown,정답입니다,518.1664185000004,None,518.1664185000004,None,518.1664185000004,None,518.1664185000004,None,519.0271565000003,None,519.0271565000003,519.5368188000002,,,,,,,,,,,,,,,,201,2022-04-26_13h40.10.509,FishGame,2022.1.1,60.01990259971459,
,14,나를 보내줘,6,Orange,A,0,0,ScrollUp,ScrollDown,Orange.png,4,NonTarget,NonTarget,0,0,0,0,,,,,,,,,,,,,,,,,,,,,,,,,0,13,13,13,,,,,,,,,,,,,,,,,,,,,,,,,,,,,,,,,,,,,,,,,,,,,,,,,,,,,,,,,,,,,,,,,,,,,,,,,1.8240740795930226,0.9605052000001706,520.1881027000004,None,ScrollUp,정답입니다,520.1881027000004,None,520.1881027000004,None,520.1881027000004,None,520.1881027000004,None,521.0202567000001,None,521.0202567000001,521.5198930000001,,,,,,,,,,,,,,,,201,2022-04-26_13h40.10.509,FishGame,2022.1.1,60.01990259971459,
,15,넌 침착해,1,Green,B,5.458333333333333,5.566666666666666,ScrollUp,ScrollDown,Green.png,4,Positive,Incongruent,0,0,0,0,,,,,,,,,,,,,,,,,,,,,,,,,0,14,14,14,,,,,,,,,,,,,,,,,,,,,,,,,,,,,,,,,,,,,,,,,,,,,,,,,,,,,,,,,,,,,,,,,,,,,,,,,1.9521604875723522,0.8892031000000316,522.1780315000001,None,ScrollUp,정답입니다,522.1780315000001,None,522.1780315000001,None,522.1780315000001,None,522.1780315000001,None,522.9364326000004,None,522.9364326000004,523.4362722000001,,,,,,,,,,,,,,,,201,2022-04-26_13h40.10.509,FishGame,2022.1.1,60.01990259971459,
,16,나를 데려가줘,6,Green,B,0,0,ScrollDown,ScrollUp,Green.png,4,NonTarget,NonTarget,0,0,0,0,,,,,,,,,,,,,,,,,,,,,,,,,0,15,15,15,,,,,,,,,,,,,,,,,,,,,,,,,,,,,,,,,,,,,,,,,,,,,,,,,,,,,,,,,,,,,,,,,,,,,,,,,1.0694444576899211,0.9656508000002759,524.0803539000003,None,ScrollDown,정답입니다,524.0803539000003,None,524.0803539000003,None,524.0803539000003,None,524.0803539000003,None,524.9244257,None,524.9244257,525.4359629,,,,,,,,,,,,,,,,201,2022-04-26_13h40.10.509,FishGame,2022.1.1,60.01990259971459,
,17,넌 행복해,1,Orange,A,6.416666666666666,6.166666666666667,ScrollDown,ScrollUp,Orange.png,4,Positive,Congruent,0,0,0,0,,,,,,,,,,,,,,,,,,,,,,,,,0,16,16,16,,,,,,,,,,,,,,,,,,,,,,,,,,,,,,,,,,,,,,,,,,,,,,,,,,,,,,,,,,,,,,,,,,,,,,,,,1,1.2175382000000354,526.0949476000001,None,ScrollDown,정답입니다,526.0949476000001,None,526.0949476000001,None,526.0949476000001,None,526.0949476000001,None,527.1751291,None,527.1751291,527.6857564000002,,,,,,,,,,,,,,,,201,2022-04-26_13h40.10.509,FishGame,2022.1.1,60.01990259971459,
,18,넌 겸손해,2,Green,B,5.791666666666667,4.766666666666667,ScrollUp,ScrollDown,Green.png,4,Positive,Incongruent,0,0,0,0,,,,,,,,,,,,,,,,,,,,,,,,,0,17,17,17,,,,,,,,,,,,,,,,,,,,,,,,,,,,,,,,,,,,,,,,,,,,,,,,,,,,,,,,,,,,,,,,,,,,,,,,,1.9845678806304932,1.0091505999998844,528.3415126000004,None,ScrollUp,정답입니다,528.3415126000004,None,528.3415126000004,None,528.3415126000004,None,528.3415126000004,None,529.2191650000004,None,529.2191650000004,529.7188385000004,,,,,,,,,,,,,,,,201,2022-04-26_13h40.10.509,FishGame,2022.1.1,60.01990259971459,
,19,나를 보내줘,6,Orange,A,0,0,ScrollUp,ScrollDown,Orange.png,4,NonTarget,NonTarget,0,0,0,0,,,,,,,,,,,,,,,,,,,,,,,,,0,18,18,18,,,,,,,,,,,,,,,,,,,,,,,,,,,,,,,,,,,,,,,,,,,,,,,,,,,,,,,,,,,,,,,,,,,,,,,,,1.9922839502493541,1.3181154999997489,530.3607851000002,None,ScrollUp,정답입니다,530.3607851000002,None,530.3607851000002,None,530.3607851000002,None,530.3607851000002,None,531.5568598000004,None,531.5568598000004,532.0684875000002,,,,,,,,,,,,,,,,201,2022-04-26_13h40.10.509,FishGame,2022.1.1,60.01990259971459,
,20,넌 의심없어,3,Orange,A,4.166666666666667,4.6,ScrollDown,ScrollUp,Orange.png,4,Neutral,Neutral,0,0,0,0,,,,,,,,,,,,,,,,,,,,,,,,,0,19,19,19,,,,,,,,,,,,,,,,,,,,,,,,,,,,,,,,,,,,,,,,,,,,,,,,,,,,,,,,,,,,,,,,,,,,,,,,,1.256172845760981,1.0376028000000588,532.7308502000001,None,ScrollDown,정답입니다,532.7308502000001,None,532.7308502000001,None,532.7308502000001,None,532.7308502000001,None,533.6280867,None,533.6280867,534.1351748000002,,,,,,,,,,,,,,,,201,2022-04-26_13h40.10.509,FishGame,2022.1.1,60.01990259971459,
,21,넌 시시해,4,Orange,A,2.666666666666667,2.966666666666667,ScrollDown,ScrollUp,Orange.png,4,Negative,Incongruent,0,0,0,0,,,,,,,,,,,,,,,,,,,,,,,,,0,20,20,20,,,,,,,,,,,,,,,,,,,,,,,,,,,,,,,,,,,,,,,,,,,,,,,,,,,,,,,,,,,,,,,,,,,,,,,,,1,1.4590272000000368,534.7850117000003,None,ScrollDown,정답입니다,534.7850117000003,None,534.7850117000003,None,534.7850117000003,None,534.7850117000003,None,536.1181542000004,None,536.1181542000004,536.6178872,,,,,,,,,,,,,,,,201,2022-04-26_13h40.10.509,FishGame,2022.1.1,60.01990259971459,
,22,나를 데려가줘,6,Green,B,0,0,ScrollDown,ScrollUp,Green.png,4,NonTarget,NonTarget,0,0,0,0,,,,,,,,,,,,,,,,,,,,,,,,,0,21,21,21,,,,,,,,,,,,,,,,,,,,,,,,,,,,,,,,,,,,,,,,,,,,,,,,,,,,,,,,,,,,,,,,,,,,,,,,,1.0478395124276478,1.1445658000002368,537.2625014,None,ScrollDown,정답입니다,537.2625014,None,537.2625014,None,537.2625014,None,537.2625014,None,538.2842959000004,None,538.2842959000004,538.7843653000004,,,,,,,,,,,,,,,,201,2022-04-26_13h40.10.509,FishGame,2022.1.1,60.01990259971459,
,23,넌 무정해,5,Orange,A,2.5,2.2,ScrollDown,ScrollUp,Orange.png,4,Negative,Incongruent,0,0,0,0,,,,,,,,,,,,,,,,,,,,,,,,,0,22,22,22,,,,,,,,,,,,,,,,,,,,,,,,,,,,,,,,,,,,,,,,,,,,,,,,,,,,,,,,,,,,,,,,,,,,,,,,,1.0679012437661488,1.0010010999999395,539.4406654000004,None,ScrollDown,정답입니다,539.4406654000004,None,539.4406654000004,None,539.4406654000004,None,539.4406654000004,None,540.3077513000003,None,540.3077513000003,540.8174336000002,,,,,,,,,,,,,,,,201,2022-04-26_13h40.10.509,FishGame,2022.1.1,60.01990259971459,
,24,넌 긍정적이야,1,Green,B,6.041666666666667,6.066666666666666,ScrollUp,ScrollDown,Green.png,4,Positive,Incongruent,0,0,0,0,,,,,,,,,,,,,,,,,,,,,,,,,0,23,23,23,,,,,,,,,,,,,,,,,,,,,,,,,,,,,,,,,,,,,,,,,,,,,,,,,,,,,,,,,,,,,,,,,,,,,,,,,1.7947530895471573,1.0237220000003617,541.4677939000003,None,ScrollUp,정답입니다,541.4677939000003,None,541.4677939000003,None,541.4677939000003,None,541.4677939000003,None,542.3671642000004,None,542.3671642000004,542.8672128000003,,,,,,,,,,,,,,,,201,2022-04-26_13h40.10.509,FishGame,2022.1.1,60.01990259971459,
,25,나를 보내줘,6,Orange,A,0,0,ScrollUp,ScrollDown,Orange.png,4,NonTarget,NonTarget,0,0,0,0,,,,,,,,,,,,,,,,,,,,,,,,,0,24,24,24,,,,,,,,,,,,,,,,,,,,,,,,,,,,,,,,,,,,,,,,,,,,,,,,,,,,,,,,,,,,,,,,,,,,,,,,,1.7006172885497413,1.0511427999999796,543.5156265,None,ScrollUp,정답입니다,543.5156265,None,543.5156265,None,543.5156265,None,543.5156265,None,544.4409487000003,None,544.4409487000003,544.9502593000002,,,,,,,,,,,,,,,,201,2022-04-26_13h40.10.509,FishGame,2022.1.1,60.01990259971459,
,26,넌 시기심이 많아,5,Green,B,2.458333333333333,2.233333333333333,ScrollUp,ScrollDown,Green.png,4,Negative,Congruent,0,0,0,0,,,,,,,,,,,,,,,,,,,,,,,,,0,25,25,25,,,,,,,,,,,,,,,,,,,,,,,,,,,,,,,,,,,,,,,,,,,,,,,,,,,,,,,,,,,,,,,,,,,,,,,,,1.7314814925193787,0.9922732999998516,545.6089807000003,None,ScrollUp,정답입니다,545.6089807000003,None,545.6089807000003,None,545.6089807000003,None,545.6089807000003,None,546.4614045000003,None,546.4614045000003,546.9665541000004,,,,,,,,,,,,,,,,201,2022-04-26_13h40.10.509,FishGame,2022.1.1,60.01990259971459,
,27,넌 탁월해,2,Orange,A,5.708333333333334,4.5,ScrollDown,ScrollUp,Orange.png,4,Positive,Congruent,0,0,0,0,,,,,,,,,,,,,,,,,,,,,,,,,0,26,26,26,,,,,,,,,,,,,,,,,,,,,,,,,,,,,,,,,,,,,,,,,,,,,,,,,,,,,,,,,,,,,,,,,,,,,,,,,1.126543199022611,0.9440742000001592,547.6229503000004,None,ScrollDown,정답입니다,547.6229503000004,None,547.6229503000004,None,547.6229503000004,None,547.6229503000004,None,548.4333721000003,None,548.4333721000003,548.9329939000004,,,,,,,,,,,,,,,,201,2022-04-26_13h40.10.509,FishGame,2022.1.1,60.01990259971459,
,28,나를 데려가줘,6,Green,B,0,0,ScrollDown,ScrollUp,Green.png,4,NonTarget,NonTarget,0,0,0,0,,,,,,,,,,,,,,,,,,,,,,,,,0,27,27,27,,,,,,,,,,,,,,,,,,,,,,,,,,,,,,,,,,,,,,,,,,,,,,,,,,,,,,,,,,,,,,,,,,,,,,,,,1.0092592636744182,1.1548284000000422,549.5834716000004,None,ScrollDown,정답입니다,549.5834716000004,None,549.5834716000004,None,549.5834716000004,None,549.5834716000004,None,550.6162960000001,None,550.6162960000001,551.1160835000001,,,,,,,,,,,,,,,,201,2022-04-26_13h40.10.509,FishGame,2022.1.1,60.01990259971459,
,29,넌 조용해,3,Green,B,4.333333333333333,4.166666666666667,ScrollUp,ScrollDown,Green.png,4,Neutral,Neutral,0,0,0,0,,,,,,,,,,,,,,,,,,,,,,,,,0,28,28,28,,,,,,,,,,,,,,,,,,,,,,,,,,,,,,,,,,,,,,,,,,,,,,,,,,,,,,,,,,,,,,,,,,,,,,,,,1.7824074029922485,0.9767901999998685,551.7719988000003,None,ScrollUp,정답입니다,551.7719988000003,None,551.7719988000003,None,551.7719988000003,None,551.7719988000003,None,552.6115116000001,None,552.6115116000001,553.1157858000001,,,,,,,,,,,,,,,,201,2022-04-26_13h40.10.509,FishGame,2022.1.1,60.01990259971459,
,30,넌 다정해,1,Orange,A,5.833333333333334,5.7,ScrollDown,ScrollUp,Orange.png,4,Positive,Congruent,0,0,0,0,,,,,,,,,,,,,,,,,,,,,,,,,0,29,29,29,,,,,,,,,,,,,,,,,,,,,,,,,,,,,,,,,,,,,,,,,,,,,,,,,,,,,,,,,,,,,,,,,,,,,,,,,1.2793209801117578,0.9365065000001778,553.7713471000002,None,ScrollDown,정답입니다,553.7713471000002,None,553.7713471000002,None,553.7713471000002,None,553.7713471000002,None,554.5746677000002,None,554.5746677000002,555.0821899000002,,,,,,,,,,,,,,,,201,2022-04-26_13h40.10.509,FishGame,2022.1.1,60.01990259971459,
,31,넌 능력있어,2,Green,B,6.166666666666666,4.6,ScrollUp,ScrollDown,Green.png,4,Positive,Incongruent,0,0,0,0,,,,,,,,,,,,,,,,,,,,,,,,,0,30,30,30,,,,,,,,,,,,,,,,,,,,,,,,,,,,,,,,,,,,,,,,,,,,,,,,,,,,,,,,,,,,,,,,,,,,,,,,,1.7978395173947017,1.0279771999998957,555.7305815000004,None,ScrollUp,정답입니다,555.7305815000004,None,555.7305815000004,None,555.7305815000004,None,555.7305815000004,None,556.6345343000003,None,556.6345343000003,557.1485906000003,,,,,,,,,,,,,,,,201,2022-04-26_13h40.10.509,FishGame,2022.1.1,60.01990259971459,
,32,넌 불쾌해,5,Orange,A,2.125,1.933333333333333,ScrollDown,ScrollUp,Orange.png,4,Negative,Incongruent,0,0,0,0,,,,,,,,,,,,,,,,,,,,,,,,,0,31,31,31,,,,,,,,,,,,,,,,,,,,,,,,,,,,,,,,,,,,,,,,,,,,,,,,,,,,,,,,,,,,,,,,,,,,,,,,,1.1836419651905696,0.9428954999998496,557.7980906000003,None,ScrollDown,정답입니다,557.7980906000003,None,557.7980906000003,None,557.7980906000003,None,557.7980906000003,None,558.6096091000004,None,558.6096091000004,559.1150864000001,,,,,,,,,,,,,,,,201,2022-04-26_13h40.10.509,FishGame,2022.1.1,60.01990259971459,
,33,나를 데려가줘,6,Green,B,0,0,ScrollDown,ScrollUp,Green.png,4,NonTarget,NonTarget,0,0,0,0,,,,,,,,,,,,,,,,,,,,,,,,,0,32,32,32,,,,,,,,,,,,,,,,,,,,,,,,,,,,,,,,,,,,,,,,,,,,,,,,,,,,,,,,,,,,,,,,,,,,,,,,,1.2608024626970291,1.0802436999997553,559.7593003000002,None,ScrollDown,정답입니다,559.7593003000002,None,559.7593003000002,None,559.7593003000002,None,559.7593003000002,None,560.7177061000002,None,560.7177061000002,561.2314009000002,,,,,,,,,,,,,,,,201,2022-04-26_13h40.10.509,FishGame,2022.1.1,60.01990259971459,
,34,넌 유순해,3,Orange,A,4.458333333333333,5,ScrollDown,ScrollUp,Orange.png,4,Neutral,Neutral,0,0,0,0,,,,,,,,,,,,,,,,,,,,,,,,,0,33,33,33,,,,,,,,,,,,,,,,,,,,,,,,,,,,,,,,,,,,,,,,,,,,,,,,,,,,,,,,,,,,,,,,,,,,,,,,,1.0709876716136932,1.0663832000000184,561.8841581000001,None,ScrollDown,정답입니다,561.8841581000001,None,561.8841581000001,None,561.8841581000001,None,561.8841581000001,None,562.8209231000001,None,562.8209231000001,563.3311599000003,,,,,,,,,,,,,,,,201,2022-04-26_13h40.10.509,FishGame,2022.1.1,60.01990259971459,
,35,넌 근심스러워,4,Green,B,2.708333333333333,3.133333333333333,ScrollUp,ScrollDown,Green.png,4,Negative,Congruent,0,0,0,0,,,,,,,,,,,,,,,,,,,,,,,,,0,34,34,34,,,,,,,,,,,,,,,,,,,,,,,,,,,,,,,,,,,,,,,,,,,,,,,,,,,,,,,,,,,,,,,,,,,,,,,,,1.7345678955316544,0.9890940000000228,563.9836819000002,None,ScrollUp,정답입니다,563.9836819000002,None,563.9836819000002,None,563.9836819000002,None,563.9836819000002,None,564.8480276,None,564.8480276,565.3476067000001,,,,,,,,,,,,,,,,201,2022-04-26_13h40.10.509,FishGame,2022.1.1,60.01990259971459,
,36,넌 세련되었어,2,Orange,A,5.5,4.6,ScrollDown,ScrollUp,Orange.png,4,Positive,Congruent,0,0,0,0,,,,,,,,,,,,,,,,,,,,,,,,,0,35,35,35,,,,,,,,,,,,,,,,,,,,,,,,,,,,,,,,,,,,,,,,,,,,,,,,,,,,,,,,,,,,,,,,,,,,,,,,,1.2685185074806213,1.0100453000000016,566.0161022000002,None,ScrollDown,정답입니다,566.0161022000002,None,566.0161022000002,None,566.0161022000002,None,566.0161022000002,None,566.8765398,None,566.8765398,567.3806065000003,,,,,,,,,,,,,,,,201,2022-04-26_13h40.10.509,FishGame,2022.1.1,60.01990259971459,
,37,나를 보내줘,6,Orange,A,0,0,ScrollUp,ScrollDown,Orange.png,4,NonTarget,NonTarget,0,0,0,0,,,,,,,,,,,,,,,,,,,,,,,,,0,36,36,36,,,,,,,,,,,,,,,,,,,,,,,,,,,,,,,,,,,,,,,,,,,,,,,,,,,,,,,,,,,,,,,,,,,,,,,,,1.7608024577299755,1.0895011000002341,568.0292069000002,None,ScrollUp,정답입니다,568.0292069000002,None,568.0292069000002,None,568.0292069000002,None,568.0292069000002,None,568.9910259000003,None,568.9910259000003,569.4970755000004,,,,,,,,,,,,,,,,201,2022-04-26_13h40.10.509,FishGame,2022.1.1,60.01990259971459,
,38,넌 확고해,3,Green,B,4.708333333333334,4.566666666666666,ScrollUp,ScrollDown,Green.png,4,Neutral,Neutral,0,0,0,0,,,,,,,,,,,,,,,,,,,,,,,,,0,37,37,37,,,,,,,,,,,,,,,,,,,,,,,,,,,,,,,,,,,,,,,,,,,,,,,,,,,,,,,,,,,,,,,,,,,,,,,,,1.7530864129463832,0.9811804999999367,570.1520476000001,None,ScrollUp,정답입니다,570.1520476000001,None,570.1520476000001,None,570.1520476000001,None,570.1520476000001,None,571.0015387000003,None,571.0015387000003,571.5135093000004,,,,,,,,,,,,,,,,201,2022-04-26_13h40.10.509,FishGame,2022.1.1,60.01990259971459,
,39,넌 이해심이 많아,1,Green,B,6.041666666666668,5.533333333333333,ScrollUp,ScrollDown,Green.png,4,Positive,Incongruent,0,0,0,0,,,,,,,,,,,,,,,,,,,,,,,,,0,38,38,38,,,,,,,,,,,,,,,,,,,,,,,,,,,,,,,,,,,,,,,,,,,,,,,,,,,,,,,,,,,,,,,,,,,,,,,,,1.6820987711350122,0.9463118999997278,572.1642137000003,None,ScrollUp,정답입니다,572.1642137000003,None,572.1642137000003,None,572.1642137000003,None,572.1642137000003,None,572.9836298,None,572.9836298,573.4963440000001,,,,,,,,,,,,,,,,201,2022-04-26_13h40.10.509,FishGame,2022.1.1,60.01990259971459,
,40,나를 보내줘,6,Orange,A,0,0,ScrollUp,ScrollDown,Orange.png,4,NonTarget,NonTarget,0,0,0,0,,,,,,,,,,,,,,,,,,,,,,,,,0,39,39,39,,,,,,,,,,,,,,,,,,,,,,,,,,,,,,,,,,,,,,,,,,,,,,,,,,,,,,,,,,,,,,,,,,,,,,,,,1.7793209999799728,1.1504730999999992,574.1433915000002,None,ScrollUp,정답입니다,574.1433915000002,None,574.1433915000002,None,574.1433915000002,None,574.1433915000002,None,575.1689610000003,None,575.1689610000003,575.6794991000002,,,,,,,,,,,,,,,,201,2022-04-26_13h40.10.509,FishGame,2022.1.1,60.01990259971459,
,41,넌 거칠어,4,Orange,A,2.625,3.033333333333333,ScrollDown,ScrollUp,Orange.png,4,Negative,Incongruent,0,0,0,0,,,,,,,,,,,,,,,,,,,,,,,,,0,40,40,40,,,,,,,,,,,,,,,,,,,,,,,,,,,,,,,,,,,,,,,,,,,,,,,,,,,,,,,,,,,,,,,,,,,,,,,,,1.2206790000200272,1.0200012999998762,576.3344238000004,None,ScrollDown,정답입니다,576.3344238000004,None,576.3344238000004,None,576.3344238000004,None,576.3344238000004,None,577.2208573000003,None,577.2208573000003,577.7292712000003,,,,,,,,,,,,,,,,201,2022-04-26_13h40.10.509,FishGame,2022.1.1,60.01990259971459,
,42,넌 변덕맞아,5,Green,B,2.75,2.166666666666667,ScrollUp,ScrollDown,Green.png,4,Negative,Congruent,0,0,0,0,,,,,,,,,,,,,,,,,,,,,,,,,0,41,41,41,,,,,,,,,,,,,,,,,,,,,,,,,,,,,,,,,,,,,,,,,,,,,,,,,,,,,,,,,,,,,,,,,,,,,,,,,1.7361111094554267,1.083495800000037,578.3878773000001,None,ScrollUp,정답입니다,578.3878773000001,None,578.3878773000001,None,578.3878773000001,None,578.3878773000001,None,579.3358333000001,None,579.3358333000001,579.8456540000002,,,,,,,,,,,,,,,,201,2022-04-26_13h40.10.509,FishGame,2022.1.1,60.01990259971459,
,43,나를 데려가줘,6,Green,B,0,0,ScrollDown,ScrollUp,Green.png,4,NonTarget,NonTarget,0,0,0,0,,,,,,,,,,,,,,,,,,,,,,,,,0,42,42,42,,,,,,,,,,,,,,,,,,,,,,,,,,,,,,,,,,,,,,,,,,,,,,,,,,,,,,,,,,,,,,,,,,,,,,,,,1.200617293516795,1.1595482000002448,580.4904745000003,None,ScrollDown,정답입니다,580.4904745000003,None,580.4904745000003,None,580.4904745000003,None,580.4904745000003,None,581.5239733000003,None,581.5239733000003,582.0286771000001,,,,,,,,,,,,,,,,201,2022-04-26_13h40.10.509,FishGame,2022.1.1,60.01990259971459,
,44,넌 외로워,4,Green,B,2.833333333333333,3.3,ScrollUp,ScrollDown,Green.png,4,Negative,Congruent,0,0,0,0,,,,,,,,,,,,,,,,,,,,,,,,,0,43,43,43,,,,,,,,,,,,,,,,,,,,,,,,,,,,,,,,,,,,,,,,,,,,,,,,,,,,,,,,,,,,,,,,,,,,,,,,,1.8626543283462524,1.2828514999996514,582.6815214000003,None,ScrollUp,정답입니다,582.6815214000003,None,582.6815214000003,None,582.6815214000003,None,582.6815214000003,None,583.8339768000001,None,583.8339768000001,584.3451076000001,,,,,,,,,,,,,,,,201,2022-04-26_13h40.10.509,FishGame,2022.1.1,60.01990259971459,
,1,넌 불평스러워,5,Orange,A,2.25,2.066666666666667,ScrollDown,ScrollUp,Orange.png,5,Negative,Incongruent,0,0,0,0,,,,,,,,,,,,,,,,,,,,,,,,,,,,,0,0,0,0,,,,,,,,,,,,,,,,,,,,,,,,,,,,616.2747625000002,617.7741425000004,617.8075424000003,618.7573721000003,618.8073582000002,619.7572521000002,619.7572521000002,None,,,,,,,,,,,,,,,,,,,,,,,,,,,,,,,,,,1.2885802388191223,1.1170314999999391,620.9520180000004,None,ScrollDown,정답입니다,620.9520180000004,None,620.9520180000004,None,620.9520180000004,None,620.9520180000004,None,621.8853161000002,None,621.8853161000002,622.3901225000004,584.8450487,None,584.8450487,None,0.14814815,-0.17685185,1,0,0,0.016221069999573956,None,614.8410833000003,None,,,201,2022-04-26_13h40.10.509,FishGame,2022.1.1,60.01990259971459,
,2,나를 보내줘,6,Orange,A,0,0,ScrollUp,ScrollDown,Orange.png,5,NonTarget,NonTarget,0,0,0,0,,,,,,,,,,,,,,,,,,,,,,,,,,,,,0,1,1,1,,,,,,,,,,,,,,,,,,,,,,,,,,,,,,,,,,,,,,,,,,,,,,,,,,,,,,,,,,,,,,,,,,,,,1.837962955236435,1.056578300000183,623.0592364000004,None,ScrollUp,정답입니다,623.0592364000004,None,623.0592364000004,None,623.0592364000004,None,623.0592364000004,None,623.9734675000004,None,623.9734675000004,624.4732950000002,,,,,,,,,,,,,,,,201,2022-04-26_13h40.10.509,FishGame,2022.1.1,60.01990259971459,
,3,넌 다재다능해,2,Green,B,6.208333333333333,4.5,ScrollUp,ScrollDown,Green.png,5,Positive,Incongruent,0,0,0,0,,,,,,,,,,,,,,,,,,,,,,,,,,,,,0,2,2,2,,,,,,,,,,,,,,,,,,,,,,,,,,,,,,,,,,,,,,,,,,,,,,,,,,,,,,,,,,,,,,,,,,,,,1.8364197413126628,1.0739493000000948,625.1226973000003,None,ScrollUp,정답입니다,625.1226973000003,None,625.1226973000003,None,625.1226973000003,None,625.1226973000003,None,626.0732415000002,None,626.0732415000002,626.5729930000002,,,,,,,,,,,,,,,,201,2022-04-26_13h40.10.509,FishGame,2022.1.1,60.01990259971459,
,4,넌 과감해,3,Orange,A,4.833333333333334,4.6,ScrollDown,ScrollUp,Orange.png,5,Neutral,Neutral,0,0,0,0,,,,,,,,,,,,,,,,,,,,,,,,,,,,,0,3,3,3,,,,,,,,,,,,,,,,,,,,,,,,,,,,,,,,,,,,,,,,,,,,,,,,,,,,,,,,,,,,,,,,,,,,,1.2546296318372092,1.0277549000002182,627.2229570000004,None,ScrollDown,정답입니다,627.2229570000004,None,627.2229570000004,None,627.2229570000004,None,627.2229570000004,None,628.1231908000004,None,628.1231908000004,628.6226042000003,,,,,,,,,,,,,,,,201,2022-04-26_13h40.10.509,FishGame,2022.1.1,60.01990259971459,
,5,넌 고분고분해,3,Green,B,3.75,4.033333333333333,ScrollUp,ScrollDown,Green.png,5,Neutral,Neutral,0,0,0,0,,,,,,,,,,,,,,,,,,,,,,,,,,,,,0,4,4,4,,,,,,,,,,,,,,,,,,,,,,,,,,,,,,,,,,,,,,,,,,,,,,,,,,,,,,,,,,,,,,,,,,,,,1.919753094514211,1.0277733000002627,629.2756232000002,None,ScrollUp,정답입니다,629.2756232000002,None,629.2756232000002,None,629.2756232000002,None,629.2756232000002,None,630.1733854000004,None,630.1733854000004,630.6891076000002,,,,,,,,,,,,,,,,201,2022-04-26_13h40.10.509,FishGame,2022.1.1,60.01990259971459,
,6,나를 보내줘,6,Orange,A,0,0,ScrollUp,ScrollDown,Orange.png,5,NonTarget,NonTarget,0,0,0,0,,,,,,,,,,,,,,,,,,,,,,,,,,,,,0,5,5,5,,,,,,,,,,,,,,,,,,,,,,,,,,,,,,,,,,,,,,,,,,,,,,,,,,,,,,,,,,,,,,,,,,,,,1.9645061492919922,1.1642311999999038,631.3279154000002,None,ScrollUp,정답입니다,631.3279154000002,None,631.3279154000002,None,631.3279154000002,None,631.3279154000002,None,632.3591983000001,None,632.3591983000001,632.8721950000004,,,,,,,,,,,,,,,,201,2022-04-26_13h40.10.509,FishGame,2022.1.1,60.01990259971459,
,7,넌 잘 잊어,4,Orange,A,3,3.7,ScrollDown,ScrollUp,Orange.png,5,Negative,Incongruent,0,0,0,0,,,,,,,,,,,,,,,,,,,,,,,,,,,,,0,6,6,6,,,,,,,,,,,,,,,,,,,,,,,,,,,,,,,,,,,,,,,,,,,,,,,,,,,,,,,,,,,,,,,,,,,,,1.1589506169160206,1.0789631000002373,633.5310420000001,None,ScrollDown,정답입니다,633.5310420000001,None,633.5310420000001,None,633.5310420000001,None,633.5310420000001,None,634.4753595000002,None,634.4753595000002,634.9884863000002,,,,,,,,,,,,,,,,201,2022-04-26_13h40.10.509,FishGame,2022.1.1,60.01990259971459,
,8,넌 탐구심이없어,4,Green,B,2.833333333333333,3.066666666666667,ScrollUp,ScrollDown,Green.png,5,Negative,Congruent,0,0,0,0,,,,,,,,,,,,,,,,,,,,,,,,,,,,,0,7,7,7,,,,,,,,,,,,,,,,,,,,,,,,,,,,,,,,,,,,,,,,,,,,,,,,,,,,,,,,,,,,,,,,,,,,,1.8317901243766148,1.0026727999998002,635.6398159,None,ScrollUp,정답입니다,635.6398159,None,635.6398159,None,635.6398159,None,635.6398159,None,636.5130368,None,636.5130368,637.0216288000001,,,,,,,,,,,,,,,,201,2022-04-26_13h40.10.509,FishGame,2022.1.1,60.01990259971459,
,9,나를 데려가줘,6,Green,B,0,0,ScrollDown,ScrollUp,Green.png,5,NonTarget,NonTarget,0,0,0,0,,,,,,,,,,,,,,,,,,,,,,,,,,,,,0,8,8,8,,,,,,,,,,,,,,,,,,,,,,,,,,,,,,,,,,,,,,,,,,,,,,,,,,,,,,,,,,,,,,,,,,,,,1.1836419651905696,1.1150414999997338,637.6730309000004,None,ScrollDown,정답입니다,637.6730309000004,None,637.6730309000004,None,637.6730309000004,None,637.6730309000004,None,638.6587136000003,None,638.6587136000003,639.1715216000002,,,,,,,,,,,,,,,,201,2022-04-26_13h40.10.509,FishGame,2022.1.1,60.01990259971459,
,10,넌 참되어,2,Orange,A,6.041666666666664,4.733333333333333,ScrollDown,ScrollUp,Orange.png,5,Positive,Congruent,0,0,0,0,,,,,,,,,,,,,,,,,,,,,,,,,,,,,0,9,9,9,,,,,,,,,,,,,,,,,,,,,,,,,,,,,,,,,,,,,,,,,,,,,,,,,,,,,,,,,,,,,,,,,,,,,1.1666666616996129,1.074913800000104,639.8263794000004,None,ScrollDown,정답입니다,639.8263794000004,None,639.8263794000004,None,639.8263794000004,None,639.8263794000004,None,640.7711577,None,640.7711577,641.2710358000004,,,,,,,,,,,,,,,,201,2022-04-26_13h40.10.509,FishGame,2022.1.1,60.01990259971459,
,11,넌 생기있어,1,Green,B,5.875,5.633333333333334,ScrollUp,ScrollDown,Green.png,5,Positive,Incongruent,0,0,0,0,,,,,,,,,,,,,,,,,,,,,,,,,,,,,0,10,10,10,,,,,,,,,,,,,,,,,,,,,,,,,,,,,,,,,,,,,,,,,,,,,,,,,,,,,,,,,,,,,,,,,,,,,1.67746914178133,1.0000372999998035,641.9264845000002,None,ScrollUp,정답입니다,641.9264845000002,None,641.9264845000002,None,641.9264845000002,None,641.9264845000002,None,642.7935824000001,None,642.7935824000001,643.3042132,,,,,,,,,,,,,,,,201,2022-04-26_13h40.10.509,FishGame,2022.1.1,60.01990259971459,
,12,넌 비사교적이야,4,Green,B,2.875,2.9,ScrollUp,ScrollDown,Green.png,5,Negative,Congruent,0,0,0,0,,,,,,,,,,,,,,,,,,,,,,,,,,,,,0,11,11,11,,,,,,,,,,,,,,,,,,,,,,,,,,,,,,,,,,,,,,,,,,,,,,,,,,,,,,,,,,,,,,,,,,,,,1.743827154239019,0.9429420000001301,643.9491085000004,None,ScrollUp,정답입니다,643.9491085000004,None,643.9491085000004,None,643.9491085000004,None,643.9491085000004,None,644.7704351000002,None,644.7704351000002,645.2704907000002,,,,,,,,,,,,,,,,201,2022-04-26_13h40.10.509,FishGame,2022.1.1,60.01990259971459,
,13,나를 데려가줘,6,Green,B,0,0,ScrollDown,ScrollUp,Green.png,5,NonTarget,NonTarget,0,0,0,0,,,,,,,,,,,,,,,,,,,,,,,,,,,,,0,12,12,12,,,,,,,,,,,,,,,,,,,,,,,,,,,,,,,,,,,,,,,,,,,,,,,,,,,,,,,,,,,,,,,,,,,,,1.2438271592060726,1.1097927999999229,645.9178323000001,None,ScrollDown,정답입니다,645.9178323000001,None,645.9178323000001,None,645.9178323000001,None,645.9178323000001,None,646.9000343000002,None,646.9000343000002,647.4034955000002,,,,,,,,,,,,,,,,201,2022-04-26_13h40.10.509,FishGame,2022.1.1,60.01990259971459,
,14,넌 고독해,4,Orange,A,2.916666666666667,3.233333333333333,ScrollDown,ScrollUp,Orange.png,5,Negative,Incongruent,0,0,0,0,,,,,,,,,,,,,,,,,,,,,,,,,,,,,0,13,13,13,,,,,,,,,,,,,,,,,,,,,,,,,,,,,,,,,,,,,,,,,,,,,,,,,,,,,,,,,,,,,,,,,,,,,1.3780864228804905,0.9681241000002956,648.0572833000001,None,ScrollDown,정답입니다,648.0572833000001,None,648.0572833000001,None,648.0572833000001,None,648.0572833000001,None,648.8948354000004,None,648.8948354000004,649.4033394000003,,,,,,,,,,,,,,,,201,2022-04-26_13h40.10.509,FishGame,2022.1.1,60.01990259971459,
,15,넌 신경질적이야,5,Green,B,2.375,2.233333333333333,ScrollUp,ScrollDown,Green.png,5,Negative,Congruent,0,0,0,0,,,,,,,,,,,,,,,,,,,,,,,,,,,,,0,14,14,14,,,,,,,,,,,,,,,,,,,,,,,,,,,,,,,,,,,,,,,,,,,,,,,,,,,,,,,,,,,,,,,,,,,,,1.7777777860562007,0.9743954000000485,650.0537337000001,None,ScrollUp,정답입니다,650.0537337000001,None,650.0537337000001,None,650.0537337000001,None,650.0537337000001,None,650.9034175000002,None,650.9034175000002,651.4030901000001,,,,,,,,,,,,,,,,201,2022-04-26_13h40.10.509,FishGame,2022.1.1,60.01990259971459,
,16,넌 똑똑해,2,Green,B,5.666666666666667,3.966666666666667,ScrollUp,ScrollDown,Green.png,5,Positive,Incongruent,0,0,0,0,,,,,,,,,,,,,,,,,,,,,,,,,,,,,0,15,15,15,,,,,,,,,,,,,,,,,,,,,,,,,,,,,,,,,,,,,,,,,,,,,,,,,,,,,,,,,,,,,,,,,,,,,1.6080246890584626,1.0020452000003388,652.0467535000002,None,ScrollUp,정답입니다,652.0467535000002,None,652.0467535000002,None,652.0467535000002,None,652.0467535000002,None,652.9277331000003,None,652.9277331000003,653.4360159000003,,,,,,,,,,,,,,,,201,2022-04-26_13h40.10.509,FishGame,2022.1.1,60.01990259971459,
,17,나를 보내줘,6,Orange,A,0,0,ScrollUp,ScrollDown,Orange.png,5,NonTarget,NonTarget,0,0,0,0,,,,,,,,,,,,,,,,,,,,,,,,,,,,,0,16,16,16,,,,,,,,,,,,,,,,,,,,,,,,,,,,,,,,,,,,,,,,,,,,,,,,,,,,,,,,,,,,,,,,,,,,,2,1.3083802999999534,654.0932491000003,None,ScrollUp,정답입니다,654.0932491000003,None,654.0932491000003,None,654.0932491000003,None,654.0932491000003,None,655.2693339000002,None,655.2693339000002,655.7691925000004,,,,,,,,,,,,,,,,201,2022-04-26_13h40.10.509,FishGame,2022.1.1,60.01990259971459,
,18,넌 협조적이야,1,Orange,A,5.625,5.666666666666667,ScrollDown,ScrollUp,Orange.png,5,Positive,Congruent,0,0,0,0,,,,,,,,,,,,,,,,,,,,,,,,,,,,,0,17,17,17,,,,,,,,,,,,,,,,,,,,,,,,,,,,,,,,,,,,,,,,,,,,,,,,,,,,,,,,,,,,,,,,,,,,,1.325617286066214,1.0680787000001146,656.4214896000003,None,ScrollDown,정답입니다,656.4214896000003,None,656.4214896000003,None,656.4214896000003,None,656.4214896000003,None,657.3591846000004,None,657.3591846000004,657.8689266000001,,,,,,,,,,,,,,,,201,2022-04-26_13h40.10.509,FishGame,2022.1.1,60.01990259971459,
,19,나를 데려가줘,6,Green,B,0,0,ScrollDown,ScrollUp,Green.png,5,NonTarget,NonTarget,0,0,0,0,,,,,,,,,,,,,,,,,,,,,,,,,,,,,0,18,18,18,,,,,,,,,,,,,,,,,,,,,,,,,,,,,,,,,,,,,,,,,,,,,,,,,,,,,,,,,,,,,,,,,,,,,1.3271604999899864,1.1016343000001143,658.5341249000003,None,ScrollDown,정답입니다,658.5341249000003,None,658.5341249000003,None,658.5341249000003,None,658.5341249000003,None,659.4934209000003,None,659.4934209000003,660.0019452000001,,,,,,,,,,,,,,,,201,2022-04-26_13h40.10.509,FishGame,2022.1.1,60.01990259971459,
,20,넌 몰인정해,5,Green,B,2.541666666666667,2.066666666666667,ScrollUp,ScrollDown,Green.png,5,Negative,Congruent,0,0,0,0,,,,,,,,,,,,,,,,,,,,,,,,,,,,,0,19,19,19,,,,,,,,,,,,,,,,,,,,,,,,,,,,,,,,,,,,,,,,,,,,,,,,,,,,,,,,,,,,,,,,,,,,,1.6512345671653748,1.1065989999997328,660.6538962000004,None,ScrollUp,정답입니다,660.6538962000004,None,660.6538962000004,None,660.6538962000004,None,660.6538962000004,None,661.6289924000002,None,661.6289924000002,662.1350265000001,,,,,,,,,,,,,,,,201,2022-04-26_13h40.10.509,FishGame,2022.1.1,60.01990259971459,
,21,나를 데려가줘,6,Green,B,0,0,ScrollDown,ScrollUp,Green.png,5,NonTarget,NonTarget,0,0,0,0,,,,,,,,,,,,,,,,,,,,,,,,,,,,,0,20,20,20,,,,,,,,,,,,,,,,,,,,,,,,,,,,,,,,,,,,,,,,,,,,,,,,,,,,,,,,,,,,,,,,,,,,,1.1388888855775197,1.1238674999999603,662.7797595000002,None,ScrollDown,정답입니다,662.7797595000002,None,662.7797595000002,None,662.7797595000002,None,662.7797595000002,None,663.7848739000001,None,663.7848739000001,664.2847498000001,,,,,,,,,,,,,,,,201,2022-04-26_13h40.10.509,FishGame,2022.1.1,60.01990259971459,
,22,넌 순진해,3,Green,B,4.125,4.166666666666667,ScrollUp,ScrollDown,Green.png,5,Neutral,Neutral,0,0,0,0,,,,,,,,,,,,,,,,,,,,,,,,,,,,,0,21,21,21,,,,,,,,,,,,,,,,,,,,,,,,,,,,,,,,,,,,,,,,,,,,,,,,,,,,,,,,,,,,,,,,,,,,,1.7932098756233852,0.9676685999997972,664.9273453000001,None,ScrollUp,정답입니다,664.9273453000001,None,664.9273453000001,None,664.9273453000001,None,664.9273453000001,None,665.7747342000002,None,665.7747342000002,666.2846302000003,,,,,,,,,,,,,,,,201,2022-04-26_13h40.10.509,FishGame,2022.1.1,60.01990259971459,
