name,TrialNum,Word,WordCategory,FishType,WordList,WordValence,WordReputation,CorrectResp,IncorrectResp,FishTypeFile,Round,WordType,Condition,LoopforOrange.thisRepN,LoopforOrange.thisTrialN,LoopforOrange.thisN,LoopforOrange.thisIndex,LoopForGreen.thisRepN,LoopForGreen.thisTrialN,LoopForGreen.thisN,LoopForGreen.thisIndex,GreenInstLoop.thisRepN,GreenInstLoop.thisTrialN,GreenInstLoop.thisN,GreenInstLoop.thisIndex,GreenPrac.thisRepN,GreenPrac.thisTrialN,GreenPrac.thisN,GreenPrac.thisIndex,trials_2.thisRepN,trials_2.thisTrialN,trials_2.thisN,trials_2.thisIndex,GreenRound1.thisRepN,GreenRound1.thisTrialN,GreenRound1.thisN,GreenRound1.thisIndex,GreenRound2.thisRepN,GreenRound2.thisTrialN,GreenRound2.thisN,GreenRound2.thisIndex,GreenRound3.thisRepN,GreenRound3.thisTrialN,GreenRound3.thisN,GreenRound3.thisIndex,GreenRound4.thisRepN,GreenRound4.thisTrialN,GreenRound4.thisN,GreenRound4.thisIndex,GreenRound5.thisRepN,GreenRound5.thisTrialN,GreenRound5.thisN,GreenRound5.thisIndex,text_2.started,text_2.stopped,text_3.started,text_3.stopped,key_resp.keys,key_resp.rt,key_resp.started,key_resp.stopped,PassI.started,PassI.stopped,PassInst.keys,PassInst.rt,PassInst.started,PassInst.stopped,mouse_2.x,mouse_2.y,mouse_2.leftButton,mouse_2.midButton,mouse_2.rightButton,mouse_2.started,mouse_2.stopped,image.started,image.stopped,text_5.started,text_5.stopped,text_6.started,text_6.stopped,text_7.started,text_7.stopped,text_8.started,text_8.stopped,slider_3.response,slider_3.rt,slider_3.started,slider_3.stopped,Response_3,Feedback_3,BackGround_3.started,BackGround_3.stopped,Fish_3.started,Fish_3.stopped,WordBox_3.started,WordBox_3.stopped,Words_3.started,Words_3.stopped,BackGround_Feedback_3.started,BackGround_Feedback_3.stopped,Feedbacks_3.started,Feedbacks_3.stopped,Continue_or_not_2.keys,Continue_or_not_2.rt,Continue_or_not_2.started,Continue_or_not_2.stopped,image_4.started,image_4.stopped,mouse_3.x,mouse_3.y,mouse_3.leftButton,mouse_3.midButton,mouse_3.rightButton,mouse_3.started,mouse_3.stopped,startmain.started,startmain.stopped,slider_4.response,slider_4.rt,slider_4.started,slider_4.stopped,Response_4,Feedback_4,BackGround_4.started,BackGround_4.stopped,Fish_4.started,Fish_4.stopped,WordBox_4.started,WordBox_4.stopped,Words_4.started,Words_4.stopped,BackGround_Feedback_4.started,BackGround_Feedback_4.stopped,Feedbacks_4.started,Feedbacks_4.stopped,text.started,text.stopped,break_interval.started,break_interval.stopped,mouse.x,mouse.y,mouse.leftButton,mouse.midButton,mouse.rightButton,mouse.started,mouse.stopped,stratnextround.started,stratnextround.stopped,endgame.started,endgame.stopped,participant,date,expName,psychopyVersion,frameRate,
,,,,,,,,,,,,,,,,,,,,,,,,,,,,,,,,,,,,,,,,,,,,,,,,,,,,,,21.252067700001135,None,21.252067700001135,None,space,10.331720299998779,21.730490900001314,None,,,,,,,,,,,,,,,,,,,,,,,,,,,,,,,,,,,,,,,,,,,,,,,,,,,,,,,,,,,,,,,,,,,,,,,,,,,,,,,,,,,,,,,,,,202,2022-04-26_16h29.49.136,FishGame,2022.1.1,60.002148077322765,
물고기과제_instruction(참가자용)GreenVersion.mp4,,,,,,,,,,,,,,,,,,0,0,0,0,0,0,0,0,,,,,,,,,,,,,,,,,,,,,,,,,,,,,,,,,,,,,98.84421100000145,None,n,7.321303499998976,98.84421100000145,None,,,,,,,,,,,,,,,,,,,,,,,,,,,,,,,,,,,,,,,,,,,,,,,,,,,,,,,,,,,,,,,,,,,,,,,,,,,,,,,,,,,,202,2022-04-26_16h29.49.136,FishGame,2022.1.1,60.002148077322765,
,1,넌 교활해,5,Orange,B,2.333333333333333,2.133333333333333,ScrollUp,ScrollDown,Orange.png,practice,,,,,,,0,0,0,0,,,,,0,0,0,0,0,0,0,0,,,,,,,,,,,,,,,,,,,,,,,,,,,,,,,,,,,0.17222223,-0.22037037,1,0,0,0.5136197299998457,None,106.18622030000006,None,116.15184930000032,117.65128680000089,117.68461930000012,118.63457410000046,118.68467370000144,119.63454610000008,119.63454610000008,None,1.7145061641931534,1.3073303999990458,120.8259792000008,None,ScrollUp,정답입니다,120.8259792000008,None,120.8259792000008,None,120.8259792000008,None,120.8259792000008,None,121.95629720000034,None,121.95629720000034,122.46741750000001,,,,,,,,,,,,,,,,,,,,,,,,,,,,,,,,,,,,,,,,,,,,,,,,,202,2022-04-26_16h29.49.136,FishGame,2022.1.1,60.002148077322765,
,2,넌 슬기로워,2,Green,A,6.166666666666667,4.1,ScrollDown,ScrollUp,Green.png,practice,,,,,,,0,0,0,0,,,,,0,0,0,0,0,1,1,1,,,,,,,,,,,,,,,,,,,,,,,,,,,,,,,,,,,,,,,,,,,,,,,,,,,,1.0632716019948323,1.2761616999996477,123.12155560000065,None,ScrollDown,정답입니다,123.12155560000065,None,123.12155560000065,None,123.12155560000065,None,123.12155560000065,None,124.26700770000025,None,124.26700770000025,124.76700490000076,,,,,,,,,,,,,,,,,,,,,,,,,,,,,,,,,,,,,,,,,,,,,,,,,202,2022-04-26_16h29.49.136,FishGame,2022.1.1,60.002148077322765,
,3,나를 보내줘,6,Green,A,0,0,ScrollUp,ScrollDown,Green.png,practice,,,,,,,0,0,0,0,,,,,0,0,0,0,0,2,2,2,,,,,,,,,,,,,,,,,,,,,,,,,,,,,,,,,,,,,,,,,,,,,,,,,,,,1.4722222207734983,1.197413100000631,125.41377199999988,None,NoResponse,무응답입니다,125.41377199999988,None,125.41377199999988,None,125.41377199999988,None,125.41377199999988,None,126.49155930000052,None,126.49155930000052,126.9999753000011,,,,,,,,,,,,,,,,,,,,,,,,,,,,,,,,,,,,,,,,,,,,,,,,,202,2022-04-26_16h29.49.136,FishGame,2022.1.1,60.002148077322765,
,4,나를 데려가줘,6,Orange,B,0,0,ScrollDown,ScrollUp,Orange.png,practice,,,,,,,0,0,0,0,,,,,0,0,0,0,0,3,3,3,,,,,,,,,,,,,,,,,,,,,,,,,,,,,,,,,,,,,,,,,,,,,,,,,,,,1.1280864129463832,1.4359518000001117,127.64998999999989,None,ScrollDown,정답입니다,127.64998999999989,None,127.64998999999989,None,127.64998999999989,None,127.64998999999989,None,128.95806540000012,None,128.95806540000012,129.46648890000142,,,,,,,,,,,,,,,,,,,,,,,,,,,,,,,,,,,,,,,,,,,,,,,,,202,2022-04-26_16h29.49.136,FishGame,2022.1.1,60.002148077322765,
,1,넌 교활해,5,Orange,B,2.333333333333333,2.133333333333333,ScrollUp,ScrollDown,Orange.png,practice,,,,,,,0,0,0,0,,,,,0,0,0,0,,,,,,,,,,,,,,,,,,,,,,,,,,,,,,,,,,,,,,,,,,,,,,,,,,,,,,,,,,,,,,,,,,,,,,,,,,y,7.915960199998153,129.9664896000013,None,129.9664896000013,None,,,,,,,,,,,,,,,,,,,,,,,,,,,,,,,,,,,,,,,,,,,202,2022-04-26_16h29.49.136,FishGame,2022.1.1,60.002148077322765,
,1,넌 교활해,5,Orange,B,2.333333333333333,2.133333333333333,ScrollUp,ScrollDown,Orange.png,practice,,,,,,,0,0,0,0,,,,,0,1,1,1,0,0,0,0,,,,,,,,,,,,,,,,,,,,,,,,,,,,,,,,,,,,,,,,,,,,,,,,,,,,1.746913582086563,1.6713445999994292,138.11928960000114,None,ScrollUp,정답입니다,138.11928960000114,None,138.11928960000114,None,138.11928960000114,None,138.11928960000114,None,139.61878419999994,None,139.61878419999994,140.13174990000152,,,,,,,,,,,,,,,,,,,,,,,,,,,,,,,,,,,,,,,,,,,,,,,,,202,2022-04-26_16h29.49.136,FishGame,2022.1.1,60.002148077322765,
,2,넌 슬기로워,2,Green,A,6.166666666666667,4.1,ScrollDown,ScrollUp,Green.png,practice,,,,,,,0,0,0,0,,,,,0,1,1,1,0,1,1,1,,,,,,,,,,,,,,,,,,,,,,,,,,,,,,,,,,,,,,,,,,,,,,,,,,,,1.0879629751046498,1.0947162000011303,140.77438299999994,None,ScrollDown,정답입니다,140.77438299999994,None,140.77438299999994,None,140.77438299999994,None,140.77438299999994,None,141.74831640000048,None,141.74831640000048,142.24815000000126,,,,,,,,,,,,,,,,,,,,,,,,,,,,,,,,,,,,,,,,,,,,,,,,,202,2022-04-26_16h29.49.136,FishGame,2022.1.1,60.002148077322765,
,3,나를 보내줘,6,Green,A,0,0,ScrollUp,ScrollDown,Green.png,practice,,,,,,,0,0,0,0,,,,,0,1,1,1,0,2,2,2,,,,,,,,,,,,,,,,,,,,,,,,,,,,,,,,,,,,,,,,,,,,,,,,,,,,1.507716049440205,2.0915655000007973,142.89313460000085,None,NoResponse,무응답입니다,142.89313460000085,None,142.89313460000085,None,142.89313460000085,None,142.89313460000085,None,144.8636237999999,None,144.8636237999999,145.36418410000078,,,,,,,,,,,,,,,,,,,,,,,,,,,,,,,,,,,,,,,,,,,,,,,,,202,2022-04-26_16h29.49.136,FishGame,2022.1.1,60.002148077322765,
,4,나를 데려가줘,6,Orange,B,0,0,ScrollDown,ScrollUp,Orange.png,practice,,,,,,,0,0,0,0,,,,,0,1,1,1,0,3,3,3,,,,,,,,,,,,,,,,,,,,,,,,,,,,,,,,,,,,,,,,,,,,,,,,,,,,1.0740740497907002,1.291381299999557,146.00942380000015,None,ScrollDown,정답입니다,146.00942380000015,None,146.00942380000015,None,146.00942380000015,None,146.00942380000015,None,147.176008800001,None,147.176008800001,147.68080610000106,,,,,,,,,,,,,,,,,,,,,,,,,,,,,,,,,,,,,,,,,,,,,,,,,202,2022-04-26_16h29.49.136,FishGame,2022.1.1,60.002148077322765,
,2,넌 슬기로워,2,Green,A,6.166666666666667,4.1,ScrollDown,ScrollUp,Green.png,practice,,,,,,,0,0,0,0,,,,,0,1,1,1,,,,,,,,,,,,,,,,,,,,,,,,,,,,,,,,,,,,,,,,,,,,,,,,,,,,,,,,,,,,,,,,,,,,,,,,,,y,6.191226599998117,148.18059080000057,None,148.18059080000057,None,,,,,,,,,,,,,,,,,,,,,,,,,,,,,,,,,,,,,,,,,,,202,2022-04-26_16h29.49.136,FishGame,2022.1.1,60.002148077322765,
,1,넌 교활해,5,Orange,B,2.333333333333333,2.133333333333333,ScrollUp,ScrollDown,Orange.png,practice,,,,,,,0,0,0,0,,,,,0,2,2,2,0,0,0,0,,,,,,,,,,,,,,,,,,,,,,,,,,,,,,,,,,,,,,,,,,,,,,,,,,,,2,4.041267699998571,154.5557069000006,None,ScrollUp,정답입니다,154.5557069000006,None,154.5557069000006,None,154.5557069000006,None,154.5557069000006,None,158.46766920000118,None,158.46766920000118,158.97917000000052,,,,,,,,,,,,,,,,,,,,,,,,,,,,,,,,,,,,,,,,,,,,,,,,,202,2022-04-26_16h29.49.136,FishGame,2022.1.1,60.002148077322765,
,2,넌 슬기로워,2,Green,A,6.166666666666667,4.1,ScrollDown,ScrollUp,Green.png,practice,,,,,,,0,0,0,0,,,,,0,2,2,2,0,1,1,1,,,,,,,,,,,,,,,,,,,,,,,,,,,,,,,,,,,,,,,,,,,,,,,,,,,,1,1.197557899999083,159.6225736000015,None,ScrollDown,정답입니다,159.6225736000015,None,159.6225736000015,None,159.6225736000015,None,159.6225736000015,None,160.69844430000012,None,160.69844430000012,161.2122190000009,,,,,,,,,,,,,,,,,,,,,,,,,,,,,,,,,,,,,,,,,,,,,,,,,202,2022-04-26_16h29.49.136,FishGame,2022.1.1,60.002148077322765,
,3,나를 보내줘,6,Green,A,0,0,ScrollUp,ScrollDown,Green.png,practice,,,,,,,0,0,0,0,,,,,0,2,2,2,0,2,2,2,,,,,,,,,,,,,,,,,,,,,,,,,,,,,,,,,,,,,,,,,,,,,,,,,,,,2,1.1180199999998877,161.85205870000027,None,ScrollUp,정답입니다,161.85205870000027,None,161.85205870000027,None,161.85205870000027,None,161.85205870000027,None,162.85024140000132,None,162.85024140000132,163.36187220000102,,,,,,,,,,,,,,,,,,,,,,,,,,,,,,,,,,,,,,,,,,,,,,,,,202,2022-04-26_16h29.49.136,FishGame,2022.1.1,60.002148077322765,
,4,나를 데려가줘,6,Orange,B,0,0,ScrollDown,ScrollUp,Orange.png,practice,,,,,,,0,0,0,0,,,,,0,2,2,2,0,3,3,3,,,,,,,,,,,,,,,,,,,,,,,,,,,,,,,,,,,,,,,,,,,,,,,,,,,,1,1.3386281999992207,164.00802880000083,None,ScrollDown,정답입니다,164.00802880000083,None,164.00802880000083,None,164.00802880000083,None,164.00802880000083,None,165.221516900001,None,165.221516900001,165.72830570000042,,,,,,,,,,,,,,,,,,,,,,,,,,,,,,,,,,,,,,,,,,,,,,,,,202,2022-04-26_16h29.49.136,FishGame,2022.1.1,60.002148077322765,
,3,나를 보내줘,6,Green,A,0,0,ScrollUp,ScrollDown,Green.png,practice,,,,,,,0,0,0,0,,,,,0,2,2,2,,,,,,,,,,,,,,,,,,,,,,,,,,,,,,,,,,,,,,,,,,,,,,,,,,,,,,,,,,,,,,,,,,,,,,,,,,n,3.796145099999194,166.22820200000024,None,166.22820200000024,None,,,,,,,,,,,,,,,,,,,,,,,,,,,,,,,,,,,,,,,,,,,202,2022-04-26_16h29.49.136,FishGame,2022.1.1,60.002148077322765,
,1,넌 따뜻해,1,Orange,B,6.083333333333333,5.6,ScrollUp,ScrollDown,Orange.png,1,Positive,Incongruent,,,,,0,0,0,0,,,,,,,,,,,,,0,0,0,0,,,,,,,,,,,,,,,,,,,,,,,,,,,,,,,,,,,,,,,,187.2425887999998,188.74206100000083,188.77551099999982,189.72537809999994,189.77535250000074,190.7249883000004,190.7249883000004,None,,,,,,,,,,,,,,,,,,,,,,,,,0.16481481,-0.09166667,1,0,0,0.3139799299988226,None,170.04443810000157,None,1.8904321044683456,1.1275189999996655,191.92360220000046,None,ScrollUp,정답입니다,191.92360220000046,None,191.92360220000046,None,191.92360220000046,None,191.92360220000046,None,192.86371790000157,None,192.86371790000157,193.37483229999998,,,,,,,,,,,,,,,,202,2022-04-26_16h29.49.136,FishGame,2022.1.1,60.002148077322765,
,2,넌 기품있어,2,Orange,B,5.791666666666668,4.5,ScrollUp,ScrollDown,Orange.png,1,Positive,Incongruent,,,,,0,0,0,0,,,,,,,,,,,,,0,1,1,1,,,,,,,,,,,,,,,,,,,,,,,,,,,,,,,,,,,,,,,,,,,,,,,,,,,,,,,,,,,,,,,,,,,,,,,,,,,,,,,,,2,1.2789878000003227,194.0393049000013,None,ScrollUp,정답입니다,194.0393049000013,None,194.0393049000013,None,194.0393049000013,None,194.0393049000013,None,195.1745929000008,None,195.1745929000008,195.67452260000027,,,,,,,,,,,,,,,,202,2022-04-26_16h29.49.136,FishGame,2022.1.1,60.002148077322765,
,3,나를 보내줘,6,Green,A,0,0,ScrollUp,ScrollDown,Green.png,1,NonTarget,NonTarget,,,,,0,0,0,0,,,,,,,,,,,,,0,2,2,2,,,,,,,,,,,,,,,,,,,,,,,,,,,,,,,,,,,,,,,,,,,,,,,,,,,,,,,,,,,,,,,,,,,,,,,,,,,,,,,,,1.7839506169160206,1.0728894000003493,196.331165900001,None,ScrollUp,정답입니다,196.331165900001,None,196.331165900001,None,196.331165900001,None,196.331165900001,None,197.27400430000125,None,197.27400430000125,197.77431910000087,,,,,,,,,,,,,,,,202,2022-04-26_16h29.49.136,FishGame,2022.1.1,60.002148077322765,
,4,넌 수동적이야,4,Green,A,2.833333333333333,2.933333333333333,ScrollDown,ScrollUp,Green.png,1,Negative,Incongruent,,,,,0,0,0,0,,,,,,,,,,,,,0,3,3,3,,,,,,,,,,,,,,,,,,,,,,,,,,,,,,,,,,,,,,,,,,,,,,,,,,,,,,,,,,,,,,,,,,,,,,,,,,,,,,,,,1,1.1402649999999994,198.43950089999998,None,ScrollDown,정답입니다,198.43950089999998,None,198.43950089999998,None,198.43950089999998,None,198.43950089999998,None,199.44057690000045,None,199.44057690000045,199.94065950000004,,,,,,,,,,,,,,,,202,2022-04-26_16h29.49.136,FishGame,2022.1.1,60.002148077322765,
,5,넌 사심이 없어,3,Orange,B,4.916666666666666,4.333333333333333,ScrollUp,ScrollDown,Orange.png,1,Neutral,Neutral,,,,,0,0,0,0,,,,,,,,,,,,,0,4,4,4,,,,,,,,,,,,,,,,,,,,,,,,,,,,,,,,,,,,,,,,,,,,,,,,,,,,,,,,,,,,,,,,,,,,,,,,,,,,,,,,,1.9259259502092998,0.9703282999998919,200.60179020000032,None,ScrollUp,정답입니다,200.60179020000032,None,200.60179020000032,None,200.60179020000032,None,200.60179020000032,None,201.43171820000134,None,201.43171820000134,201.9402338,,,,,,,,,,,,,,,,202,2022-04-26_16h29.49.136,FishGame,2022.1.1,60.002148077322765,
,6,넌 헤퍼,5,Green,A,2.458333333333334,2.233333333333333,ScrollDown,ScrollUp,Green.png,1,Negative,Incongruent,,,,,0,0,0,0,,,,,,,,,,,,,0,5,5,5,,,,,,,,,,,,,,,,,,,,,,,,,,,,,,,,,,,,,,,,,,,,,,,,,,,,,,,,,,,,,,,,,,,,,,,,,,,,,,,,,1,1.1198636000008264,202.59114070000032,None,ScrollDown,정답입니다,202.59114070000032,None,202.59114070000032,None,202.59114070000032,None,202.59114070000032,None,203.5806577000003,None,203.5806577000003,204.0901167000011,,,,,,,,,,,,,,,,202,2022-04-26_16h29.49.136,FishGame,2022.1.1,60.002148077322765,
,7,넌 말쑥해,3,Green,A,4.833333333333334,4.333333333333333,ScrollDown,ScrollUp,Green.png,1,Neutral,Neutral,,,,,0,0,0,0,,,,,,,,,,,,,0,6,6,6,,,,,,,,,,,,,,,,,,,,,,,,,,,,,,,,,,,,,,,,,,,,,,,,,,,,,,,,,,,,,,,,,,,,,,,,,,,,,,,,,1,1.109941999999137,204.74194660000103,None,ScrollDown,정답입니다,204.74194660000103,None,204.74194660000103,None,204.74194660000103,None,204.74194660000103,None,205.72320220000074,None,205.72320220000074,206.22316460000002,,,,,,,,,,,,,,,,202,2022-04-26_16h29.49.136,FishGame,2022.1.1,60.002148077322765,
,8,넌 투덜거려,5,Orange,B,2.541666666666667,2.266666666666667,ScrollUp,ScrollDown,Orange.png,1,Negative,Congruent,,,,,0,0,0,0,,,,,,,,,,,,,0,7,7,7,,,,,,,,,,,,,,,,,,,,,,,,,,,,,,,,,,,,,,,,,,,,,,,,,,,,,,,,,,,,,,,,,,,,,,,,,,,,,,,,,2,1.0227155000011408,206.89622969999982,None,ScrollUp,정답입니다,206.89622969999982,None,206.89622969999982,None,206.89622969999982,None,206.89622969999982,None,207.76617310000074,None,207.76617310000074,208.27289160000146,,,,,,,,,,,,,,,,202,2022-04-26_16h29.49.136,FishGame,2022.1.1,60.002148077322765,
,9,넌 적극적이야,1,Green,A,5.708333333333333,5.533333333333333,ScrollDown,ScrollUp,Green.png,1,Positive,Congruent,,,,,0,0,0,0,,,,,,,,,,,,,0,8,8,8,,,,,,,,,,,,,,,,,,,,,,,,,,,,,,,,,,,,,,,,,,,,,,,,,,,,,,,,,,,,,,,,,,,,,,,,,,,,,,,,,1,1.0937492000011844,208.9250692000005,None,ScrollDown,정답입니다,208.9250692000005,None,208.9250692000005,None,208.9250692000005,None,208.9250692000005,None,209.88998090000132,None,209.88998090000132,210.38938810000036,,,,,,,,,,,,,,,,202,2022-04-26_16h29.49.136,FishGame,2022.1.1,60.002148077322765,
,10,넌 재미없어,4,Orange,B,2.625,2.966666666666667,ScrollUp,ScrollDown,Orange.png,1,Negative,Congruent,,,,,0,0,0,0,,,,,,,,,,,,,0,9,9,9,,,,,,,,,,,,,,,,,,,,,,,,,,,,,,,,,,,,,,,,,,,,,,,,,,,,,,,,,,,,,,,,,,,,,,,,,,,,,,,,,1.9243827362855275,1.123384200000146,211.04706179999994,None,ScrollUp,정답입니다,211.04706179999994,None,211.04706179999994,None,211.04706179999994,None,211.04706179999994,None,212.0388034000007,None,212.0388034000007,212.53893960000096,,,,,,,,,,,,,,,,202,2022-04-26_16h29.49.136,FishGame,2022.1.1,60.002148077322765,
,11,넌 명석해,2,Green,A,5.875,4.033333333333333,ScrollDown,ScrollUp,Green.png,1,Positive,Congruent,,,,,0,0,0,0,,,,,,,,,,,,,0,10,10,10,,,,,,,,,,,,,,,,,,,,,,,,,,,,,,,,,,,,,,,,,,,,,,,,,,,,,,,,,,,,,,,,,,,,,,,,,,,,,,,,,1.1651234477758408,0.9161665000010544,213.18942160000006,None,ScrollDown,정답입니다,213.18942160000006,None,213.18942160000006,None,213.18942160000006,None,213.18942160000006,None,213.9771283000009,None,213.9771283000009,214.4887327000015,,,,,,,,,,,,,,,,202,2022-04-26_16h29.49.136,FishGame,2022.1.1,60.002148077322765,
,12,나를 데려가줘,6,Orange,B,0,0,ScrollDown,ScrollUp,Orange.png,1,NonTarget,NonTarget,,,,,0,0,0,0,,,,,,,,,,,,,0,11,11,11,,,,,,,,,,,,,,,,,,,,,,,,,,,,,,,,,,,,,,,,,,,,,,,,,,,,,,,,,,,,,,,,,,,,,,,,,,,,,,,,,1,1.1872050999991188,215.14528390000123,None,ScrollDown,정답입니다,215.14528390000123,None,215.14528390000123,None,215.14528390000123,None,215.14528390000123,None,216.19665630000054,None,216.19665630000054,216.705120300001,,,,,,,,,,,,,,,,202,2022-04-26_16h29.49.136,FishGame,2022.1.1,60.002148077322765,
,13,넌 소심해,4,Green,A,3,3.1,ScrollDown,ScrollUp,Green.png,1,Negative,Incongruent,,,,,0,0,0,0,,,,,,,,,,,,,0,12,12,12,,,,,,,,,,,,,,,,,,,,,,,,,,,,,,,,,,,,,,,,,,,,,,,,,,,,,,,,,,,,,,,,,,,,,,,,,,,,,,,,,1.115740751226743,1.0201617999991868,217.35342160000073,None,ScrollDown,정답입니다,217.35342160000073,None,217.35342160000073,None,217.35342160000073,None,217.35342160000073,None,218.2466830000012,None,218.2466830000012,218.75488750000113,,,,,,,,,,,,,,,,202,2022-04-26_16h29.49.136,FishGame,2022.1.1,60.002148077322765,
,14,넌 합리적이야,2,Green,A,5.583333333333333,4.733333333333333,ScrollDown,ScrollUp,Green.png,1,Positive,Congruent,,,,,0,0,0,0,,,,,,,,,,,,,0,13,13,13,,,,,,,,,,,,,,,,,,,,,,,,,,,,,,,,,,,,,,,,,,,,,,,,,,,,,,,,,,,,,,,,,,,,,,,,,,,,,,,,,1.0370370149612427,0.9180804000006901,219.40853460000108,None,ScrollDown,정답입니다,219.40853460000108,None,219.40853460000108,None,219.40853460000108,None,219.40853460000108,None,220.1941166000015,None,220.1941166000015,220.70466430000124,,,,,,,,,,,,,,,,202,2022-04-26_16h29.49.136,FishGame,2022.1.1,60.002148077322765,
,15,넌 무자비해,5,Orange,B,2.333333333333333,2.1,ScrollUp,ScrollDown,Orange.png,1,Negative,Congruent,,,,,0,0,0,0,,,,,,,,,,,,,0,14,14,14,,,,,,,,,,,,,,,,,,,,,,,,,,,,,,,,,,,,,,,,,,,,,,,,,,,,,,,,,,,,,,,,,,,,,,,,,,,,,,,,,1.9367283980051677,0.9033817999988969,221.36394780000046,None,ScrollUp,정답입니다,221.36394780000046,None,221.36394780000046,None,221.36394780000046,None,221.36394780000046,None,222.12934430000132,None,222.12934430000132,222.6376379000012,,,,,,,,,,,,,,,,202,2022-04-26_16h29.49.136,FishGame,2022.1.1,60.002148077322765,
,16,나를 보내줘,6,Green,A,0,0,ScrollUp,ScrollDown,Green.png,1,NonTarget,NonTarget,,,,,0,0,0,0,,,,,,,,,,,,,0,15,15,15,,,,,,,,,,,,,,,,,,,,,,,,,,,,,,,,,,,,,,,,,,,,,,,,,,,,,,,,,,,,,,,,,,,,,,,,,,,,,,,,,1.8317901243766148,1.1205293999992136,223.2817384000009,None,ScrollUp,정답입니다,223.2817384000009,None,223.2817384000009,None,223.2817384000009,None,223.2817384000009,None,224.27914610000153,None,224.27914610000153,224.7872556000002,,,,,,,,,,,,,,,,202,2022-04-26_16h29.49.136,FishGame,2022.1.1,60.002148077322765,
,17,넌 현실적이야,3,Orange,B,4.608695652173913,4.766666666666667,ScrollUp,ScrollDown,Orange.png,1,Neutral,Neutral,,,,,0,0,0,0,,,,,,,,,,,,,0,16,16,16,,,,,,,,,,,,,,,,,,,,,,,,,,,,,,,,,,,,,,,,,,,,,,,,,,,,,,,,,,,,,,,,,,,,,,,,,,,,,,,,,1.9243827362855275,1.0108429000010801,225.45329310000125,None,ScrollUp,정답입니다,225.45329310000125,None,225.45329310000125,None,225.45329310000125,None,225.45329310000125,None,226.32033840000076,None,226.32033840000076,226.82037760000094,,,,,,,,,,,,,,,,202,2022-04-26_16h29.49.136,FishGame,2022.1.1,60.002148077322765,
,18,넌 의리있어,1,Orange,B,5.833333333333334,5.633333333333334,ScrollUp,ScrollDown,Orange.png,1,Positive,Incongruent,,,,,0,0,0,0,,,,,,,,,,,,,0,17,17,17,,,,,,,,,,,,,,,,,,,,,,,,,,,,,,,,,,,,,,,,,,,,,,,,,,,,,,,,,,,,,,,,,,,,,,,,,,,,,,,,,1.8209876517454784,1.0507351999985985,227.47427530000095,None,ScrollUp,정답입니다,227.47427530000095,None,227.47427530000095,None,227.47427530000095,None,227.47427530000095,None,228.39327010000125,None,228.39327010000125,228.90353230000073,,,,,,,,,,,,,,,,202,2022-04-26_16h29.49.136,FishGame,2022.1.1,60.002148077322765,
,19,넌 신경과민이야,5,Green,A,2.541666666666667,2.166666666666667,ScrollDown,ScrollUp,Green.png,1,Negative,Incongruent,,,,,0,0,0,0,,,,,,,,,,,,,0,18,18,18,,,,,,,,,,,,,,,,,,,,,,,,,,,,,,,,,,,,,,,,,,,,,,,,,,,,,,,,,,,,,,,,,,,,,,,,,,,,,,,,,1,1.0650726000003488,229.5616813000015,None,ScrollDown,정답입니다,229.5616813000015,None,229.5616813000015,None,229.5616813000015,None,229.5616813000015,None,230.49071960000038,None,230.49071960000038,231.00323650000064,,,,,,,,,,,,,,,,202,2022-04-26_16h29.49.136,FishGame,2022.1.1,60.002148077322765,
,20,넌 편안해,1,Green,A,5.916666666666666,5.866666666666666,ScrollDown,ScrollUp,Green.png,1,Positive,Congruent,,,,,0,0,0,0,,,,,,,,,,,,,0,19,19,19,,,,,,,,,,,,,,,,,,,,,,,,,,,,,,,,,,,,,,,,,,,,,,,,,,,,,,,,,,,,,,,,,,,,,,,,,,,,,,,,,1,1.0504962999984855,231.65990330000022,None,ScrollDown,정답입니다,231.65990330000022,None,231.65990330000022,None,231.65990330000022,None,231.65990330000022,None,232.57457480000085,None,232.57457480000085,233.0863457000014,,,,,,,,,,,,,,,,202,2022-04-26_16h29.49.136,FishGame,2022.1.1,60.002148077322765,
,21,넌 품위있어,2,Orange,B,5.291666666666666,4.466666666666667,ScrollUp,ScrollDown,Orange.png,1,Positive,Incongruent,,,,,0,0,0,0,,,,,,,,,,,,,0,20,20,20,,,,,,,,,,,,,,,,,,,,,,,,,,,,,,,,,,,,,,,,,,,,,,,,,,,,,,,,,,,,,,,,,,,,,,,,,,,,,,,,,1.746913582086563,1.0279982999982167,233.7405533000001,None,ScrollUp,정답입니다,233.7405533000001,None,233.7405533000001,None,233.7405533000001,None,233.7405533000001,None,234.6322121000012,None,234.6322121000012,235.1360934000004,,,,,,,,,,,,,,,,202,2022-04-26_16h29.49.136,FishGame,2022.1.1,60.002148077322765,
,22,넌 빈틈없어,3,Green,A,4.833333333333333,3.966666666666667,ScrollDown,ScrollUp,Green.png,1,Neutral,Neutral,,,,,0,0,0,0,,,,,,,,,,,,,0,21,21,21,,,,,,,,,,,,,,,,,,,,,,,,,,,,,,,,,,,,,,,,,,,,,,,,,,,,,,,,,,,,,,,,,,,,,,,,,,,,,,,,,1.0540123681227367,1.009778899999219,235.7893092000013,None,ScrollDown,정답입니다,235.7893092000013,None,235.7893092000013,None,235.7893092000013,None,235.7893092000013,None,236.66574110000147,None,236.66574110000147,237.16916910000145,,,,,,,,,,,,,,,,202,2022-04-26_16h29.49.136,FishGame,2022.1.1,60.002148077322765,
,23,넌 상상력없어,4,Orange,B,2.833333333333333,3.133333333333333,ScrollUp,ScrollDown,Orange.png,1,Negative,Congruent,,,,,0,0,0,0,,,,,,,,,,,,,0,22,22,22,,,,,,,,,,,,,,,,,,,,,,,,,,,,,,,,,,,,,,,,,,,,,,,,,,,,,,,,,,,,,,,,,,,,,,,,,,,,,,,,,1.819444437821706,0.955401699999129,237.82635800000025,None,ScrollUp,정답입니다,237.82635800000025,None,237.82635800000025,None,237.82635800000025,None,237.82635800000025,None,238.64527630000157,None,238.64527630000157,239.15215020000142,,,,,,,,,,,,,,,,202,2022-04-26_16h29.49.136,FishGame,2022.1.1,60.002148077322765,
,24,넌 지혜로워,2,Orange,B,6.333333333333334,4.633333333333334,ScrollUp,ScrollDown,Orange.png,1,Positive,Incongruent,,,,,0,0,0,0,,,,,,,,,,,,,0,23,23,23,,,,,,,,,,,,,,,,,,,,,,,,,,,,,,,,,,,,,,,,,,,,,,,,,,,,,,,,,,,,,,,,,,,,,,,,,,,,,,,,,1.9521604875723522,0.9999017000009189,239.8103630000005,None,ScrollUp,정답입니다,239.8103630000005,None,239.8103630000005,None,239.8103630000005,None,239.8103630000005,None,240.67440119999992,None,240.67440119999992,241.18523020000066,,,,,,,,,,,,,,,,202,2022-04-26_16h29.49.136,FishGame,2022.1.1,60.002148077322765,
,25,넌 시끄러워,4,Green,A,2.833333333333333,3.033333333333333,ScrollDown,ScrollUp,Green.png,1,Negative,Incongruent,,,,,0,0,0,0,,,,,,,,,,,,,0,24,24,24,,,,,,,,,,,,,,,,,,,,,,,,,,,,,,,,,,,,,,,,,,,,,,,,,,,,,,,,,,,,,,,,,,,,,,,,,,,,,,,,,1.0246913532416027,0.9818758999990678,241.8351455000011,None,ScrollDown,정답입니다,241.8351455000011,None,241.8351455000011,None,241.8351455000011,None,241.8351455000011,None,242.69097460000012,None,242.69097460000012,243.2015938000004,,,,,,,,,,,,,,,,202,2022-04-26_16h29.49.136,FishGame,2022.1.1,60.002148077322765,
,26,넌 만사태평이야,3,Orange,B,4,4.333333333333333,ScrollUp,ScrollDown,Orange.png,1,Neutral,Neutral,,,,,0,0,0,0,,,,,,,,,,,,,0,25,25,25,,,,,,,,,,,,,,,,,,,,,,,,,,,,,,,,,,,,,,,,,,,,,,,,,,,,,,,,,,,,,,,,,,,,,,,,,,,,,,,,,1.746913582086563,0.9382666000001336,243.86222410000119,None,ScrollUp,정답입니다,243.86222410000119,None,243.86222410000119,None,243.86222410000119,None,243.86222410000119,None,244.66803919999984,None,244.66803919999984,245.1680602000015,,,,,,,,,,,,,,,,202,2022-04-26_16h29.49.136,FishGame,2022.1.1,60.002148077322765,
,27,넌 붙임성있어,1,Green,A,5.708333333333333,5.633333333333334,ScrollDown,ScrollUp,Green.png,1,Positive,Congruent,,,,,0,0,0,0,,,,,,,,,,,,,0,26,26,26,,,,,,,,,,,,,,,,,,,,,,,,,,,,,,,,,,,,,,,,,,,,,,,,,,,,,,,,,,,,,,,,,,,,,,,,,,,,,,,,,1,1.0662609999999404,245.82113460000073,None,ScrollDown,정답입니다,245.82113460000073,None,245.82113460000073,None,245.82113460000073,None,245.82113460000073,None,246.7564667000006,None,246.7564667000006,247.2678528000015,,,,,,,,,,,,,,,,202,2022-04-26_16h29.49.136,FishGame,2022.1.1,60.002148077322765,
,28,넌 영리해,2,Green,A,6,4.033333333333333,ScrollDown,ScrollUp,Green.png,1,Positive,Congruent,,,,,0,0,0,0,,,,,,,,,,,,,0,27,27,27,,,,,,,,,,,,,,,,,,,,,,,,,,,,,,,,,,,,,,,,,,,,,,,,,,,,,,,,,,,,,,,,,,,,,,,,,,,,,,,,,1,1.0226850999988528,247.91206720000082,None,ScrollDown,정답입니다,247.91206720000082,None,247.91206720000082,None,247.91206720000082,None,247.91206720000082,None,248.8175764000007,None,248.8175764000007,249.3174936000014,,,,,,,,,,,,,,,,202,2022-04-26_16h29.49.136,FishGame,2022.1.1,60.002148077322765,
,29,넌 열심이야,1,Orange,B,6.041666666666667,5.833333333333333,ScrollUp,ScrollDown,Orange.png,1,Positive,Incongruent,,,,,0,0,0,0,,,,,,,,,,,,,0,28,28,28,,,,,,,,,,,,,,,,,,,,,,,,,,,,,,,,,,,,,,,,,,,,,,,,,,,,,,,,,,,,,,,,,,,,,,,,,,,,,,,,,1.6064814875523248,0.9730915000000095,249.9724541000014,None,ScrollUp,정답입니다,249.9724541000014,None,249.9724541000014,None,249.9724541000014,None,249.9724541000014,None,250.8173338000015,None,250.8173338000015,251.3172693000015,,,,,,,,,,,,,,,,202,2022-04-26_16h29.49.136,FishGame,2022.1.1,60.002148077322765,
,30,넌 인기없어,4,Orange,B,3,3.3,ScrollUp,ScrollDown,Orange.png,1,Negative,Congruent,,,,,0,0,0,0,,,,,,,,,,,,,0,29,29,29,,,,,,,,,,,,,,,,,,,,,,,,,,,,,,,,,,,,,,,,,,,,,,,,,,,,,,,,,,,,,,,,,,,,,,,,,,,,,,,,,1.9212963084379833,1.1285483000010572,251.9714081000002,None,ScrollUp,정답입니다,251.9714081000002,None,251.9714081000002,None,251.9714081000002,None,251.9714081000002,None,252.96758950000003,None,252.96758950000003,253.46691009999995,,,,,,,,,,,,,,,,202,2022-04-26_16h29.49.136,FishGame,2022.1.1,60.002148077322765,
,31,넌 익살스러워,3,Green,A,4.708333333333334,4.833333333333333,ScrollDown,ScrollUp,Green.png,1,Neutral,Neutral,,,,,0,0,0,0,,,,,,,,,,,,,0,30,30,30,,,,,,,,,,,,,,,,,,,,,,,,,,,,,,,,,,,,,,,,,,,,,,,,,,,,,,,,,,,,,,,,,,,,,,,,,,,,,,,,,1.0015431940555573,0.9644669000008435,254.11936530000094,None,ScrollDown,정답입니다,254.11936530000094,None,254.11936530000094,None,254.11936530000094,None,254.11936530000094,None,254.95364010000048,None,254.95364010000048,255.46684770000138,,,,,,,,,,,,,,,,202,2022-04-26_16h29.49.136,FishGame,2022.1.1,60.002148077322765,
,32,넌 이기적이야,5,Orange,B,2.291666666666667,2.333333333333333,ScrollUp,ScrollDown,Orange.png,1,Negative,Congruent,,,,,0,0,0,0,,,,,,,,,,,,,0,31,31,31,,,,,,,,,,,,,,,,,,,,,,,,,,,,,,,,,,,,,,,,,,,,,,,,,,,,,,,,,,,,,,,,,,,,,,,,,,,,,,,,,1.9320987562338512,0.8813818000016909,256.1127222000014,None,ScrollUp,정답입니다,256.1127222000014,None,256.1127222000014,None,256.1127222000014,None,256.1127222000014,None,256.8699624000001,None,256.8699624000001,257.38324009999997,,,,,,,,,,,,,,,,202,2022-04-26_16h29.49.136,FishGame,2022.1.1,60.002148077322765,
,33,나를 데려가줘,6,Orange,B,0,0,ScrollDown,ScrollUp,Orange.png,1,NonTarget,NonTarget,,,,,0,0,0,0,,,,,,,,,,,,,0,32,32,32,,,,,,,,,,,,,,,,,,,,,,,,,,,,,,,,,,,,,,,,,,,,,,,,,,,,,,,,,,,,,,,,,,,,,,,,,,,,,,,,,1,1.1657672000001185,258.032756300001,None,ScrollDown,정답입니다,258.032756300001,None,258.032756300001,None,258.032756300001,None,258.032756300001,None,259.0709981,None,259.0709981,259.58291090000057,,,,,,,,,,,,,,,,202,2022-04-26_16h29.49.136,FishGame,2022.1.1,60.002148077322765,
,34,넌 기회주의자야,5,Green,A,2.875,2.133333333333333,ScrollDown,ScrollUp,Green.png,1,Negative,Incongruent,,,,,0,0,0,0,,,,,,,,,,,,,0,33,33,33,,,,,,,,,,,,,,,,,,,,,,,,,,,,,,,,,,,,,,,,,,,,,,,,,,,,,,,,,,,,,,,,,,,,,,,,,,,,,,,,,1.3148148134350777,1.0061103000007279,260.2405667000003,None,ScrollDown,정답입니다,260.2405667000003,None,260.2405667000003,None,260.2405667000003,None,260.2405667000003,None,261.11598779999986,None,261.11598779999986,261.61604500000067,,,,,,,,,,,,,,,,202,2022-04-26_16h29.49.136,FishGame,2022.1.1,60.002148077322765,
,1,넌 미성숙해,4,Green,A,3,3.2,ScrollDown,ScrollUp,Green.png,2,Negative,Incongruent,,,,,0,0,0,0,,,,,,,,,,,,,,,,,0,0,0,0,,,,,,,,,,,,,,,,,,,,,,,,,,,,,,,,,,,,297.4114373000011,298.91122260000157,298.9444094999999,299.89430320000065,299.94436790000145,300.89428210000005,300.89428210000005,None,,,,,,,,,,,,,,,,,,,,,,,,,,,,,,,,,,1.0154321193695068,1.207507799999803,302.0766160000003,None,ScrollDown,정답입니다,302.0766160000003,None,302.0766160000003,None,302.0766160000003,None,302.0766160000003,None,303.1102920000012,None,303.1102920000012,303.61041190000105,262.11591560000124,None,262.11591560000124,None,0.26203704,-0.044444446,1,0,0,0.015989929999705055,None,292.12860900000123,None,,,202,2022-04-26_16h29.49.136,FishGame,2022.1.1,60.002148077322765,
,2,넌 반사회적이야,5,Orange,B,2.416666666666667,2.033333333333333,ScrollUp,ScrollDown,Orange.png,2,Negative,Congruent,,,,,0,0,0,0,,,,,,,,,,,,,,,,,0,1,1,1,,,,,,,,,,,,,,,,,,,,,,,,,,,,,,,,,,,,,,,,,,,,,,,,,,,,,,,,,,,,,,,,,,,,,,,,,,,,,1.9135802388191223,0.8488583999987895,304.2645110000012,None,ScrollUp,정답입니다,304.2645110000012,None,304.2645110000012,None,304.2645110000012,None,304.2645110000012,None,304.9811642000004,None,304.9811642000004,305.49351110000134,,,,,,,,,,,,,,,,202,2022-04-26_16h29.49.136,FishGame,2022.1.1,60.002148077322765,
,3,넌 유능해,2,Green,A,6.208333333333333,4.433333333333334,ScrollDown,ScrollUp,Green.png,2,Positive,Congruent,,,,,0,0,0,0,,,,,,,,,,,,,,,,,0,2,2,2,,,,,,,,,,,,,,,,,,,,,,,,,,,,,,,,,,,,,,,,,,,,,,,,,,,,,,,,,,,,,,,,,,,,,,,,,,,,,1.1049382785956066,0.9067386999995506,306.14178600000014,None,ScrollDown,정답입니다,306.14178600000014,None,306.14178600000014,None,306.14178600000014,None,306.14178600000014,None,306.92665940000006,None,306.92665940000006,307.42689810000047,,,,,,,,,,,,,,,,202,2022-04-26_16h29.49.136,FishGame,2022.1.1,60.002148077322765,
,4,넌 능숙해,2,Orange,B,5.666666666666667,4.733333333333333,ScrollUp,ScrollDown,Orange.png,2,Positive,Incongruent,,,,,0,0,0,0,,,,,,,,,,,,,,,,,0,3,3,3,,,,,,,,,,,,,,,,,,,,,,,,,,,,,,,,,,,,,,,,,,,,,,,,,,,,,,,,,,,,,,,,,,,,,,,,,,,,,1.8564814726511638,0.8802245000006224,308.07695500000045,None,ScrollUp,정답입니다,308.07695500000045,None,308.07695500000045,None,308.07695500000045,None,308.07695500000045,None,308.82813820000047,None,308.82813820000047,309.3431289,,,,,,,,,,,,,,,,202,2022-04-26_16h29.49.136,FishGame,2022.1.1,60.002148077322765,
,5,넌 진부해,4,Orange,B,2.458333333333333,3.166666666666667,ScrollUp,ScrollDown,Orange.png,2,Negative,Congruent,,,,,0,0,0,0,,,,,,,,,,,,,,,,,0,4,4,4,,,,,,,,,,,,,,,,,,,,,,,,,,,,,,,,,,,,,,,,,,,,,,,,,,,,,,,,,,,,,,,,,,,,,,,,,,,,,1.8240740795930226,0.8980580999996164,309.9988634000001,None,ScrollUp,정답입니다,309.9988634000001,None,309.9988634000001,None,309.9988634000001,None,309.9988634000001,None,310.7649097000012,None,310.7649097000012,311.276280600001,,,,,,,,,,,,,,,,202,2022-04-26_16h29.49.136,FishGame,2022.1.1,60.002148077322765,
,6,나를 보내줘,6,Green,A,0,0,ScrollUp,ScrollDown,Green.png,2,NonTarget,NonTarget,,,,,0,0,0,0,,,,,,,,,,,,,,,,,0,5,5,5,,,,,,,,,,,,,,,,,,,,,,,,,,,,,,,,,,,,,,,,,,,,,,,,,,,,,,,,,,,,,,,,,,,,,,,,,,,,,1.8225308656692505,1.335526699998809,311.91835810000157,None,ScrollUp,정답입니다,311.91835810000157,None,311.91835810000157,None,311.91835810000157,None,311.91835810000157,None,313.132408200001,None,313.132408200001,313.6425976999999,,,,,,,,,,,,,,,,202,2022-04-26_16h29.49.136,FishGame,2022.1.1,60.002148077322765,
,7,넌 엄격해,3,Green,A,4.166666666666666,4.1,ScrollDown,ScrollUp,Green.png,2,Neutral,Neutral,,,,,0,0,0,0,,,,,,,,,,,,,,,,,0,6,6,6,,,,,,,,,,,,,,,,,,,,,,,,,,,,,,,,,,,,,,,,,,,,,,,,,,,,,,,,,,,,,,,,,,,,,,,,,,,,,1.0138889054457347,1.1036304000008386,314.29643990000113,None,ScrollDown,정답입니다,314.29643990000113,None,314.29643990000113,None,314.29643990000113,None,314.29643990000113,None,315.2669629000011,None,315.2669629000011,315.77564990000064,,,,,,,,,,,,,,,,202,2022-04-26_16h29.49.136,FishGame,2022.1.1,60.002148077322765,
,8,나를 보내줘,6,Green,A,0,0,ScrollUp,ScrollDown,Green.png,2,NonTarget,NonTarget,,,,,0,0,0,0,,,,,,,,,,,,,,,,,0,7,7,7,,,,,,,,,,,,,,,,,,,,,,,,,,,,,,,,,,,,,,,,,,,,,,,,,,,,,,,,,,,,,,,,,,,,,,,,,,,,,1.8240740795930226,1.0217828000004374,316.4198924000011,None,ScrollUp,정답입니다,316.4198924000011,None,316.4198924000011,None,316.4198924000011,None,316.4198924000011,None,317.3183790000003,None,317.3183790000003,317.8254100000013,,,,,,,,,,,,,,,,202,2022-04-26_16h29.49.136,FishGame,2022.1.1,60.002148077322765,
,9,넌 대담해,3,Orange,B,4.875,4.866666666666666,ScrollUp,ScrollDown,Orange.png,2,Neutral,Neutral,,,,,0,0,0,0,,,,,,,,,,,,,,,,,0,8,8,8,,,,,,,,,,,,,,,,,,,,,,,,,,,,,,,,,,,,,,,,,,,,,,,,,,,,,,,,,,,,,,,,,,,,,,,,,,,,,1.8549382835626602,1.2064684000015404,318.4817492000002,None,ScrollUp,정답입니다,318.4817492000002,None,318.4817492000002,None,318.4817492000002,None,318.4817492000002,None,319.55842960000155,None,319.55842960000155,320.0586041000006,,,,,,,,,,,,,,,,202,2022-04-26_16h29.49.136,FishGame,2022.1.1,60.002148077322765,
,10,넌 꾸준해,1,Green,A,5.916666666666668,5.8,ScrollDown,ScrollUp,Green.png,2,Positive,Congruent,,,,,0,0,0,0,,,,,,,,,,,,,,,,,0,9,9,9,,,,,,,,,,,,,,,,,,,,,,,,,,,,,,,,,,,,,,,,,,,,,,,,,,,,,,,,,,,,,,,,,,,,,,,,,,,,,1.0061728358268738,1.0440697000012733,320.7096053000005,None,ScrollDown,정답입니다,320.7096053000005,None,320.7096053000005,None,320.7096053000005,None,320.7096053000005,None,321.62141280000105,None,321.62141280000105,322.1248153000015,,,,,,,,,,,,,,,,202,2022-04-26_16h29.49.136,FishGame,2022.1.1,60.002148077322765,
,11,나를 데려가줘,6,Orange,B,0,0,ScrollDown,ScrollUp,Orange.png,2,NonTarget,NonTarget,,,,,0,0,0,0,,,,,,,,,,,,,,,,,0,10,10,10,,,,,,,,,,,,,,,,,,,,,,,,,,,,,,,,,,,,,,,,,,,,,,,,,,,,,,,,,,,,,,,,,,,,,,,,,,,,,1.0555555323759716,1.120094699999754,322.77584190000016,None,ScrollDown,정답입니다,322.77584190000016,None,322.77584190000016,None,322.77584190000016,None,322.77584190000016,None,323.7662685000014,None,323.7662685000014,324.274447400001,,,,,,,,,,,,,,,,202,2022-04-26_16h29.49.136,FishGame,2022.1.1,60.002148077322765,
,12,넌 독선적이야,5,Green,A,2.458333333333333,1.933333333333333,ScrollDown,ScrollUp,Green.png,2,Negative,Incongruent,,,,,0,0,0,0,,,,,,,,,,,,,,,,,0,11,11,11,,,,,,,,,,,,,,,,,,,,,,,,,,,,,,,,,,,,,,,,,,,,,,,,,,,,,,,,,,,,,,,,,,,,,,,,,,,,,1.1851851791143417,1.0173087000002852,324.9270376000004,None,ScrollDown,정답입니다,324.9270376000004,None,324.9270376000004,None,324.9270376000004,None,324.9270376000004,None,325.8162220000013,None,325.8162220000013,326.3240686000008,,,,,,,,,,,,,,,,202,2022-04-26_16h29.49.136,FishGame,2022.1.1,60.002148077322765,
,13,나를 보내줘,6,Green,A,0,0,ScrollUp,ScrollDown,Green.png,2,NonTarget,NonTarget,,,,,0,0,0,0,,,,,,,,,,,,,,,,,0,12,12,12,,,,,,,,,,,,,,,,,,,,,,,,,,,,,,,,,,,,,,,,,,,,,,,,,,,,,,,,,,,,,,,,,,,,,,,,,,,,,1.7083333333333335,1.028542500000185,326.9663111000009,None,ScrollUp,정답입니다,326.9663111000009,None,326.9663111000009,None,326.9663111000009,None,326.9663111000009,None,327.8738549999998,None,327.8738549999998,328.37409000000116,,,,,,,,,,,,,,,,202,2022-04-26_16h29.49.136,FishGame,2022.1.1,60.002148077322765,
,14,넌 책임감있어,1,Orange,B,6.347826086956522,6,ScrollUp,ScrollDown,Orange.png,2,Positive,Incongruent,,,,,0,0,0,0,,,,,,,,,,,,,,,,,0,13,13,13,,,,,,,,,,,,,,,,,,,,,,,,,,,,,,,,,,,,,,,,,,,,,,,,,,,,,,,,,,,,,,,,,,,,,,,,,,,,,1.8827160596847534,1.0138971999986097,329.03159530000084,None,ScrollUp,정답입니다,329.03159530000084,None,329.03159530000084,None,329.03159530000084,None,329.03159530000084,None,329.9101776000007,None,329.9101776000007,330.4237615000002,,,,,,,,,,,,,,,,202,2022-04-26_16h29.49.136,FishGame,2022.1.1,60.002148077322765,
,15,넌 문학적이야,3,Green,A,4.708333333333334,4.333333333333333,ScrollDown,ScrollUp,Green.png,2,Neutral,Neutral,,,,,0,0,0,0,,,,,,,,,,,,,,,,,0,14,14,14,,,,,,,,,,,,,,,,,,,,,,,,,,,,,,,,,,,,,,,,,,,,,,,,,,,,,,,,,,,,,,,,,,,,,,,,,,,,,1.0679012437661488,0.9144085999996605,331.0752628000009,None,ScrollDown,정답입니다,331.0752628000009,None,331.0752628000009,None,331.0752628000009,None,331.0752628000009,None,331.85990630000015,None,331.85990630000015,332.37350049999986,,,,,,,,,,,,,,,,202,2022-04-26_16h29.49.136,FishGame,2022.1.1,60.002148077322765,
,16,넌 재미있어,1,Orange,B,5.875,5.7,ScrollUp,ScrollDown,Orange.png,2,Positive,Incongruent,,,,,0,0,0,0,,,,,,,,,,,,,,,,,0,15,15,15,,,,,,,,,,,,,,,,,,,,,,,,,,,,,,,,,,,,,,,,,,,,,,,,,,,,,,,,,,,,,,,,,,,,,,,,,,,,,1.7484567960103354,0.9164512999996077,333.0272132000009,None,ScrollUp,정답입니다,333.0272132000009,None,333.0272132000009,None,333.0272132000009,None,333.0272132000009,None,333.81377130000146,None,333.81377130000146,334.3232576999999,,,,,,,,,,,,,,,,202,2022-04-26_16h29.49.136,FishGame,2022.1.1,60.002148077322765,
,17,나를 데려가줘,6,Orange,B,0,0,ScrollDown,ScrollUp,Orange.png,2,NonTarget,NonTarget,,,,,0,0,0,0,,,,,,,,,,,,,,,,,0,16,16,16,,,,,,,,,,,,,,,,,,,,,,,,,,,,,,,,,,,,,,,,,,,,,,,,,,,,,,,,,,,,,,,,,,,,,,,,,,,,,1.09413580596447,1.0651010000001406,334.97239100000115,None,ScrollDown,정답입니다,334.97239100000115,None,334.97239100000115,None,334.97239100000115,None,334.97239100000115,None,335.909573500001,None,335.909573500001,336.4230045000004,,,,,,,,,,,,,,,,202,2022-04-26_16h29.49.136,FishGame,2022.1.1,60.002148077322765,
,18,넌 협력적이야,1,Green,A,5.625,5.633333333333334,ScrollDown,ScrollUp,Green.png,2,Positive,Congruent,,,,,0,0,0,0,,,,,,,,,,,,,,,,,0,17,17,17,,,,,,,,,,,,,,,,,,,,,,,,,,,,,,,,,,,,,,,,,,,,,,,,,,,,,,,,,,,,,,,,,,,,,,,,,,,,,1,0.9679230000001553,337.0684332000001,None,ScrollDown,정답입니다,337.0684332000001,None,337.0684332000001,None,337.0684332000001,None,337.0684332000001,None,337.91243620000023,None,337.91243620000023,338.42265150000094,,,,,,,,,,,,,,,,202,2022-04-26_16h29.49.136,FishGame,2022.1.1,60.002148077322765,
,19,넌 평범해,3,Orange,B,4.333333333333332,4.233333333333333,ScrollUp,ScrollDown,Orange.png,2,Neutral,Neutral,,,,,0,0,0,0,,,,,,,,,,,,,,,,,0,18,18,18,,,,,,,,,,,,,,,,,,,,,,,,,,,,,,,,,,,,,,,,,,,,,,,,,,,,,,,,,,,,,,,,,,,,,,,,,,,,,1.8086419651905696,0.960629199998948,339.0806429000004,None,ScrollUp,정답입니다,339.0806429000004,None,339.0806429000004,None,339.0806429000004,None,339.0806429000004,None,339.9058593999998,None,339.9058593999998,340.4057747000006,,,,,,,,,,,,,,,,202,2022-04-26_16h29.49.136,FishGame,2022.1.1,60.002148077322765,
,20,넌 오만해,5,Green,A,2.333333333333333,2,ScrollDown,ScrollUp,Green.png,2,Negative,Incongruent,,,,,0,0,0,0,,,,,,,,,,,,,,,,,0,19,19,19,,,,,,,,,,,,,,,,,,,,,,,,,,,,,,,,,,,,,,,,,,,,,,,,,,,,,,,,,,,,,,,,,,,,,,,,,,,,,1,0.9874695999988035,341.05399560000114,None,ScrollDown,정답입니다,341.05399560000114,None,341.05399560000114,None,341.05399560000114,None,341.05399560000114,None,341.91427980000117,None,341.91427980000117,342.4222356999999,,,,,,,,,,,,,,,,202,2022-04-26_16h29.49.136,FishGame,2022.1.1,60.002148077322765,
,21,넌 운이없어,4,Orange,B,3,3.466666666666667,ScrollUp,ScrollDown,Orange.png,2,Negative,Congruent,,,,,0,0,0,0,,,,,,,,,,,,,,,,,0,20,20,20,,,,,,,,,,,,,,,,,,,,,,,,,,,,,,,,,,,,,,,,,,,,,,,,,,,,,,,,,,,,,,,,,,,,,,,,,,,,,1.7700617164373398,0.8641336000000592,343.0862900000011,None,ScrollUp,정답입니다,343.0862900000011,None,343.0862900000011,None,343.0862900000011,None,343.0862900000011,None,343.8104192999999,None,343.8104192999999,344.3218343000008,,,,,,,,,,,,,,,,202,2022-04-26_16h29.49.136,FishGame,2022.1.1,60.002148077322765,
,22,넌 창조적이야,2,Orange,B,6.125,4.633333333333334,ScrollUp,ScrollDown,Orange.png,2,Positive,Incongruent,,,,,0,0,0,0,,,,,,,,,,,,,,,,,0,21,21,21,,,,,,,,,,,,,,,,,,,,,,,,,,,,,,,,,,,,,,,,,,,,,,,,,,,,,,,,,,,,,,,,,,,,,,,,,,,,,1.6435185223817825,0.868991699999242,344.97459470000103,None,ScrollUp,정답입니다,344.97459470000103,None,344.97459470000103,None,344.97459470000103,None,344.97459470000103,None,345.7123795000007,None,345.7123795000007,346.2216763000015,,,,,,,,,,,,,,,,202,2022-04-26_16h29.49.136,FishGame,2022.1.1,60.002148077322765,
,23,나를 보내줘,6,Green,A,0,0,ScrollUp,ScrollDown,Green.png,2,NonTarget,NonTarget,,,,,0,0,0,0,,,,,,,,,,,,,,,,,0,22,22,22,,,,,,,,,,,,,,,,,,,,,,,,,,,,,,,,,,,,,,,,,,,,,,,,,,,,,,,,,,,,,,,,,,,,,,,,,,,,,1.584876542290052,0.9736247999990155,346.86622570000145,None,ScrollUp,정답입니다,346.86622570000145,None,346.86622570000145,None,346.86622570000145,None,346.86622570000145,None,347.7212302000007,None,347.7212302000007,348.22142130000066,,,,,,,,,,,,,,,,202,2022-04-26_16h29.49.136,FishGame,2022.1.1,60.002148077322765,
,24,넌 통찰력있어,2,Green,A,6.5,4.8,ScrollDown,ScrollUp,Green.png,2,Positive,Congruent,,,,,0,0,0,0,,,,,,,,,,,,,,,,,0,23,23,23,,,,,,,,,,,,,,,,,,,,,,,,,,,,,,,,,,,,,,,,,,,,,,,,,,,,,,,,,,,,,,,,,,,,,,,,,,,,,1.1697530895471573,1.0791356999998243,348.87258440000005,None,ScrollDown,정답입니다,348.87258440000005,None,348.87258440000005,None,348.87258440000005,None,348.87258440000005,None,349.82462940000005,None,349.82462940000005,350.33785760000137,,,,,,,,,,,,,,,,202,2022-04-26_16h29.49.136,FishGame,2022.1.1,60.002148077322765,
,25,넌 경솔해,5,Orange,B,2.458333333333333,2.266666666666667,ScrollUp,ScrollDown,Orange.png,2,Negative,Congruent,,,,,0,0,0,0,,,,,,,,,,,,,,,,,0,24,24,24,,,,,,,,,,,,,,,,,,,,,,,,,,,,,,,,,,,,,,,,,,,,,,,,,,,,,,,,,,,,,,,,,,,,,,,,,,,,,1.6466049378116927,0.9510582999992039,350.9982570000011,None,ScrollUp,정답입니다,350.9982570000011,None,350.9982570000011,None,350.9982570000011,None,350.9982570000011,None,351.8112697000015,None,351.8112697000015,352.3208244000016,,,,,,,,,,,,,,,,202,2022-04-26_16h29.49.136,FishGame,2022.1.1,60.002148077322765,
,26,넌 초조해,4,Green,A,2.916666666666667,3.133333333333333,ScrollDown,ScrollUp,Green.png,2,Negative,Incongruent,,,,,0,0,0,0,,,,,,,,,,,,,,,,,0,25,25,25,,,,,,,,,,,,,,,,,,,,,,,,,,,,,,,,,,,,,,,,,,,,,,,,,,,,,,,,,,,,,,,,,,,,,,,,,,,,,1.1311728407939274,0.8937435000007099,352.9661528000015,None,ScrollDown,정답입니다,352.9661528000015,None,352.9661528000015,None,352.9661528000015,None,352.9661528000015,None,353.7376980000008,None,353.7376980000008,354.23709860000054,,,,,,,,,,,,,,,,202,2022-04-26_16h29.49.136,FishGame,2022.1.1,60.002148077322765,
,27,넌 무관심해,4,Orange,B,2.833333333333333,2.9,ScrollUp,ScrollDown,Orange.png,2,Negative,Congruent,,,,,0,0,0,0,,,,,,,,,,,,,,,,,0,26,26,26,,,,,,,,,,,,,,,,,,,,,,,,,,,,,,,,,,,,,,,,,,,,,,,,,,,,,,,,,,,,,,,,,,,,,,,,,,,,,1.7361111094554267,0.967805700000099,354.895536,None,ScrollUp,정답입니다,354.895536,None,354.895536,None,354.895536,None,354.895536,None,355.7264414000001,None,355.7264414000001,356.2371294000004,,,,,,,,,,,,,,,,202,2022-04-26_16h29.49.136,FishGame,2022.1.1,60.002148077322765,
,28,넌 감성적이야,3,Orange,B,4.125,4.166666666666667,ScrollUp,ScrollDown,Orange.png,2,Neutral,Neutral,,,,,0,0,0,0,,,,,,,,,,,,,,,,,0,27,27,27,,,,,,,,,,,,,,,,,,,,,,,,,,,,,,,,,,,,,,,,,,,,,,,,,,,,,,,,,,,,,,,,,,,,,,,,,,,,,1.9012345770994823,0.9120039000008546,356.8861794000004,None,ScrollUp,정답입니다,356.8861794000004,None,356.8861794000004,None,356.8861794000004,None,356.8861794000004,None,357.67018350000035,None,357.67018350000035,358.1699905000005,,,,,,,,,,,,,,,,202,2022-04-26_16h29.49.136,FishGame,2022.1.1,60.002148077322765,
,29,넌 배려심있어,1,Green,A,6.083333333333333,5.5,ScrollDown,ScrollUp,Green.png,2,Positive,Congruent,,,,,0,0,0,0,,,,,,,,,,,,,,,,,0,28,28,28,,,,,,,,,,,,,,,,,,,,,,,,,,,,,,,,,,,,,,,,,,,,,,,,,,,,,,,,,,,,,,,,,,,,,,,,,,,,,1,1.017358900000545,358.8219416000011,None,ScrollDown,정답입니다,358.8219416000011,None,358.8219416000011,None,358.8219416000011,None,358.8219416000011,None,359.7086202999999,None,359.7086202999999,360.21984320000047,,,,,,,,,,,,,,,,202,2022-04-26_16h29.49.136,FishGame,2022.1.1,60.002148077322765,
,30,넌 숨김없어,3,Green,A,4.5,4.933333333333334,ScrollDown,ScrollUp,Green.png,2,Neutral,Neutral,,,,,0,0,0,0,,,,,,,,,,,,,,,,,0,29,29,29,,,,,,,,,,,,,,,,,,,,,,,,,,,,,,,,,,,,,,,,,,,,,,,,,,,,,,,,,,,,,,,,,,,,,,,,,,,,,1,0.8571136999998998,360.8727749000009,None,ScrollDown,정답입니다,360.8727749000009,None,360.8727749000009,None,360.8727749000009,None,360.8727749000009,None,361.60301230000005,None,361.60301230000005,362.1028974000001,,,,,,,,,,,,,,,,202,2022-04-26_16h29.49.136,FishGame,2022.1.1,60.002148077322765,
,31,넌 훌륭해,2,Orange,B,5.916666666666667,4.033333333333333,ScrollUp,ScrollDown,Orange.png,2,Positive,Incongruent,,,,,0,0,0,0,,,,,,,,,,,,,,,,,0,30,30,30,,,,,,,,,,,,,,,,,,,,,,,,,,,,,,,,,,,,,,,,,,,,,,,,,,,,,,,,,,,,,,,,,,,,,,,,,,,,,1.799382706483205,0.9127061999988655,362.75828320000073,None,ScrollUp,정답입니다,362.75828320000073,None,362.75828320000073,None,362.75828320000073,None,362.75828320000073,None,363.5374898000009,None,363.5374898000009,364.05271490000086,,,,,,,,,,,,,,,,202,2022-04-26_16h29.49.136,FishGame,2022.1.1,60.002148077322765,
,32,넌 슬기로워,2,Green,A,6.166666666666667,4.1,ScrollDown,ScrollUp,Green.png,2,Positive,Congruent,,,,,0,0,0,0,,,,,,,,,,,,,,,,,0,31,31,31,,,,,,,,,,,,,,,,,,,,,,,,,,,,,,,,,,,,,,,,,,,,,,,,,,,,,,,,,,,,,,,,,,,,,,,,,,,,,1,1.0643568999985291,364.69964640000035,None,ScrollDown,정답입니다,364.69964640000035,None,364.69964640000035,None,364.69964640000035,None,364.69964640000035,None,365.6389833000012,None,365.6389833000012,366.15239770000153,,,,,,,,,,,,,,,,202,2022-04-26_16h29.49.136,FishGame,2022.1.1,60.002148077322765,
,33,넌 냉혹해,5,Green,A,2.583333333333333,2.1,ScrollDown,ScrollUp,Green.png,2,Negative,Incongruent,,,,,0,0,0,0,,,,,,,,,,,,,,,,,0,32,32,32,,,,,,,,,,,,,,,,,,,,,,,,,,,,,,,,,,,,,,,,,,,,,,,,,,,,,,,,,,,,,,,,,,,,,,,,,,,,,1.1558641890684764,0.8999272000000929,366.80885500000113,None,ScrollDown,정답입니다,366.80885500000113,None,366.80885500000113,None,366.80885500000113,None,366.80885500000113,None,367.5758381000014,None,367.5758381000014,368.08571720000145,,,,,,,,,,,,,,,,202,2022-04-26_16h29.49.136,FishGame,2022.1.1,60.002148077322765,
,34,나를 데려가줘,6,Orange,B,0,0,ScrollDown,ScrollUp,Orange.png,2,NonTarget,NonTarget,,,,,0,0,0,0,,,,,,,,,,,,,,,,,0,33,33,33,,,,,,,,,,,,,,,,,,,,,,,,,,,,,,,,,,,,,,,,,,,,,,,,,,,,,,,,,,,,,,,,,,,,,,,,,,,,,1.0617283880710602,1.0281933000005665,368.73054279999997,None,ScrollDown,정답입니다,368.73054279999997,None,368.73054279999997,None,368.73054279999997,None,368.73054279999997,None,369.6358291000015,None,369.6358291000015,370.13538020000124,,,,,,,,,,,,,,,,202,2022-04-26_16h29.49.136,FishGame,2022.1.1,60.002148077322765,
,35,넌 편파적이야,5,Orange,B,2.125,2,ScrollUp,ScrollDown,Orange.png,2,Negative,Congruent,,,,,0,0,0,0,,,,,,,,,,,,,,,,,0,34,34,34,,,,,,,,,,,,,,,,,,,,,,,,,,,,,,,,,,,,,,,,,,,,,,,,,,,,,,,,,,,,,,,,,,,,,,,,,,,,,1.7916666616996129,0.9057011999993847,370.7916742000016,None,ScrollUp,정답입니다,370.7916742000016,None,370.7916742000016,None,370.7916742000016,None,370.7916742000016,None,371.56839150000087,None,371.56839150000087,372.06837670000095,,,,,,,,,,,,,,,,202,2022-04-26_16h29.49.136,FishGame,2022.1.1,60.002148077322765,
,36,넌 슬퍼,4,Green,A,2.583333333333333,3.066666666666667,ScrollDown,ScrollUp,Green.png,2,Negative,Incongruent,,,,,0,0,0,0,,,,,,,,,,,,,,,,,0,35,35,35,,,,,,,,,,,,,,,,,,,,,,,,,,,,,,,,,,,,,,,,,,,,,,,,,,,,,,,,,,,,,,,,,,,,,,,,,,,,,1.0308642089366913,0.8475729999991017,372.71196640000016,None,ScrollDown,정답입니다,372.71196640000016,None,372.71196640000016,None,372.71196640000016,None,372.71196640000016,None,373.4376415000006,None,373.4376415000006,373.95143970000026,,,,,,,,,,,,,,,,202,2022-04-26_16h29.49.136,FishGame,2022.1.1,60.002148077322765,
,37,나를 데려가줘,6,Orange,B,0,0,ScrollDown,ScrollUp,Orange.png,2,NonTarget,NonTarget,,,,,0,0,0,0,,,,,,,,,,,,,,,,,0,36,36,36,,,,,,,,,,,,,,,,,,,,,,,,,,,,,,,,,,,,,,,,,,,,,,,,,,,,,,,,,,,,,,,,,,,,,,,,,,,,,1.0092592636744182,0.9705551999995805,374.6012437999998,None,ScrollDown,정답입니다,374.6012437999998,None,374.6012437999998,None,374.6012437999998,None,374.6012437999998,None,375.44264079999994,None,375.44264079999994,375.9511642000016,,,,,,,,,,,,,,,,202,2022-04-26_16h29.49.136,FishGame,2022.1.1,60.002148077322765,
,38,넌 친절해,1,Orange,B,6.041666666666667,5.533333333333333,ScrollUp,ScrollDown,Orange.png,2,Positive,Incongruent,,,,,0,0,0,0,,,,,,,,,,,,,,,,,0,37,37,37,,,,,,,,,,,,,,,,,,,,,,,,,,,,,,,,,,,,,,,,,,,,,,,,,,,,,,,,,,,,,,,,,,,,,,,,,,,,,1.7206790198882422,0.9617366000002221,376.61436289999983,None,ScrollUp,정답입니다,376.61436289999983,None,376.61436289999983,None,376.61436289999983,None,376.61436289999983,None,377.43552960000125,None,377.43552960000125,377.95084510000015,,,,,,,,,,,,,,,,202,2022-04-26_16h29.49.136,FishGame,2022.1.1,60.002148077322765,
,1,넌 엉성해,4,Green,A,3,3.3,ScrollDown,ScrollUp,Green.png,3,Negative,Incongruent,,,,,0,0,0,0,,,,,,,,,,,,,,,,,,,,,0,0,0,0,,,,,,,,,,,,,,,,,,,,,,,,,,,,,,,,411.1135900999998,412.61294850000013,412.6464252000005,413.5961158000009,413.6462341000006,414.5959397000006,414.5959397000006,None,,,,,,,,,,,,,,,,,,,,,,,,,,,,,,,,,,1.2885802388191223,0.8927397999996174,415.77327010000045,None,ScrollDown,정답입니다,415.77327010000045,None,415.77327010000045,None,415.77327010000045,None,415.77327010000045,None,416.49745710000025,None,416.49745710000025,417.0125326000016,378.4508841000006,None,378.4508841000006,None,0.22592592,-0.12222222,1,0,0,0.01622293000036734,None,408.4470486000009,None,,,202,2022-04-26_16h29.49.136,FishGame,2022.1.1,60.002148077322765,
,2,나를 보내줘,6,Green,A,0,0,ScrollUp,ScrollDown,Green.png,3,NonTarget,NonTarget,,,,,0,0,0,0,,,,,,,,,,,,,,,,,,,,,0,1,1,1,,,,,,,,,,,,,,,,,,,,,,,,,,,,,,,,,,,,,,,,,,,,,,,,,,,,,,,,,,,,,,,,,,,,,,,,,1.6080246890584626,0.9900088000013056,417.6541148000015,None,ScrollUp,정답입니다,417.6541148000015,None,417.6541148000015,None,417.6541148000015,None,417.6541148000015,None,418.52452670000093,None,418.52452670000093,419.0287021000004,,,,,,,,,,,,,,,,202,2022-04-26_16h29.49.136,FishGame,2022.1.1,60.002148077322765,
,3,넌 활발해,1,Orange,B,5.666666666666667,5.6,ScrollUp,ScrollDown,Orange.png,3,Positive,Incongruent,,,,,0,0,0,0,,,,,,,,,,,,,,,,,,,,,0,2,2,2,,,,,,,,,,,,,,,,,,,,,,,,,,,,,,,,,,,,,,,,,,,,,,,,,,,,,,,,,,,,,,,,,,,,,,,,,1.7546296268701553,0.9172717000001285,419.68448890000036,None,ScrollUp,정답입니다,419.68448890000036,None,419.68448890000036,None,419.68448890000036,None,419.68448890000036,None,420.4678171000014,None,420.4678171000014,420.9784870000003,,,,,,,,,,,,,,,,202,2022-04-26_16h29.49.136,FishGame,2022.1.1,60.002148077322765,
,4,넌 논리적이야,2,Green,A,5.666666666666666,4.633333333333334,ScrollDown,ScrollUp,Green.png,3,Positive,Congruent,,,,,0,0,0,0,,,,,,,,,,,,,,,,,,,,,0,3,3,3,,,,,,,,,,,,,,,,,,,,,,,,,,,,,,,,,,,,,,,,,,,,,,,,,,,,,,,,,,,,,,,,,,,,,,,,,1.0895061641931534,0.8699054000007891,421.62492870000096,None,ScrollDown,정답입니다,421.62492870000096,None,421.62492870000096,None,421.62492870000096,None,421.62492870000096,None,422.36983070000133,None,422.36983070000133,422.8783653999999,,,,,,,,,,,,,,,,202,2022-04-26_16h29.49.136,FishGame,2022.1.1,60.002148077322765,
,5,넌 과묵해,3,Green,A,3.875,4.4,ScrollDown,ScrollUp,Green.png,3,Neutral,Neutral,,,,,0,0,0,0,,,,,,,,,,,,,,,,,,,,,0,4,4,4,,,,,,,,,,,,,,,,,,,,,,,,,,,,,,,,,,,,,,,,,,,,,,,,,,,,,,,,,,,,,,,,,,,,,,,,,1.1327160547176998,0.8479435999997804,423.5265588000002,None,ScrollDown,정답입니다,423.5265588000002,None,423.5265588000002,None,423.5265588000002,None,423.5265588000002,None,424.2511298999998,None,424.2511298999998,424.76158399999986,,,,,,,,,,,,,,,,202,2022-04-26_16h29.49.136,FishGame,2022.1.1,60.002148077322765,
,6,나를 데려가줘,6,Orange,B,0,0,ScrollDown,ScrollUp,Orange.png,3,NonTarget,NonTarget,,,,,0,0,0,0,,,,,,,,,,,,,,,,,,,,,0,5,5,5,,,,,,,,,,,,,,,,,,,,,,,,,,,,,,,,,,,,,,,,,,,,,,,,,,,,,,,,,,,,,,,,,,,,,,,,,1.0077160497506459,1.0767231000008906,425.4071082999999,None,ScrollDown,정답입니다,425.4071082999999,None,425.4071082999999,None,425.4071082999999,None,425.4071082999999,None,426.3612850999998,None,426.3612850999998,426.86118440000064,,,,,,,,,,,,,,,,202,2022-04-26_16h29.49.136,FishGame,2022.1.1,60.002148077322765,
,7,넌 미숙해,4,Orange,B,3,3,ScrollUp,ScrollDown,Orange.png,3,Negative,Congruent,,,,,0,0,0,0,,,,,,,,,,,,,,,,,,,,,0,6,6,6,,,,,,,,,,,,,,,,,,,,,,,,,,,,,,,,,,,,,,,,,,,,,,,,,,,,,,,,,,,,,,,,,,,,,,,,,1.6003086442748704,0.8813874000006763,427.50675820000106,None,ScrollUp,정답입니다,427.50675820000106,None,427.50675820000106,None,427.50675820000106,None,427.50675820000106,None,428.266052500001,None,428.266052500001,428.7775747000014,,,,,,,,,,,,,,,,202,2022-04-26_16h29.49.136,FishGame,2022.1.1,60.002148077322765,
,8,나를 보내줘,6,Green,A,0,0,ScrollUp,ScrollDown,Green.png,3,NonTarget,NonTarget,,,,,0,0,0,0,,,,,,,,,,,,,,,,,,,,,0,7,7,7,,,,,,,,,,,,,,,,,,,,,,,,,,,,,,,,,,,,,,,,,,,,,,,,,,,,,,,,,,,,,,,,,,,,,,,,,1.5709876542290053,0.9566503000005468,429.4195643000003,None,ScrollUp,정답입니다,429.4195643000003,None,429.4195643000003,None,429.4195643000003,None,429.4195643000003,None,430.2604406999999,None,430.2604406999999,430.7607598000013,,,,,,,,,,,,,,,,202,2022-04-26_16h29.49.136,FishGame,2022.1.1,60.002148077322765,
,9,넌 자신만만해,3,Orange,B,4.833333333333334,4.333333333333333,ScrollUp,ScrollDown,Orange.png,3,Neutral,Neutral,,,,,0,0,0,0,,,,,,,,,,,,,,,,,,,,,0,8,8,8,,,,,,,,,,,,,,,,,,,,,,,,,,,,,,,,,,,,,,,,,,,,,,,,,,,,,,,,,,,,,,,,,,,,,,,,,1.6728395000100136,0.8158602000003157,431.4058829000005,None,ScrollUp,정답입니다,431.4058829000005,None,431.4058829000005,None,431.4058829000005,None,431.4058829000005,None,432.0988304000002,None,432.0988304000002,432.6103339000001,,,,,,,,,,,,,,,,202,2022-04-26_16h29.49.136,FishGame,2022.1.1,60.002148077322765,
,10,넌 탐욕스러워,5,Green,A,2.25,2.1,ScrollDown,ScrollUp,Green.png,3,Negative,Incongruent,,,,,0,0,0,0,,,,,,,,,,,,,,,,,,,,,0,9,9,9,,,,,,,,,,,,,,,,,,,,,,,,,,,,,,,,,,,,,,,,,,,,,,,,,,,,,,,,,,,,,,,,,,,,,,,,,1,0.9177718000009918,433.2658740000006,None,ScrollDown,정답입니다,433.2658740000006,None,433.2658740000006,None,433.2658740000006,None,433.2658740000006,None,434.04843729999993,None,434.04843729999993,434.56026700000075,,,,,,,,,,,,,,,,202,2022-04-26_16h29.49.136,FishGame,2022.1.1,60.002148077322765,
,11,넌 인기있어,2,Green,A,5.458333333333333,4.5,ScrollDown,ScrollUp,Green.png,3,Positive,Congruent,,,,,0,0,0,0,,,,,,,,,,,,,,,,,,,,,0,10,10,10,,,,,,,,,,,,,,,,,,,,,,,,,,,,,,,,,,,,,,,,,,,,,,,,,,,,,,,,,,,,,,,,,,,,,,,,,1.0123456915219624,0.8486465999994834,435.1985951000006,None,ScrollDown,정답입니다,435.1985951000006,None,435.1985951000006,None,435.1985951000006,None,435.1985951000006,None,435.9311406000015,None,435.9311406000015,436.4431904000012,,,,,,,,,,,,,,,,202,2022-04-26_16h29.49.136,FishGame,2022.1.1,60.002148077322765,
,12,나를 데려가줘,6,Orange,B,0,0,ScrollDown,ScrollUp,Orange.png,3,NonTarget,NonTarget,,,,,0,0,0,0,,,,,,,,,,,,,,,,,,,,,0,11,11,11,,,,,,,,,,,,,,,,,,,,,,,,,,,,,,,,,,,,,,,,,,,,,,,,,,,,,,,,,,,,,,,,,,,,,,,,,1.0447530845801036,0.9807201999992685,437.09195980000004,None,ScrollDown,정답입니다,437.09195980000004,None,437.09195980000004,None,437.09195980000004,None,437.09195980000004,None,437.94602870000017,None,437.94602870000017,438.45977380000113,,,,,,,,,,,,,,,,202,2022-04-26_16h29.49.136,FishGame,2022.1.1,60.002148077322765,
,13,넌 뛰어나,2,Orange,B,6.166666666666667,4,ScrollUp,ScrollDown,Orange.png,3,Positive,Incongruent,,,,,0,0,0,0,,,,,,,,,,,,,,,,,,,,,0,12,12,12,,,,,,,,,,,,,,,,,,,,,,,,,,,,,,,,,,,,,,,,,,,,,,,,,,,,,,,,,,,,,,,,,,,,,,,,,1.7268518507480621,0.9822822999994969,439.11329640000076,None,ScrollUp,정답입니다,439.11329640000076,None,439.11329640000076,None,439.11329640000076,None,439.11329640000076,None,439.96428300000116,None,439.96428300000116,440.47627439999997,,,,,,,,,,,,,,,,202,2022-04-26_16h29.49.136,FishGame,2022.1.1,60.002148077322765,
,14,넌 낙관적이야,1,Green,A,5.75,5.8,ScrollDown,ScrollUp,Green.png,3,Positive,Congruent,,,,,0,0,0,0,,,,,,,,,,,,,,,,,,,,,0,13,13,13,,,,,,,,,,,,,,,,,,,,,,,,,,,,,,,,,,,,,,,,,,,,,,,,,,,,,,,,,,,,,,,,,,,,,,,,,1.194444437821706,0.9449998999989475,441.12176210000143,None,ScrollDown,정답입니다,441.12176210000143,None,441.12176210000143,None,441.12176210000143,None,441.12176210000143,None,441.9437101000003,None,441.9437101000003,442.4591553999999,,,,,,,,,,,,,,,,202,2022-04-26_16h29.49.136,FishGame,2022.1.1,60.002148077322765,
,15,넌 산만해,4,Orange,B,2.695652173913043,3.033333333333333,ScrollUp,ScrollDown,Orange.png,3,Negative,Congruent,,,,,0,0,0,0,,,,,,,,,,,,,,,,,,,,,0,14,14,14,,,,,,,,,,,,,,,,,,,,,,,,,,,,,,,,,,,,,,,,,,,,,,,,,,,,,,,,,,,,,,,,,,,,,,,,,1.5956790149211884,0.8510396000001492,443.1152684000008,None,ScrollUp,정답입니다,443.1152684000008,None,443.1152684000008,None,443.1152684000008,None,443.1152684000008,None,443.8320104000013,None,443.8320104000013,444.3422566999998,,,,,,,,,,,,,,,,202,2022-04-26_16h29.49.136,FishGame,2022.1.1,60.002148077322765,
,16,나를 보내줘,6,Green,A,0,0,ScrollUp,ScrollDown,Green.png,3,NonTarget,NonTarget,,,,,0,0,0,0,,,,,,,,,,,,,,,,,,,,,0,15,15,15,,,,,,,,,,,,,,,,,,,,,,,,,,,,,,,,,,,,,,,,,,,,,,,,,,,,,,,,,,,,,,,,,,,,,,,,,1.7345678955316544,1.0305044999986421,444.98467230000097,None,ScrollUp,정답입니다,444.98467230000097,None,444.98467230000097,None,444.98467230000097,None,444.98467230000097,None,445.8970328000014,None,445.8970328000014,446.40871920000063,,,,,,,,,,,,,,,,202,2022-04-26_16h29.49.136,FishGame,2022.1.1,60.002148077322765,
,17,넌 교활해,5,Orange,B,2.333333333333333,2.133333333333333,ScrollUp,ScrollDown,Orange.png,3,Negative,Congruent,,,,,0,0,0,0,,,,,,,,,,,,,,,,,,,,,0,16,16,16,,,,,,,,,,,,,,,,,,,,,,,,,,,,,,,,,,,,,,,,,,,,,,,,,,,,,,,,,,,,,,,,,,,,,,,,,1.8472222139437993,1.0073945000003732,447.0582355000006,None,ScrollUp,정답입니다,447.0582355000006,None,447.0582355000006,None,447.0582355000006,None,447.0582355000006,None,447.9415764000005,None,447.9415764000005,448.4417846000015,,,,,,,,,,,,,,,,202,2022-04-26_16h29.49.136,FishGame,2022.1.1,60.002148077322765,
,18,나를 보내줘,6,Green,A,0,0,ScrollUp,ScrollDown,Green.png,3,NonTarget,NonTarget,,,,,0,0,0,0,,,,,,,,,,,,,,,,,,,,,0,17,17,17,,,,,,,,,,,,,,,,,,,,,,,,,,,,,,,,,,,,,,,,,,,,,,,,,,,,,,,,,,,,,,,,,,,,,,,,,1.6867284004886947,0.973250499999267,449.08336860000054,None,ScrollUp,정답입니다,449.08336860000054,None,449.08336860000054,None,449.08336860000054,None,449.08336860000054,None,449.94129969999995,None,449.94129969999995,450.4413263000006,,,,,,,,,,,,,,,,202,2022-04-26_16h29.49.136,FishGame,2022.1.1,60.002148077322765,
,19,넌 불친절해,5,Orange,B,2.208333333333333,2.033333333333333,ScrollUp,ScrollDown,Orange.png,3,Negative,Congruent,,,,,0,0,0,0,,,,,,,,,,,,,,,,,,,,,0,18,18,18,,,,,,,,,,,,,,,,,,,,,,,,,,,,,,,,,,,,,,,,,,,,,,,,,,,,,,,,,,,,,,,,,,,,,,,,,1.6959876591960588,0.9455419999994774,451.0895760000003,None,ScrollUp,정답입니다,451.0895760000003,None,451.0895760000003,None,451.0895760000003,None,451.0895760000003,None,451.90932260000045,None,451.90932260000045,452.4245024000011,,,,,,,,,,,,,,,,202,2022-04-26_16h29.49.136,FishGame,2022.1.1,60.002148077322765,
,20,넌 지적이야,2,Orange,B,5.75,4.366666666666666,ScrollUp,ScrollDown,Orange.png,3,Positive,Incongruent,,,,,0,0,0,0,,,,,,,,,,,,,,,,,,,,,0,19,19,19,,,,,,,,,,,,,,,,,,,,,,,,,,,,,,,,,,,,,,,,,,,,,,,,,,,,,,,,,,,,,,,,,,,,,,,,,1.7978395173947017,0.853672799999913,453.0701616000006,None,ScrollUp,정답입니다,453.0701616000006,None,453.0701616000006,None,453.0701616000006,None,453.0701616000006,None,453.79928800000016,None,453.79928800000016,454.30772720000095,,,,,,,,,,,,,,,,202,2022-04-26_16h29.49.136,FishGame,2022.1.1,60.002148077322765,
,21,넌 우유부단해,4,Green,A,2.666666666666667,3.166666666666667,ScrollDown,ScrollUp,Green.png,3,Negative,Incongruent,,,,,0,0,0,0,,,,,,,,,,,,,,,,,,,,,0,20,20,20,,,,,,,,,,,,,,,,,,,,,,,,,,,,,,,,,,,,,,,,,,,,,,,,,,,,,,,,,,,,,,,,,,,,,,,,,1.1033950646718342,0.9189080000014656,454.9578672000007,None,ScrollDown,정답입니다,454.9578672000007,None,454.9578672000007,None,454.9578672000007,None,454.9578672000007,None,455.74775469999986,None,455.74775469999986,456.25732060000155,,,,,,,,,,,,,,,,202,2022-04-26_16h29.49.136,FishGame,2022.1.1,60.002148077322765,
,22,나를 데려가줘,6,Orange,B,0,0,ScrollDown,ScrollUp,Orange.png,3,NonTarget,NonTarget,,,,,0,0,0,0,,,,,,,,,,,,,,,,,,,,,0,21,21,21,,,,,,,,,,,,,,,,,,,,,,,,,,,,,,,,,,,,,,,,,,,,,,,,,,,,,,,,,,,,,,,,,,,,,,,,,1.0509259402751923,1.0317782999991323,456.9059840000009,None,ScrollDown,정답입니다,456.9059840000009,None,456.9059840000009,None,456.9059840000009,None,456.9059840000009,None,457.8107656000011,None,457.8107656000011,458.3239654000008,,,,,,,,,,,,,,,,202,2022-04-26_16h29.49.136,FishGame,2022.1.1,60.002148077322765,
,23,넌 성실해,1,Orange,B,6.041666666666666,5.7,ScrollUp,ScrollDown,Orange.png,3,Positive,Incongruent,,,,,0,0,0,0,,,,,,,,,,,,,,,,,,,,,0,22,22,22,,,,,,,,,,,,,,,,,,,,,,,,,,,,,,,,,,,,,,,,,,,,,,,,,,,,,,,,,,,,,,,,,,,,,,,,,1.7006172885497413,1.038781100000051,458.97116220000134,None,ScrollUp,정답입니다,458.97116220000134,None,458.97116220000134,None,458.97116220000134,None,458.97116220000134,None,459.88460339999983,None,459.88460339999983,460.3901583000006,,,,,,,,,,,,,,,,202,2022-04-26_16h29.49.136,FishGame,2022.1.1,60.002148077322765,
,24,넌 현실주의적이야,3,Green,A,4.625,4.4,ScrollDown,ScrollUp,Green.png,3,Neutral,Neutral,,,,,0,0,0,0,,,,,,,,,,,,,,,,,,,,,0,23,23,23,,,,,,,,,,,,,,,,,,,,,,,,,,,,,,,,,,,,,,,,,,,,,,,,,,,,,,,,,,,,,,,,,,,,,,,,,1.0216049253940582,0.9052065000014409,461.0302016000005,None,ScrollDown,정답입니다,461.0302016000005,None,461.0302016000005,None,461.0302016000005,None,461.0302016000005,None,461.81664980000096,None,461.81664980000096,462.3231491000006,,,,,,,,,,,,,,,,202,2022-04-26_16h29.49.136,FishGame,2022.1.1,60.002148077322765,
,25,넌 진실돼,1,Green,A,6.625,5.566666666666666,ScrollDown,ScrollUp,Green.png,3,Positive,Congruent,,,,,0,0,0,0,,,,,,,,,,,,,,,,,,,,,0,24,24,24,,,,,,,,,,,,,,,,,,,,,,,,,,,,,,,,,,,,,,,,,,,,,,,,,,,,,,,,,,,,,,,,,,,,,,,,,1.0632716019948323,0.9328304000009666,462.9695147000002,None,ScrollDown,정답입니다,462.9695147000002,None,462.9695147000002,None,462.9695147000002,None,462.9695147000002,None,463.77796450000096,None,463.77796450000096,464.2894143000012,,,,,,,,,,,,,,,,202,2022-04-26_16h29.49.136,FishGame,2022.1.1,60.002148077322765,
,26,넌 천진난만해,3,Orange,B,4.958333333333334,4.833333333333333,ScrollUp,ScrollDown,Orange.png,3,Neutral,Neutral,,,,,0,0,0,0,,,,,,,,,,,,,,,,,,,,,0,25,25,25,,,,,,,,,,,,,,,,,,,,,,,,,,,,,,,,,,,,,,,,,,,,,,,,,,,,,,,,,,,,,,,,,,,,,,,,,1.7361111094554267,0.8556494000004022,464.94825670000137,None,ScrollUp,정답입니다,464.94825670000137,None,464.94825670000137,None,464.94825670000137,None,464.94825670000137,None,465.67289230000097,None,465.67289230000097,466.17273920000116,,,,,,,,,,,,,,,,202,2022-04-26_16h29.49.136,FishGame,2022.1.1,60.002148077322765,
,27,넌 교양없어,5,Green,A,2.416666666666667,2.2,ScrollDown,ScrollUp,Green.png,3,Negative,Incongruent,,,,,0,0,0,0,,,,,,,,,,,,,,,,,,,,,0,26,26,26,,,,,,,,,,,,,,,,,,,,,,,,,,,,,,,,,,,,,,,,,,,,,,,,,,,,,,,,,,,,,,,,,,,,,,,,,1.1141975373029709,0.8819958999993105,466.8166247999998,None,ScrollDown,정답입니다,466.8166247999998,None,466.8166247999998,None,466.8166247999998,None,466.8166247999998,None,467.57733050000024,None,467.57733050000024,468.0890503999999,,,,,,,,,,,,,,,,202,2022-04-26_16h29.49.136,FishGame,2022.1.1,60.002148077322765,
,28,나를 보내줘,6,Green,A,0,0,ScrollUp,ScrollDown,Green.png,3,NonTarget,NonTarget,,,,,0,0,0,0,,,,,,,,,,,,,,,,,,,,,0,27,27,27,,,,,,,,,,,,,,,,,,,,,,,,,,,,,,,,,,,,,,,,,,,,,,,,,,,,,,,,,,,,,,,,,,,,,,,,,1.7824074029922485,1.0150208999984898,468.72856409999986,None,ScrollUp,정답입니다,468.72856409999986,None,468.72856409999986,None,468.72856409999986,None,468.72856409999986,None,469.62579670000014,None,469.62579670000014,470.1388504000006,,,,,,,,,,,,,,,,202,2022-04-26_16h29.49.136,FishGame,2022.1.1,60.002148077322765,
,29,넌 엉뚱스러워,3,Green,A,4.166666666666667,4.133333333333334,ScrollDown,ScrollUp,Green.png,3,Neutral,Neutral,,,,,0,0,0,0,,,,,,,,,,,,,,,,,,,,,0,28,28,28,,,,,,,,,,,,,,,,,,,,,,,,,,,,,,,,,,,,,,,,,,,,,,,,,,,,,,,,,,,,,,,,,,,,,,,,,1.2438271592060726,0.9179949999997916,470.7911916000012,None,ScrollDown,정답입니다,470.7911916000012,None,470.7911916000012,None,470.7911916000012,None,470.7911916000012,None,471.57830060000015,None,471.57830060000015,472.08846730000005,,,,,,,,,,,,,,,,202,2022-04-26_16h29.49.136,FishGame,2022.1.1,60.002148077322765,
,30,넌 무지해,4,Orange,B,2.541666666666667,3.066666666666667,ScrollUp,ScrollDown,Orange.png,3,Negative,Congruent,,,,,0,0,0,0,,,,,,,,,,,,,,,,,,,,,0,29,29,29,,,,,,,,,,,,,,,,,,,,,,,,,,,,,,,,,,,,,,,,,,,,,,,,,,,,,,,,,,,,,,,,,,,,,,,,,1.703703703979651,0.8827543999996124,472.7329062000008,None,ScrollUp,정답입니다,472.7329062000008,None,472.7329062000008,None,472.7329062000008,None,472.7329062000008,None,473.4933286000014,None,473.4933286000014,474.00501670000085,,,,,,,,,,,,,,,,202,2022-04-26_16h29.49.136,FishGame,2022.1.1,60.002148077322765,
,31,넌 음울해,5,Orange,B,2.25,2.233333333333333,ScrollUp,ScrollDown,Orange.png,3,Negative,Congruent,,,,,0,0,0,0,,,,,,,,,,,,,,,,,,,,,0,30,30,30,,,,,,,,,,,,,,,,,,,,,,,,,,,,,,,,,,,,,,,,,,,,,,,,,,,,,,,,,,,,,,,,,,,,,,,,,1.6450617238879204,1.0467530999994779,474.65919290000056,None,ScrollUp,정답입니다,474.65919290000056,None,474.65919290000056,None,474.65919290000056,None,474.65919290000056,None,475.573370600001,None,475.573370600001,476.0882891000001,,,,,,,,,,,,,,,,202,2022-04-26_16h29.49.136,FishGame,2022.1.1,60.002148077322765,
,32,넌 냉소적이야,5,Green,A,2.916666666666667,2.4,ScrollDown,ScrollUp,Green.png,3,Negative,Incongruent,,,,,0,0,0,0,,,,,,,,,,,,,,,,,,,,,0,31,31,31,,,,,,,,,,,,,,,,,,,,,,,,,,,,,,,,,,,,,,,,,,,,,,,,,,,,,,,,,,,,,,,,,,,,,,,,,1.1080246816078823,0.8447256999988895,476.72690330000114,None,ScrollDown,정답입니다,476.72690330000114,None,476.72690330000114,None,476.72690330000114,None,476.72690330000114,None,477.45444000000134,None,477.45444000000134,477.95452680000017,,,,,,,,,,,,,,,,202,2022-04-26_16h29.49.136,FishGame,2022.1.1,60.002148077322765,
,33,나를 데려가줘,6,Orange,B,0,0,ScrollDown,ScrollUp,Orange.png,3,NonTarget,NonTarget,,,,,0,0,0,0,,,,,,,,,,,,,,,,,,,,,0,32,32,32,,,,,,,,,,,,,,,,,,,,,,,,,,,,,,,,,,,,,,,,,,,,,,,,,,,,,,,,,,,,,,,,,,,,,,,,,1.1018518507480621,1.0217321000000084,478.6000604000001,None,ScrollDown,정답입니다,478.6000604000001,None,478.6000604000001,None,478.6000604000001,None,478.6000604000001,None,479.50404870000057,None,479.50404870000057,480.0041710000005,,,,,,,,,,,,,,,,202,2022-04-26_16h29.49.136,FishGame,2022.1.1,60.002148077322765,
,34,넌 쾌활해,1,Green,A,5.541666666666666,5.733333333333333,ScrollDown,ScrollUp,Green.png,3,Positive,Congruent,,,,,0,0,0,0,,,,,,,,,,,,,,,,,,,,,0,33,33,33,,,,,,,,,,,,,,,,,,,,,,,,,,,,,,,,,,,,,,,,,,,,,,,,,,,,,,,,,,,,,,,,,,,,,,,,,1.212962955236435,0.8840521999991324,480.65212840000095,None,ScrollDown,정답입니다,480.65212840000095,None,480.65212840000095,None,480.65212840000095,None,480.65212840000095,None,481.41036650000024,None,481.41036650000024,481.920763600001,,,,,,,,,,,,,,,,202,2022-04-26_16h29.49.136,FishGame,2022.1.1,60.002148077322765,
,35,나를 보내줘,6,Green,A,0,0,ScrollUp,ScrollDown,Green.png,3,NonTarget,NonTarget,,,,,0,0,0,0,,,,,,,,,,,,,,,,,,,,,0,34,34,34,,,,,,,,,,,,,,,,,,,,,,,,,,,,,,,,,,,,,,,,,,,,,,,,,,,,,,,,,,,,,,,,,,,,,,,,,1.6435185223817825,0.9125062999992224,482.5599093000001,None,ScrollUp,정답입니다,482.5599093000001,None,482.5599093000001,None,482.5599093000001,None,482.5599093000001,None,483.35502989999986,None,483.35502989999986,483.8704910000015,,,,,,,,,,,,,,,,202,2022-04-26_16h29.49.136,FishGame,2022.1.1,60.002148077322765,
,36,넌 명랑해,1,Orange,B,5.739130434782609,5.666666666666667,ScrollUp,ScrollDown,Orange.png,3,Positive,Incongruent,,,,,0,0,0,0,,,,,,,,,,,,,,,,,,,,,0,35,35,35,,,,,,,,,,,,,,,,,,,,,,,,,,,,,,,,,,,,,,,,,,,,,,,,,,,,,,,,,,,,,,,,,,,,,,,,,1.6898148159186044,0.911131299999397,484.52233380000143,None,ScrollUp,정답입니다,484.52233380000143,None,484.52233380000143,None,484.52233380000143,None,484.52233380000143,None,485.30394030000025,None,485.30394030000025,485.80338140000094,,,,,,,,,,,,,,,,202,2022-04-26_16h29.49.136,FishGame,2022.1.1,60.002148077322765,
,37,넌 멍해,4,Green,A,2.833333333333333,3.4,ScrollDown,ScrollUp,Green.png,3,Negative,Incongruent,,,,,0,0,0,0,,,,,,,,,,,,,,,,,,,,,0,36,36,36,,,,,,,,,,,,,,,,,,,,,,,,,,,,,,,,,,,,,,,,,,,,,,,,,,,,,,,,,,,,,,,,,,,,,,,,,1.0154321193695068,1.0050240000000485,486.45631630000025,None,ScrollDown,정답입니다,486.45631630000025,None,486.45631630000025,None,486.45631630000025,None,486.45631630000025,None,487.32955240000047,None,487.32955240000047,487.836736700001,,,,,,,,,,,,,,,,202,2022-04-26_16h29.49.136,FishGame,2022.1.1,60.002148077322765,
,38,나를 데려가줘,6,Orange,B,0,0,ScrollDown,ScrollUp,Orange.png,3,NonTarget,NonTarget,,,,,0,0,0,0,,,,,,,,,,,,,,,,,,,,,0,37,37,37,,,,,,,,,,,,,,,,,,,,,,,,,,,,,,,,,,,,,,,,,,,,,,,,,,,,,,,,,,,,,,,,,,,,,,,,,1.095679019888242,1.0093474999994214,488.4818477000008,None,ScrollDown,정답입니다,488.4818477000008,None,488.4818477000008,None,488.4818477000008,None,488.4818477000008,None,489.36942850000014,None,489.36942850000014,489.86954400000104,,,,,,,,,,,,,,,,202,2022-04-26_16h29.49.136,FishGame,2022.1.1,60.002148077322765,
,39,넌 현명해,2,Green,A,6.541666666666666,4.533333333333333,ScrollDown,ScrollUp,Green.png,3,Positive,Congruent,,,,,0,0,0,0,,,,,,,,,,,,,,,,,,,,,0,38,38,38,,,,,,,,,,,,,,,,,,,,,,,,,,,,,,,,,,,,,,,,,,,,,,,,,,,,,,,,,,,,,,,,,,,,,,,,,1.2901234527428946,0.8960632000016631,490.51191780000045,None,ScrollDown,정답입니다,490.51191780000045,None,490.51191780000045,None,490.51191780000045,None,490.51191780000045,None,491.2881758000003,None,491.2881758000003,491.8027952000011,,,,,,,,,,,,,,,,202,2022-04-26_16h29.49.136,FishGame,2022.1.1,60.002148077322765,
,40,넌 수줍어,3,Orange,B,3.541666666666666,4.366666666666666,ScrollUp,ScrollDown,Orange.png,3,Neutral,Neutral,,,,,0,0,0,0,,,,,,,,,,,,,,,,,,,,,0,39,39,39,,,,,,,,,,,,,,,,,,,,,,,,,,,,,,,,,,,,,,,,,,,,,,,,,,,,,,,,,,,,,,,,,,,,,,,,,1.8163580348094304,0.9517469000002166,492.45045010000104,None,ScrollUp,정답입니다,492.45045010000104,None,492.45045010000104,None,492.45045010000104,None,492.45045010000104,None,493.27518370000143,None,493.27518370000143,493.785868500001,,,,,,,,,,,,,,,,202,2022-04-26_16h29.49.136,FishGame,2022.1.1,60.002148077322765,
,41,나를 데려가줘,6,Orange,B,0,0,ScrollDown,ScrollUp,Orange.png,3,NonTarget,NonTarget,,,,,0,0,0,0,,,,,,,,,,,,,,,,,,,,,0,40,40,40,,,,,,,,,,,,,,,,,,,,,,,,,,,,,,,,,,,,,,,,,,,,,,,,,,,,,,,,,,,,,,,,,,,,,,,,,1.0385802288850148,0.9807760000003327,494.4299208000011,None,ScrollDown,정답입니다,494.4299208000011,None,494.4299208000011,None,494.4299208000011,None,494.4299208000011,None,495.288572200001,None,495.288572200001,495.80232010000145,,,,,,,,,,,,,,,,202,2022-04-26_16h29.49.136,FishGame,2022.1.1,60.002148077322765,
,42,넌 성숙해,2,Orange,B,5.833333333333333,4.533333333333333,ScrollUp,ScrollDown,Orange.png,3,Positive,Incongruent,,,,,0,0,0,0,,,,,,,,,,,,,,,,,,,,,0,41,41,41,,,,,,,,,,,,,,,,,,,,,,,,,,,,,,,,,,,,,,,,,,,,,,,,,,,,,,,,,,,,,,,,,,,,,,,,,1.6466049378116927,0.9825760000003356,496.4511097000013,None,ScrollUp,정답입니다,496.4511097000013,None,496.4511097000013,None,496.4511097000013,None,496.4511097000013,None,497.3060548000012,None,497.3060548000012,497.8185545000015,,,,,,,,,,,,,,,,202,2022-04-26_16h29.49.136,FishGame,2022.1.1,60.002148077322765,
,1,넌 매력적이야,2,Orange,B,6.125,4.666666666666667,ScrollUp,ScrollDown,Orange.png,4,Positive,Incongruent,,,,,0,0,0,0,,,,,,,,,,,,,,,,,,,,,,,,,0,0,0,0,,,,,,,,,,,,,,,,,,,,,,,,,,,,532.1475476000014,533.6473087000013,533.6806198000013,534.6305014999998,534.6805034000008,535.6305241000009,535.6305241000009,None,,,,,,,,,,,,,,,,,,,,,,,,,,,,,,,,,,1.7808641890684764,1.0895020999996632,536.817682500001,None,ScrollUp,정답입니다,536.817682500001,None,536.817682500001,None,536.817682500001,None,536.817682500001,None,537.7344212000007,None,537.7344212000007,538.246708300001,498.3184458000014,None,498.3184458000014,None,0.27037036,-0.07685185,1,0,0,0.016226429999733227,None,528.3144298000007,None,,,202,2022-04-26_16h29.49.136,FishGame,2022.1.1,60.002148077322765,
,2,나를 보내줘,6,Green,A,0,0,ScrollUp,ScrollDown,Green.png,4,NonTarget,NonTarget,,,,,0,0,0,0,,,,,,,,,,,,,,,,,,,,,,,,,0,1,1,1,,,,,,,,,,,,,,,,,,,,,,,,,,,,,,,,,,,,,,,,,,,,,,,,,,,,,,,,,,,,,,,,,,,,,1.4475308631857235,1.0257763000008708,538.8844914000001,None,ScrollDown,오답입니다,538.8844914000001,None,538.8844914000001,None,538.8844914000001,None,538.8844914000001,None,539.7989539999999,None,539.7989539999999,540.3132081000003,,,,,,,,,,,,,,,,202,2022-04-26_16h29.49.136,FishGame,2022.1.1,60.002148077322765,
,3,넌 조심스러워,3,Green,A,4.791666666666666,4.666666666666667,ScrollDown,ScrollUp,Green.png,4,Neutral,Neutral,,,,,0,0,0,0,,,,,,,,,,,,,,,,,,,,,,,,,0,2,2,2,,,,,,,,,,,,,,,,,,,,,,,,,,,,,,,,,,,,,,,,,,,,,,,,,,,,,,,,,,,,,,,,,,,,,1.141975313425064,1.1744498000007297,540.9569144000016,None,ScrollDown,정답입니다,540.9569144000016,None,540.9569144000016,None,540.9569144000016,None,540.9569144000016,None,542.0071563000001,None,542.0071563000001,542.5129245000007,,,,,,,,,,,,,,,,202,2022-04-26_16h29.49.136,FishGame,2022.1.1,60.002148077322765,
,4,넌 철학적이야,3,Orange,B,4.5,4.266666666666667,ScrollUp,ScrollDown,Orange.png,4,Neutral,Neutral,,,,,0,0,0,0,,,,,,,,,,,,,,,,,,,,,,,,,0,3,3,3,,,,,,,,,,,,,,,,,,,,,,,,,,,,,,,,,,,,,,,,,,,,,,,,,,,,,,,,,,,,,,,,,,,,,1.658950611948967,0.8938477000010607,543.1623412000008,None,ScrollUp,정답입니다,543.1623412000008,None,543.1623412000008,None,543.1623412000008,None,543.1623412000008,None,543.9296176000007,None,543.9296176000007,544.429382100001,,,,,,,,,,,,,,,,202,2022-04-26_16h29.49.136,FishGame,2022.1.1,60.002148077322765,
,5,넌 쩨쩨해,5,Green,A,2.375,2.133333333333333,ScrollDown,ScrollUp,Green.png,4,Negative,Incongruent,,,,,0,0,0,0,,,,,,,,,,,,,,,,,,,,,,,,,0,4,4,4,,,,,,,,,,,,,,,,,,,,,,,,,,,,,,,,,,,,,,,,,,,,,,,,,,,,,,,,,,,,,,,,,,,,,1.1126543233791988,0.9271941000006336,545.0789070999999,None,ScrollDown,정답입니다,545.0789070999999,None,545.0789070999999,None,545.0789070999999,None,545.0789070999999,None,545.8744377000003,None,545.8744377000003,546.3788444000002,,,,,,,,,,,,,,,,202,2022-04-26_16h29.49.136,FishGame,2022.1.1,60.002148077322765,
,6,나를 데려가줘,6,Orange,B,0,0,ScrollDown,ScrollUp,Orange.png,4,NonTarget,NonTarget,,,,,0,0,0,0,,,,,,,,,,,,,,,,,,,,,,,,,0,5,5,5,,,,,,,,,,,,,,,,,,,,,,,,,,,,,,,,,,,,,,,,,,,,,,,,,,,,,,,,,,,,,,,,,,,,,1.0015431940555573,1.0663855000002513,547.0275715000007,None,ScrollDown,정답입니다,547.0275715000007,None,547.0275715000007,None,547.0275715000007,None,547.0275715000007,None,547.9669670000003,None,547.9669670000003,548.4787368000016,,,,,,,,,,,,,,,,202,2022-04-26_16h29.49.136,FishGame,2022.1.1,60.002148077322765,
,7,넌 고집불통이야,5,Orange,B,2.875,2,ScrollUp,ScrollDown,Orange.png,4,Negative,Congruent,,,,,0,0,0,0,,,,,,,,,,,,,,,,,,,,,,,,,0,6,6,6,,,,,,,,,,,,,,,,,,,,,,,,,,,,,,,,,,,,,,,,,,,,,,,,,,,,,,,,,,,,,,,,,,,,,1.6003086442748704,0.9295206999995571,549.1307305999999,None,ScrollUp,정답입니다,549.1307305999999,None,549.1307305999999,None,549.1307305999999,None,549.1307305999999,None,549.9301635000011,None,549.9301635000011,550.4452855,,,,,,,,,,,,,,,,202,2022-04-26_16h29.49.136,FishGame,2022.1.1,60.002148077322765,
,8,넌 무심해,4,Green,A,2.875,3.2,ScrollDown,ScrollUp,Green.png,4,Negative,Incongruent,,,,,0,0,0,0,,,,,,,,,,,,,,,,,,,,,,,,,0,7,7,7,,,,,,,,,,,,,,,,,,,,,,,,,,,,,,,,,,,,,,,,,,,,,,,,,,,,,,,,,,,,,,,,,,,,,1.1898148208856583,0.8656577999990986,551.0907693000008,None,ScrollDown,정답입니다,551.0907693000008,None,551.0907693000008,None,551.0907693000008,None,551.0907693000008,None,551.8329312000005,None,551.8329312000005,552.3450143999999,,,,,,,,,,,,,,,,202,2022-04-26_16h29.49.136,FishGame,2022.1.1,60.002148077322765,
,9,넌 정겨워,1,Green,A,5.791666666666667,5.666666666666667,ScrollDown,ScrollUp,Green.png,4,Positive,Congruent,,,,,0,0,0,0,,,,,,,,,,,,,,,,,,,,,,,,,0,8,8,8,,,,,,,,,,,,,,,,,,,,,,,,,,,,,,,,,,,,,,,,,,,,,,,,,,,,,,,,,,,,,,,,,,,,,1.2299382835626602,0.8289499000002252,552.991241400001,None,ScrollDown,정답입니다,552.991241400001,None,552.991241400001,None,552.991241400001,None,552.991241400001,None,553.6968174000012,None,553.6968174000012,554.2113754000002,,,,,,,,,,,,,,,,202,2022-04-26_16h29.49.136,FishGame,2022.1.1,60.002148077322765,
,10,나를 데려가줘,6,Orange,B,0,0,ScrollDown,ScrollUp,Orange.png,4,NonTarget,NonTarget,,,,,0,0,0,0,,,,,,,,,,,,,,,,,,,,,,,,,0,9,9,9,,,,,,,,,,,,,,,,,,,,,,,,,,,,,,,,,,,,,,,,,,,,,,,,,,,,,,,,,,,,,,,,,,,,,1.2746913631757102,1.078701700000238,554.8808777000013,None,ScrollDown,정답입니다,554.8808777000013,None,554.8808777000013,None,554.8808777000013,None,554.8808777000013,None,555.8109073000014,None,555.8109073000014,556.3110555000003,,,,,,,,,,,,,,,,202,2022-04-26_16h29.49.136,FishGame,2022.1.1,60.002148077322765,
,11,넌 체제순응적이야,4,Orange,B,3,3.6,ScrollUp,ScrollDown,Orange.png,4,Negative,Congruent,,,,,0,0,0,0,,,,,,,,,,,,,,,,,,,,,,,,,0,10,10,10,,,,,,,,,,,,,,,,,,,,,,,,,,,,,,,,,,,,,,,,,,,,,,,,,,,,,,,,,,,,,,,,,,,,,1.7314814925193787,1.0237324999998236,556.9778120999999,None,ScrollUp,정답입니다,556.9778120999999,None,556.9778120999999,None,556.9778120999999,None,556.9778120999999,None,557.8564466000007,None,557.8564466000007,558.3607104000002,,,,,,,,,,,,,,,,202,2022-04-26_16h29.49.136,FishGame,2022.1.1,60.002148077322765,
,12,나를 보내줘,6,Green,A,0,0,ScrollUp,ScrollDown,Green.png,4,NonTarget,NonTarget,,,,,0,0,0,0,,,,,,,,,,,,,,,,,,,,,,,,,0,11,11,11,,,,,,,,,,,,,,,,,,,,,,,,,,,,,,,,,,,,,,,,,,,,,,,,,,,,,,,,,,,,,,,,,,,,,1.7160493781169257,1.0375249999997322,559.0000264999999,None,ScrollUp,정답입니다,559.0000264999999,None,559.0000264999999,None,559.0000264999999,None,559.0000264999999,None,559.9203065000002,None,559.9203065000002,560.4273137,,,,,,,,,,,,,,,,202,2022-04-26_16h29.49.136,FishGame,2022.1.1,60.002148077322765,
,13,넌 박식해,2,Green,A,5.625,3.933333333333333,ScrollDown,ScrollUp,Green.png,4,Positive,Congruent,,,,,0,0,0,0,,,,,,,,,,,,,,,,,,,,,,,,,0,12,12,12,,,,,,,,,,,,,,,,,,,,,,,,,,,,,,,,,,,,,,,,,,,,,,,,,,,,,,,,,,,,,,,,,,,,,1.0154321193695068,0.9837287000009383,561.0792984,None,ScrollDown,정답입니다,561.0792984,None,561.0792984,None,561.0792984,None,561.0792984,None,561.9332866000004,None,561.9332866000004,562.4436112000003,,,,,,,,,,,,,,,,202,2022-04-26_16h29.49.136,FishGame,2022.1.1,60.002148077322765,
,14,나를 보내줘,6,Green,A,0,0,ScrollUp,ScrollDown,Green.png,4,NonTarget,NonTarget,,,,,0,0,0,0,,,,,,,,,,,,,,,,,,,,,,,,,0,13,13,13,,,,,,,,,,,,,,,,,,,,,,,,,,,,,,,,,,,,,,,,,,,,,,,,,,,,,,,,,,,,,,,,,,,,,1.8302469104528427,1.0243140000002313,563.0894994999999,None,ScrollUp,정답입니다,563.0894994999999,None,563.0894994999999,None,563.0894994999999,None,563.0894994999999,None,563.9934045999998,None,563.9934045999998,564.4933197999999,,,,,,,,,,,,,,,,202,2022-04-26_16h29.49.136,FishGame,2022.1.1,60.002148077322765,
,15,넌 침착해,1,Orange,B,5.458333333333333,5.566666666666666,ScrollUp,ScrollDown,Orange.png,4,Positive,Incongruent,,,,,0,0,0,0,,,,,,,,,,,,,,,,,,,,,,,,,0,14,14,14,,,,,,,,,,,,,,,,,,,,,,,,,,,,,,,,,,,,,,,,,,,,,,,,,,,,,,,,,,,,,,,,,,,,,1.6265432064731917,0.9805663999995886,565.1462865000012,None,ScrollUp,정답입니다,565.1462865000012,None,565.1462865000012,None,565.1462865000012,None,565.1462865000012,None,565.9973141999999,None,565.9973141999999,566.5097896000007,,,,,,,,,,,,,,,,202,2022-04-26_16h29.49.136,FishGame,2022.1.1,60.002148077322765,
,16,나를 데려가줘,6,Orange,B,0,0,ScrollDown,ScrollUp,Orange.png,4,NonTarget,NonTarget,,,,,0,0,0,0,,,,,,,,,,,,,,,,,,,,,,,,,0,15,15,15,,,,,,,,,,,,,,,,,,,,,,,,,,,,,,,,,,,,,,,,,,,,,,,,,,,,,,,,,,,,,,,,,,,,,1.1373456716537476,0.9849885999992694,567.1579105000001,None,ScrollDown,정답입니다,567.1579105000001,None,567.1579105000001,None,567.1579105000001,None,567.1579105000001,None,568.0162471000003,None,568.0162471000003,568.5262536000009,,,,,,,,,,,,,,,,202,2022-04-26_16h29.49.136,FishGame,2022.1.1,60.002148077322765,
,17,넌 행복해,1,Green,A,6.416666666666666,6.166666666666667,ScrollDown,ScrollUp,Green.png,4,Positive,Congruent,,,,,0,0,0,0,,,,,,,,,,,,,,,,,,,,,,,,,0,16,16,16,,,,,,,,,,,,,,,,,,,,,,,,,,,,,,,,,,,,,,,,,,,,,,,,,,,,,,,,,,,,,,,,,,,,,1.1574074029922485,0.9441082999983337,569.1721468000014,None,ScrollDown,정답입니다,569.1721468000014,None,569.1721468000014,None,569.1721468000014,None,569.1721468000014,None,569.9926759999998,None,569.9926759999998,570.4925039000009,,,,,,,,,,,,,,,,202,2022-04-26_16h29.49.136,FishGame,2022.1.1,60.002148077322765,
,18,넌 겸손해,2,Orange,B,5.791666666666667,4.766666666666667,ScrollUp,ScrollDown,Orange.png,4,Positive,Incongruent,,,,,0,0,0,0,,,,,,,,,,,,,,,,,,,,,,,,,0,17,17,17,,,,,,,,,,,,,,,,,,,,,,,,,,,,,,,,,,,,,,,,,,,,,,,,,,,,,,,,,,,,,,,,,,,,,1.7160493781169257,0.8484816000000137,571.1437713000014,None,ScrollUp,정답입니다,571.1437713000014,None,571.1437713000014,None,571.1437713000014,None,571.1437713000014,None,571.8635191000012,None,571.8635191000012,572.3756965000011,,,,,,,,,,,,,,,,202,2022-04-26_16h29.49.136,FishGame,2022.1.1,60.002148077322765,
,19,나를 보내줘,6,Green,A,0,0,ScrollUp,ScrollDown,Green.png,4,NonTarget,NonTarget,,,,,0,0,0,0,,,,,,,,,,,,,,,,,,,,,,,,,0,18,18,18,,,,,,,,,,,,,,,,,,,,,,,,,,,,,,,,,,,,,,,,,,,,,,,,,,,,,,,,,,,,,,,,,,,,,1.7407407512267432,0.962039599999116,573.0165966000004,None,ScrollUp,정답입니다,573.0165966000004,None,573.0165966000004,None,573.0165966000004,None,573.0165966000004,None,573.8593384000014,None,573.8593384000014,574.3586184000014,,,,,,,,,,,,,,,,202,2022-04-26_16h29.49.136,FishGame,2022.1.1,60.002148077322765,
,20,넌 의심없어,3,Green,A,4.166666666666667,4.6,ScrollDown,ScrollUp,Green.png,4,Neutral,Neutral,,,,,0,0,0,0,,,,,,,,,,,,,,,,,,,,,,,,,0,19,19,19,,,,,,,,,,,,,,,,,,,,,,,,,,,,,,,,,,,,,,,,,,,,,,,,,,,,,,,,,,,,,,,,,,,,,1.1882716069618862,0.9642937000007805,574.9983296999999,None,ScrollDown,정답입니다,574.9983296999999,None,574.9983296999999,None,574.9983296999999,None,574.9983296999999,None,575.8456538999999,None,575.8456538999999,576.358461400001,,,,,,,,,,,,,,,,202,2022-04-26_16h29.49.136,FishGame,2022.1.1,60.002148077322765,
,21,넌 시시해,4,Green,A,2.666666666666667,2.966666666666667,ScrollDown,ScrollUp,Green.png,4,Negative,Incongruent,,,,,0,0,0,0,,,,,,,,,,,,,,,,,,,,,,,,,0,20,20,20,,,,,,,,,,,,,,,,,,,,,,,,,,,,,,,,,,,,,,,,,,,,,,,,,,,,,,,,,,,,,,,,,,,,,1.2546296318372092,0.9168370000006689,577.0124811000005,None,ScrollDown,정답입니다,577.0124811000005,None,577.0124811000005,None,577.0124811000005,None,577.0124811000005,None,577.7968532000014,None,577.7968532000014,578.3082085000005,,,,,,,,,,,,,,,,202,2022-04-26_16h29.49.136,FishGame,2022.1.1,60.002148077322765,
,22,나를 데려가줘,6,Orange,B,0,0,ScrollDown,ScrollUp,Orange.png,4,NonTarget,NonTarget,,,,,0,0,0,0,,,,,,,,,,,,,,,,,,,,,,,,,0,21,21,21,,,,,,,,,,,,,,,,,,,,,,,,,,,,,,,,,,,,,,,,,,,,,,,,,,,,,,,,,,,,,,,,,,,,,1.0709876716136932,1.1037875000001804,578.9563704000011,None,ScrollDown,정답입니다,578.9563704000011,None,578.9563704000011,None,578.9563704000011,None,578.9563704000011,None,579.9327731000012,None,579.9327731000012,580.4411752000015,,,,,,,,,,,,,,,,202,2022-04-26_16h29.49.136,FishGame,2022.1.1,60.002148077322765,
,23,넌 무정해,5,Green,A,2.5,2.2,ScrollDown,ScrollUp,Green.png,4,Negative,Incongruent,,,,,0,0,0,0,,,,,,,,,,,,,,,,,,,,,,,,,0,22,22,22,,,,,,,,,,,,,,,,,,,,,,,,,,,,,,,,,,,,,,,,,,,,,,,,,,,,,,,,,,,,,,,,,,,,,1.126543199022611,0.9492176000003383,581.0803923000003,None,ScrollDown,정답입니다,581.0803923000003,None,581.0803923000003,None,581.0803923000003,None,581.0803923000003,None,581.9127013000016,None,581.9127013000016,582.4243960000003,,,,,,,,,,,,,,,,202,2022-04-26_16h29.49.136,FishGame,2022.1.1,60.002148077322765,
,24,넌 긍정적이야,1,Orange,B,6.041666666666667,6.066666666666666,ScrollUp,ScrollDown,Orange.png,4,Positive,Incongruent,,,,,0,0,0,0,,,,,,,,,,,,,,,,,,,,,,,,,0,23,23,23,,,,,,,,,,,,,,,,,,,,,,,,,,,,,,,,,,,,,,,,,,,,,,,,,,,,,,,,,,,,,,,,,,,,,1.6682098706563315,1.0438035000006494,583.0788931000006,None,ScrollUp,정답입니다,583.0788931000006,None,583.0788931000006,None,583.0788931000006,None,583.0788931000006,None,583.990594500001,None,583.990594500001,584.4906049000001,,,,,,,,,,,,,,,,202,2022-04-26_16h29.49.136,FishGame,2022.1.1,60.002148077322765,
,25,나를 보내줘,6,Green,A,0,0,ScrollUp,ScrollDown,Green.png,4,NonTarget,NonTarget,,,,,0,0,0,0,,,,,,,,,,,,,,,,,,,,,,,,,0,24,24,24,,,,,,,,,,,,,,,,,,,,,,,,,,,,,,,,,,,,,,,,,,,,,,,,,,,,,,,,,,,,,,,,,,,,,1.7361111094554267,1.0153324000002613,585.1330455000007,None,ScrollUp,정답입니다,585.1330455000007,None,585.1330455000007,None,585.1330455000007,None,585.1330455000007,None,586.0279340000016,None,586.0279340000016,586.5405136000008,,,,,,,,,,,,,,,,202,2022-04-26_16h29.49.136,FishGame,2022.1.1,60.002148077322765,
,26,넌 시기심이 많아,5,Orange,B,2.458333333333333,2.233333333333333,ScrollUp,ScrollDown,Orange.png,4,Negative,Congruent,,,,,0,0,0,0,,,,,,,,,,,,,,,,,,,,,,,,,0,25,25,25,,,,,,,,,,,,,,,,,,,,,,,,,,,,,,,,,,,,,,,,,,,,,,,,,,,,,,,,,,,,,,,,,,,,,1.6388888930281005,0.9709687000013218,587.1943661000005,None,ScrollUp,정답입니다,587.1943661000005,None,587.1943661000005,None,587.1943661000005,None,587.1943661000005,None,588.0331804000016,None,588.0331804000016,588.5402772000016,,,,,,,,,,,,,,,,202,2022-04-26_16h29.49.136,FishGame,2022.1.1,60.002148077322765,
,27,넌 탁월해,2,Green,A,5.708333333333334,4.5,ScrollDown,ScrollUp,Green.png,4,Positive,Congruent,,,,,0,0,0,0,,,,,,,,,,,,,,,,,,,,,,,,,0,26,26,26,,,,,,,,,,,,,,,,,,,,,,,,,,,,,,,,,,,,,,,,,,,,,,,,,,,,,,,,,,,,,,,,,,,,,1.1990740795930226,0.8426789999994071,589.2062462000013,None,ScrollDown,정답입니다,589.2062462000013,None,589.2062462000013,None,589.2062462000013,None,589.2062462000013,None,589.9067464,None,589.9067464,590.4067961000001,,,,,,,,,,,,,,,,202,2022-04-26_16h29.49.136,FishGame,2022.1.1,60.002148077322765,
,28,나를 데려가줘,6,Orange,B,0,0,ScrollDown,ScrollUp,Orange.png,4,NonTarget,NonTarget,,,,,0,0,0,0,,,,,,,,,,,,,,,,,,,,,,,,,0,27,27,27,,,,,,,,,,,,,,,,,,,,,,,,,,,,,,,,,,,,,,,,,,,,,,,,,,,,,,,,,,,,,,,,,,,,,1.2932098805904388,0.9781005999993795,591.0725559000002,None,ScrollDown,정답입니다,591.0725559000002,None,591.0725559000002,None,591.0725559000002,None,591.0725559000002,None,591.9062469,None,591.9062469,592.4064049000008,,,,,,,,,,,,,,,,202,2022-04-26_16h29.49.136,FishGame,2022.1.1,60.002148077322765,
,29,넌 조용해,3,Orange,B,4.333333333333333,4.166666666666667,ScrollUp,ScrollDown,Orange.png,4,Neutral,Neutral,,,,,0,0,0,0,,,,,,,,,,,,,,,,,,,,,,,,,0,28,28,28,,,,,,,,,,,,,,,,,,,,,,,,,,,,,,,,,,,,,,,,,,,,,,,,,,,,,,,,,,,,,,,,,,,,,1.6712962985038757,1.0369181000005483,593.0556604000012,None,ScrollUp,정답입니다,593.0556604000012,None,593.0556604000012,None,593.0556604000012,None,593.0556604000012,None,593.9648816000008,None,593.9648816000008,594.4729328000012,,,,,,,,,,,,,,,,202,2022-04-26_16h29.49.136,FishGame,2022.1.1,60.002148077322765,
,30,넌 다정해,1,Green,A,5.833333333333334,5.7,ScrollDown,ScrollUp,Green.png,4,Positive,Congruent,,,,,0,0,0,0,,,,,,,,,,,,,,,,,,,,,,,,,0,29,29,29,,,,,,,,,,,,,,,,,,,,,,,,,,,,,,,,,,,,,,,,,,,,,,,,,,,,,,,,,,,,,,,,,,,,,1.1388888855775197,0.906620899999325,595.1190212000001,None,ScrollDown,정답입니다,595.1190212000001,None,595.1190212000001,None,595.1190212000001,None,595.1190212000001,None,595.905944600001,None,595.905944600001,596.4058772000008,,,,,,,,,,,,,,,,202,2022-04-26_16h29.49.136,FishGame,2022.1.1,60.002148077322765,
,31,넌 능력있어,2,Orange,B,6.166666666666666,4.6,ScrollUp,ScrollDown,Orange.png,4,Positive,Incongruent,,,,,0,0,0,0,,,,,,,,,,,,,,,,,,,,,,,,,0,30,30,30,,,,,,,,,,,,,,,,,,,,,,,,,,,,,,,,,,,,,,,,,,,,,,,,,,,,,,,,,,,,,,,,,,,,,1.7083333333333335,0.8703829000005499,597.051617000001,None,ScrollUp,정답입니다,597.051617000001,None,597.051617000001,None,597.051617000001,None,597.051617000001,None,597.7977578999999,None,597.7977578999999,598.3057653000014,,,,,,,,,,,,,,,,202,2022-04-26_16h29.49.136,FishGame,2022.1.1,60.002148077322765,
,32,넌 불쾌해,5,Green,A,2.125,1.933333333333333,ScrollDown,ScrollUp,Green.png,4,Negative,Incongruent,,,,,0,0,0,0,,,,,,,,,,,,,,,,,,,,,,,,,0,31,31,31,,,,,,,,,,,,,,,,,,,,,,,,,,,,,,,,,,,,,,,,,,,,,,,,,,,,,,,,,,,,,,,,,,,,,1.1296296268701553,0.8224347999985184,598.9494439000009,None,ScrollDown,정답입니다,598.9494439000009,None,598.9494439000009,None,598.9494439000009,None,598.9494439000009,None,599.6554293999998,None,599.6554293999998,600.1555220000009,,,,,,,,,,,,,,,,202,2022-04-26_16h29.49.136,FishGame,2022.1.1,60.002148077322765,
,33,나를 데려가줘,6,Orange,B,0,0,ScrollDown,ScrollUp,Orange.png,4,NonTarget,NonTarget,,,,,0,0,0,0,,,,,,,,,,,,,,,,,,,,,,,,,0,32,32,32,,,,,,,,,,,,,,,,,,,,,,,,,,,,,,,,,,,,,,,,,,,,,,,,,,,,,,,,,,,,,,,,,,,,,1.1234567960103352,0.9392922000006365,600.7999170000003,None,ScrollDown,정답입니다,600.7999170000003,None,600.7999170000003,None,600.7999170000003,None,600.7999170000003,None,601.6167655000008,None,601.6167655000008,602.1218236000004,,,,,,,,,,,,,,,,202,2022-04-26_16h29.49.136,FishGame,2022.1.1,60.002148077322765,
,34,넌 유순해,3,Green,A,4.458333333333333,5,ScrollDown,ScrollUp,Green.png,4,Neutral,Neutral,,,,,0,0,0,0,,,,,,,,,,,,,,,,,,,,,,,,,0,33,33,33,,,,,,,,,,,,,,,,,,,,,,,,,,,,,,,,,,,,,,,,,,,,,,,,,,,,,,,,,,,,,,,,,,,,,1.3302469154198966,0.8320075999999972,602.7613612000005,None,ScrollDown,정답입니다,602.7613612000005,None,602.7613612000005,None,602.7613612000005,None,602.7613612000005,None,603.4763784000006,None,603.4763784000006,603.9881244000007,,,,,,,,,,,,,,,,202,2022-04-26_16h29.49.136,FishGame,2022.1.1,60.002148077322765,
,35,넌 근심스러워,4,Orange,B,2.708333333333333,3.133333333333333,ScrollUp,ScrollDown,Orange.png,4,Negative,Congruent,,,,,0,0,0,0,,,,,,,,,,,,,,,,,,,,,,,,,0,34,34,34,,,,,,,,,,,,,,,,,,,,,,,,,,,,,,,,,,,,,,,,,,,,,,,,,,,,,,,,,,,,,,,,,,,,,1.7947530895471573,0.8593573999987711,604.643576800001,None,ScrollUp,정답입니다,604.643576800001,None,604.643576800001,None,604.643576800001,None,604.643576800001,None,605.3711072000006,None,605.3711072000006,605.8711618000016,,,,,,,,,,,,,,,,202,2022-04-26_16h29.49.136,FishGame,2022.1.1,60.002148077322765,
,36,넌 세련되었어,2,Green,A,5.5,4.6,ScrollDown,ScrollUp,Green.png,4,Positive,Congruent,,,,,0,0,0,0,,,,,,,,,,,,,,,,,,,,,,,,,0,35,35,35,,,,,,,,,,,,,,,,,,,,,,,,,,,,,,,,,,,,,,,,,,,,,,,,,,,,,,,,,,,,,,,,,,,,,1.1481481442848842,0.8591943999999785,606.5310342000012,None,ScrollDown,정답입니다,606.5310342000012,None,606.5310342000012,None,606.5310342000012,None,606.5310342000012,None,607.2511056000003,None,607.2511056000003,607.7542799000003,,,,,,,,,,,,,,,,202,2022-04-26_16h29.49.136,FishGame,2022.1.1,60.002148077322765,
,37,나를 보내줘,6,Green,A,0,0,ScrollUp,ScrollDown,Green.png,4,NonTarget,NonTarget,,,,,0,0,0,0,,,,,,,,,,,,,,,,,,,,,,,,,0,36,36,36,,,,,,,,,,,,,,,,,,,,,,,,,,,,,,,,,,,,,,,,,,,,,,,,,,,,,,,,,,,,,,,,,,,,,1.679012343287468,0.8993821000003663,608.3964751000003,None,ScrollUp,정답입니다,608.3964751000003,None,608.3964751000003,None,608.3964751000003,None,608.3964751000003,None,609.1770054000008,None,609.1770054000008,609.6877034999998,,,,,,,,,,,,,,,,202,2022-04-26_16h29.49.136,FishGame,2022.1.1,60.002148077322765,
,38,넌 확고해,3,Orange,B,4.708333333333334,4.566666666666666,ScrollUp,ScrollDown,Orange.png,4,Neutral,Neutral,,,,,0,0,0,0,,,,,,,,,,,,,,,,,,,,,,,,,0,37,37,37,,,,,,,,,,,,,,,,,,,,,,,,,,,,,,,,,,,,,,,,,,,,,,,,,,,,,,,,,,,,,,,,,,,,,1.746913582086563,0.9672633999998652,610.3396302000001,None,ScrollUp,정답입니다,610.3396302000001,None,610.3396302000001,None,610.3396302000001,None,610.3396302000001,None,611.1784948000004,None,611.1784948000004,611.6875216000008,,,,,,,,,,,,,,,,202,2022-04-26_16h29.49.136,FishGame,2022.1.1,60.002148077322765,
,39,넌 이해심이 많아,1,Orange,B,6.041666666666668,5.533333333333333,ScrollUp,ScrollDown,Orange.png,4,Positive,Incongruent,,,,,0,0,0,0,,,,,,,,,,,,,,,,,,,,,,,,,0,38,38,38,,,,,,,,,,,,,,,,,,,,,,,,,,,,,,,,,,,,,,,,,,,,,,,,,,,,,,,,,,,,,,,,,,,,,1.7716049303611119,0.889668800000436,612.3330446,None,ScrollUp,정답입니다,612.3330446,None,612.3330446,None,612.3330446,None,612.3330446,None,613.1034236000014,None,613.1034236000014,613.6036318000006,,,,,,,,,,,,,,,,202,2022-04-26_16h29.49.136,FishGame,2022.1.1,60.002148077322765,
,40,나를 보내줘,6,Green,A,0,0,ScrollUp,ScrollDown,Green.png,4,NonTarget,NonTarget,,,,,0,0,0,0,,,,,,,,,,,,,,,,,,,,,,,,,0,39,39,39,,,,,,,,,,,,,,,,,,,,,,,,,,,,,,,,,,,,,,,,,,,,,,,,,,,,,,,,,,,,,,,,,,,,,1.6929012313485146,0.9772265999999945,614.251176400001,None,ScrollUp,정답입니다,614.251176400001,None,614.251176400001,None,614.251176400001,None,614.251176400001,None,615.1034564000001,None,615.1034564000001,615.6034205000014,,,,,,,,,,,,,,,,202,2022-04-26_16h29.49.136,FishGame,2022.1.1,60.002148077322765,
,41,넌 거칠어,4,Green,A,2.625,3.033333333333333,ScrollDown,ScrollUp,Green.png,4,Negative,Incongruent,,,,,0,0,0,0,,,,,,,,,,,,,,,,,,,,,,,,,0,40,40,40,,,,,,,,,,,,,,,,,,,,,,,,,,,,,,,,,,,,,,,,,,,,,,,,,,,,,,,,,,,,,,,,,,,,,1.2283950696388881,1.127223800000138,616.2481216000015,None,ScrollDown,정답입니다,616.2481216000015,None,616.2481216000015,None,616.2481216000015,None,616.2481216000015,None,617.2489282000006,None,617.2489282000006,617.7530695000005,,,,,,,,,,,,,,,,202,2022-04-26_16h29.49.136,FishGame,2022.1.1,60.002148077322765,
,42,넌 변덕맞아,5,Orange,B,2.75,2.166666666666667,ScrollUp,ScrollDown,Orange.png,4,Negative,Congruent,,,,,0,0,0,0,,,,,,,,,,,,,,,,,,,,,,,,,0,41,41,41,,,,,,,,,,,,,,,,,,,,,,,,,,,,,,,,,,,,,,,,,,,,,,,,,,,,,,,,,,,,,,,,,,,,,1.6682098706563315,0.8878392999995413,618.4078826000004,None,ScrollUp,정답입니다,618.4078826000004,None,618.4078826000004,None,618.4078826000004,None,618.4078826000004,None,619.164072900001,None,619.164072900001,619.6695327000016,,,,,,,,,,,,,,,,202,2022-04-26_16h29.49.136,FishGame,2022.1.1,60.002148077322765,
,43,나를 데려가줘,6,Orange,B,0,0,ScrollDown,ScrollUp,Orange.png,4,NonTarget,NonTarget,,,,,0,0,0,0,,,,,,,,,,,,,,,,,,,,,,,,,0,42,42,42,,,,,,,,,,,,,,,,,,,,,,,,,,,,,,,,,,,,,,,,,,,,,,,,,,,,,,,,,,,,,,,,,,,,,1.0787036915620167,0.9669503000004624,620.3175866000001,None,ScrollDown,정답입니다,620.3175866000001,None,620.3175866000001,None,620.3175866000001,None,620.3175866000001,None,621.1581579000012,None,621.1581579000012,621.6692730000013,,,,,,,,,,,,,,,,202,2022-04-26_16h29.49.136,FishGame,2022.1.1,60.002148077322765,
,44,넌 외로워,4,Orange,B,2.833333333333333,3.3,ScrollUp,ScrollDown,Orange.png,4,Negative,Congruent,,,,,0,0,0,0,,,,,,,,,,,,,,,,,,,,,,,,,0,43,43,43,,,,,,,,,,,,,,,,,,,,,,,,,,,,,,,,,,,,,,,,,,,,,,,,,,,,,,,,,,,,,,,,,,,,,1.6651234552264214,1.0441324999992503,622.3191748999998,None,ScrollUp,정답입니다,622.3191748999998,None,622.3191748999998,None,622.3191748999998,None,622.3191748999998,None,623.2361572999998,None,623.2361572999998,623.7357599000006,,,,,,,,,,,,,,,,202,2022-04-26_16h29.49.136,FishGame,2022.1.1,60.002148077322765,
,1,넌 불평스러워,5,Green,A,2.25,2.066666666666667,ScrollDown,ScrollUp,Green.png,5,Negative,Incongruent,,,,,0,0,0,0,,,,,,,,,,,,,,,,,,,,,,,,,,,,,0,0,0,0,,,,,,,,,,,,,,,,,,,,,,,,665.2636613000013,666.7634496999999,666.7968409000005,667.7464914000011,667.7966100000012,668.7465958000012,668.7465958000012,None,,,,,,,,,,,,,,,,,,,,,,,,,,,,,,,,,,1.1759259204069774,0.9646219000005658,669.9161509000005,None,ScrollDown,정답입니다,669.9161509000005,None,669.9161509000005,None,669.9161509000005,None,669.9161509000005,None,670.7197270000015,None,670.7197270000015,671.2295833000007,624.2356541000008,None,624.2356541000008,None,0.26018518,-0.09166667,1,0,0,0.0159329300004174,None,654.2482455000008,None,,,202,2022-04-26_16h29.49.136,FishGame,2022.1.1,60.002148077322765,
,2,나를 보내줘,6,Green,A,0,0,ScrollUp,ScrollDown,Green.png,5,NonTarget,NonTarget,,,,,0,0,0,0,,,,,,,,,,,,,,,,,,,,,,,,,,,,,0,1,1,1,,,,,,,,,,,,,,,,,,,,,,,,,,,,,,,,,,,,,,,,,,,,,,,,,,,,,,,,,,,,,,,,,1.5293209869414568,0.9280994000000646,671.8659894000011,None,NoResponse,무응답입니다,671.8659894000011,None,671.8659894000011,None,671.8659894000011,None,671.8659894000011,None,672.6841860000004,None,672.6841860000004,673.1959219,,,,,,,,,,,,,,,,202,2022-04-26_16h29.49.136,FishGame,2022.1.1,60.002148077322765,
,3,넌 다재다능해,2,Orange,B,6.208333333333333,4.5,ScrollUp,ScrollDown,Orange.png,5,Positive,Incongruent,,,,,0,0,0,0,,,,,,,,,,,,,,,,,,,,,,,,,,,,,0,2,2,2,,,,,,,,,,,,,,,,,,,,,,,,,,,,,,,,,,,,,,,,,,,,,,,,,,,,,,,,,,,,,,,,,1.7808641890684764,1.2210885000004055,673.9068521999998,None,ScrollUp,정답입니다,673.9068521999998,None,673.9068521999998,None,673.9068521999998,None,673.9068521999998,None,674.9392876000002,None,674.9392876000002,675.4455721000013,,,,,,,,,,,,,,,,202,2022-04-26_16h29.49.136,FishGame,2022.1.1,60.002148077322765,
,4,넌 과감해,3,Green,A,4.833333333333334,4.6,ScrollDown,ScrollUp,Green.png,5,Neutral,Neutral,,,,,0,0,0,0,,,,,,,,,,,,,,,,,,,,,,,,,,,,,0,3,3,3,,,,,,,,,,,,,,,,,,,,,,,,,,,,,,,,,,,,,,,,,,,,,,,,,,,,,,,,,,,,,,,,,1,1.0704853999995976,676.0819652000009,None,ScrollDown,정답입니다,676.0819652000009,None,676.0819652000009,None,676.0819652000009,None,676.0819652000009,None,677.0372422,None,677.0372422,677.5452765999999,,,,,,,,,,,,,,,,202,2022-04-26_16h29.49.136,FishGame,2022.1.1,60.002148077322765,
,5,넌 고분고분해,3,Orange,B,3.75,4.033333333333333,ScrollUp,ScrollDown,Orange.png,5,Neutral,Neutral,,,,,0,0,0,0,,,,,,,,,,,,,,,,,,,,,,,,,,,,,0,4,4,4,,,,,,,,,,,,,,,,,,,,,,,,,,,,,,,,,,,,,,,,,,,,,,,,,,,,,,,,,,,,,,,,,1.9660493632157643,0.9371181999995315,678.1951829000009,None,ScrollUp,정답입니다,678.1951829000009,None,678.1951829000009,None,678.1951829000009,None,678.1951829000009,None,679.003382500001,None,679.003382500001,679.5117370000007,,,,,,,,,,,,,,,,202,2022-04-26_16h29.49.136,FishGame,2022.1.1,60.002148077322765,
,6,나를 보내줘,6,Green,A,0,0,ScrollUp,ScrollDown,Green.png,5,NonTarget,NonTarget,,,,,0,0,0,0,,,,,,,,,,,,,,,,,,,,,,,,,,,,,0,5,5,5,,,,,,,,,,,,,,,,,,,,,,,,,,,,,,,,,,,,,,,,,,,,,,,,,,,,,,,,,,,,,,,,,2,0.9994446999990032,680.154217700001,None,ScrollUp,정답입니다,680.154217700001,None,680.154217700001,None,680.154217700001,None,680.154217700001,None,681.0327555000003,None,681.0327555000003,681.5450051000007,,,,,,,,,,,,,,,,202,2022-04-26_16h29.49.136,FishGame,2022.1.1,60.002148077322765,
,7,넌 잘 잊어,4,Green,A,3,3.7,ScrollDown,ScrollUp,Green.png,5,Negative,Incongruent,,,,,0,0,0,0,,,,,,,,,,,,,,,,,,,,,,,,,,,,,0,6,6,6,,,,,,,,,,,,,,,,,,,,,,,,,,,,,,,,,,,,,,,,,,,,,,,,,,,,,,,,,,,,,,,,,1,0.9266356999996788,682.1887475000003,None,ScrollDown,정답입니다,682.1887475000003,None,682.1887475000003,None,682.1887475000003,None,682.1887475000003,None,682.9943916000011,None,682.9943916000011,683.4944701000004,,,,,,,,,,,,,,,,202,2022-04-26_16h29.49.136,FishGame,2022.1.1,60.002148077322765,
,8,넌 탐구심이없어,4,Orange,B,2.833333333333333,3.066666666666667,ScrollUp,ScrollDown,Orange.png,5,Negative,Congruent,,,,,0,0,0,0,,,,,,,,,,,,,,,,,,,,,,,,,,,,,0,7,7,7,,,,,,,,,,,,,,,,,,,,,,,,,,,,,,,,,,,,,,,,,,,,,,,,,,,,,,,,,,,,,,,,,1.8858024626970291,0.9229641999991145,684.1489932000004,None,ScrollUp,정답입니다,684.1489932000004,None,684.1489932000004,None,684.1489932000004,None,684.1489932000004,None,684.9441648000011,None,684.9441648000011,685.4443695000009,,,,,,,,,,,,,,,,202,2022-04-26_16h29.49.136,FishGame,2022.1.1,60.002148077322765,
,9,나를 데려가줘,6,Orange,B,0,0,ScrollDown,ScrollUp,Orange.png,5,NonTarget,NonTarget,,,,,0,0,0,0,,,,,,,,,,,,,,,,,,,,,,,,,,,,,0,8,8,8,,,,,,,,,,,,,,,,,,,,,,,,,,,,,,,,,,,,,,,,,,,,,,,,,,,,,,,,,,,,,,,,,1.0586419602235158,1.0344361999996181,686.0939201000001,None,ScrollDown,정답입니다,686.0939201000001,None,686.0939201000001,None,686.0939201000001,None,686.0939201000001,None,687.0007579000012,None,687.0007579000012,687.5107033000004,,,,,,,,,,,,,,,,202,2022-04-26_16h29.49.136,FishGame,2022.1.1,60.002148077322765,
,10,넌 참되어,2,Green,A,6.041666666666664,4.733333333333333,ScrollDown,ScrollUp,Green.png,5,Positive,Congruent,,,,,0,0,0,0,,,,,,,,,,,,,,,,,,,,,,,,,,,,,0,9,9,9,,,,,,,,,,,,,,,,,,,,,,,,,,,,,,,,,,,,,,,,,,,,,,,,,,,,,,,,,,,,,,,,,1,0.9384234999997716,688.1524493000015,None,ScrollDown,정답입니다,688.1524493000015,None,688.1524493000015,None,688.1524493000015,None,688.1524493000015,None,688.970017900001,None,688.970017900001,689.477083400001,,,,,,,,,,,,,,,,202,2022-04-26_16h29.49.136,FishGame,2022.1.1,60.002148077322765,
,11,넌 생기있어,1,Orange,B,5.875,5.633333333333334,ScrollUp,ScrollDown,Orange.png,5,Positive,Incongruent,,,,,0,0,0,0,,,,,,,,,,,,,,,,,,,,,,,,,,,,,0,10,10,10,,,,,,,,,,,,,,,,,,,,,,,,,,,,,,,,,,,,,,,,,,,,,,,,,,,,,,,,,,,,,,,,,1.8364197413126628,0.9569232000012562,690.1303340000013,None,ScrollUp,정답입니다,690.1303340000013,None,690.1303340000013,None,690.1303340000013,None,690.1303340000013,None,690.9601328000008,None,690.9601328000008,691.4601251000004,,,,,,,,,,,,,,,,202,2022-04-26_16h29.49.136,FishGame,2022.1.1,60.002148077322765,
,12,넌 비사교적이야,4,Orange,B,2.875,2.9,ScrollUp,ScrollDown,Orange.png,5,Negative,Congruent,,,,,0,0,0,0,,,,,,,,,,,,,,,,,,,,,,,,,,,,,0,11,11,11,,,,,,,,,,,,,,,,,,,,,,,,,,,,,,,,,,,,,,,,,,,,,,,,,,,,,,,,,,,,,,,,,1.8873456766208012,0.9372465999986161,692.1051081000005,None,ScrollUp,정답입니다,692.1051081000005,None,692.1051081000005,None,692.1051081000005,None,692.1051081000005,None,692.9190231000011,None,692.9190231000011,693.426681500001,,,,,,,,,,,,,,,,202,2022-04-26_16h29.49.136,FishGame,2022.1.1,60.002148077322765,
