name,TrialNum,Word,WordCategory,FishType,WordList,WordValence,WordReputation,CorrectResp,IncorrectResp,FishTypeFile,Round,WordType,Condition,LoopforOrange.thisRepN,LoopforOrange.thisTrialN,LoopforOrange.thisN,LoopforOrange.thisIndex,OrangeInstLoop.thisRepN,OrangeInstLoop.thisTrialN,OrangeInstLoop.thisN,OrangeInstLoop.thisIndex,OrangePrac.thisRepN,OrangePrac.thisTrialN,OrangePrac.thisN,OrangePrac.thisIndex,temp1.thisRepN,temp1.thisTrialN,temp1.thisN,temp1.thisIndex,OrangeRound1.thisRepN,OrangeRound1.thisTrialN,OrangeRound1.thisN,OrangeRound1.thisIndex,OrangeRound2.thisRepN,OrangeRound2.thisTrialN,OrangeRound2.thisN,OrangeRound2.thisIndex,OrangeRound3.thisRepN,OrangeRound3.thisTrialN,OrangeRound3.thisN,OrangeRound3.thisIndex,OrangeRound4.thisRepN,OrangeRound4.thisTrialN,OrangeRound4.thisN,OrangeRound4.thisIndex,OrangeRound5.thisRepN,OrangeRound5.thisTrialN,OrangeRound5.thisN,OrangeRound5.thisIndex,LoopForGreen.thisRepN,LoopForGreen.thisTrialN,LoopForGreen.thisN,LoopForGreen.thisIndex,text_2.started,text_2.stopped,text_3.started,text_3.stopped,key_resp.keys,key_resp.rt,key_resp.started,key_resp.stopped,PassI_2.started,PassI_2.stopped,PassInst_2.keys,PassInst_2.rt,PassInst_2.started,PassInst_2.stopped,mouse_2.x,mouse_2.y,mouse_2.leftButton,mouse_2.midButton,mouse_2.rightButton,mouse_2.started,mouse_2.stopped,image.started,image.stopped,text_5.started,text_5.stopped,text_6.started,text_6.stopped,text_7.started,text_7.stopped,text_8.started,text_8.stopped,slider_2.response,slider_2.rt,slider_2.started,slider_2.stopped,Response_2,Feedback_2,BackGround_2.started,BackGround_2.stopped,Fish_2.started,Fish_2.stopped,WordBox_2.started,WordBox_2.stopped,Words_2.started,Words_2.stopped,BackGround_Feedback_2.started,BackGround_Feedback_2.stopped,Feedbacks_2.started,Feedbacks_2.stopped,Continue_or_not.keys,Continue_or_not.rt,Continue_or_not.started,Continue_or_not.stopped,image_3.started,image_3.stopped,mouse_3.x,mouse_3.y,mouse_3.leftButton,mouse_3.midButton,mouse_3.rightButton,mouse_3.started,mouse_3.stopped,startmain.started,startmain.stopped,slider.response,slider.rt,slider.started,slider.stopped,Response,Feedback,BackGround.started,BackGround.stopped,Fish.started,Fish.stopped,WordBox.started,WordBox.stopped,Words.started,Words.stopped,BackGround_Feedback.started,BackGround_Feedback.stopped,Feedbacks.started,Feedbacks.stopped,text.started,text.stopped,break_interval.started,break_interval.stopped,mouse.x,mouse.y,mouse.leftButton,mouse.midButton,mouse.rightButton,mouse.started,mouse.stopped,stratnextround.started,stratnextround.stopped,endgame.started,endgame.stopped,participant,date,expName,psychopyVersion,frameRate,
,,,,,,,,,,,,,,,,,,,,,,,,,,,,,,,,,,,,,,,,,,,,,,,,,,,,,,19.774159600000075,None,19.774159600000075,None,space,3.7310335999995914,20.24848490000022,None,,,,,,,,,,,,,,,,,,,,,,,,,,,,,,,,,,,,,,,,,,,,,,,,,,,,,,,,,,,,,,,,,,,,,,,,,,,,,,,,,,,,,,,,,,203,2022-04-27_11h06.54.260,FishGame,2022.1.1,60.045742846843936,
물고기과제_instruction(참가자용)OrangeVersion.mp4,,,,,,,,,,,,,,0,0,0,0,0,0,0,0,,,,,,,,,,,,,,,,,,,,,,,,,,,,,,,,,,,,,,,,,90.8830267000003,None,n,4.664993899999899,90.8830267000003,None,,,,,,,,,,,,,,,,,,,,,,,,,,,,,,,,,,,,,,,,,,,,,,,,,,,,,,,,,,,,,,,,,,,,,,,,,,,,,,,,,,,,203,2022-04-27_11h06.54.260,FishGame,2022.1.1,60.045742846843936,
,1,넌 교활해,5,Green,B,2.333333333333333,2.133333333333333,ScrollUp,ScrollDown,Green.png,practice,,,0,0,0,0,,,,,0,0,0,0,0,0,0,0,,,,,,,,,,,,,,,,,,,,,,,,,,,,,,,,,,,,,,,0.08240741,-0.2212963,1,0,0,0.5129921600000671,None,95.57226750000018,None,102.13821870000038,103.63782430000037,103.67124980000017,104.62109550000014,104.67105540000011,105.62104540000018,105.62104540000018,None,2,2.3917569999998705,106.8357016,None,ScrollUp,정답입니다,106.8357016,None,106.8357016,None,106.8357016,None,106.8357016,None,109.02265970000008,None,109.02265970000008,109.53703760000008,,,,,,,,,,,,,,,,,,,,,,,,,,,,,,,,,,,,,,,,,,,,,,,,,203,2022-04-27_11h06.54.260,FishGame,2022.1.1,60.045742846843936,
,2,넌 슬기로워,2,Orange,A,6.166666666666667,4.1,ScrollDown,ScrollUp,Orange.png,practice,,,0,0,0,0,,,,,0,0,0,0,0,1,1,1,,,,,,,,,,,,,,,,,,,,,,,,,,,,,,,,,,,,,,,,,,,,,,,,,,,,,,,,1,1.2729459000001953,110.20824130000028,None,ScrollDown,정답입니다,110.20824130000028,None,110.20824130000028,None,110.20824130000028,None,110.20824130000028,None,111.33705020000025,None,111.33705020000025,111.83667160000005,,,,,,,,,,,,,,,,,,,,,,,,,,,,,,,,,,,,,,,,,,,,,,,,,203,2022-04-27_11h06.54.260,FishGame,2022.1.1,60.045742846843936,
,3,나를 보내줘,6,Orange,A,0,0,ScrollUp,ScrollDown,Orange.png,practice,,,0,0,0,0,,,,,0,0,0,0,0,2,2,2,,,,,,,,,,,,,,,,,,,,,,,,,,,,,,,,,,,,,,,,,,,,,,,,,,,,,,,,1.7453703681627908,1.4344614999999976,112.48675720000028,None,ScrollUp,정답입니다,112.48675720000028,None,112.48675720000028,None,112.48675720000028,None,112.48675720000028,None,113.79314880000038,None,113.79314880000038,114.3029418000001,,,,,,,,,,,,,,,,,,,,,,,,,,,,,,,,,,,,,,,,,,,,,,,,,203,2022-04-27_11h06.54.260,FishGame,2022.1.1,60.045742846843936,
,4,나를 데려가줘,6,Green,B,0,0,ScrollDown,ScrollUp,Green.png,practice,,,0,0,0,0,,,,,0,0,0,0,0,3,3,3,,,,,,,,,,,,,,,,,,,,,,,,,,,,,,,,,,,,,,,,,,,,,,,,,,,,,,,,1.0833333333333333,1.9553195999997115,114.95654779999995,None,ScrollDown,정답입니다,114.95654779999995,None,114.95654779999995,None,114.95654779999995,None,114.95654779999995,None,116.78023030000031,None,116.78023030000031,117.28599470000017,,,,,,,,,,,,,,,,,,,,,,,,,,,,,,,,,,,,,,,,,,,,,,,,,203,2022-04-27_11h06.54.260,FishGame,2022.1.1,60.045742846843936,
,1,넌 교활해,5,Green,B,2.333333333333333,2.133333333333333,ScrollUp,ScrollDown,Green.png,practice,,,0,0,0,0,,,,,0,0,0,0,,,,,,,,,,,,,,,,,,,,,,,,,,,,,,,,,,,,,,,,,,,,,,,,,,,,,,,,,,,,,,,,,,,,,,,,,,,,,,n,4.655672599999889,117.78598180000017,None,117.78598180000017,None,,,,,,,,,,,,,,,,,,,,,,,,,,,,,,,,,,,,,,,,,,,203,2022-04-27_11h06.54.260,FishGame,2022.1.1,60.045742846843936,
,1,넌 따뜻해,1,Green,B,6.083333333333333,5.6,ScrollUp,ScrollDown,Green.png,1,Positive,Incongruent,0,0,0,0,,,,,,,,,,,,,0,0,0,0,,,,,,,,,,,,,,,,,,,,,,,,,,,,,,,,,,,,,,,,,,,,124.1685580000003,125.66830630000004,125.70157820000031,126.65158560000009,126.70148770000014,127.6513232000002,127.6513232000002,None,,,,,,,,,,,,,,,,,,,,,,,,,0.04074074,-0.14166667,1,0,0,0.3134965600002033,None,122.46861500000023,None,1.6466049378116927,1.8027781999999206,128.8503343000002,None,ScrollUp,정답입니다,128.8503343000002,None,128.8503343000002,None,128.8503343000002,None,128.8503343000002,None,130.4728344,None,130.4728344,130.98421110000027,,,,,,,,,,,,,,,,203,2022-04-27_11h06.54.260,FishGame,2022.1.1,60.045742846843936,
,2,넌 기품있어,2,Green,B,5.791666666666668,4.5,ScrollUp,ScrollDown,Green.png,1,Positive,Incongruent,0,0,0,0,,,,,,,,,,,,,0,1,1,1,,,,,,,,,,,,,,,,,,,,,,,,,,,,,,,,,,,,,,,,,,,,,,,,,,,,,,,,,,,,,,,,,,,,,,,,,,,,,,,,,,,,,1.6728395000100136,1.1425546000000395,131.64967090000027,None,ScrollUp,정답입니다,131.64967090000027,None,131.64967090000027,None,131.64967090000027,None,131.64967090000027,None,132.6506357000003,None,132.6506357000003,133.15062520000038,,,,,,,,,,,,,,,,203,2022-04-27_11h06.54.260,FishGame,2022.1.1,60.045742846843936,
,3,나를 보내줘,6,Orange,A,0,0,ScrollUp,ScrollDown,Orange.png,1,NonTarget,NonTarget,0,0,0,0,,,,,,,,,,,,,0,2,2,2,,,,,,,,,,,,,,,,,,,,,,,,,,,,,,,,,,,,,,,,,,,,,,,,,,,,,,,,,,,,,,,,,,,,,,,,,,,,,,,,,,,,,1.5925925932824612,1.8161370000002535,133.82137330000023,None,ScrollUp,정답입니다,133.82137330000023,None,133.82137330000023,None,133.82137330000023,None,133.82137330000023,None,135.48919460000025,None,135.48919460000025,136.0003810000003,,,,,,,,,,,,,,,,203,2022-04-27_11h06.54.260,FishGame,2022.1.1,60.045742846843936,
,4,넌 수동적이야,4,Orange,A,2.833333333333333,2.933333333333333,ScrollDown,ScrollUp,Orange.png,1,Negative,Incongruent,0,0,0,0,,,,,,,,,,,,,0,3,3,3,,,,,,,,,,,,,,,,,,,,,,,,,,,,,,,,,,,,,,,,,,,,,,,,,,,,,,,,,,,,,,,,,,,,,,,,,,,,,,,,,,,,,1.1697530895471573,1.1159551999999167,136.6713608,None,ScrollDown,정답입니다,136.6713608,None,136.6713608,None,136.6713608,None,136.6713608,None,137.63811460000034,None,137.63811460000034,138.15004500000032,,,,,,,,,,,,,,,,203,2022-04-27_11h06.54.260,FishGame,2022.1.1,60.045742846843936,
,5,넌 사심이 없어,3,Green,B,4.916666666666666,4.333333333333333,ScrollUp,ScrollDown,Green.png,1,Neutral,Neutral,0,0,0,0,,,,,,,,,,,,,0,4,4,4,,,,,,,,,,,,,,,,,,,,,,,,,,,,,,,,,,,,,,,,,,,,,,,,,,,,,,,,,,,,,,,,,,,,,,,,,,,,,,,,,,,,,1.7283950646718345,1.3107135000000198,138.80926750000026,None,ScrollUp,정답입니다,138.80926750000026,None,138.80926750000026,None,138.80926750000026,None,138.80926750000026,None,139.9829891000004,None,139.9829891000004,140.48298560000012,,,,,,,,,,,,,,,,203,2022-04-27_11h06.54.260,FishGame,2022.1.1,60.045742846843936,
,6,넌 헤퍼,5,Orange,A,2.458333333333334,2.233333333333333,ScrollDown,ScrollUp,Orange.png,1,Negative,Incongruent,0,0,0,0,,,,,,,,,,,,,0,5,5,5,,,,,,,,,,,,,,,,,,,,,,,,,,,,,,,,,,,,,,,,,,,,,,,,,,,,,,,,,,,,,,,,,,,,,,,,,,,,,,,,,,,,,1.256172845760981,1.4484669999997095,141.15023450000035,None,ScrollDown,정답입니다,141.15023450000035,None,141.15023450000035,None,141.15023450000035,None,141.15023450000035,None,142.4541793000003,None,142.4541793000003,142.96599530000003,,,,,,,,,,,,,,,,203,2022-04-27_11h06.54.260,FishGame,2022.1.1,60.045742846843936,
,7,넌 말쑥해,3,Orange,A,4.833333333333334,4.333333333333333,ScrollDown,ScrollUp,Orange.png,1,Neutral,Neutral,0,0,0,0,,,,,,,,,,,,,0,6,6,6,,,,,,,,,,,,,,,,,,,,,,,,,,,,,,,,,,,,,,,,,,,,,,,,,,,,,,,,,,,,,,,,,,,,,,,,,,,,,,,,,,,,,1,1.3492013999998562,143.6239886000003,None,ScrollDown,정답입니다,143.6239886000003,None,143.6239886000003,None,143.6239886000003,None,143.6239886000003,None,144.83707920000006,None,144.83707920000006,145.3491140000001,,,,,,,,,,,,,,,,203,2022-04-27_11h06.54.260,FishGame,2022.1.1,60.045742846843936,
,8,넌 투덜거려,5,Green,B,2.541666666666667,2.266666666666667,ScrollUp,ScrollDown,Green.png,1,Negative,Congruent,0,0,0,0,,,,,,,,,,,,,0,7,7,7,,,,,,,,,,,,,,,,,,,,,,,,,,,,,,,,,,,,,,,,,,,,,,,,,,,,,,,,,,,,,,,,,,,,,,,,,,,,,,,,,,,,,1.7716049303611119,1.2887524999996458,146.00951269999996,None,ScrollUp,정답입니다,146.00951269999996,None,146.00951269999996,None,146.00951269999996,None,146.00951269999996,None,147.1586953000001,None,147.1586953000001,147.6654163000003,,,,,,,,,,,,,,,,203,2022-04-27_11h06.54.260,FishGame,2022.1.1,60.045742846843936,
,9,넌 적극적이야,1,Orange,A,5.708333333333333,5.533333333333333,ScrollDown,ScrollUp,Orange.png,1,Positive,Congruent,0,0,0,0,,,,,,,,,,,,,0,8,8,8,,,,,,,,,,,,,,,,,,,,,,,,,,,,,,,,,,,,,,,,,,,,,,,,,,,,,,,,,,,,,,,,,,,,,,,,,,,,,,,,,,,,,1,1.1661592000000383,148.32759840000017,None,ScrollDown,정답입니다,148.32759840000017,None,148.32759840000017,None,148.32759840000017,None,148.32759840000017,None,149.3534423000001,None,149.3534423000001,149.8651215,,,,,,,,,,,,,,,,203,2022-04-27_11h06.54.260,FishGame,2022.1.1,60.045742846843936,
,10,넌 재미없어,4,Green,B,2.625,2.966666666666667,ScrollUp,ScrollDown,Green.png,1,Negative,Congruent,0,0,0,0,,,,,,,,,,,,,0,9,9,9,,,,,,,,,,,,,,,,,,,,,,,,,,,,,,,,,,,,,,,,,,,,,,,,,,,,,,,,,,,,,,,,,,,,,,,,,,,,,,,,,,,,,1.9969135920206706,1.1117048000000977,150.53086570000005,None,ScrollUp,정답입니다,150.53086570000005,None,150.53086570000005,None,150.53086570000005,None,150.53086570000005,None,151.4981361,None,151.4981361,151.99821940000038,,,,,,,,,,,,,,,,203,2022-04-27_11h06.54.260,FishGame,2022.1.1,60.045742846843936,
,11,넌 명석해,2,Orange,A,5.875,4.033333333333333,ScrollDown,ScrollUp,Orange.png,1,Positive,Congruent,0,0,0,0,,,,,,,,,,,,,0,10,10,10,,,,,,,,,,,,,,,,,,,,,,,,,,,,,,,,,,,,,,,,,,,,,,,,,,,,,,,,,,,,,,,,,,,,,,,,,,,,,,,,,,,,,1,1.445604000000003,152.65910070000018,None,ScrollDown,정답입니다,152.65910070000018,None,152.65910070000018,None,152.65910070000018,None,152.65910070000018,None,153.96478820000038,None,153.96478820000038,154.46446510000033,,,,,,,,,,,,,,,,203,2022-04-27_11h06.54.260,FishGame,2022.1.1,60.045742846843936,
,12,나를 데려가줘,6,Green,B,0,0,ScrollDown,ScrollUp,Green.png,1,NonTarget,NonTarget,0,0,0,0,,,,,,,,,,,,,0,11,11,11,,,,,,,,,,,,,,,,,,,,,,,,,,,,,,,,,,,,,,,,,,,,,,,,,,,,,,,,,,,,,,,,,,,,,,,,,,,,,,,,,,,,,1.2361111144224803,2.4022530000002007,155.1234182000003,None,ScrollDown,정답입니다,155.1234182000003,None,155.1234182000003,None,155.1234182000003,None,155.1234182000003,None,157.38888220000035,None,157.38888220000035,157.89732500000036,,,,,,,,,,,,,,,,203,2022-04-27_11h06.54.260,FishGame,2022.1.1,60.045742846843936,
,13,넌 소심해,4,Orange,A,3,3.1,ScrollDown,ScrollUp,Orange.png,1,Negative,Incongruent,0,0,0,0,,,,,,,,,,,,,0,12,12,12,,,,,,,,,,,,,,,,,,,,,,,,,,,,,,,,,,,,,,,,,,,,,,,,,,,,,,,,,,,,,,,,,,,,,,,,,,,,,,,,,,,,,1.0709876716136932,1.2718229000001884,158.55774920000022,None,ScrollDown,정답입니다,158.55774920000022,None,158.55774920000022,None,158.55774920000022,None,158.55774920000022,None,159.69015350000018,None,159.69015350000018,160.19718090000015,,,,,,,,,,,,,,,,203,2022-04-27_11h06.54.260,FishGame,2022.1.1,60.045742846843936,
,14,넌 합리적이야,2,Orange,A,5.583333333333333,4.733333333333333,ScrollDown,ScrollUp,Orange.png,1,Positive,Congruent,0,0,0,0,,,,,,,,,,,,,0,13,13,13,,,,,,,,,,,,,,,,,,,,,,,,,,,,,,,,,,,,,,,,,,,,,,,,,,,,,,,,,,,,,,,,,,,,,,,,,,,,,,,,,,,,,1.0339506367842357,1.1442336000000068,160.8660893000001,None,ScrollDown,정답입니다,160.8660893000001,None,160.8660893000001,None,160.8660893000001,None,160.8660893000001,None,161.8634906000002,None,161.8634906000002,162.36349570000039,,,,,,,,,,,,,,,,203,2022-04-27_11h06.54.260,FishGame,2022.1.1,60.045742846843936,
,15,넌 무자비해,5,Green,B,2.333333333333333,2.1,ScrollUp,ScrollDown,Green.png,1,Negative,Congruent,0,0,0,0,,,,,,,,,,,,,0,14,14,14,,,,,,,,,,,,,,,,,,,,,,,,,,,,,,,,,,,,,,,,,,,,,,,,,,,,,,,,,,,,,,,,,,,,,,,,,,,,,,,,,,,,,1.8086419651905696,1.4225453000003654,163.02144180000005,None,ScrollUp,정답입니다,163.02144180000005,None,163.02144180000005,None,163.02144180000005,None,163.02144180000005,None,164.30686390000028,None,164.30686390000028,164.8132198000003,,,,,,,,,,,,,,,,203,2022-04-27_11h06.54.260,FishGame,2022.1.1,60.045742846843936,
,16,나를 보내줘,6,Orange,A,0,0,ScrollUp,ScrollDown,Orange.png,1,NonTarget,NonTarget,0,0,0,0,,,,,,,,,,,,,0,15,15,15,,,,,,,,,,,,,,,,,,,,,,,,,,,,,,,,,,,,,,,,,,,,,,,,,,,,,,,,,,,,,,,,,,,,,,,,,,,,,,,,,,,,,1.6172839477658272,1.5554288000002998,165.46031250000033,None,ScrollUp,정답입니다,165.46031250000033,None,165.46031250000033,None,165.46031250000033,None,165.46031250000033,None,166.88980930000025,None,166.88980930000025,167.39617990000033,,,,,,,,,,,,,,,,203,2022-04-27_11h06.54.260,FishGame,2022.1.1,60.045742846843936,
,17,넌 현실적이야,3,Green,B,4.608695652173913,4.766666666666667,ScrollUp,ScrollDown,Green.png,1,Neutral,Neutral,0,0,0,0,,,,,,,,,,,,,0,16,16,16,,,,,,,,,,,,,,,,,,,,,,,,,,,,,,,,,,,,,,,,,,,,,,,,,,,,,,,,,,,,,,,,,,,,,,,,,,,,,,,,,,,,,1.703703703979651,1.5283636999997725,168.05404840000028,None,ScrollUp,정답입니다,168.05404840000028,None,168.05404840000028,None,168.05404840000028,None,168.05404840000028,None,169.44728380000015,None,169.44728380000015,169.96253240000033,,,,,,,,,,,,,,,,203,2022-04-27_11h06.54.260,FishGame,2022.1.1,60.045742846843936,
,18,넌 의리있어,1,Green,B,5.833333333333334,5.633333333333334,ScrollUp,ScrollDown,Green.png,1,Positive,Incongruent,0,0,0,0,,,,,,,,,,,,,0,17,17,17,,,,,,,,,,,,,,,,,,,,,,,,,,,,,,,,,,,,,,,,,,,,,,,,,,,,,,,,,,,,,,,,,,,,,,,,,,,,,,,,,,,,,1.9290123283863068,1.4313191999999617,170.61557370000037,None,ScrollUp,정답입니다,170.61557370000037,None,170.61557370000037,None,170.61557370000037,None,170.61557370000037,None,171.91634300000032,None,171.91634300000032,172.42892970000003,,,,,,,,,,,,,,,,203,2022-04-27_11h06.54.260,FishGame,2022.1.1,60.045742846843936,
,19,넌 신경과민이야,5,Orange,A,2.541666666666667,2.166666666666667,ScrollDown,ScrollUp,Orange.png,1,Negative,Incongruent,0,0,0,0,,,,,,,,,,,,,0,18,18,18,,,,,,,,,,,,,,,,,,,,,,,,,,,,,,,,,,,,,,,,,,,,,,,,,,,,,,,,,,,,,,,,,,,,,,,,,,,,,,,,,,,,,1,1.2788264999999228,173.0953681000001,None,ScrollDown,정답입니다,173.0953681000001,None,173.0953681000001,None,173.0953681000001,None,173.0953681000001,None,174.22889720000012,None,174.22889720000012,174.72845720000032,,,,,,,,,,,,,,,,203,2022-04-27_11h06.54.260,FishGame,2022.1.1,60.045742846843936,
,20,넌 편안해,1,Orange,A,5.916666666666666,5.866666666666666,ScrollDown,ScrollUp,Orange.png,1,Positive,Congruent,0,0,0,0,,,,,,,,,,,,,0,19,19,19,,,,,,,,,,,,,,,,,,,,,,,,,,,,,,,,,,,,,,,,,,,,,,,,,,,,,,,,,,,,,,,,,,,,,,,,,,,,,,,,,,,,,1.0092592636744182,1.271322600000076,175.38838860000033,None,ScrollDown,정답입니다,175.38838860000033,None,175.38838860000033,None,175.38838860000033,None,175.38838860000033,None,176.52098390000037,None,176.52098390000037,177.02826860000005,,,,,,,,,,,,,,,,203,2022-04-27_11h06.54.260,FishGame,2022.1.1,60.045742846843936,
,21,넌 품위있어,2,Green,B,5.291666666666666,4.466666666666667,ScrollUp,ScrollDown,Green.png,1,Positive,Incongruent,0,0,0,0,,,,,,,,,,,,,0,20,20,20,,,,,,,,,,,,,,,,,,,,,,,,,,,,,,,,,,,,,,,,,,,,,,,,,,,,,,,,,,,,,,,,,,,,,,,,,,,,,,,,,,,,,1.8456790000200272,1.1380007000002479,177.6817271,None,ScrollUp,정답입니다,177.6817271,None,177.6817271,None,177.6817271,None,177.6817271,None,178.68849100000034,None,178.68849100000034,179.1946441,,,,,,,,,,,,,,,,203,2022-04-27_11h06.54.260,FishGame,2022.1.1,60.045742846843936,
,22,넌 빈틈없어,3,Orange,A,4.833333333333333,3.966666666666667,ScrollDown,ScrollUp,Orange.png,1,Neutral,Neutral,0,0,0,0,,,,,,,,,,,,,0,21,21,21,,,,,,,,,,,,,,,,,,,,,,,,,,,,,,,,,,,,,,,,,,,,,,,,,,,,,,,,,,,,,,,,,,,,,,,,,,,,,,,,,,,,,1.0925925920406978,1.216618599999947,179.85914490000005,None,ScrollDown,정답입니다,179.85914490000005,None,179.85914490000005,None,179.85914490000005,None,179.85914490000005,None,180.93255160000035,None,180.93255160000035,181.44443360000014,,,,,,,,,,,,,,,,203,2022-04-27_11h06.54.260,FishGame,2022.1.1,60.045742846843936,
,23,넌 상상력없어,4,Green,B,2.833333333333333,3.133333333333333,ScrollUp,ScrollDown,Green.png,1,Negative,Congruent,0,0,0,0,,,,,,,,,,,,,0,22,22,22,,,,,,,,,,,,,,,,,,,,,,,,,,,,,,,,,,,,,,,,,,,,,,,,,,,,,,,,,,,,,,,,,,,,,,,,,,,,,,,,,,,,,1.9768518606821697,1.1199099000000388,182.1023355000002,None,ScrollUp,정답입니다,182.1023355000002,None,182.1023355000002,None,182.1023355000002,None,182.1023355000002,None,183.09244209999997,None,183.09244209999997,183.5941813000004,,,,,,,,,,,,,,,,203,2022-04-27_11h06.54.260,FishGame,2022.1.1,60.045742846843936,
,24,넌 지혜로워,2,Green,B,6.333333333333334,4.633333333333334,ScrollUp,ScrollDown,Green.png,1,Positive,Incongruent,0,0,0,0,,,,,,,,,,,,,0,23,23,23,,,,,,,,,,,,,,,,,,,,,,,,,,,,,,,,,,,,,,,,,,,,,,,,,,,,,,,,,,,,,,,,,,,,,,,,,,,,,,,,,,,,,1.9182098805904388,1.200779700000112,184.25543500000003,None,ScrollUp,정답입니다,184.25543500000003,None,184.25543500000003,None,184.25543500000003,None,184.25543500000003,None,185.31611740000017,None,185.31611740000017,185.82717170000024,,,,,,,,,,,,,,,,203,2022-04-27_11h06.54.260,FishGame,2022.1.1,60.045742846843936,
,25,넌 시끄러워,4,Orange,A,2.833333333333333,3.033333333333333,ScrollDown,ScrollUp,Orange.png,1,Negative,Incongruent,0,0,0,0,,,,,,,,,,,,,0,24,24,24,,,,,,,,,,,,,,,,,,,,,,,,,,,,,,,,,,,,,,,,,,,,,,,,,,,,,,,,,,,,,,,,,,,,,,,,,,,,,,,,,,,,,1.1466049303611119,1.1655987999997706,186.49131209999996,None,ScrollDown,정답입니다,186.49131209999996,None,186.49131209999996,None,186.49131209999996,None,186.49131209999996,None,187.5146605,None,187.5146605,188.02707810000038,,,,,,,,,,,,,,,,203,2022-04-27_11h06.54.260,FishGame,2022.1.1,60.045742846843936,
,26,넌 만사태평이야,3,Green,B,4,4.333333333333333,ScrollUp,ScrollDown,Green.png,1,Neutral,Neutral,0,0,0,0,,,,,,,,,,,,,0,25,25,25,,,,,,,,,,,,,,,,,,,,,,,,,,,,,,,,,,,,,,,,,,,,,,,,,,,,,,,,,,,,,,,,,,,,,,,,,,,,,,,,,,,,,1.609567902982235,1.1762635000000046,188.6802386000004,None,ScrollUp,정답입니다,188.6802386000004,None,188.6802386000004,None,188.6802386000004,None,188.6802386000004,None,189.72668250000015,None,189.72668250000015,190.22659340000018,,,,,,,,,,,,,,,,203,2022-04-27_11h06.54.260,FishGame,2022.1.1,60.045742846843936,
,27,넌 붙임성있어,1,Orange,A,5.708333333333333,5.633333333333334,ScrollDown,ScrollUp,Orange.png,1,Positive,Congruent,0,0,0,0,,,,,,,,,,,,,0,26,26,26,,,,,,,,,,,,,,,,,,,,,,,,,,,,,,,,,,,,,,,,,,,,,,,,,,,,,,,,,,,,,,,,,,,,,,,,,,,,,,,,,,,,,1.0432098706563313,1.1885645000002114,190.8910479000001,None,ScrollDown,정답입니다,190.8910479000001,None,190.8910479000001,None,190.8910479000001,None,190.8910479000001,None,191.93672330000027,None,191.93672330000027,192.44301620000033,,,,,,,,,,,,,,,,203,2022-04-27_11h06.54.260,FishGame,2022.1.1,60.045742846843936,
,28,넌 영리해,2,Orange,A,6,4.033333333333333,ScrollDown,ScrollUp,Orange.png,1,Positive,Congruent,0,0,0,0,,,,,,,,,,,,,0,27,27,27,,,,,,,,,,,,,,,,,,,,,,,,,,,,,,,,,,,,,,,,,,,,,,,,,,,,,,,,,,,,,,,,,,,,,,,,,,,,,,,,,,,,,1,1.0679388999997173,193.10384700000031,None,ScrollDown,정답입니다,193.10384700000031,None,193.10384700000031,None,193.10384700000031,None,193.10384700000031,None,194.04080430000022,None,194.04080430000022,194.54265699999996,,,,,,,,,,,,,,,,203,2022-04-27_11h06.54.260,FishGame,2022.1.1,60.045742846843936,
,29,넌 열심이야,1,Green,B,6.041666666666667,5.833333333333333,ScrollUp,ScrollDown,Green.png,1,Positive,Incongruent,0,0,0,0,,,,,,,,,,,,,0,28,28,28,,,,,,,,,,,,,,,,,,,,,,,,,,,,,,,,,,,,,,,,,,,,,,,,,,,,,,,,,,,,,,,,,,,,,,,,,,,,,,,,,,,,,1.8919753183921177,1.0398439000000508,195.19876090000025,None,ScrollUp,정답입니다,195.19876090000025,None,195.19876090000025,None,195.19876090000025,None,195.19876090000025,None,196.1094736,None,196.1094736,196.60899370000016,,,,,,,,,,,,,,,,203,2022-04-27_11h06.54.260,FishGame,2022.1.1,60.045742846843936,
,30,넌 인기없어,4,Green,B,3,3.3,ScrollUp,ScrollDown,Green.png,1,Negative,Congruent,0,0,0,0,,,,,,,,,,,,,0,29,29,29,,,,,,,,,,,,,,,,,,,,,,,,,,,,,,,,,,,,,,,,,,,,,,,,,,,,,,,,,,,,,,,,,,,,,,,,,,,,,,,,,,,,,1.765432099501292,1.0089490999998816,197.26335719999997,None,ScrollUp,정답입니다,197.26335719999997,None,197.26335719999997,None,197.26335719999997,None,197.26335719999997,None,198.1423205000001,None,198.1423205000001,198.64221880000014,,,,,,,,,,,,,,,,203,2022-04-27_11h06.54.260,FishGame,2022.1.1,60.045742846843936,
,31,넌 익살스러워,3,Orange,A,4.708333333333334,4.833333333333333,ScrollDown,ScrollUp,Orange.png,1,Neutral,Neutral,0,0,0,0,,,,,,,,,,,,,0,30,30,30,,,,,,,,,,,,,,,,,,,,,,,,,,,,,,,,,,,,,,,,,,,,,,,,,,,,,,,,,,,,,,,,,,,,,,,,,,,,,,,,,,,,,1.0478395124276478,1.015330499999891,199.30846659999997,None,ScrollDown,정답입니다,199.30846659999997,None,199.30846659999997,None,199.30846659999997,None,199.30846659999997,None,200.18055870000035,None,200.18055870000035,200.69191360000013,,,,,,,,,,,,,,,,203,2022-04-27_11h06.54.260,FishGame,2022.1.1,60.045742846843936,
,32,넌 이기적이야,5,Green,B,2.291666666666667,2.333333333333333,ScrollUp,ScrollDown,Green.png,1,Negative,Congruent,0,0,0,0,,,,,,,,,,,,,0,31,31,31,,,,,,,,,,,,,,,,,,,,,,,,,,,,,,,,,,,,,,,,,,,,,,,,,,,,,,,,,,,,,,,,,,,,,,,,,,,,,,,,,,,,,1.9182098805904388,1.0785746000001382,201.3367478,None,ScrollUp,정답입니다,201.3367478,None,201.3367478,None,201.3367478,None,201.3367478,None,202.29171029999998,None,202.29171029999998,202.79167450000023,,,,,,,,,,,,,,,,203,2022-04-27_11h06.54.260,FishGame,2022.1.1,60.045742846843936,
,33,나를 데려가줘,6,Green,B,0,0,ScrollDown,ScrollUp,Green.png,1,NonTarget,NonTarget,0,0,0,0,,,,,,,,,,,,,0,32,32,32,,,,,,,,,,,,,,,,,,,,,,,,,,,,,,,,,,,,,,,,,,,,,,,,,,,,,,,,,,,,,,,,,,,,,,,,,,,,,,,,,,,,,1.1682098756233852,1.6326067999998486,203.43915760000027,None,ScrollDown,정답입니다,203.43915760000027,None,203.43915760000027,None,203.43915760000027,None,203.43915760000027,None,204.9470271,None,204.9470271,205.45790000000034,,,,,,,,,,,,,,,,203,2022-04-27_11h06.54.260,FishGame,2022.1.1,60.045742846843936,
,34,넌 기회주의자야,5,Orange,A,2.875,2.133333333333333,ScrollDown,ScrollUp,Orange.png,1,Negative,Incongruent,0,0,0,0,,,,,,,,,,,,,0,33,33,33,,,,,,,,,,,,,,,,,,,,,,,,,,,,,,,,,,,,,,,,,,,,,,,,,,,,,,,,,,,,,,,,,,,,,,,,,,,,,,,,,,,,,1.28086419403553,1.4953855000003387,206.1222601000004,None,ScrollDown,정답입니다,206.1222601000004,None,206.1222601000004,None,206.1222601000004,None,206.1222601000004,None,207.47680549999995,None,207.47680549999995,207.9909835000003,,,,,,,,,,,,,,,,203,2022-04-27_11h06.54.260,FishGame,2022.1.1,60.045742846843936,
,1,넌 미성숙해,4,Orange,A,3,3.2,ScrollDown,ScrollUp,Orange.png,2,Negative,Incongruent,0,0,0,0,,,,,,,,,,,,,,,,,0,0,0,0,,,,,,,,,,,,,,,,,,,,,,,,,,,,,,,,,,,,,,,,243.77002540000012,245.26969380000037,245.30293900000015,246.2528757,246.30292640000016,247.25281540000015,247.25281540000015,None,,,,,,,,,,,,,,,,,,,,,,,,,,,,,,,,,,1,1.943579800000407,248.44259030000012,None,ScrollDown,정답입니다,248.44259030000012,None,248.44259030000012,None,248.44259030000012,None,248.44259030000012,None,250.20249550000017,None,250.20249550000017,250.70205750000014,208.49103620000005,None,208.49103620000005,None,0.15,-0.09074074,1,0,0,0.016092159999971045,None,238.48705440000003,None,,,203,2022-04-27_11h06.54.260,FishGame,2022.1.1,60.045742846843936,
,2,넌 반사회적이야,5,Green,B,2.416666666666667,2.033333333333333,ScrollUp,ScrollDown,Green.png,2,Negative,Congruent,0,0,0,0,,,,,,,,,,,,,,,,,0,1,1,1,,,,,,,,,,,,,,,,,,,,,,,,,,,,,,,,,,,,,,,,,,,,,,,,,,,,,,,,,,,,,,,,,,,,,,,,,,,,,,,,,1.634259263674418,1.0014659999997093,251.35456720000002,None,ScrollUp,정답입니다,251.35456720000002,None,251.35456720000002,None,251.35456720000002,None,251.35456720000002,None,252.22494989999996,None,252.22494989999996,252.7352681000002,,,,,,,,,,,,,,,,203,2022-04-27_11h06.54.260,FishGame,2022.1.1,60.045742846843936,
,3,넌 유능해,2,Orange,A,6.208333333333333,4.433333333333334,ScrollDown,ScrollUp,Orange.png,2,Positive,Congruent,0,0,0,0,,,,,,,,,,,,,,,,,0,2,2,2,,,,,,,,,,,,,,,,,,,,,,,,,,,,,,,,,,,,,,,,,,,,,,,,,,,,,,,,,,,,,,,,,,,,,,,,,,,,,,,,,1.1851851791143417,1.1559332000001632,253.39821500000016,None,ScrollDown,정답입니다,253.39821500000016,None,253.39821500000016,None,253.39821500000016,None,253.39821500000016,None,254.41847300000018,None,254.41847300000018,254.91826179999998,,,,,,,,,,,,,,,,203,2022-04-27_11h06.54.260,FishGame,2022.1.1,60.045742846843936,
,4,넌 능숙해,2,Green,B,5.666666666666667,4.733333333333333,ScrollUp,ScrollDown,Green.png,2,Positive,Incongruent,0,0,0,0,,,,,,,,,,,,,,,,,0,3,3,3,,,,,,,,,,,,,,,,,,,,,,,,,,,,,,,,,,,,,,,,,,,,,,,,,,,,,,,,,,,,,,,,,,,,,,,,,,,,,,,,,1.7916666616996129,1.2824009999999362,255.56537939999998,None,ScrollUp,정답입니다,255.56537939999998,None,255.56537939999998,None,255.56537939999998,None,255.56537939999998,None,256.72332010000036,None,256.72332010000036,257.2345747000004,,,,,,,,,,,,,,,,203,2022-04-27_11h06.54.260,FishGame,2022.1.1,60.045742846843936,
,5,넌 진부해,4,Green,B,2.458333333333333,3.166666666666667,ScrollUp,ScrollDown,Green.png,2,Negative,Congruent,0,0,0,0,,,,,,,,,,,,,,,,,0,4,4,4,,,,,,,,,,,,,,,,,,,,,,,,,,,,,,,,,,,,,,,,,,,,,,,,,,,,,,,,,,,,,,,,,,,,,,,,,,,,,,,,,1.6959876591960588,1.0380092000000332,257.89271080000026,None,ScrollUp,정답입니다,257.89271080000026,None,257.89271080000026,None,257.89271080000026,None,257.89271080000026,None,258.79409880000003,None,258.79409880000003,259.3009820000002,,,,,,,,,,,,,,,,203,2022-04-27_11h06.54.260,FishGame,2022.1.1,60.045742846843936,
,6,나를 보내줘,6,Orange,A,0,0,ScrollUp,ScrollDown,Orange.png,2,NonTarget,NonTarget,0,0,0,0,,,,,,,,,,,,,,,,,0,5,5,5,,,,,,,,,,,,,,,,,,,,,,,,,,,,,,,,,,,,,,,,,,,,,,,,,,,,,,,,,,,,,,,,,,,,,,,,,,,,,,,,,1.8811728457609813,1.4675741999999445,259.95516780000025,None,ScrollUp,정답입니다,259.95516780000025,None,259.95516780000025,None,259.95516780000025,None,259.95516780000025,None,261.2899274000001,None,261.2899274000001,261.80088330000035,,,,,,,,,,,,,,,,203,2022-04-27_11h06.54.260,FishGame,2022.1.1,60.045742846843936,
,7,넌 엄격해,3,Orange,A,4.166666666666666,4.1,ScrollDown,ScrollUp,Orange.png,2,Neutral,Neutral,0,0,0,0,,,,,,,,,,,,,,,,,0,6,6,6,,,,,,,,,,,,,,,,,,,,,,,,,,,,,,,,,,,,,,,,,,,,,,,,,,,,,,,,,,,,,,,,,,,,,,,,,,,,,,,,,1.0972222338120143,1.1214208999999755,262.45329370000036,None,ScrollDown,정답입니다,262.45329370000036,None,262.45329370000036,None,262.45329370000036,None,262.45329370000036,None,263.44364710000036,None,263.44364710000036,263.95061220000025,,,,,,,,,,,,,,,,203,2022-04-27_11h06.54.260,FishGame,2022.1.1,60.045742846843936,
,8,나를 보내줘,6,Orange,A,0,0,ScrollUp,ScrollDown,Orange.png,2,NonTarget,NonTarget,0,0,0,0,,,,,,,,,,,,,,,,,0,7,7,7,,,,,,,,,,,,,,,,,,,,,,,,,,,,,,,,,,,,,,,,,,,,,,,,,,,,,,,,,,,,,,,,,,,,,,,,,,,,,,,,,1.6234567910432816,1.1428304000000935,264.6039718000002,None,ScrollUp,정답입니다,264.6039718000002,None,264.6039718000002,None,264.6039718000002,None,264.6039718000002,None,265.6171104,None,265.6171104,266.116853,,,,,,,,,,,,,,,,203,2022-04-27_11h06.54.260,FishGame,2022.1.1,60.045742846843936,
,9,넌 대담해,3,Green,B,4.875,4.866666666666666,ScrollUp,ScrollDown,Green.png,2,Neutral,Neutral,0,0,0,0,,,,,,,,,,,,,,,,,0,8,8,8,,,,,,,,,,,,,,,,,,,,,,,,,,,,,,,,,,,,,,,,,,,,,,,,,,,,,,,,,,,,,,,,,,,,,,,,,,,,,,,,,1.5925925932824612,1.165272300000197,266.77259460000005,None,ScrollUp,정답입니다,266.77259460000005,None,266.77259460000005,None,266.77259460000005,None,266.77259460000005,None,267.8050088,None,267.8050088,268.3165828000001,,,,,,,,,,,,,,,,203,2022-04-27_11h06.54.260,FishGame,2022.1.1,60.045742846843936,
,10,넌 꾸준해,1,Orange,A,5.916666666666668,5.8,ScrollDown,ScrollUp,Orange.png,2,Positive,Congruent,0,0,0,0,,,,,,,,,,,,,,,,,0,9,9,9,,,,,,,,,,,,,,,,,,,,,,,,,,,,,,,,,,,,,,,,,,,,,,,,,,,,,,,,,,,,,,,,,,,,,,,,,,,,,,,,,1.0725308855374653,1.0659482000000935,268.97729500000014,None,ScrollDown,정답입니다,268.97729500000014,None,268.97729500000014,None,268.97729500000014,None,268.97729500000014,None,269.9044282,None,269.9044282,270.41639410000016,,,,,,,,,,,,,,,,203,2022-04-27_11h06.54.260,FishGame,2022.1.1,60.045742846843936,
,11,나를 데려가줘,6,Green,B,0,0,ScrollDown,ScrollUp,Green.png,2,NonTarget,NonTarget,0,0,0,0,,,,,,,,,,,,,,,,,0,10,10,10,,,,,,,,,,,,,,,,,,,,,,,,,,,,,,,,,,,,,,,,,,,,,,,,,,,,,,,,,,,,,,,,,,,,,,,,,,,,,,,,,1,1.735501099999965,271.06651390000025,None,ScrollDown,정답입니다,271.06651390000025,None,271.06651390000025,None,271.06651390000025,None,271.06651390000025,None,272.6720299000003,None,272.6720299000003,273.1826699000003,,,,,,,,,,,,,,,,203,2022-04-27_11h06.54.260,FishGame,2022.1.1,60.045742846843936,
,12,넌 독선적이야,5,Orange,A,2.458333333333333,1.933333333333333,ScrollDown,ScrollUp,Orange.png,2,Negative,Incongruent,0,0,0,0,,,,,,,,,,,,,,,,,0,11,11,11,,,,,,,,,,,,,,,,,,,,,,,,,,,,,,,,,,,,,,,,,,,,,,,,,,,,,,,,,,,,,,,,,,,,,,,,,,,,,,,,,1.1790123482545216,1.3396145000001525,273.8489298000004,None,ScrollDown,정답입니다,273.8489298000004,None,273.8489298000004,None,273.8489298000004,None,273.8489298000004,None,275.04895590000024,None,275.04895590000024,275.5490084000003,,,,,,,,,,,,,,,,203,2022-04-27_11h06.54.260,FishGame,2022.1.1,60.045742846843936,
,13,나를 보내줘,6,Orange,A,0,0,ScrollUp,ScrollDown,Orange.png,2,NonTarget,NonTarget,0,0,0,0,,,,,,,,,,,,,,,,,0,12,12,12,,,,,,,,,,,,,,,,,,,,,,,,,,,,,,,,,,,,,,,,,,,,,,,,,,,,,,,,,,,,,,,,,,,,,,,,,,,,,,,,,1.549382715175549,1.1229914999998982,276.2007228000002,None,NoResponse,무응답입니다,276.2007228000002,None,276.2007228000002,None,276.2007228000002,None,276.2007228000002,None,277.1994300000001,None,277.1994300000001,277.6987776000001,,,,,,,,,,,,,,,,203,2022-04-27_11h06.54.260,FishGame,2022.1.1,60.045742846843936,
,14,넌 책임감있어,1,Green,B,6.347826086956522,6,ScrollUp,ScrollDown,Green.png,2,Positive,Incongruent,0,0,0,0,,,,,,,,,,,,,,,,,0,13,13,13,,,,,,,,,,,,,,,,,,,,,,,,,,,,,,,,,,,,,,,,,,,,,,,,,,,,,,,,,,,,,,,,,,,,,,,,,,,,,,,,,1.6033950597047806,4.5149437000000034,278.3577494000001,None,ScrollUp,정답입니다,278.3577494000001,None,278.3577494000001,None,278.3577494000001,None,278.3577494000001,None,282.73847509999996,None,282.73847509999996,283.24795600000016,,,,,,,,,,,,,,,,203,2022-04-27_11h06.54.260,FishGame,2022.1.1,60.045742846843936,
,15,넌 문학적이야,3,Orange,A,4.708333333333334,4.333333333333333,ScrollDown,ScrollUp,Orange.png,2,Neutral,Neutral,0,0,0,0,,,,,,,,,,,,,,,,,0,14,14,14,,,,,,,,,,,,,,,,,,,,,,,,,,,,,,,,,,,,,,,,,,,,,,,,,,,,,,,,,,,,,,,,,,,,,,,,,,,,,,,,,1.2376543283462524,1.2690206000002036,283.9118913000002,None,ScrollDown,정답입니다,283.9118913000002,None,283.9118913000002,None,283.9118913000002,None,283.9118913000002,None,285.03828780000003,None,285.03828780000003,285.54794710000033,,,,,,,,,,,,,,,,203,2022-04-27_11h06.54.260,FishGame,2022.1.1,60.045742846843936,
,16,넌 재미있어,1,Green,B,5.875,5.7,ScrollUp,ScrollDown,Green.png,2,Positive,Incongruent,0,0,0,0,,,,,,,,,,,,,,,,,0,15,15,15,,,,,,,,,,,,,,,,,,,,,,,,,,,,,,,,,,,,,,,,,,,,,,,,,,,,,,,,,,,,,,,,,,,,,,,,,,,,,,,,,1.7638888855775197,1.2117349999998623,286.19199890000027,None,ScrollUp,정답입니다,286.19199890000027,None,286.19199890000027,None,286.19199890000027,None,286.19199890000027,None,287.2806322000001,None,287.2806322000001,287.7809202000003,,,,,,,,,,,,,,,,203,2022-04-27_11h06.54.260,FishGame,2022.1.1,60.045742846843936,
,17,나를 데려가줘,6,Green,B,0,0,ScrollDown,ScrollUp,Green.png,2,NonTarget,NonTarget,0,0,0,0,,,,,,,,,,,,,,,,,0,16,16,16,,,,,,,,,,,,,,,,,,,,,,,,,,,,,,,,,,,,,,,,,,,,,,,,,,,,,,,,,,,,,,,,,,,,,,,,,,,,,,,,,1.1589506169160206,1.2844952000000376,288.4276347,None,ScrollDown,정답입니다,288.4276347,None,288.4276347,None,288.4276347,None,288.4276347,None,289.58695609999995,None,289.58695609999995,290.0971370000002,,,,,,,,,,,,,,,,203,2022-04-27_11h06.54.260,FishGame,2022.1.1,60.045742846843936,
,18,넌 협력적이야,1,Orange,A,5.625,5.633333333333334,ScrollDown,ScrollUp,Orange.png,2,Positive,Congruent,0,0,0,0,,,,,,,,,,,,,,,,,0,17,17,17,,,,,,,,,,,,,,,,,,,,,,,,,,,,,,,,,,,,,,,,,,,,,,,,,,,,,,,,,,,,,,,,,,,,,,,,,,,,,,,,,1.1759259204069774,1.5687287000000651,290.7604550000001,None,ScrollDown,정답입니다,290.7604550000001,None,290.7604550000001,None,290.7604550000001,None,290.7604550000001,None,292.1911785000002,None,292.1911785000002,292.69683460000033,,,,,,,,,,,,,,,,203,2022-04-27_11h06.54.260,FishGame,2022.1.1,60.045742846843936,
,19,넌 평범해,3,Green,B,4.333333333333332,4.233333333333333,ScrollUp,ScrollDown,Green.png,2,Neutral,Neutral,0,0,0,0,,,,,,,,,,,,,,,,,0,18,18,18,,,,,,,,,,,,,,,,,,,,,,,,,,,,,,,,,,,,,,,,,,,,,,,,,,,,,,,,,,,,,,,,,,,,,,,,,,,,,,,,,1.6959876591960588,1.1161167000000205,293.3518350000004,None,ScrollUp,정답입니다,293.3518350000004,None,293.3518350000004,None,293.3518350000004,None,293.3518350000004,None,294.3346239000002,None,294.3346239000002,294.8464906000004,,,,,,,,,,,,,,,,203,2022-04-27_11h06.54.260,FishGame,2022.1.1,60.045742846843936,
,20,넌 오만해,5,Orange,A,2.333333333333333,2,ScrollDown,ScrollUp,Orange.png,2,Negative,Incongruent,0,0,0,0,,,,,,,,,,,,,,,,,0,19,19,19,,,,,,,,,,,,,,,,,,,,,,,,,,,,,,,,,,,,,,,,,,,,,,,,,,,,,,,,,,,,,,,,,,,,,,,,,,,,,,,,,1.0679012437661488,1.1933608999997887,295.5042956000002,None,ScrollDown,정답입니다,295.5042956000002,None,295.5042956000002,None,295.5042956000002,None,295.5042956000002,None,296.56313520000003,None,296.56313520000003,297.0629289000003,,,,,,,,,,,,,,,,203,2022-04-27_11h06.54.260,FishGame,2022.1.1,60.045742846843936,
,21,넌 운이없어,4,Green,B,3,3.466666666666667,ScrollUp,ScrollDown,Green.png,2,Negative,Congruent,0,0,0,0,,,,,,,,,,,,,,,,,0,20,20,20,,,,,,,,,,,,,,,,,,,,,,,,,,,,,,,,,,,,,,,,,,,,,,,,,,,,,,,,,,,,,,,,,,,,,,,,,,,,,,,,,1.9459876318772633,2.205677899999955,297.71660390000034,None,ScrollUp,정답입니다,297.71660390000034,None,297.71660390000034,None,297.71660390000034,None,297.71660390000034,None,299.7957864,None,299.7957864,300.29583460000003,,,,,,,,,,,,,,,,203,2022-04-27_11h06.54.260,FishGame,2022.1.1,60.045742846843936,
,22,넌 창조적이야,2,Green,B,6.125,4.633333333333334,ScrollUp,ScrollDown,Green.png,2,Positive,Incongruent,0,0,0,0,,,,,,,,,,,,,,,,,0,21,21,21,,,,,,,,,,,,,,,,,,,,,,,,,,,,,,,,,,,,,,,,,,,,,,,,,,,,,,,,,,,,,,,,,,,,,,,,,,,,,,,,,1.7222222338120141,1.064227899999878,300.9517232000003,None,ScrollUp,정답입니다,300.9517232000003,None,300.9517232000003,None,300.9517232000003,None,300.9517232000003,None,301.8830647,None,301.8830647,302.3954625000001,,,,,,,,,,,,,,,,203,2022-04-27_11h06.54.260,FishGame,2022.1.1,60.045742846843936,
,23,나를 보내줘,6,Orange,A,0,0,ScrollUp,ScrollDown,Orange.png,2,NonTarget,NonTarget,0,0,0,0,,,,,,,,,,,,,,,,,0,22,22,22,,,,,,,,,,,,,,,,,,,,,,,,,,,,,,,,,,,,,,,,,,,,,,,,,,,,,,,,,,,,,,,,,,,,,,,,,,,,,,,,,1.7608024577299755,1.0494490000000951,303.0453064000003,None,ScrollUp,정답입니다,303.0453064000003,None,303.0453064000003,None,303.0453064000003,None,303.0453064000003,None,303.96726609999996,None,303.96726609999996,304.4786073,,,,,,,,,,,,,,,,203,2022-04-27_11h06.54.260,FishGame,2022.1.1,60.045742846843936,
,24,넌 통찰력있어,2,Orange,A,6.5,4.8,ScrollDown,ScrollUp,Orange.png,2,Positive,Congruent,0,0,0,0,,,,,,,,,,,,,,,,,0,23,23,23,,,,,,,,,,,,,,,,,,,,,,,,,,,,,,,,,,,,,,,,,,,,,,,,,,,,,,,,,,,,,,,,,,,,,,,,,,,,,,,,,1.325617286066214,1.1860177999997177,305.1400375000003,None,ScrollDown,정답입니다,305.1400375000003,None,305.1400375000003,None,305.1400375000003,None,305.1400375000003,None,306.18679450000036,None,306.18679450000036,306.69522430000006,,,,,,,,,,,,,,,,203,2022-04-27_11h06.54.260,FishGame,2022.1.1,60.045742846843936,
,25,넌 경솔해,5,Green,B,2.458333333333333,2.266666666666667,ScrollUp,ScrollDown,Green.png,2,Negative,Congruent,0,0,0,0,,,,,,,,,,,,,,,,,0,24,24,24,,,,,,,,,,,,,,,,,,,,,,,,,,,,,,,,,,,,,,,,,,,,,,,,,,,,,,,,,,,,,,,,,,,,,,,,,,,,,,,,,1.5740740758677325,0.9793383999999605,307.33959970000024,None,ScrollUp,정답입니다,307.33959970000024,None,307.33959970000024,None,307.33959970000024,None,307.33959970000024,None,308.1991759000002,None,308.1991759000002,308.7114171000003,,,,,,,,,,,,,,,,203,2022-04-27_11h06.54.260,FishGame,2022.1.1,60.045742846843936,
,26,넌 초조해,4,Orange,A,2.916666666666667,3.133333333333333,ScrollDown,ScrollUp,Orange.png,2,Negative,Incongruent,0,0,0,0,,,,,,,,,,,,,,,,,0,25,25,25,,,,,,,,,,,,,,,,,,,,,,,,,,,,,,,,,,,,,,,,,,,,,,,,,,,,,,,,,,,,,,,,,,,,,,,,,,,,,,,,,1.3580246915419898,0.948608200000308,309.36865220000027,None,ScrollDown,정답입니다,309.36865220000027,None,309.36865220000027,None,309.36865220000027,None,309.36865220000027,None,310.1832395000001,None,310.1832395000001,310.6946288000004,,,,,,,,,,,,,,,,203,2022-04-27_11h06.54.260,FishGame,2022.1.1,60.045742846843936,
,27,넌 무관심해,4,Green,B,2.833333333333333,2.9,ScrollUp,ScrollDown,Green.png,2,Negative,Congruent,0,0,0,0,,,,,,,,,,,,,,,,,0,26,26,26,,,,,,,,,,,,,,,,,,,,,,,,,,,,,,,,,,,,,,,,,,,,,,,,,,,,,,,,,,,,,,,,,,,,,,,,,,,,,,,,,1.5663580248753228,1.0239676000001054,311.34250390000034,None,ScrollUp,정답입니다,311.34250390000034,None,311.34250390000034,None,311.34250390000034,None,311.34250390000034,None,312.24055180000005,None,312.24055180000005,312.7441998000004,,,,,,,,,,,,,,,,203,2022-04-27_11h06.54.260,FishGame,2022.1.1,60.045742846843936,
,28,넌 감성적이야,3,Green,B,4.125,4.166666666666667,ScrollUp,ScrollDown,Green.png,2,Neutral,Neutral,0,0,0,0,,,,,,,,,,,,,,,,,0,27,27,27,,,,,,,,,,,,,,,,,,,,,,,,,,,,,,,,,,,,,,,,,,,,,,,,,,,,,,,,,,,,,,,,,,,,,,,,,,,,,,,,,1.6435185223817825,1.9606518000000506,313.39426660000026,None,ScrollUp,정답입니다,313.39426660000026,None,313.39426660000026,None,313.39426660000026,None,313.39426660000026,None,315.2274099000001,None,315.2274099000001,315.7271592000002,,,,,,,,,,,,,,,,203,2022-04-27_11h06.54.260,FishGame,2022.1.1,60.045742846843936,
,29,넌 배려심있어,1,Orange,A,6.083333333333333,5.5,ScrollDown,ScrollUp,Orange.png,2,Positive,Congruent,0,0,0,0,,,,,,,,,,,,,,,,,0,28,28,28,,,,,,,,,,,,,,,,,,,,,,,,,,,,,,,,,,,,,,,,,,,,,,,,,,,,,,,,,,,,,,,,,,,,,,,,,,,,,,,,,1.3827160522341728,0.9718306999998276,316.3851294000001,None,ScrollDown,정답입니다,316.3851294000001,None,316.3851294000001,None,316.3851294000001,None,316.3851294000001,None,317.22098619999997,None,317.22098619999997,317.7268073,,,,,,,,,,,,,,,,203,2022-04-27_11h06.54.260,FishGame,2022.1.1,60.045742846843936,
,30,넌 숨김없어,3,Orange,A,4.5,4.933333333333334,ScrollDown,ScrollUp,Orange.png,2,Neutral,Neutral,0,0,0,0,,,,,,,,,,,,,,,,,0,29,29,29,,,,,,,,,,,,,,,,,,,,,,,,,,,,,,,,,,,,,,,,,,,,,,,,,,,,,,,,,,,,,,,,,,,,,,,,,,,,,,,,,1.3595679054657617,0.9777846000001773,318.3892184000001,None,ScrollDown,정답입니다,318.3892184000001,None,318.3892184000001,None,318.3892184000001,None,318.3892184000001,None,319.22763480000003,None,319.22763480000003,319.7265861000001,,,,,,,,,,,,,,,,203,2022-04-27_11h06.54.260,FishGame,2022.1.1,60.045742846843936,
,31,넌 훌륭해,2,Green,B,5.916666666666667,4.033333333333333,ScrollUp,ScrollDown,Green.png,2,Positive,Incongruent,0,0,0,0,,,,,,,,,,,,,,,,,0,30,30,30,,,,,,,,,,,,,,,,,,,,,,,,,,,,,,,,,,,,,,,,,,,,,,,,,,,,,,,,,,,,,,,,,,,,,,,,,,,,,,,,,1.6203703756133714,0.9890033000001495,320.40533600000026,None,ScrollUp,정답입니다,320.40533600000026,None,320.40533600000026,None,320.40533600000026,None,320.40533600000026,None,321.2600805000002,None,321.2600805000002,321.7597089000001,,,,,,,,,,,,,,,,203,2022-04-27_11h06.54.260,FishGame,2022.1.1,60.045742846843936,
,32,넌 슬기로워,2,Orange,A,6.166666666666667,4.1,ScrollDown,ScrollUp,Orange.png,2,Positive,Congruent,0,0,0,0,,,,,,,,,,,,,,,,,0,31,31,31,,,,,,,,,,,,,,,,,,,,,,,,,,,,,,,,,,,,,,,,,,,,,,,,,,,,,,,,,,,,,,,,,,,,,,,,,,,,,,,,,1.3734567935268083,1.0348484000001008,322.41652620000013,None,ScrollDown,정답입니다,322.41652620000013,None,322.41652620000013,None,322.41652620000013,None,322.41652620000013,None,323.31624420000026,None,323.31624420000026,323.82619109999996,,,,,,,,,,,,,,,,203,2022-04-27_11h06.54.260,FishGame,2022.1.1,60.045742846843936,
,33,넌 냉혹해,5,Orange,A,2.583333333333333,2.1,ScrollDown,ScrollUp,Orange.png,2,Negative,Incongruent,0,0,0,0,,,,,,,,,,,,,,,,,0,32,32,32,,,,,,,,,,,,,,,,,,,,,,,,,,,,,,,,,,,,,,,,,,,,,,,,,,,,,,,,,,,,,,,,,,,,,,,,,,,,,,,,,1.3734567935268083,1.1600948999998764,324.4874842000004,None,ScrollDown,정답입니다,324.4874842000004,None,324.4874842000004,None,324.4874842000004,None,324.4874842000004,None,325.5095674000004,None,325.5095674000004,326.0092267,,,,,,,,,,,,,,,,203,2022-04-27_11h06.54.260,FishGame,2022.1.1,60.045742846843936,
,34,나를 데려가줘,6,Green,B,0,0,ScrollDown,ScrollUp,Green.png,2,NonTarget,NonTarget,0,0,0,0,,,,,,,,,,,,,,,,,0,33,33,33,,,,,,,,,,,,,,,,,,,,,,,,,,,,,,,,,,,,,,,,,,,,,,,,,,,,,,,,,,,,,,,,,,,,,,,,,,,,,,,,,1.5956790149211884,0.9838457999999264,326.65781510000033,None,ScrollUp,오답입니다,326.65781510000033,None,326.65781510000033,None,326.65781510000033,None,326.65781510000033,None,327.5178108,None,327.5178108,328.0255758000003,,,,,,,,,,,,,,,,203,2022-04-27_11h06.54.260,FishGame,2022.1.1,60.045742846843936,
,35,넌 편파적이야,5,Green,B,2.125,2,ScrollUp,ScrollDown,Green.png,2,Negative,Congruent,0,0,0,0,,,,,,,,,,,,,,,,,0,34,34,34,,,,,,,,,,,,,,,,,,,,,,,,,,,,,,,,,,,,,,,,,,,,,,,,,,,,,,,,,,,,,,,,,,,,,,,,,,,,,,,,,1.7530864129463832,1.8546651999999995,328.6805786,None,ScrollUp,정답입니다,328.6805786,None,328.6805786,None,328.6805786,None,328.6805786,None,330.40271340000027,None,330.40271340000027,330.90854370000034,,,,,,,,,,,,,,,,203,2022-04-27_11h06.54.260,FishGame,2022.1.1,60.045742846843936,
,36,넌 슬퍼,4,Orange,A,2.583333333333333,3.066666666666667,ScrollDown,ScrollUp,Orange.png,2,Negative,Incongruent,0,0,0,0,,,,,,,,,,,,,,,,,0,35,35,35,,,,,,,,,,,,,,,,,,,,,,,,,,,,,,,,,,,,,,,,,,,,,,,,,,,,,,,,,,,,,,,,,,,,,,,,,,,,,,,,,1.040123442808787,1.3063363000001118,331.5577841000004,None,ScrollDown,정답입니다,331.5577841000004,None,331.5577841000004,None,331.5577841000004,None,331.5577841000004,None,332.7419239000001,None,332.7419239000001,333.2414952000004,,,,,,,,,,,,,,,,203,2022-04-27_11h06.54.260,FishGame,2022.1.1,60.045742846843936,
,37,나를 데려가줘,6,Green,B,0,0,ScrollDown,ScrollUp,Green.png,2,NonTarget,NonTarget,0,0,0,0,,,,,,,,,,,,,,,,,0,36,36,36,,,,,,,,,,,,,,,,,,,,,,,,,,,,,,,,,,,,,,,,,,,,,,,,,,,,,,,,,,,,,,,,,,,,,,,,,,,,,,,,,1.126543199022611,1.6019395000002987,333.8921303000002,None,ScrollDown,정답입니다,333.8921303000002,None,333.8921303000002,None,333.8921303000002,None,333.8921303000002,None,335.3641055000003,None,335.3641055000003,335.8746222,,,,,,,,,,,,,,,,203,2022-04-27_11h06.54.260,FishGame,2022.1.1,60.045742846843936,
,38,넌 친절해,1,Green,B,6.041666666666667,5.533333333333333,ScrollUp,ScrollDown,Green.png,2,Positive,Incongruent,0,0,0,0,,,,,,,,,,,,,,,,,0,37,37,37,,,,,,,,,,,,,,,,,,,,,,,,,,,,,,,,,,,,,,,,,,,,,,,,,,,,,,,,,,,,,,,,,,,,,,,,,,,,,,,,,1.540123456468185,1.6649717000000237,336.5312035000002,None,NoResponse,무응답입니다,336.5312035000002,None,336.5312035000002,None,336.5312035000002,None,336.5312035000002,None,338.0629571000004,None,338.0629571000004,338.5742421,,,,,,,,,,,,,,,,203,2022-04-27_11h06.54.260,FishGame,2022.1.1,60.045742846843936,
,1,넌 엉성해,4,Orange,A,3,3.3,ScrollDown,ScrollUp,Orange.png,3,Negative,Incongruent,0,0,0,0,,,,,,,,,,,,,,,,,,,,,0,0,0,0,,,,,,,,,,,,,,,,,,,,,,,,,,,,,,,,,,,,373.2700226000002,374.7697631000001,374.80301099999997,375.75293690000035,375.8028355000001,376.7528334000003,376.7528334000003,None,,,,,,,,,,,,,,,,,,,,,,,,,,,,,,,,,,1.3749999950329461,1.1512274000001526,377.93544550000024,None,ScrollDown,정답입니다,377.93544550000024,None,377.93544550000024,None,377.93544550000024,None,377.93544550000024,None,378.92401800000016,None,378.92401800000016,379.43559440000035,339.07427940000025,None,339.07427940000025,None,0.085185185,-0.073148146,1,0,0,0.016218660000049567,None,369.0705657000003,None,,,203,2022-04-27_11h06.54.260,FishGame,2022.1.1,60.045742846843936,
,2,나를 보내줘,6,Orange,A,0,0,ScrollUp,ScrollDown,Orange.png,3,NonTarget,NonTarget,0,0,0,0,,,,,,,,,,,,,,,,,,,,,0,1,1,1,,,,,,,,,,,,,,,,,,,,,,,,,,,,,,,,,,,,,,,,,,,,,,,,,,,,,,,,,,,,,,,,,,,,,,,,,,,,,1.507716049440205,1.1317432000000736,380.08411730000034,None,NoResponse,무응답입니다,380.08411730000034,None,380.08411730000034,None,380.08411730000034,None,380.08411730000034,None,381.09208750000016,None,381.09208750000016,381.6020211,,,,,,,,,,,,,,,,203,2022-04-27_11h06.54.260,FishGame,2022.1.1,60.045742846843936,
,3,넌 활발해,1,Green,B,5.666666666666667,5.6,ScrollUp,ScrollDown,Green.png,3,Positive,Incongruent,0,0,0,0,,,,,,,,,,,,,,,,,,,,,0,2,2,2,,,,,,,,,,,,,,,,,,,,,,,,,,,,,,,,,,,,,,,,,,,,,,,,,,,,,,,,,,,,,,,,,,,,,,,,,,,,,1.7530864129463832,1.9118304999997235,382.2592803000002,None,ScrollUp,정답입니다,382.2592803000002,None,382.2592803000002,None,382.2592803000002,None,382.2592803000002,None,384.0358086000001,None,384.0358086000001,384.5349566,,,,,,,,,,,,,,,,203,2022-04-27_11h06.54.260,FishGame,2022.1.1,60.045742846843936,
,4,넌 논리적이야,2,Orange,A,5.666666666666666,4.633333333333334,ScrollDown,ScrollUp,Orange.png,3,Positive,Congruent,0,0,0,0,,,,,,,,,,,,,,,,,,,,,0,3,3,3,,,,,,,,,,,,,,,,,,,,,,,,,,,,,,,,,,,,,,,,,,,,,,,,,,,,,,,,,,,,,,,,,,,,,,,,,,,,,1.1049382785956066,1.5976430000000619,385.1964646000001,None,ScrollDown,정답입니다,385.1964646000001,None,385.1964646000001,None,385.1964646000001,None,385.1964646000001,None,386.65542890000006,None,386.65542890000006,387.16794800000025,,,,,,,,,,,,,,,,203,2022-04-27_11h06.54.260,FishGame,2022.1.1,60.045742846843936,
,5,넌 과묵해,3,Orange,A,3.875,4.4,ScrollDown,ScrollUp,Orange.png,3,Neutral,Neutral,0,0,0,0,,,,,,,,,,,,,,,,,,,,,0,4,4,4,,,,,,,,,,,,,,,,,,,,,,,,,,,,,,,,,,,,,,,,,,,,,,,,,,,,,,,,,,,,,,,,,,,,,,,,,,,,,1.0632716019948323,0.9784577999998874,387.8267036000002,None,ScrollDown,정답입니다,387.8267036000002,None,387.8267036000002,None,387.8267036000002,None,387.8267036000002,None,388.66793370000005,None,388.66793370000005,389.1677985000001,,,,,,,,,,,,,,,,203,2022-04-27_11h06.54.260,FishGame,2022.1.1,60.045742846843936,
,6,나를 데려가줘,6,Green,B,0,0,ScrollDown,ScrollUp,Green.png,3,NonTarget,NonTarget,0,0,0,0,,,,,,,,,,,,,,,,,,,,,0,5,5,5,,,,,,,,,,,,,,,,,,,,,,,,,,,,,,,,,,,,,,,,,,,,,,,,,,,,,,,,,,,,,,,,,,,,,,,,,,,,,1.2422839452823002,1.2489590000000135,389.8163456000002,None,ScrollDown,정답입니다,389.8163456000002,None,389.8163456000002,None,389.8163456000002,None,389.8163456000002,None,390.93924990000005,None,390.93924990000005,391.4507599000003,,,,,,,,,,,,,,,,203,2022-04-27_11h06.54.260,FishGame,2022.1.1,60.045742846843936,
,7,넌 미숙해,4,Green,B,3,3,ScrollUp,ScrollDown,Green.png,3,Negative,Congruent,0,0,0,0,,,,,,,,,,,,,,,,,,,,,0,6,6,6,,,,,,,,,,,,,,,,,,,,,,,,,,,,,,,,,,,,,,,,,,,,,,,,,,,,,,,,,,,,,,,,,,,,,,,,,,,,,1.7145061641931534,1.1889270000001488,392.0962588000002,None,ScrollUp,정답입니다,392.0962588000002,None,392.0962588000002,None,392.0962588000002,None,392.0962588000002,None,393.16046210000013,None,393.16046210000013,393.66715850000037,,,,,,,,,,,,,,,,203,2022-04-27_11h06.54.260,FishGame,2022.1.1,60.045742846843936,
,8,나를 보내줘,6,Orange,A,0,0,ScrollUp,ScrollDown,Orange.png,3,NonTarget,NonTarget,0,0,0,0,,,,,,,,,,,,,,,,,,,,,0,7,7,7,,,,,,,,,,,,,,,,,,,,,,,,,,,,,,,,,,,,,,,,,,,,,,,,,,,,,,,,,,,,,,,,,,,,,,,,,,,,,1.4845679011195898,1.4959029000001465,394.32185270000036,None,NoResponse,무응답입니다,394.32185270000036,None,394.32185270000036,None,394.32185270000036,None,394.32185270000036,None,395.68541860000005,None,395.68541860000005,396.2001645,,,,,,,,,,,,,,,,203,2022-04-27_11h06.54.260,FishGame,2022.1.1,60.045742846843936,
,9,넌 자신만만해,3,Green,B,4.833333333333334,4.333333333333333,ScrollUp,ScrollDown,Green.png,3,Neutral,Neutral,0,0,0,0,,,,,,,,,,,,,,,,,,,,,0,8,8,8,,,,,,,,,,,,,,,,,,,,,,,,,,,,,,,,,,,,,,,,,,,,,,,,,,,,,,,,,,,,,,,,,,,,,,,,,,,,,1.6111111169060073,1.8202401000003192,396.8484274000002,None,ScrollUp,정답입니다,396.8484274000002,None,396.8484274000002,None,396.8484274000002,None,396.8484274000002,None,398.54289140000037,None,398.54289140000037,399.0500169000002,,,,,,,,,,,,,,,,203,2022-04-27_11h06.54.260,FishGame,2022.1.1,60.045742846843936,
,10,넌 탐욕스러워,5,Orange,A,2.25,2.1,ScrollDown,ScrollUp,Orange.png,3,Negative,Incongruent,0,0,0,0,,,,,,,,,,,,,,,,,,,,,0,9,9,9,,,,,,,,,,,,,,,,,,,,,,,,,,,,,,,,,,,,,,,,,,,,,,,,,,,,,,,,,,,,,,,,,,,,,,,,,,,,,1,3.5488368999999693,399.70545370000036,None,ScrollDown,정답입니다,399.70545370000036,None,399.70545370000036,None,399.70545370000036,None,399.70545370000036,None,403.12101359999997,None,403.12101359999997,403.63256120000005,,,,,,,,,,,,,,,,203,2022-04-27_11h06.54.260,FishGame,2022.1.1,60.045742846843936,
,11,넌 인기있어,2,Orange,A,5.458333333333333,4.5,ScrollDown,ScrollUp,Orange.png,3,Positive,Congruent,0,0,0,0,,,,,,,,,,,,,,,,,,,,,0,10,10,10,,,,,,,,,,,,,,,,,,,,,,,,,,,,,,,,,,,,,,,,,,,,,,,,,,,,,,,,,,,,,,,,,,,,,,,,,,,,,1,1.3055470999997851,404.2893581000003,None,ScrollDown,정답입니다,404.2893581000003,None,404.2893581000003,None,404.2893581000003,None,404.2893581000003,None,405.4655238,None,405.4655238,405.96557680000024,,,,,,,,,,,,,,,,203,2022-04-27_11h06.54.260,FishGame,2022.1.1,60.045742846843936,
,12,나를 데려가줘,6,Green,B,0,0,ScrollDown,ScrollUp,Green.png,3,NonTarget,NonTarget,0,0,0,0,,,,,,,,,,,,,,,,,,,,,0,11,11,11,,,,,,,,,,,,,,,,,,,,,,,,,,,,,,,,,,,,,,,,,,,,,,,,,,,,,,,,,,,,,,,,,,,,,,,,,,,,,1.0385802288850148,2.055750800000169,406.6069230000003,None,ScrollDown,정답입니다,406.6069230000003,None,406.6069230000003,None,406.6069230000003,None,406.6069230000003,None,408.54873020000014,None,408.54873020000014,409.0486987000004,,,,,,,,,,,,,,,,203,2022-04-27_11h06.54.260,FishGame,2022.1.1,60.045742846843936,
,13,넌 뛰어나,2,Green,B,6.166666666666667,4,ScrollUp,ScrollDown,Green.png,3,Positive,Incongruent,0,0,0,0,,,,,,,,,,,,,,,,,,,,,0,12,12,12,,,,,,,,,,,,,,,,,,,,,,,,,,,,,,,,,,,,,,,,,,,,,,,,,,,,,,,,,,,,,,,,,,,,,,,,,,,,,2,1.4095856999997523,409.69708040000023,None,ScrollUp,정답입니다,409.69708040000023,None,409.69708040000023,None,409.69708040000023,None,409.69708040000023,None,410.9815931000003,None,410.9815931000003,411.4816248000002,,,,,,,,,,,,,,,,203,2022-04-27_11h06.54.260,FishGame,2022.1.1,60.045742846843936,
,14,넌 낙관적이야,1,Orange,A,5.75,5.8,ScrollDown,ScrollUp,Orange.png,3,Positive,Congruent,0,0,0,0,,,,,,,,,,,,,,,,,,,,,0,13,13,13,,,,,,,,,,,,,,,,,,,,,,,,,,,,,,,,,,,,,,,,,,,,,,,,,,,,,,,,,,,,,,,,,,,,,,,,,,,,,1.0570987462997437,1.3018756000001304,412.14093470000034,None,ScrollDown,정답입니다,412.14093470000034,None,412.14093470000034,None,412.14093470000034,None,412.14093470000034,None,413.30504610000025,None,413.30504610000025,413.81453220000003,,,,,,,,,,,,,,,,203,2022-04-27_11h06.54.260,FishGame,2022.1.1,60.045742846843936,
,15,넌 산만해,4,Green,B,2.695652173913043,3.033333333333333,ScrollUp,ScrollDown,Green.png,3,Negative,Congruent,0,0,0,0,,,,,,,,,,,,,,,,,,,,,0,14,14,14,,,,,,,,,,,,,,,,,,,,,,,,,,,,,,,,,,,,,,,,,,,,,,,,,,,,,,,,,,,,,,,,,,,,,,,,,,,,,2,1.1779109999997672,414.46468400000003,None,ScrollUp,정답입니다,414.46468400000003,None,414.46468400000003,None,414.46468400000003,None,414.46468400000003,None,415.5108201000003,None,415.5108201000003,416.01425100000006,,,,,,,,,,,,,,,,203,2022-04-27_11h06.54.260,FishGame,2022.1.1,60.045742846843936,
,16,나를 보내줘,6,Orange,A,0,0,ScrollUp,ScrollDown,Orange.png,3,NonTarget,NonTarget,0,0,0,0,,,,,,,,,,,,,,,,,,,,,0,15,15,15,,,,,,,,,,,,,,,,,,,,,,,,,,,,,,,,,,,,,,,,,,,,,,,,,,,,,,,,,,,,,,,,,,,,,,,,,,,,,1.9120370248953502,1.6728978999999526,416.6688901000002,None,ScrollUp,정답입니다,416.6688901000002,None,416.6688901000002,None,416.6688901000002,None,416.6688901000002,None,418.21426880000035,None,418.21426880000035,418.7139096000001,,,,,,,,,,,,,,,,203,2022-04-27_11h06.54.260,FishGame,2022.1.1,60.045742846843936,
,17,넌 교활해,5,Green,B,2.333333333333333,2.133333333333333,ScrollUp,ScrollDown,Green.png,3,Negative,Congruent,0,0,0,0,,,,,,,,,,,,,,,,,,,,,0,16,16,16,,,,,,,,,,,,,,,,,,,,,,,,,,,,,,,,,,,,,,,,,,,,,,,,,,,,,,,,,,,,,,,,,,,,,,,,,,,,,1.5817901206513247,1.1014116999999715,419.3702032000001,None,ScrollUp,정답입니다,419.3702032000001,None,419.3702032000001,None,419.3702032000001,None,419.3702032000001,None,420.3387273000003,None,420.3387273000003,420.8469876000004,,,,,,,,,,,,,,,,203,2022-04-27_11h06.54.260,FishGame,2022.1.1,60.045742846843936,
,18,나를 보내줘,6,Orange,A,0,0,ScrollUp,ScrollDown,Orange.png,3,NonTarget,NonTarget,0,0,0,0,,,,,,,,,,,,,,,,,,,,,0,17,17,17,,,,,,,,,,,,,,,,,,,,,,,,,,,,,,,,,,,,,,,,,,,,,,,,,,,,,,,,,,,,,,,,,,,,,,,,,,,,,1.6450617238879204,1.173596500000258,421.5001569000001,None,ScrollUp,정답입니다,421.5001569000001,None,421.5001569000001,None,421.5001569000001,None,421.5001569000001,None,422.5405082000002,None,422.5405082000002,423.04674250000016,,,,,,,,,,,,,,,,203,2022-04-27_11h06.54.260,FishGame,2022.1.1,60.045742846843936,
,19,넌 불친절해,5,Green,B,2.208333333333333,2.033333333333333,ScrollUp,ScrollDown,Green.png,3,Negative,Congruent,0,0,0,0,,,,,,,,,,,,,,,,,,,,,0,18,18,18,,,,,,,,,,,,,,,,,,,,,,,,,,,,,,,,,,,,,,,,,,,,,,,,,,,,,,,,,,,,,,,,,,,,,,,,,,,,,1.8611111144224803,1.042149800000061,423.70577630000025,None,ScrollUp,정답입니다,423.70577630000025,None,423.70577630000025,None,423.70577630000025,None,423.70577630000025,None,424.61314340000035,None,424.61314340000035,425.11311720000003,,,,,,,,,,,,,,,,203,2022-04-27_11h06.54.260,FishGame,2022.1.1,60.045742846843936,
,20,넌 지적이야,2,Green,B,5.75,4.366666666666666,ScrollUp,ScrollDown,Green.png,3,Positive,Incongruent,0,0,0,0,,,,,,,,,,,,,,,,,,,,,0,19,19,19,,,,,,,,,,,,,,,,,,,,,,,,,,,,,,,,,,,,,,,,,,,,,,,,,,,,,,,,,,,,,,,,,,,,,,,,,,,,,1.652777781089147,1.0269254999998338,425.76340849999997,None,ScrollUp,정답입니다,425.76340849999997,None,425.76340849999997,None,425.76340849999997,None,425.76340849999997,None,426.6634121000002,None,426.6634121000002,427.16300880000017,,,,,,,,,,,,,,,,203,2022-04-27_11h06.54.260,FishGame,2022.1.1,60.045742846843936,
,21,넌 우유부단해,4,Orange,A,2.666666666666667,3.166666666666667,ScrollDown,ScrollUp,Orange.png,3,Negative,Incongruent,0,0,0,0,,,,,,,,,,,,,,,,,,,,,0,20,20,20,,,,,,,,,,,,,,,,,,,,,,,,,,,,,,,,,,,,,,,,,,,,,,,,,,,,,,,,,,,,,,,,,,,,,,,,,,,,,1.1558641890684764,1.2187020999999731,427.81658100000004,None,ScrollDown,정답입니다,427.81658100000004,None,427.81658100000004,None,427.81658100000004,None,427.81658100000004,None,428.9025891000001,None,428.9025891000001,429.41250880000007,,,,,,,,,,,,,,,,203,2022-04-27_11h06.54.260,FishGame,2022.1.1,60.045742846843936,
,22,나를 데려가줘,6,Green,B,0,0,ScrollDown,ScrollUp,Green.png,3,NonTarget,NonTarget,0,0,0,0,,,,,,,,,,,,,,,,,,,,,0,21,21,21,,,,,,,,,,,,,,,,,,,,,,,,,,,,,,,,,,,,,,,,,,,,,,,,,,,,,,,,,,,,,,,,,,,,,,,,,,,,,1,1.3790532999996685,430.0625001000003,None,ScrollDown,정답입니다,430.0625001000003,None,430.0625001000003,None,430.0625001000003,None,430.0625001000003,None,431.3121685000001,None,431.3121685000001,431.8122735000002,,,,,,,,,,,,,,,,203,2022-04-27_11h06.54.260,FishGame,2022.1.1,60.045742846843936,
,23,넌 성실해,1,Green,B,6.041666666666666,5.7,ScrollUp,ScrollDown,Green.png,3,Positive,Incongruent,0,0,0,0,,,,,,,,,,,,,,,,,,,,,0,22,22,22,,,,,,,,,,,,,,,,,,,,,,,,,,,,,,,,,,,,,,,,,,,,,,,,,,,,,,,,,,,,,,,,,,,,,,,,,,,,,1.8425925970077515,1.0440451000004032,432.45796199999995,None,ScrollUp,정답입니다,432.45796199999995,None,432.45796199999995,None,432.45796199999995,None,432.45796199999995,None,433.37902010000016,None,433.37902010000016,433.8788115000002,,,,,,,,,,,,,,,,203,2022-04-27_11h06.54.260,FishGame,2022.1.1,60.045742846843936,
,24,넌 현실주의적이야,3,Orange,A,4.625,4.4,ScrollDown,ScrollUp,Orange.png,3,Neutral,Neutral,0,0,0,0,,,,,,,,,,,,,,,,,,,,,0,23,23,23,,,,,,,,,,,,,,,,,,,,,,,,,,,,,,,,,,,,,,,,,,,,,,,,,,,,,,,,,,,,,,,,,,,,,,,,,,,,,1.0324074228604634,1.1582856999998512,434.5299154000004,None,ScrollDown,정답입니다,434.5299154000004,None,434.5299154000004,None,434.5299154000004,None,434.5299154000004,None,435.56194440000036,None,435.56194440000036,436.0616132,,,,,,,,,,,,,,,,203,2022-04-27_11h06.54.260,FishGame,2022.1.1,60.045742846843936,
,25,넌 진실돼,1,Orange,A,6.625,5.566666666666666,ScrollDown,ScrollUp,Orange.png,3,Positive,Congruent,0,0,0,0,,,,,,,,,,,,,,,,,,,,,0,24,24,24,,,,,,,,,,,,,,,,,,,,,,,,,,,,,,,,,,,,,,,,,,,,,,,,,,,,,,,,,,,,,,,,,,,,,,,,,,,,,1.182098776102066,1.6323309999997946,436.7222425,None,ScrollDown,정답입니다,436.7222425,None,436.7222425,None,436.7222425,None,436.7222425,None,438.21742310000036,None,438.21742310000036,438.7280288000002,,,,,,,,,,,,,,,,203,2022-04-27_11h06.54.260,FishGame,2022.1.1,60.045742846843936,
,26,넌 천진난만해,3,Green,B,4.958333333333334,4.833333333333333,ScrollUp,ScrollDown,Green.png,3,Neutral,Neutral,0,0,0,0,,,,,,,,,,,,,,,,,,,,,0,25,25,25,,,,,,,,,,,,,,,,,,,,,,,,,,,,,,,,,,,,,,,,,,,,,,,,,,,,,,,,,,,,,,,,,,,,,,,,,,,,,1.9737654328346252,1.383027100000163,439.3820788000003,None,ScrollUp,정답입니다,439.3820788000003,None,439.3820788000003,None,439.3820788000003,None,439.3820788000003,None,440.6318424000001,None,440.6318424000001,441.1443769000002,,,,,,,,,,,,,,,,203,2022-04-27_11h06.54.260,FishGame,2022.1.1,60.045742846843936,
,27,넌 교양없어,5,Orange,A,2.416666666666667,2.2,ScrollDown,ScrollUp,Orange.png,3,Negative,Incongruent,0,0,0,0,,,,,,,,,,,,,,,,,,,,,0,26,26,26,,,,,,,,,,,,,,,,,,,,,,,,,,,,,,,,,,,,,,,,,,,,,,,,,,,,,,,,,,,,,,,,,,,,,,,,,,,,,1.0154321193695068,1.3167144000003645,441.80842570000004,None,ScrollDown,정답입니다,441.80842570000004,None,441.80842570000004,None,441.80842570000004,None,441.80842570000004,None,442.9826425000001,None,442.9826425000001,443.4940883000004,,,,,,,,,,,,,,,,203,2022-04-27_11h06.54.260,FishGame,2022.1.1,60.045742846843936,
,28,나를 보내줘,6,Orange,A,0,0,ScrollUp,ScrollDown,Orange.png,3,NonTarget,NonTarget,0,0,0,0,,,,,,,,,,,,,,,,,,,,,0,27,27,27,,,,,,,,,,,,,,,,,,,,,,,,,,,,,,,,,,,,,,,,,,,,,,,,,,,,,,,,,,,,,,,,,,,,,,,,,,,,,1.9490740597248077,1.1986630000001242,444.14636670000027,None,ScrollUp,정답입니다,444.14636670000027,None,444.14636670000027,None,444.14636670000027,None,444.14636670000027,None,445.2146408000003,None,445.2146408000003,445.7271533000003,,,,,,,,,,,,,,,,203,2022-04-27_11h06.54.260,FishGame,2022.1.1,60.045742846843936,
,29,넌 엉뚱스러워,3,Orange,A,4.166666666666667,4.133333333333334,ScrollDown,ScrollUp,Orange.png,3,Neutral,Neutral,0,0,0,0,,,,,,,,,,,,,,,,,,,,,0,28,28,28,,,,,,,,,,,,,,,,,,,,,,,,,,,,,,,,,,,,,,,,,,,,,,,,,,,,,,,,,,,,,,,,,,,,,,,,,,,,,1.1635802586873372,2.3529582999999548,446.38588990000017,None,ScrollDown,정답입니다,446.38588990000017,None,446.38588990000017,None,446.38588990000017,None,446.38588990000017,None,448.6019146000003,None,448.6019146000003,449.11006680000037,,,,,,,,,,,,,,,,203,2022-04-27_11h06.54.260,FishGame,2022.1.1,60.045742846843936,
,30,넌 무지해,4,Green,B,2.541666666666667,3.066666666666667,ScrollUp,ScrollDown,Green.png,3,Negative,Congruent,0,0,0,0,,,,,,,,,,,,,,,,,,,,,0,29,29,29,,,,,,,,,,,,,,,,,,,,,,,,,,,,,,,,,,,,,,,,,,,,,,,,,,,,,,,,,,,,,,,,,,,,,,,,,,,,,1.699074074625969,1.9947011999997812,449.75980130000016,None,ScrollUp,정답입니다,449.75980130000016,None,449.75980130000016,None,449.75980130000016,None,449.75980130000016,None,451.62648160000026,None,451.62648160000026,452.12634049999997,,,,,,,,,,,,,,,,203,2022-04-27_11h06.54.260,FishGame,2022.1.1,60.045742846843936,
,31,넌 음울해,5,Green,B,2.25,2.233333333333333,ScrollUp,ScrollDown,Green.png,3,Negative,Congruent,0,0,0,0,,,,,,,,,,,,,,,,,,,,,0,30,30,30,,,,,,,,,,,,,,,,,,,,,,,,,,,,,,,,,,,,,,,,,,,,,,,,,,,,,,,,,,,,,,,,,,,,,,,,,,,,,2,1.3453081000002385,452.7828833000003,None,ScrollUp,정답입니다,452.7828833000003,None,452.7828833000003,None,452.7828833000003,None,452.7828833000003,None,453.99276940000027,None,453.99276940000027,454.49274600000035,,,,,,,,,,,,,,,,203,2022-04-27_11h06.54.260,FishGame,2022.1.1,60.045742846843936,
,32,넌 냉소적이야,5,Orange,A,2.916666666666667,2.4,ScrollDown,ScrollUp,Orange.png,3,Negative,Incongruent,0,0,0,0,,,,,,,,,,,,,,,,,,,,,0,31,31,31,,,,,,,,,,,,,,,,,,,,,,,,,,,,,,,,,,,,,,,,,,,,,,,,,,,,,,,,,,,,,,,,,,,,,,,,,,,,,1.1018518507480621,1.3302361999999448,455.1479426000001,None,ScrollDown,정답입니다,455.1479426000001,None,455.1479426000001,None,455.1479426000001,None,455.1479426000001,None,456.3477379000001,None,456.3477379000001,456.85904900000014,,,,,,,,,,,,,,,,203,2022-04-27_11h06.54.260,FishGame,2022.1.1,60.045742846843936,
,33,나를 데려가줘,6,Green,B,0,0,ScrollDown,ScrollUp,Green.png,3,NonTarget,NonTarget,0,0,0,0,,,,,,,,,,,,,,,,,,,,,0,32,32,32,,,,,,,,,,,,,,,,,,,,,,,,,,,,,,,,,,,,,,,,,,,,,,,,,,,,,,,,,,,,,,,,,,,,,,,,,,,,,1,1.5453028000001723,457.5099798000001,None,ScrollDown,정답입니다,457.5099798000001,None,457.5099798000001,None,457.5099798000001,None,457.5099798000001,None,458.9269668000002,None,458.9269668000002,459.44231630000013,,,,,,,,,,,,,,,,203,2022-04-27_11h06.54.260,FishGame,2022.1.1,60.045742846843936,
,34,넌 쾌활해,1,Orange,A,5.541666666666666,5.733333333333333,ScrollDown,ScrollUp,Orange.png,3,Positive,Congruent,0,0,0,0,,,,,,,,,,,,,,,,,,,,,0,33,33,33,,,,,,,,,,,,,,,,,,,,,,,,,,,,,,,,,,,,,,,,,,,,,,,,,,,,,,,,,,,,,,,,,,,,,,,,,,,,,1,1.4513569000000643,460.09483610000007,None,ScrollDown,정답입니다,460.09483610000007,None,460.09483610000007,None,460.09483610000007,None,460.09483610000007,None,461.4145215000003,None,461.4145215000003,461.9252902000003,,,,,,,,,,,,,,,,203,2022-04-27_11h06.54.260,FishGame,2022.1.1,60.045742846843936,
,35,나를 보내줘,6,Orange,A,0,0,ScrollUp,ScrollDown,Orange.png,3,NonTarget,NonTarget,0,0,0,0,,,,,,,,,,,,,,,,,,,,,0,34,34,34,,,,,,,,,,,,,,,,,,,,,,,,,,,,,,,,,,,,,,,,,,,,,,,,,,,,,,,,,,,,,,,,,,,,,,,,,,,,,1.9799382885297139,1.3948694000000614,462.5723608000003,None,ScrollUp,정답입니다,462.5723608000003,None,462.5723608000003,None,462.5723608000003,None,462.5723608000003,None,463.84167100000013,None,463.84167100000013,464.3413308000004,,,,,,,,,,,,,,,,203,2022-04-27_11h06.54.260,FishGame,2022.1.1,60.045742846843936,
,36,넌 명랑해,1,Green,B,5.739130434782609,5.666666666666667,ScrollUp,ScrollDown,Green.png,3,Positive,Incongruent,0,0,0,0,,,,,,,,,,,,,,,,,,,,,0,35,35,35,,,,,,,,,,,,,,,,,,,,,,,,,,,,,,,,,,,,,,,,,,,,,,,,,,,,,,,,,,,,,,,,,,,,,,,,,,,,,1.9166666666666667,1.1759890000002997,464.9941669,None,ScrollUp,정답입니다,464.9941669,None,464.9941669,None,464.9941669,None,464.9941669,None,466.04119070000024,None,466.04119070000024,466.5411062000003,,,,,,,,,,,,,,,,203,2022-04-27_11h06.54.260,FishGame,2022.1.1,60.045742846843936,
,37,넌 멍해,4,Orange,A,2.833333333333333,3.4,ScrollDown,ScrollUp,Orange.png,3,Negative,Incongruent,0,0,0,0,,,,,,,,,,,,,,,,,,,,,0,36,36,36,,,,,,,,,,,,,,,,,,,,,,,,,,,,,,,,,,,,,,,,,,,,,,,,,,,,,,,,,,,,,,,,,,,,,,,,,,,,,1.0185184975465138,1.2980264000002535,467.1949778000003,None,ScrollDown,정답입니다,467.1949778000003,None,467.1949778000003,None,467.1949778000003,None,467.1949778000003,None,468.3619109000001,None,468.3619109000001,468.87418290000005,,,,,,,,,,,,,,,,203,2022-04-27_11h06.54.260,FishGame,2022.1.1,60.045742846843936,
,38,나를 데려가줘,6,Green,B,0,0,ScrollDown,ScrollUp,Green.png,3,NonTarget,NonTarget,0,0,0,0,,,,,,,,,,,,,,,,,,,,,0,37,37,37,,,,,,,,,,,,,,,,,,,,,,,,,,,,,,,,,,,,,,,,,,,,,,,,,,,,,,,,,,,,,,,,,,,,,,,,,,,,,1,1.3023057000000335,469.5248967000002,None,ScrollDown,정답입니다,469.5248967000002,None,469.5248967000002,None,469.5248967000002,None,469.5248967000002,None,470.69748819999995,None,470.69748819999995,471.20743730000004,,,,,,,,,,,,,,,,203,2022-04-27_11h06.54.260,FishGame,2022.1.1,60.045742846843936,
,39,넌 현명해,2,Orange,A,6.541666666666666,4.533333333333333,ScrollDown,ScrollUp,Orange.png,3,Positive,Congruent,0,0,0,0,,,,,,,,,,,,,,,,,,,,,0,38,38,38,,,,,,,,,,,,,,,,,,,,,,,,,,,,,,,,,,,,,,,,,,,,,,,,,,,,,,,,,,,,,,,,,,,,,,,,,,,,,2,1.2952565999999024,471.8543751000002,None,ScrollUp,오답입니다,471.8543751000002,None,471.8543751000002,None,471.8543751000002,None,471.8543751000002,None,473.0240318000001,None,473.0240318000001,473.5235944000001,,,,,,,,,,,,,,,,203,2022-04-27_11h06.54.260,FishGame,2022.1.1,60.045742846843936,
,40,넌 수줍어,3,Green,B,3.541666666666666,4.366666666666666,ScrollUp,ScrollDown,Green.png,3,Neutral,Neutral,0,0,0,0,,,,,,,,,,,,,,,,,,,,,0,39,39,39,,,,,,,,,,,,,,,,,,,,,,,,,,,,,,,,,,,,,,,,,,,,,,,,,,,,,,,,,,,,,,,,,,,,,,,,,,,,,2,1.8881161999997857,474.1781275000003,None,ScrollUp,정답입니다,474.1781275000003,None,474.1781275000003,None,474.1781275000003,None,474.1781275000003,None,475.9337945000002,None,475.9337945000002,476.43987190000007,,,,,,,,,,,,,,,,203,2022-04-27_11h06.54.260,FishGame,2022.1.1,60.045742846843936,
,41,나를 데려가줘,6,Green,B,0,0,ScrollDown,ScrollUp,Green.png,3,NonTarget,NonTarget,0,0,0,0,,,,,,,,,,,,,,,,,,,,,0,40,40,40,,,,,,,,,,,,,,,,,,,,,,,,,,,,,,,,,,,,,,,,,,,,,,,,,,,,,,,,,,,,,,,,,,,,,,,,,,,,,1,1.4731707999999344,477.08483860000024,None,ScrollDown,정답입니다,477.08483860000024,None,477.08483860000024,None,477.08483860000024,None,477.08483860000024,None,478.43953439999996,None,478.43953439999996,478.93955700000015,,,,,,,,,,,,,,,,203,2022-04-27_11h06.54.260,FishGame,2022.1.1,60.045742846843936,
,42,넌 성숙해,2,Green,B,5.833333333333333,4.533333333333333,ScrollUp,ScrollDown,Green.png,3,Positive,Incongruent,0,0,0,0,,,,,,,,,,,,,,,,,,,,,0,41,41,41,,,,,,,,,,,,,,,,,,,,,,,,,,,,,,,,,,,,,,,,,,,,,,,,,,,,,,,,,,,,,,,,,,,,,,,,,,,,,1.837962955236435,1.6452340000000731,479.5857453000003,None,ScrollUp,정답입니다,479.5857453000003,None,479.5857453000003,None,479.5857453000003,None,479.5857453000003,None,481.1071192000004,None,481.1071192000004,481.62248720000025,,,,,,,,,,,,,,,,203,2022-04-27_11h06.54.260,FishGame,2022.1.1,60.045742846843936,
,1,넌 매력적이야,2,Green,B,6.125,4.666666666666667,ScrollUp,ScrollDown,Green.png,4,Positive,Incongruent,0,0,0,0,,,,,,,,,,,,,,,,,,,,,,,,,0,0,0,0,,,,,,,,,,,,,,,,,,,,,,,,,,,,,,,,516.0850068,517.5847060000001,517.6181317,518.5679343000002,518.6179612000001,519.5677261000001,519.5677261000001,None,,,,,,,,,,,,,,,,,,,,,,,,,,,,,,,,,,1.7067901194095612,1.3102271000002474,520.7541617000002,None,ScrollUp,정답입니다,520.7541617000002,None,520.7541617000002,None,520.7541617000002,None,520.7541617000002,None,521.8913263000004,None,521.8913263000004,522.400674,482.1224324,None,482.1224324,None,0.13240741,0.14074074,1,0,0,0.01623805999997785,None,512.1185554000003,None,,,203,2022-04-27_11h06.54.260,FishGame,2022.1.1,60.045742846843936,
,2,나를 보내줘,6,Orange,A,0,0,ScrollUp,ScrollDown,Orange.png,4,NonTarget,NonTarget,0,0,0,0,,,,,,,,,,,,,,,,,,,,,,,,,0,1,1,1,,,,,,,,,,,,,,,,,,,,,,,,,,,,,,,,,,,,,,,,,,,,,,,,,,,,,,,,,,,,,,,,,,,,,,,,,1.7638888855775197,1.1546891000002688,523.0545071000001,None,ScrollUp,정답입니다,523.0545071000001,None,523.0545071000001,None,523.0545071000001,None,523.0545071000001,None,524.0778648,None,524.0778648,524.5837338000001,,,,,,,,,,,,,,,,203,2022-04-27_11h06.54.260,FishGame,2022.1.1,60.045742846843936,
,3,넌 조심스러워,3,Orange,A,4.791666666666666,4.666666666666667,ScrollDown,ScrollUp,Orange.png,4,Neutral,Neutral,0,0,0,0,,,,,,,,,,,,,,,,,,,,,,,,,0,2,2,2,,,,,,,,,,,,,,,,,,,,,,,,,,,,,,,,,,,,,,,,,,,,,,,,,,,,,,,,,,,,,,,,,,,,,,,,,1.0231481393178303,1.3595335999998497,525.2373752000003,None,ScrollDown,정답입니다,525.2373752000003,None,525.2373752000003,None,525.2373752000003,None,525.2373752000003,None,526.4670692,None,526.4670692,526.9666975,,,,,,,,,,,,,,,,203,2022-04-27_11h06.54.260,FishGame,2022.1.1,60.045742846843936,
,4,넌 철학적이야,3,Green,B,4.5,4.266666666666667,ScrollUp,ScrollDown,Green.png,4,Neutral,Neutral,0,0,0,0,,,,,,,,,,,,,,,,,,,,,,,,,0,3,3,3,,,,,,,,,,,,,,,,,,,,,,,,,,,,,,,,,,,,,,,,,,,,,,,,,,,,,,,,,,,,,,,,,,,,,,,,,1.8086419651905696,1.118397400000049,527.6193528000003,None,ScrollUp,정답입니다,527.6193528000003,None,527.6193528000003,None,527.6193528000003,None,527.6193528000003,None,528.6066041000004,None,528.6066041000004,529.1164587000003,,,,,,,,,,,,,,,,203,2022-04-27_11h06.54.260,FishGame,2022.1.1,60.045742846843936,
,5,넌 쩨쩨해,5,Orange,A,2.375,2.133333333333333,ScrollDown,ScrollUp,Orange.png,4,Negative,Incongruent,0,0,0,0,,,,,,,,,,,,,,,,,,,,,,,,,0,4,4,4,,,,,,,,,,,,,,,,,,,,,,,,,,,,,,,,,,,,,,,,,,,,,,,,,,,,,,,,,,,,,,,,,,,,,,,,,1,1.1744502000001376,529.7746352000004,None,ScrollDown,정답입니다,529.7746352000004,None,529.7746352000004,None,529.7746352000004,None,529.7746352000004,None,530.8162767000003,None,530.8162767000003,531.3162039000003,,,,,,,,,,,,,,,,203,2022-04-27_11h06.54.260,FishGame,2022.1.1,60.045742846843936,
,6,나를 데려가줘,6,Green,B,0,0,ScrollDown,ScrollUp,Green.png,4,NonTarget,NonTarget,0,0,0,0,,,,,,,,,,,,,,,,,,,,,,,,,0,5,5,5,,,,,,,,,,,,,,,,,,,,,,,,,,,,,,,,,,,,,,,,,,,,,,,,,,,,,,,,,,,,,,,,,,,,,,,,,1,1.6050030999999763,531.9650228,None,ScrollDown,정답입니다,531.9650228,None,531.9650228,None,531.9650228,None,531.9650228,None,533.4426157000003,None,533.4426157000003,533.9492538000004,,,,,,,,,,,,,,,,203,2022-04-27_11h06.54.260,FishGame,2022.1.1,60.045742846843936,
,7,넌 고집불통이야,5,Green,B,2.875,2,ScrollUp,ScrollDown,Green.png,4,Negative,Congruent,0,0,0,0,,,,,,,,,,,,,,,,,,,,,,,,,0,6,6,6,,,,,,,,,,,,,,,,,,,,,,,,,,,,,,,,,,,,,,,,,,,,,,,,,,,,,,,,,,,,,,,,,,,,,,,,,1.6620370397965112,0.9693766000000323,534.6104582000003,None,ScrollUp,정답입니다,534.6104582000003,None,534.6104582000003,None,534.6104582000003,None,534.6104582000003,None,535.4407970000002,None,535.4407970000002,535.9488449,,,,,,,,,,,,,,,,203,2022-04-27_11h06.54.260,FishGame,2022.1.1,60.045742846843936,
,8,넌 무심해,4,Orange,A,2.875,3.2,ScrollDown,ScrollUp,Orange.png,4,Negative,Incongruent,0,0,0,0,,,,,,,,,,,,,,,,,,,,,,,,,0,7,7,7,,,,,,,,,,,,,,,,,,,,,,,,,,,,,,,,,,,,,,,,,,,,,,,,,,,,,,,,,,,,,,,,,,,,,,,,,1.0092592636744182,1.1071999000000687,536.5993330000001,None,ScrollDown,정답입니다,536.5993330000001,None,536.5993330000001,None,536.5993330000001,None,536.5993330000001,None,537.5822115000001,None,537.5822115000001,538.0819697000002,,,,,,,,,,,,,,,,203,2022-04-27_11h06.54.260,FishGame,2022.1.1,60.045742846843936,
,9,넌 정겨워,1,Orange,A,5.791666666666667,5.666666666666667,ScrollDown,ScrollUp,Orange.png,4,Positive,Congruent,0,0,0,0,,,,,,,,,,,,,,,,,,,,,,,,,0,8,8,8,,,,,,,,,,,,,,,,,,,,,,,,,,,,,,,,,,,,,,,,,,,,,,,,,,,,,,,,,,,,,,,,,,,,,,,,,1.2098765522241592,0.9733875000001717,538.7426725,None,ScrollDown,정답입니다,538.7426725,None,538.7426725,None,538.7426725,None,538.7426725,None,539.5816445,None,539.5816445,540.0816526000003,,,,,,,,,,,,,,,,203,2022-04-27_11h06.54.260,FishGame,2022.1.1,60.045742846843936,
,10,나를 데려가줘,6,Green,B,0,0,ScrollDown,ScrollUp,Green.png,4,NonTarget,NonTarget,0,0,0,0,,,,,,,,,,,,,,,,,,,,,,,,,0,9,9,9,,,,,,,,,,,,,,,,,,,,,,,,,,,,,,,,,,,,,,,,,,,,,,,,,,,,,,,,,,,,,,,,,,,,,,,,,1.2222222139437993,1.328483000000233,540.7278371000002,None,ScrollDown,정답입니다,540.7278371000002,None,540.7278371000002,None,540.7278371000002,None,540.7278371000002,None,541.931501,None,541.931501,542.431399,,,,,,,,,,,,,,,,203,2022-04-27_11h06.54.260,FishGame,2022.1.1,60.045742846843936,
,11,넌 체제순응적이야,4,Green,B,3,3.6,ScrollUp,ScrollDown,Green.png,4,Negative,Congruent,0,0,0,0,,,,,,,,,,,,,,,,,,,,,,,,,0,10,10,10,,,,,,,,,,,,,,,,,,,,,,,,,,,,,,,,,,,,,,,,,,,,,,,,,,,,,,,,,,,,,,,,,,,,,,,,,1.5833333345750966,1.0714916999995694,543.0942826,None,ScrollUp,정답입니다,543.0942826,None,543.0942826,None,543.0942826,None,543.0942826,None,544.0237749000003,None,544.0237749000003,544.5311399000002,,,,,,,,,,,,,,,,203,2022-04-27_11h06.54.260,FishGame,2022.1.1,60.045742846843936,
,12,나를 보내줘,6,Orange,A,0,0,ScrollUp,ScrollDown,Orange.png,4,NonTarget,NonTarget,0,0,0,0,,,,,,,,,,,,,,,,,,,,,,,,,0,11,11,11,,,,,,,,,,,,,,,,,,,,,,,,,,,,,,,,,,,,,,,,,,,,,,,,,,,,,,,,,,,,,,,,,,,,,,,,,1.6250000049670539,1.1391771999997218,545.1856706000003,None,ScrollUp,정답입니다,545.1856706000003,None,545.1856706000003,None,545.1856706000003,None,545.1856706000003,None,546.1975651000002,None,546.1975651000002,546.6975409000001,,,,,,,,,,,,,,,,203,2022-04-27_11h06.54.260,FishGame,2022.1.1,60.045742846843936,
,13,넌 박식해,2,Orange,A,5.625,3.933333333333333,ScrollDown,ScrollUp,Orange.png,4,Positive,Congruent,0,0,0,0,,,,,,,,,,,,,,,,,,,,,,,,,0,12,12,12,,,,,,,,,,,,,,,,,,,,,,,,,,,,,,,,,,,,,,,,,,,,,,,,,,,,,,,,,,,,,,,,,,,,,,,,,1.2515432039896646,1.4027589999996053,547.3611947000004,None,ScrollDown,정답입니다,547.3611947000004,None,547.3611947000004,None,547.3611947000004,None,547.3611947000004,None,548.6214282000001,None,548.6214282000001,549.1305950000001,,,,,,,,,,,,,,,,203,2022-04-27_11h06.54.260,FishGame,2022.1.1,60.045742846843936,
,14,나를 보내줘,6,Orange,A,0,0,ScrollUp,ScrollDown,Orange.png,4,NonTarget,NonTarget,0,0,0,0,,,,,,,,,,,,,,,,,,,,,,,,,0,13,13,13,,,,,,,,,,,,,,,,,,,,,,,,,,,,,,,,,,,,,,,,,,,,,,,,,,,,,,,,,,,,,,,,,,,,,,,,,2,1.172464299999774,549.7831941000004,None,ScrollUp,정답입니다,549.7831941000004,None,549.7831941000004,None,549.7831941000004,None,549.7831941000004,None,550.8233668000003,None,550.8233668000003,551.3302128,,,,,,,,,,,,,,,,203,2022-04-27_11h06.54.260,FishGame,2022.1.1,60.045742846843936,
,15,넌 침착해,1,Green,B,5.458333333333333,5.566666666666666,ScrollUp,ScrollDown,Green.png,4,Positive,Incongruent,0,0,0,0,,,,,,,,,,,,,,,,,,,,,,,,,0,14,14,14,,,,,,,,,,,,,,,,,,,,,,,,,,,,,,,,,,,,,,,,,,,,,,,,,,,,,,,,,,,,,,,,,,,,,,,,,1.8981481492519379,1.5009067999999388,551.9908882,None,ScrollUp,정답입니다,551.9908882,None,551.9908882,None,551.9908882,None,551.9908882,None,553.3527267000004,None,553.3527267000004,553.8632677,,,,,,,,,,,,,,,,203,2022-04-27_11h06.54.260,FishGame,2022.1.1,60.045742846843936,
,16,나를 데려가줘,6,Green,B,0,0,ScrollDown,ScrollUp,Green.png,4,NonTarget,NonTarget,0,0,0,0,,,,,,,,,,,,,,,,,,,,,,,,,0,15,15,15,,,,,,,,,,,,,,,,,,,,,,,,,,,,,,,,,,,,,,,,,,,,,,,,,,,,,,,,,,,,,,,,,,,,,,,,,1,1.2446239000000787,554.5123235000001,None,ScrollDown,정답입니다,554.5123235000001,None,554.5123235000001,None,554.5123235000001,None,554.5123235000001,None,555.6295815000003,None,555.6295815000003,556.1297084000003,,,,,,,,,,,,,,,,203,2022-04-27_11h06.54.260,FishGame,2022.1.1,60.045742846843936,
,17,넌 행복해,1,Orange,A,6.416666666666666,6.166666666666667,ScrollDown,ScrollUp,Orange.png,4,Positive,Congruent,0,0,0,0,,,,,,,,,,,,,,,,,,,,,,,,,0,16,16,16,,,,,,,,,,,,,,,,,,,,,,,,,,,,,,,,,,,,,,,,,,,,,,,,,,,,,,,,,,,,,,,,,,,,,,,,,1,1.2737867999999253,556.7887881000001,None,ScrollDown,정답입니다,556.7887881000001,None,556.7887881000001,None,556.7887881000001,None,556.7887881000001,None,557.9294872,None,557.9294872,558.4293578000002,,,,,,,,,,,,,,,,203,2022-04-27_11h06.54.260,FishGame,2022.1.1,60.045742846843936,
,18,넌 겸손해,2,Green,B,5.791666666666667,4.766666666666667,ScrollUp,ScrollDown,Green.png,4,Positive,Incongruent,0,0,0,0,,,,,,,,,,,,,,,,,,,,,,,,,0,17,17,17,,,,,,,,,,,,,,,,,,,,,,,,,,,,,,,,,,,,,,,,,,,,,,,,,,,,,,,,,,,,,,,,,,,,,,,,,2,1.1114881999997124,559.0797320000001,None,ScrollUp,정답입니다,559.0797320000001,None,559.0797320000001,None,559.0797320000001,None,559.0797320000001,None,560.0622758,None,560.0622758,560.5624003000003,,,,,,,,,,,,,,,,203,2022-04-27_11h06.54.260,FishGame,2022.1.1,60.045742846843936,
,19,나를 보내줘,6,Orange,A,0,0,ScrollUp,ScrollDown,Orange.png,4,NonTarget,NonTarget,0,0,0,0,,,,,,,,,,,,,,,,,,,,,,,,,0,18,18,18,,,,,,,,,,,,,,,,,,,,,,,,,,,,,,,,,,,,,,,,,,,,,,,,,,,,,,,,,,,,,,,,,,,,,,,,,2,1.1495763000002626,561.2145869000001,None,ScrollUp,정답입니다,561.2145869000001,None,561.2145869000001,None,561.2145869000001,None,561.2145869000001,None,562.2343820000001,None,562.2343820000001,562.7454186,,,,,,,,,,,,,,,,203,2022-04-27_11h06.54.260,FishGame,2022.1.1,60.045742846843936,
,20,넌 의심없어,3,Orange,A,4.166666666666667,4.6,ScrollDown,ScrollUp,Orange.png,4,Neutral,Neutral,0,0,0,0,,,,,,,,,,,,,,,,,,,,,,,,,0,19,19,19,,,,,,,,,,,,,,,,,,,,,,,,,,,,,,,,,,,,,,,,,,,,,,,,,,,,,,,,,,,,,,,,,,,,,,,,,1,1.5672718000000714,563.3986782000002,None,ScrollDown,정답입니다,563.3986782000002,None,563.3986782000002,None,563.3986782000002,None,563.3986782000002,None,564.8339075000004,None,564.8339075000004,565.3451058,,,,,,,,,,,,,,,,203,2022-04-27_11h06.54.260,FishGame,2022.1.1,60.045742846843936,
,21,넌 시시해,4,Orange,A,2.666666666666667,2.966666666666667,ScrollDown,ScrollUp,Orange.png,4,Negative,Incongruent,0,0,0,0,,,,,,,,,,,,,,,,,,,,,,,,,0,20,20,20,,,,,,,,,,,,,,,,,,,,,,,,,,,,,,,,,,,,,,,,,,,,,,,,,,,,,,,,,,,,,,,,,,,,,,,,,1,1.304706299999907,565.9962063000003,None,ScrollDown,정답입니다,565.9962063000003,None,565.9962063000003,None,565.9962063000003,None,565.9962063000003,None,567.1697617,None,567.1697617,567.6782198000001,,,,,,,,,,,,,,,,203,2022-04-27_11h06.54.260,FishGame,2022.1.1,60.045742846843936,
,22,나를 데려가줘,6,Green,B,0,0,ScrollDown,ScrollUp,Green.png,4,NonTarget,NonTarget,0,0,0,0,,,,,,,,,,,,,,,,,,,,,,,,,0,21,21,21,,,,,,,,,,,,,,,,,,,,,,,,,,,,,,,,,,,,,,,,,,,,,,,,,,,,,,,,,,,,,,,,,,,,,,,,,1,1.3284903999997368,568.3247196000002,None,ScrollDown,정답입니다,568.3247196000002,None,568.3247196000002,None,568.3247196000002,None,568.3247196000002,None,569.5279231,None,569.5279231,570.0279529000004,,,,,,,,,,,,,,,,203,2022-04-27_11h06.54.260,FishGame,2022.1.1,60.045742846843936,
,23,넌 무정해,5,Orange,A,2.5,2.2,ScrollDown,ScrollUp,Orange.png,4,Negative,Incongruent,0,0,0,0,,,,,,,,,,,,,,,,,,,,,,,,,0,22,22,22,,,,,,,,,,,,,,,,,,,,,,,,,,,,,,,,,,,,,,,,,,,,,,,,,,,,,,,,,,,,,,,,,,,,,,,,,1,1.8723117999998067,570.6810681000002,None,ScrollDown,정답입니다,570.6810681000002,None,570.6810681000002,None,570.6810681000002,None,570.6810681000002,None,572.4278395000001,None,572.4278395000001,572.9275741000001,,,,,,,,,,,,,,,,203,2022-04-27_11h06.54.260,FishGame,2022.1.1,60.045742846843936,
,24,넌 긍정적이야,1,Green,B,6.041666666666667,6.066666666666666,ScrollUp,ScrollDown,Green.png,4,Positive,Incongruent,0,0,0,0,,,,,,,,,,,,,,,,,,,,,,,,,0,23,23,23,,,,,,,,,,,,,,,,,,,,,,,,,,,,,,,,,,,,,,,,,,,,,,,,,,,,,,,,,,,,,,,,,,,,,,,,,2,1.2787278999999216,573.5749863000001,None,ScrollUp,정답입니다,573.5749863000001,None,573.5749863000001,None,573.5749863000001,None,573.5749863000001,None,574.7275838,None,574.7275838,575.2273283,,,,,,,,,,,,,,,,203,2022-04-27_11h06.54.260,FishGame,2022.1.1,60.045742846843936,
,25,나를 보내줘,6,Orange,A,0,0,ScrollUp,ScrollDown,Orange.png,4,NonTarget,NonTarget,0,0,0,0,,,,,,,,,,,,,,,,,,,,,,,,,0,24,24,24,,,,,,,,,,,,,,,,,,,,,,,,,,,,,,,,,,,,,,,,,,,,,,,,,,,,,,,,,,,,,,,,,,,,,,,,,2,1.11642269999993,575.8683743000001,None,ScrollUp,정답입니다,575.8683743000001,None,575.8683743000001,None,575.8683743000001,None,575.8683743000001,None,576.8655384000003,None,576.8655384000003,577.3768497000001,,,,,,,,,,,,,,,,203,2022-04-27_11h06.54.260,FishGame,2022.1.1,60.045742846843936,
,26,넌 시기심이 많아,5,Green,B,2.458333333333333,2.233333333333333,ScrollUp,ScrollDown,Green.png,4,Negative,Congruent,0,0,0,0,,,,,,,,,,,,,,,,,,,,,,,,,0,25,25,25,,,,,,,,,,,,,,,,,,,,,,,,,,,,,,,,,,,,,,,,,,,,,,,,,,,,,,,,,,,,,,,,,,,,,,,,,2,1.168909199999689,578.0323615000002,None,ScrollUp,정답입니다,578.0323615000002,None,578.0323615000002,None,578.0323615000002,None,578.0323615000002,None,579.0651453,None,579.0651453,579.5766298000003,,,,,,,,,,,,,,,,203,2022-04-27_11h06.54.260,FishGame,2022.1.1,60.045742846843936,
,27,넌 탁월해,2,Orange,A,5.708333333333334,4.5,ScrollDown,ScrollUp,Orange.png,4,Positive,Congruent,0,0,0,0,,,,,,,,,,,,,,,,,,,,,,,,,0,26,26,26,,,,,,,,,,,,,,,,,,,,,,,,,,,,,,,,,,,,,,,,,,,,,,,,,,,,,,,,,,,,,,,,,,,,,,,,,1,1.3240104999999858,580.2502632000001,None,ScrollDown,정답입니다,580.2502632000001,None,580.2502632000001,None,580.2502632000001,None,580.2502632000001,None,581.4268307000002,None,581.4268307000002,581.9264245000004,,,,,,,,,,,,,,,,203,2022-04-27_11h06.54.260,FishGame,2022.1.1,60.045742846843936,
,28,나를 데려가줘,6,Green,B,0,0,ScrollDown,ScrollUp,Green.png,4,NonTarget,NonTarget,0,0,0,0,,,,,,,,,,,,,,,,,,,,,,,,,0,27,27,27,,,,,,,,,,,,,,,,,,,,,,,,,,,,,,,,,,,,,,,,,,,,,,,,,,,,,,,,,,,,,,,,,,,,,,,,,1,2.016830000000027,582.5666792000002,None,ScrollDown,정답입니다,582.5666792000002,None,582.5666792000002,None,582.5666792000002,None,582.5666792000002,None,584.4649208000001,None,584.4649208000001,584.9759855000002,,,,,,,,,,,,,,,,203,2022-04-27_11h06.54.260,FishGame,2022.1.1,60.045742846843936,
,29,넌 조용해,3,Green,B,4.333333333333333,4.166666666666667,ScrollUp,ScrollDown,Green.png,4,Neutral,Neutral,0,0,0,0,,,,,,,,,,,,,,,,,,,,,,,,,0,28,28,28,,,,,,,,,,,,,,,,,,,,,,,,,,,,,,,,,,,,,,,,,,,,,,,,,,,,,,,,,,,,,,,,,,,,,,,,,1.8533950696388881,1.1292370999999548,585.6262813000003,None,ScrollUp,정답입니다,585.6262813000003,None,585.6262813000003,None,585.6262813000003,None,585.6262813000003,None,586.6267185000002,None,586.6267185000002,587.1257172,,,,,,,,,,,,,,,,203,2022-04-27_11h06.54.260,FishGame,2022.1.1,60.045742846843936,
,30,넌 다정해,1,Orange,A,5.833333333333334,5.7,ScrollDown,ScrollUp,Orange.png,4,Positive,Congruent,0,0,0,0,,,,,,,,,,,,,,,,,,,,,,,,,0,29,29,29,,,,,,,,,,,,,,,,,,,,,,,,,,,,,,,,,,,,,,,,,,,,,,,,,,,,,,,,,,,,,,,,,,,,,,,,,1,1.2899735000000874,587.7930373000004,None,ScrollDown,정답입니다,587.7930373000004,None,587.7930373000004,None,587.7930373000004,None,587.7930373000004,None,588.9590915000003,None,588.9590915000003,589.4586942000001,,,,,,,,,,,,,,,,203,2022-04-27_11h06.54.260,FishGame,2022.1.1,60.045742846843936,
,31,넌 능력있어,2,Green,B,6.166666666666666,4.6,ScrollUp,ScrollDown,Green.png,4,Positive,Incongruent,0,0,0,0,,,,,,,,,,,,,,,,,,,,,,,,,0,30,30,30,,,,,,,,,,,,,,,,,,,,,,,,,,,,,,,,,,,,,,,,,,,,,,,,,,,,,,,,,,,,,,,,,,,,,,,,,2,1.2275156999999126,590.1064486,None,ScrollUp,정답입니다,590.1064486,None,590.1064486,None,590.1064486,None,590.1064486,None,591.2056811000002,None,591.2056811000002,591.7083843,,,,,,,,,,,,,,,,203,2022-04-27_11h06.54.260,FishGame,2022.1.1,60.045742846843936,
,32,넌 불쾌해,5,Orange,A,2.125,1.933333333333333,ScrollDown,ScrollUp,Orange.png,4,Negative,Incongruent,0,0,0,0,,,,,,,,,,,,,,,,,,,,,,,,,0,31,31,31,,,,,,,,,,,,,,,,,,,,,,,,,,,,,,,,,,,,,,,,,,,,,,,,,,,,,,,,,,,,,,,,,,,,,,,,,1,1.3551353000002564,592.3620258000001,None,ScrollDown,정답입니다,592.3620258000001,None,592.3620258000001,None,592.3620258000001,None,592.3620258000001,None,593.5839680000004,None,593.5839680000004,594.0916163000002,,,,,,,,,,,,,,,,203,2022-04-27_11h06.54.260,FishGame,2022.1.1,60.045742846843936,
,33,나를 데려가줘,6,Green,B,0,0,ScrollDown,ScrollUp,Green.png,4,NonTarget,NonTarget,0,0,0,0,,,,,,,,,,,,,,,,,,,,,,,,,0,32,32,32,,,,,,,,,,,,,,,,,,,,,,,,,,,,,,,,,,,,,,,,,,,,,,,,,,,,,,,,,,,,,,,,,,,,,,,,,1,1.811353600000075,594.7288399000004,None,ScrollDown,정답입니다,594.7288399000004,None,594.7288399000004,None,594.7288399000004,None,594.7288399000004,None,596.4246451000004,None,596.4246451000004,596.9243883000004,,,,,,,,,,,,,,,,203,2022-04-27_11h06.54.260,FishGame,2022.1.1,60.045742846843936,
,34,넌 유순해,3,Orange,A,4.458333333333333,5,ScrollDown,ScrollUp,Orange.png,4,Neutral,Neutral,0,0,0,0,,,,,,,,,,,,,,,,,,,,,,,,,0,33,33,33,,,,,,,,,,,,,,,,,,,,,,,,,,,,,,,,,,,,,,,,,,,,,,,,,,,,,,,,,,,,,,,,,,,,,,,,,1,1.0429448999998385,597.5777763000001,None,ScrollDown,정답입니다,597.5777763000001,None,597.5777763000001,None,597.5777763000001,None,597.5777763000001,None,598.4912797000002,None,598.4912797000002,598.991031,,,,,,,,,,,,,,,,203,2022-04-27_11h06.54.260,FishGame,2022.1.1,60.045742846843936,
,35,넌 근심스러워,4,Green,B,2.708333333333333,3.133333333333333,ScrollUp,ScrollDown,Green.png,4,Negative,Congruent,0,0,0,0,,,,,,,,,,,,,,,,,,,,,,,,,0,34,34,34,,,,,,,,,,,,,,,,,,,,,,,,,,,,,,,,,,,,,,,,,,,,,,,,,,,,,,,,,,,,,,,,,,,,,,,,,2,1.2885154999999031,599.6402038000001,None,ScrollUp,정답입니다,599.6402038000001,None,599.6402038000001,None,599.6402038000001,None,599.6402038000001,None,600.7996329000002,None,600.7996329000002,601.3074614000002,,,,,,,,,,,,,,,,203,2022-04-27_11h06.54.260,FishGame,2022.1.1,60.045742846843936,
,36,넌 세련되었어,2,Orange,A,5.5,4.6,ScrollDown,ScrollUp,Orange.png,4,Positive,Congruent,0,0,0,0,,,,,,,,,,,,,,,,,,,,,,,,,0,35,35,35,,,,,,,,,,,,,,,,,,,,,,,,,,,,,,,,,,,,,,,,,,,,,,,,,,,,,,,,,,,,,,,,,,,,,,,,,1,1.149950699999863,601.9669310000004,None,ScrollDown,정답입니다,601.9669310000004,None,601.9669310000004,None,601.9669310000004,None,601.9669310000004,None,602.9795948000001,None,602.9795948000001,603.4904168000003,,,,,,,,,,,,,,,,203,2022-04-27_11h06.54.260,FishGame,2022.1.1,60.045742846843936,
,37,나를 보내줘,6,Orange,A,0,0,ScrollUp,ScrollDown,Orange.png,4,NonTarget,NonTarget,0,0,0,0,,,,,,,,,,,,,,,,,,,,,,,,,0,36,36,36,,,,,,,,,,,,,,,,,,,,,,,,,,,,,,,,,,,,,,,,,,,,,,,,,,,,,,,,,,,,,,,,,,,,,,,,,2,1.327030499999637,604.1453906000002,None,ScrollUp,정답입니다,604.1453906000002,None,604.1453906000002,None,604.1453906000002,None,604.1453906000002,None,605.3402778,None,605.3402778,605.8399029000002,,,,,,,,,,,,,,,,203,2022-04-27_11h06.54.260,FishGame,2022.1.1,60.045742846843936,
,38,넌 확고해,3,Green,B,4.708333333333334,4.566666666666666,ScrollUp,ScrollDown,Green.png,4,Neutral,Neutral,0,0,0,0,,,,,,,,,,,,,,,,,,,,,,,,,0,37,37,37,,,,,,,,,,,,,,,,,,,,,,,,,,,,,,,,,,,,,,,,,,,,,,,,,,,,,,,,,,,,,,,,,,,,,,,,,2,1.1052207000002454,606.4934985,None,ScrollUp,정답입니다,606.4934985,None,606.4934985,None,606.4934985,None,606.4934985,None,607.4664072,None,607.4664072,607.9730145000003,,,,,,,,,,,,,,,,203,2022-04-27_11h06.54.260,FishGame,2022.1.1,60.045742846843936,
,39,넌 이해심이 많아,1,Green,B,6.041666666666668,5.533333333333333,ScrollUp,ScrollDown,Green.png,4,Positive,Incongruent,0,0,0,0,,,,,,,,,,,,,,,,,,,,,,,,,0,38,38,38,,,,,,,,,,,,,,,,,,,,,,,,,,,,,,,,,,,,,,,,,,,,,,,,,,,,,,,,,,,,,,,,,,,,,,,,,2,1.1065137000000504,608.6296642000002,None,ScrollUp,정답입니다,608.6296642000002,None,608.6296642000002,None,608.6296642000002,None,608.6296642000002,None,609.6060755000003,None,609.6060755000003,610.1060582,,,,,,,,,,,,,,,,203,2022-04-27_11h06.54.260,FishGame,2022.1.1,60.045742846843936,
,40,나를 보내줘,6,Orange,A,0,0,ScrollUp,ScrollDown,Orange.png,4,NonTarget,NonTarget,0,0,0,0,,,,,,,,,,,,,,,,,,,,,,,,,0,39,39,39,,,,,,,,,,,,,,,,,,,,,,,,,,,,,,,,,,,,,,,,,,,,,,,,,,,,,,,,,,,,,,,,,,,,,,,,,2,1.2673930999999357,610.7540862000001,None,ScrollUp,정답입니다,610.7540862000001,None,610.7540862000001,None,610.7540862000001,None,610.7540862000001,None,611.8941381,None,611.8941381,612.4057744000002,,,,,,,,,,,,,,,,203,2022-04-27_11h06.54.260,FishGame,2022.1.1,60.045742846843936,
,41,넌 거칠어,4,Orange,A,2.625,3.033333333333333,ScrollDown,ScrollUp,Orange.png,4,Negative,Incongruent,0,0,0,0,,,,,,,,,,,,,,,,,,,,,,,,,0,40,40,40,,,,,,,,,,,,,,,,,,,,,,,,,,,,,,,,,,,,,,,,,,,,,,,,,,,,,,,,,,,,,,,,,,,,,,,,,1,1.261312000000089,613.065008,None,ScrollDown,정답입니다,613.065008,None,613.065008,None,613.065008,None,613.065008,None,614.189116,None,614.189116,614.6889438000003,,,,,,,,,,,,,,,,203,2022-04-27_11h06.54.260,FishGame,2022.1.1,60.045742846843936,
,42,넌 변덕맞아,5,Green,B,2.75,2.166666666666667,ScrollUp,ScrollDown,Green.png,4,Negative,Congruent,0,0,0,0,,,,,,,,,,,,,,,,,,,,,,,,,0,41,41,41,,,,,,,,,,,,,,,,,,,,,,,,,,,,,,,,,,,,,,,,,,,,,,,,,,,,,,,,,,,,,,,,,,,,,,,,,2,1.261113000000023,615.3401388000002,None,ScrollUp,정답입니다,615.3401388000002,None,615.3401388000002,None,615.3401388000002,None,615.3401388000002,None,616.4720265000001,None,616.4720265000001,616.9719320000004,,,,,,,,,,,,,,,,203,2022-04-27_11h06.54.260,FishGame,2022.1.1,60.045742846843936,
,43,나를 데려가줘,6,Green,B,0,0,ScrollDown,ScrollUp,Green.png,4,NonTarget,NonTarget,0,0,0,0,,,,,,,,,,,,,,,,,,,,,,,,,0,42,42,42,,,,,,,,,,,,,,,,,,,,,,,,,,,,,,,,,,,,,,,,,,,,,,,,,,,,,,,,,,,,,,,,,,,,,,,,,1,1.3717040000001361,617.6215906000002,None,ScrollDown,정답입니다,617.6215906000002,None,617.6215906000002,None,617.6215906000002,None,617.6215906000002,None,618.8642149000002,None,618.8642149000002,619.3714065000004,,,,,,,,,,,,,,,,203,2022-04-27_11h06.54.260,FishGame,2022.1.1,60.045742846843936,
,44,넌 외로워,4,Green,B,2.833333333333333,3.3,ScrollUp,ScrollDown,Green.png,4,Negative,Congruent,0,0,0,0,,,,,,,,,,,,,,,,,,,,,,,,,0,43,43,43,,,,,,,,,,,,,,,,,,,,,,,,,,,,,,,,,,,,,,,,,,,,,,,,,,,,,,,,,,,,,,,,,,,,,,,,,2,1.216422799999691,620.0265333000002,None,ScrollUp,정답입니다,620.0265333000002,None,620.0265333000002,None,620.0265333000002,None,620.0265333000002,None,621.1103655000002,None,621.1103655000002,621.6212767000002,,,,,,,,,,,,,,,,203,2022-04-27_11h06.54.260,FishGame,2022.1.1,60.045742846843936,
,1,넌 불평스러워,5,Orange,A,2.25,2.066666666666667,ScrollDown,ScrollUp,Orange.png,5,Negative,Incongruent,0,0,0,0,,,,,,,,,,,,,,,,,,,,,,,,,,,,,0,0,0,0,,,,,,,,,,,,,,,,,,,,,,,,,,,,655.1672087000002,656.6668388000003,656.7001152000003,657.6501103,657.6999911000003,658.6499270000004,658.6499270000004,None,,,,,,,,,,,,,,,,,,,,,,,,,,,,,,,,,,1.3981481480101745,1.4210613999998714,659.8374889000002,None,ScrollDown,정답입니다,659.8374889000002,None,659.8374889000002,None,659.8374889000002,None,659.8374889000002,None,661.0783174000003,None,661.0783174000003,661.5828287000004,622.1212520000004,None,622.1212520000004,None,0.027777778,-0.08240741,1,0,0,0.016229860000748886,None,652.1173409000003,None,,,203,2022-04-27_11h06.54.260,FishGame,2022.1.1,60.045742846843936,
,2,나를 보내줘,6,Orange,A,0,0,ScrollUp,ScrollDown,Orange.png,5,NonTarget,NonTarget,0,0,0,0,,,,,,,,,,,,,,,,,,,,,,,,,,,,,0,1,1,1,,,,,,,,,,,,,,,,,,,,,,,,,,,,,,,,,,,,,,,,,,,,,,,,,,,,,,,,,,,,,,,,,,,,,1.9290123283863068,1.2293916999997236,662.2377685000001,None,ScrollUp,정답입니다,662.2377685000001,None,662.2377685000001,None,662.2377685000001,None,662.2377685000001,None,663.3324717,None,663.3324717,663.8325118000002,,,,,,,,,,,,,,,,203,2022-04-27_11h06.54.260,FishGame,2022.1.1,60.045742846843936,
,3,넌 다재다능해,2,Green,B,6.208333333333333,4.5,ScrollUp,ScrollDown,Green.png,5,Positive,Incongruent,0,0,0,0,,,,,,,,,,,,,,,,,,,,,,,,,,,,,0,2,2,2,,,,,,,,,,,,,,,,,,,,,,,,,,,,,,,,,,,,,,,,,,,,,,,,,,,,,,,,,,,,,,,,,,,,,2,1.205467000000226,664.4786481000001,None,ScrollUp,정답입니다,664.4786481000001,None,664.4786481000001,None,664.4786481000001,None,664.4786481000001,None,665.5585191,None,665.5585191,666.0654376000002,,,,,,,,,,,,,,,,203,2022-04-27_11h06.54.260,FishGame,2022.1.1,60.045742846843936,
,4,넌 과감해,3,Orange,A,4.833333333333334,4.6,ScrollDown,ScrollUp,Orange.png,5,Neutral,Neutral,0,0,0,0,,,,,,,,,,,,,,,,,,,,,,,,,,,,,0,3,3,3,,,,,,,,,,,,,,,,,,,,,,,,,,,,,,,,,,,,,,,,,,,,,,,,,,,,,,,,,,,,,,,,,,,,,1.0324074228604634,1.088096299999961,666.7167244000002,None,ScrollDown,정답입니다,666.7167244000002,None,666.7167244000002,None,666.7167244000002,None,666.7167244000002,None,667.6750209000002,None,667.6750209000002,668.1818931000003,,,,,,,,,,,,,,,,203,2022-04-27_11h06.54.260,FishGame,2022.1.1,60.045742846843936,
,5,넌 고분고분해,3,Green,B,3.75,4.033333333333333,ScrollUp,ScrollDown,Green.png,5,Neutral,Neutral,0,0,0,0,,,,,,,,,,,,,,,,,,,,,,,,,,,,,0,4,4,4,,,,,,,,,,,,,,,,,,,,,,,,,,,,,,,,,,,,,,,,,,,,,,,,,,,,,,,,,,,,,,,,,,,,,2,1.378678200000195,668.8317375000001,None,ScrollUp,정답입니다,668.8317375000001,None,668.8317375000001,None,668.8317375000001,None,668.8317375000001,None,670.0821556000001,None,670.0821556000001,670.5817179000001,,,,,,,,,,,,,,,,203,2022-04-27_11h06.54.260,FishGame,2022.1.1,60.045742846843936,
,6,나를 보내줘,6,Orange,A,0,0,ScrollUp,ScrollDown,Orange.png,5,NonTarget,NonTarget,0,0,0,0,,,,,,,,,,,,,,,,,,,,,,,,,,,,,0,5,5,5,,,,,,,,,,,,,,,,,,,,,,,,,,,,,,,,,,,,,,,,,,,,,,,,,,,,,,,,,,,,,,,,,,,,,2,1.4639713000001393,671.2358181,None,ScrollUp,정답입니다,671.2358181,None,671.2358181,None,671.2358181,None,671.2358181,None,672.5678762000002,None,672.5678762000002,673.0813440000002,,,,,,,,,,,,,,,,203,2022-04-27_11h06.54.260,FishGame,2022.1.1,60.045742846843936,
,7,넌 잘 잊어,4,Orange,A,3,3.7,ScrollDown,ScrollUp,Orange.png,5,Negative,Incongruent,0,0,0,0,,,,,,,,,,,,,,,,,,,,,,,,,,,,,0,6,6,6,,,,,,,,,,,,,,,,,,,,,,,,,,,,,,,,,,,,,,,,,,,,,,,,,,,,,,,,,,,,,,,,,,,,,1,1.2786347000001115,673.7435261,None,ScrollDown,정답입니다,673.7435261,None,673.7435261,None,673.7435261,None,673.7435261,None,674.8810371,None,674.8810371,675.3809994000003,,,,,,,,,,,,,,,,203,2022-04-27_11h06.54.260,FishGame,2022.1.1,60.045742846843936,
,8,넌 탐구심이없어,4,Green,B,2.833333333333333,3.066666666666667,ScrollUp,ScrollDown,Green.png,5,Negative,Congruent,0,0,0,0,,,,,,,,,,,,,,,,,,,,,,,,,,,,,0,7,7,7,,,,,,,,,,,,,,,,,,,,,,,,,,,,,,,,,,,,,,,,,,,,,,,,,,,,,,,,,,,,,,,,,,,,,1.9845678806304932,1.056992899999841,676.0355058,None,ScrollUp,정답입니다,676.0355058,None,676.0355058,None,676.0355058,None,676.0355058,None,676.9643795000002,None,676.9643795000002,677.4639125000003,,,,,,,,,,,,,,,,203,2022-04-27_11h06.54.260,FishGame,2022.1.1,60.045742846843936,
,9,나를 데려가줘,6,Green,B,0,0,ScrollDown,ScrollUp,Green.png,5,NonTarget,NonTarget,0,0,0,0,,,,,,,,,,,,,,,,,,,,,,,,,,,,,0,8,8,8,,,,,,,,,,,,,,,,,,,,,,,,,,,,,,,,,,,,,,,,,,,,,,,,,,,,,,,,,,,,,,,,,,,,,1,1.4012190000003102,678.1072567000001,None,ScrollDown,정답입니다,678.1072567000001,None,678.1072567000001,None,678.1072567000001,None,678.1072567000001,None,679.386328,None,679.386328,679.8971737000002,,,,,,,,,,,,,,,,203,2022-04-27_11h06.54.260,FishGame,2022.1.1,60.045742846843936,
,10,넌 참되어,2,Orange,A,6.041666666666664,4.733333333333333,ScrollDown,ScrollUp,Orange.png,5,Positive,Congruent,0,0,0,0,,,,,,,,,,,,,,,,,,,,,,,,,,,,,0,9,9,9,,,,,,,,,,,,,,,,,,,,,,,,,,,,,,,,,,,,,,,,,,,,,,,,,,,,,,,,,,,,,,,,,,,,,1,1.1952634999997827,680.5555344000004,None,ScrollDown,정답입니다,680.5555344000004,None,680.5555344000004,None,680.5555344000004,None,680.5555344000004,None,681.6142799000004,None,681.6142799000004,682.1134619000004,,,,,,,,,,,,,,,,203,2022-04-27_11h06.54.260,FishGame,2022.1.1,60.045742846843936,
,11,넌 생기있어,1,Green,B,5.875,5.633333333333334,ScrollUp,ScrollDown,Green.png,5,Positive,Incongruent,0,0,0,0,,,,,,,,,,,,,,,,,,,,,,,,,,,,,0,10,10,10,,,,,,,,,,,,,,,,,,,,,,,,,,,,,,,,,,,,,,,,,,,,,,,,,,,,,,,,,,,,,,,,,,,,,1.8919753183921177,1.1396091999999953,682.7685351,None,ScrollUp,정답입니다,682.7685351,None,682.7685351,None,682.7685351,None,682.7685351,None,683.7802004,None,683.7802004,684.2798183,,,,,,,,,,,,,,,,203,2022-04-27_11h06.54.260,FishGame,2022.1.1,60.045742846843936,
,12,넌 비사교적이야,4,Green,B,2.875,2.9,ScrollUp,ScrollDown,Green.png,5,Negative,Congruent,0,0,0,0,,,,,,,,,,,,,,,,,,,,,,,,,,,,,0,11,11,11,,,,,,,,,,,,,,,,,,,,,,,,,,,,,,,,,,,,,,,,,,,,,,,,,,,,,,,,,,,,,,,,,,,,,1.9537037014961243,1.3437066000001323,684.9292791000003,None,ScrollUp,정답입니다,684.9292791000003,None,684.9292791000003,None,684.9292791000003,None,684.9292791000003,None,686.1430835000001,None,686.1430835000001,686.646232,,,,,,,,,,,,,,,,203,2022-04-27_11h06.54.260,FishGame,2022.1.1,60.045742846843936,
,13,나를 데려가줘,6,Green,B,0,0,ScrollDown,ScrollUp,Green.png,5,NonTarget,NonTarget,0,0,0,0,,,,,,,,,,,,,,,,,,,,,,,,,,,,,0,12,12,12,,,,,,,,,,,,,,,,,,,,,,,,,,,,,,,,,,,,,,,,,,,,,,,,,,,,,,,,,,,,,,,,,,,,,1,1.4318382999999812,687.2879240000002,None,ScrollDown,정답입니다,687.2879240000002,None,687.2879240000002,None,687.2879240000002,None,687.2879240000002,None,688.6012840000003,None,688.6012840000003,689.1125038,,,,,,,,,,,,,,,,203,2022-04-27_11h06.54.260,FishGame,2022.1.1,60.045742846843936,
,14,넌 고독해,4,Orange,A,2.916666666666667,3.233333333333333,ScrollDown,ScrollUp,Orange.png,5,Negative,Incongruent,0,0,0,0,,,,,,,,,,,,,,,,,,,,,,,,,,,,,0,13,13,13,,,,,,,,,,,,,,,,,,,,,,,,,,,,,,,,,,,,,,,,,,,,,,,,,,,,,,,,,,,,,,,,,,,,,1.7638888855775197,1.2737311999999292,689.7662133000003,None,ScrollUp,오답입니다,689.7662133000003,None,689.7662133000003,None,689.7662133000003,None,689.7662133000003,None,690.9075778000001,None,690.9075778000001,691.4123167000002,,,,,,,,,,,,,,,,203,2022-04-27_11h06.54.260,FishGame,2022.1.1,60.045742846843936,
,15,넌 신경질적이야,5,Green,B,2.375,2.233333333333333,ScrollUp,ScrollDown,Green.png,5,Negative,Congruent,0,0,0,0,,,,,,,,,,,,,,,,,,,,,,,,,,,,,0,14,14,14,,,,,,,,,,,,,,,,,,,,,,,,,,,,,,,,,,,,,,,,,,,,,,,,,,,,,,,,,,,,,,,,,,,,,1.7901234477758408,1.5221750000000611,692.0676074000003,None,ScrollUp,정답입니다,692.0676074000003,None,692.0676074000003,None,692.0676074000003,None,692.0676074000003,None,693.4575124000003,None,693.4575124000003,693.9618517000004,,,,,,,,,,,,,,,,203,2022-04-27_11h06.54.260,FishGame,2022.1.1,60.045742846843936,
,16,넌 똑똑해,2,Green,B,5.666666666666667,3.966666666666667,ScrollUp,ScrollDown,Green.png,5,Positive,Incongruent,0,0,0,0,,,,,,,,,,,,,,,,,,,,,,,,,,,,,0,15,15,15,,,,,,,,,,,,,,,,,,,,,,,,,,,,,,,,,,,,,,,,,,,,,,,,,,,,,,,,,,,,,,,,,,,,,1.654320982595285,1.5426789000002827,694.6155692000002,None,ScrollUp,정답입니다,694.6155692000002,None,694.6155692000002,None,694.6155692000002,None,694.6155692000002,None,696.0287222000002,None,696.0287222000002,696.5282872000002,,,,,,,,,,,,,,,,203,2022-04-27_11h06.54.260,FishGame,2022.1.1,60.045742846843936,
,17,나를 보내줘,6,Orange,A,0,0,ScrollUp,ScrollDown,Orange.png,5,NonTarget,NonTarget,0,0,0,0,,,,,,,,,,,,,,,,,,,,,,,,,,,,,0,16,16,16,,,,,,,,,,,,,,,,,,,,,,,,,,,,,,,,,,,,,,,,,,,,,,,,,,,,,,,,,,,,,,,,,,,,,1.8009259204069774,1.4368446000003132,697.1801559,None,ScrollUp,정답입니다,697.1801559,None,697.1801559,None,697.1801559,None,697.1801559,None,698.4865877000002,None,698.4865877000002,698.9946796000004,,,,,,,,,,,,,,,,203,2022-04-27_11h06.54.260,FishGame,2022.1.1,60.045742846843936,
,18,넌 협조적이야,1,Orange,A,5.625,5.666666666666667,ScrollDown,ScrollUp,Orange.png,5,Positive,Congruent,0,0,0,0,,,,,,,,,,,,,,,,,,,,,,,,,,,,,0,17,17,17,,,,,,,,,,,,,,,,,,,,,,,,,,,,,,,,,,,,,,,,,,,,,,,,,,,,,,,,,,,,,,,,,,,,,1,1.726126800000202,699.6481684,None,ScrollDown,정답입니다,699.6481684,None,699.6481684,None,699.6481684,None,699.6481684,None,701.2445561,None,701.2445561,701.7442921000002,,,,,,,,,,,,,,,,203,2022-04-27_11h06.54.260,FishGame,2022.1.1,60.045742846843936,
,19,나를 데려가줘,6,Green,B,0,0,ScrollDown,ScrollUp,Green.png,5,NonTarget,NonTarget,0,0,0,0,,,,,,,,,,,,,,,,,,,,,,,,,,,,,0,18,18,18,,,,,,,,,,,,,,,,,,,,,,,,,,,,,,,,,,,,,,,,,,,,,,,,,,,,,,,,,,,,,,,,,,,,,1,2.687538300000142,702.3930721000002,None,ScrollDown,정답입니다,702.3930721000002,None,702.3930721000002,None,702.3930721000002,None,702.3930721000002,None,704.9534170000002,None,704.9534170000002,705.4605326000001,,,,,,,,,,,,,,,,203,2022-04-27_11h06.54.260,FishGame,2022.1.1,60.045742846843936,
,20,넌 몰인정해,5,Green,B,2.541666666666667,2.066666666666667,ScrollUp,ScrollDown,Green.png,5,Negative,Congruent,0,0,0,0,,,,,,,,,,,,,,,,,,,,,,,,,,,,,0,19,19,19,,,,,,,,,,,,,,,,,,,,,,,,,,,,,,,,,,,,,,,,,,,,,,,,,,,,,,,,,,,,,,,,,,,,,2,1.7841527000000497,706.1147851000001,None,ScrollUp,정답입니다,706.1147851000001,None,706.1147851000001,None,706.1147851000001,None,706.1147851000001,None,707.7655623,None,707.7655623,708.2767851000003,,,,,,,,,,,,,,,,203,2022-04-27_11h06.54.260,FishGame,2022.1.1,60.045742846843936,
,21,나를 데려가줘,6,Green,B,0,0,ScrollDown,ScrollUp,Green.png,5,NonTarget,NonTarget,0,0,0,0,,,,,,,,,,,,,,,,,,,,,,,,,,,,,0,20,20,20,,,,,,,,,,,,,,,,,,,,,,,,,,,,,,,,,,,,,,,,,,,,,,,,,,,,,,,,,,,,,,,,,,,,,1,1.2942964999997457,708.9244230000004,None,ScrollDown,정답입니다,708.9244230000004,None,708.9244230000004,None,708.9244230000004,None,708.9244230000004,None,710.0934355000004,None,710.0934355000004,710.5931211000002,,,,,,,,,,,,,,,,203,2022-04-27_11h06.54.260,FishGame,2022.1.1,60.045742846843936,
,22,넌 순진해,3,Green,B,4.125,4.166666666666667,ScrollUp,ScrollDown,Green.png,5,Neutral,Neutral,0,0,0,0,,,,,,,,,,,,,,,,,,,,,,,,,,,,,0,21,21,21,,,,,,,,,,,,,,,,,,,,,,,,,,,,,,,,,,,,,,,,,,,,,,,,,,,,,,,,,,,,,,,,,,,,,1.8611111144224803,1.1983040999998593,711.2388502000003,None,ScrollUp,정답입니다,711.2388502000003,None,711.2388502000003,None,711.2388502000003,None,711.2388502000003,None,712.3134033000001,None,712.3134033000001,712.8261919000001,,,,,,,,,,,,,,,,203,2022-04-27_11h06.54.260,FishGame,2022.1.1,60.045742846843936,
,23,넌 신뢰할만해,1,Orange,A,6.625,5.533333333333333,ScrollDown,ScrollUp,Orange.png,5,Positive,Congruent,0,0,0,0,,,,,,,,,,,,,,,,,,,,,,,,,,,,,0,22,22,22,,,,,,,,,,,,,,,,,,,,,,,,,,,,,,,,,,,,,,,,,,,,,,,,,,,,,,,,,,,,,,,,,,,,,1.0231481393178303,1.188993599999776,713.483318,None,ScrollDown,정답입니다,713.483318,None,713.483318,None,713.483318,None,713.483318,None,714.5427633000004,None,714.5427633000004,715.0425385000003,,,,,,,,,,,,,,,,203,2022-04-27_11h06.54.260,FishGame,2022.1.1,60.045742846843936,
,24,나를 보내줘,6,Orange,A,0,0,ScrollUp,ScrollDown,Orange.png,5,NonTarget,NonTarget,0,0,0,0,,,,,,,,,,,,,,,,,,,,,,,,,,,,,0,23,23,23,,,,,,,,,,,,,,,,,,,,,,,,,,,,,,,,,,,,,,,,,,,,,,,,,,,,,,,,,,,,,,,,,,,,,1.8858024626970291,1.1427949000003537,715.6950593000001,None,ScrollUp,정답입니다,715.6950593000001,None,715.6950593000001,None,715.6950593000001,None,715.6950593000001,None,716.7095315000001,None,716.7095315000001,717.2089300000002,,,,,,,,,,,,,,,,203,2022-04-27_11h06.54.260,FishGame,2022.1.1,60.045742846843936,
,25,넌 인색해,5,Orange,A,2.625,2.233333333333333,ScrollDown,ScrollUp,Orange.png,5,Negative,Incongruent,0,0,0,0,,,,,,,,,,,,,,,,,,,,,,,,,,,,,0,24,24,24,,,,,,,,,,,,,,,,,,,,,,,,,,,,,,,,,,,,,,,,,,,,,,,,,,,,,,,,,,,,,,,,,,,,,1.0277777810891469,2.0311649999998735,717.8696969000002,None,ScrollDown,정답입니다,717.8696969000002,None,717.8696969000002,None,717.8696969000002,None,717.8696969000002,None,719.7628418000004,None,719.7628418000004,720.2753235,,,,,,,,,,,,,,,,203,2022-04-27_11h06.54.260,FishGame,2022.1.1,60.045742846843936,
