name,TrialNum,Word,WordCategory,FishType,WordList,WordValence,WordReputation,CorrectResp,IncorrectResp,FishTypeFile,Round,WordType,Condition,LoopforOrange.thisRepN,LoopforOrange.thisTrialN,LoopforOrange.thisN,LoopforOrange.thisIndex,LoopForGreen.thisRepN,LoopForGreen.thisTrialN,LoopForGreen.thisN,LoopForGreen.thisIndex,GreenInstLoop.thisRepN,GreenInstLoop.thisTrialN,GreenInstLoop.thisN,GreenInstLoop.thisIndex,GreenPrac.thisRepN,GreenPrac.thisTrialN,GreenPrac.thisN,GreenPrac.thisIndex,trials_2.thisRepN,trials_2.thisTrialN,trials_2.thisN,trials_2.thisIndex,GreenRound1.thisRepN,GreenRound1.thisTrialN,GreenRound1.thisN,GreenRound1.thisIndex,GreenRound2.thisRepN,GreenRound2.thisTrialN,GreenRound2.thisN,GreenRound2.thisIndex,GreenRound3.thisRepN,GreenRound3.thisTrialN,GreenRound3.thisN,GreenRound3.thisIndex,GreenRound4.thisRepN,GreenRound4.thisTrialN,GreenRound4.thisN,GreenRound4.thisIndex,GreenRound5.thisRepN,GreenRound5.thisTrialN,GreenRound5.thisN,GreenRound5.thisIndex,text_2.started,text_2.stopped,text_3.started,text_3.stopped,key_resp.keys,key_resp.rt,key_resp.started,key_resp.stopped,PassI.started,PassI.stopped,PassInst.keys,PassInst.rt,PassInst.started,PassInst.stopped,mouse_2.x,mouse_2.y,mouse_2.leftButton,mouse_2.midButton,mouse_2.rightButton,mouse_2.started,mouse_2.stopped,image.started,image.stopped,text_5.started,text_5.stopped,text_6.started,text_6.stopped,text_7.started,text_7.stopped,text_8.started,text_8.stopped,slider_3.response,slider_3.rt,slider_3.started,slider_3.stopped,Response_3,Feedback_3,BackGround_3.started,BackGround_3.stopped,Fish_3.started,Fish_3.stopped,WordBox_3.started,WordBox_3.stopped,Words_3.started,Words_3.stopped,BackGround_Feedback_3.started,BackGround_Feedback_3.stopped,Feedbacks_3.started,Feedbacks_3.stopped,Continue_or_not_2.keys,Continue_or_not_2.rt,Continue_or_not_2.started,Continue_or_not_2.stopped,image_4.started,image_4.stopped,mouse_3.x,mouse_3.y,mouse_3.leftButton,mouse_3.midButton,mouse_3.rightButton,mouse_3.started,mouse_3.stopped,startmain.started,startmain.stopped,slider_4.response,slider_4.rt,slider_4.started,slider_4.stopped,Response_4,Feedback_4,BackGround_4.started,BackGround_4.stopped,Fish_4.started,Fish_4.stopped,WordBox_4.started,WordBox_4.stopped,Words_4.started,Words_4.stopped,BackGround_Feedback_4.started,BackGround_Feedback_4.stopped,Feedbacks_4.started,Feedbacks_4.stopped,text.started,text.stopped,break_interval.started,break_interval.stopped,mouse.x,mouse.y,mouse.leftButton,mouse.midButton,mouse.rightButton,mouse.started,mouse.stopped,stratnextround.started,stratnextround.stopped,endgame.started,endgame.stopped,participant,date,expName,psychopyVersion,frameRate,
,,,,,,,,,,,,,,,,,,,,,,,,,,,,,,,,,,,,,,,,,,,,,,,,,,,,,,23.385228300000108,None,23.385228300000108,None,space,8.534633999999642,23.862836700000116,None,,,,,,,,,,,,,,,,,,,,,,,,,,,,,,,,,,,,,,,,,,,,,,,,,,,,,,,,,,,,,,,,,,,,,,,,,,,,,,,,,,,,,,,,,,204,2022-04-27_13h02.59.787,FishGame,2022.1.1,60.00830514941717,
물고기과제_instruction(참가자용)GreenVersion.mp4,,,,,,,,,,,,,,,,,,0,0,0,0,0,0,0,0,,,,,,,,,,,,,,,,,,,,,,,,,,,,,,,,,,,,,99.69230560000005,None,n,5.149351699999897,99.69230560000005,None,,,,,,,,,,,,,,,,,,,,,,,,,,,,,,,,,,,,,,,,,,,,,,,,,,,,,,,,,,,,,,,,,,,,,,,,,,,,,,,,,,,,204,2022-04-27_13h02.59.787,FishGame,2022.1.1,60.00830514941717,
,1,넌 교활해,5,Orange,B,2.333333333333333,2.133333333333333,ScrollUp,ScrollDown,Orange.png,practice,,,,,,,0,0,0,0,,,,,0,0,0,0,0,0,0,0,,,,,,,,,,,,,,,,,,,,,,,,,,,,,,,,,,,0.021296296,-0.23333333,1,0,0,0.513840860000073,None,104.86952500000007,None,115.15159870000025,116.65094020000015,116.68457770000032,117.63413120000041,117.68409410000004,118.6341822000004,118.6341822000004,None,1.8549382835626602,1.8889383999999154,119.8256136,None,ScrollUp,정답입니다,119.8256136,None,119.8256136,None,119.8256136,None,119.8256136,None,121.53803150000022,None,121.53803150000022,122.05023120000033,,,,,,,,,,,,,,,,,,,,,,,,,,,,,,,,,,,,,,,,,,,,,,,,,204,2022-04-27_13h02.59.787,FishGame,2022.1.1,60.00830514941717,
,2,넌 슬기로워,2,Green,A,6.166666666666667,4.1,ScrollDown,ScrollUp,Green.png,practice,,,,,,,0,0,0,0,,,,,0,0,0,0,0,1,1,1,,,,,,,,,,,,,,,,,,,,,,,,,,,,,,,,,,,,,,,,,,,,,,,,,,,,1.121913582086563,1.1534952000001795,122.71666920000007,None,ScrollDown,정답입니다,122.71666920000007,None,122.71666920000007,None,122.71666920000007,None,122.71666920000007,None,123.72802410000031,None,123.72802410000031,124.23335650000035,,,,,,,,,,,,,,,,,,,,,,,,,,,,,,,,,,,,,,,,,,,,,,,,,204,2022-04-27_13h02.59.787,FishGame,2022.1.1,60.00830514941717,
,3,나를 보내줘,6,Green,A,0,0,ScrollUp,ScrollDown,Green.png,practice,,,,,,,0,0,0,0,,,,,0,0,0,0,0,2,2,2,,,,,,,,,,,,,,,,,,,,,,,,,,,,,,,,,,,,,,,,,,,,,,,,,,,,1.6157407462596893,1.174833900000067,124.89227389999996,None,ScrollUp,정답입니다,124.89227389999996,None,124.89227389999996,None,124.89227389999996,None,124.89227389999996,None,125.93276750000041,None,125.93276750000041,126.43293050000011,,,,,,,,,,,,,,,,,,,,,,,,,,,,,,,,,,,,,,,,,,,,,,,,,204,2022-04-27_13h02.59.787,FishGame,2022.1.1,60.00830514941717,
,4,나를 데려가줘,6,Orange,B,0,0,ScrollDown,ScrollUp,Orange.png,practice,,,,,,,0,0,0,0,,,,,0,0,0,0,0,3,3,3,,,,,,,,,,,,,,,,,,,,,,,,,,,,,,,,,,,,,,,,,,,,,,,,,,,,1.1311728407939274,1.1213048999998136,127.09234110000034,None,ScrollDown,정답입니다,127.09234110000034,None,127.09234110000034,None,127.09234110000034,None,127.09234110000034,None,128.08256930000016,None,128.08256930000016,128.58282210000016,,,,,,,,,,,,,,,,,,,,,,,,,,,,,,,,,,,,,,,,,,,,,,,,,204,2022-04-27_13h02.59.787,FishGame,2022.1.1,60.00830514941717,
,1,넌 교활해,5,Orange,B,2.333333333333333,2.133333333333333,ScrollUp,ScrollDown,Orange.png,practice,,,,,,,0,0,0,0,,,,,0,0,0,0,,,,,,,,,,,,,,,,,,,,,,,,,,,,,,,,,,,,,,,,,,,,,,,,,,,,,,,,,,,,,,,,,,,,,,,,,,y,11.830430199999682,129.0826662000004,None,129.0826662000004,None,,,,,,,,,,,,,,,,,,,,,,,,,,,,,,,,,,,,,,,,,,,204,2022-04-27_13h02.59.787,FishGame,2022.1.1,60.00830514941717,
,1,넌 교활해,5,Orange,B,2.333333333333333,2.133333333333333,ScrollUp,ScrollDown,Orange.png,practice,,,,,,,0,0,0,0,,,,,0,1,1,1,0,0,0,0,,,,,,,,,,,,,,,,,,,,,,,,,,,,,,,,,,,,,,,,,,,,,,,,,,,,1.5725308619439602,1.9387966999997843,141.09843820000015,None,ScrollUp,정답입니다,141.09843820000015,None,141.09843820000015,None,141.09843820000015,None,141.09843820000015,None,142.90345250000018,None,142.90345250000018,143.41395650000004,,,,,,,,,,,,,,,,,,,,,,,,,,,,,,,,,,,,,,,,,,,,,,,,,204,2022-04-27_13h02.59.787,FishGame,2022.1.1,60.00830514941717,
,2,넌 슬기로워,2,Green,A,6.166666666666667,4.1,ScrollDown,ScrollUp,Green.png,practice,,,,,,,0,0,0,0,,,,,0,1,1,1,0,1,1,1,,,,,,,,,,,,,,,,,,,,,,,,,,,,,,,,,,,,,,,,,,,,,,,,,,,,1.2932098805904388,1.2115985999998884,144.06193500000018,None,ScrollDown,정답입니다,144.06193500000018,None,144.06193500000018,None,144.06193500000018,None,144.06193500000018,None,145.1475948000002,None,145.1475948000002,145.64703390000022,,,,,,,,,,,,,,,,,,,,,,,,,,,,,,,,,,,,,,,,,,,,,,,,,204,2022-04-27_13h02.59.787,FishGame,2022.1.1,60.00830514941717,
,3,나를 보내줘,6,Green,A,0,0,ScrollUp,ScrollDown,Green.png,practice,,,,,,,0,0,0,0,,,,,0,1,1,1,0,2,2,2,,,,,,,,,,,,,,,,,,,,,,,,,,,,,,,,,,,,,,,,,,,,,,,,,,,,1.5570987661679587,1.1351337999999487,146.29409910000004,None,ScrollUp,정답입니다,146.29409910000004,None,146.29409910000004,None,146.29409910000004,None,146.29409910000004,None,147.30381850000003,None,147.30381850000003,147.81339040000012,,,,,,,,,,,,,,,,,,,,,,,,,,,,,,,,,,,,,,,,,,,,,,,,,204,2022-04-27_13h02.59.787,FishGame,2022.1.1,60.00830514941717,
,4,나를 데려가줘,6,Orange,B,0,0,ScrollDown,ScrollUp,Orange.png,practice,,,,,,,0,0,0,0,,,,,0,1,1,1,0,3,3,3,,,,,,,,,,,,,,,,,,,,,,,,,,,,,,,,,,,,,,,,,,,,,,,,,,,,1.2685185074806213,1.1613640000000487,148.46512600000005,None,ScrollDown,정답입니다,148.46512600000005,None,148.46512600000005,None,148.46512600000005,None,148.46512600000005,None,149.49678570000015,None,149.49678570000015,149.99647330000016,,,,,,,,,,,,,,,,,,,,,,,,,,,,,,,,,,,,,,,,,,,,,,,,,204,2022-04-27_13h02.59.787,FishGame,2022.1.1,60.00830514941717,
,2,넌 슬기로워,2,Green,A,6.166666666666667,4.1,ScrollDown,ScrollUp,Green.png,practice,,,,,,,0,0,0,0,,,,,0,1,1,1,,,,,,,,,,,,,,,,,,,,,,,,,,,,,,,,,,,,,,,,,,,,,,,,,,,,,,,,,,,,,,,,,,,,,,,,,,n,10.543733999999858,150.49640320000026,None,150.49640320000026,None,,,,,,,,,,,,,,,,,,,,,,,,,,,,,,,,,,,,,,,,,,,204,2022-04-27_13h02.59.787,FishGame,2022.1.1,60.00830514941717,
,1,넌 따뜻해,1,Orange,B,6.083333333333333,5.6,ScrollUp,ScrollDown,Orange.png,1,Positive,Incongruent,,,,,0,0,0,0,,,,,,,,,,,,,0,0,0,0,,,,,,,,,,,,,,,,,,,,,,,,,,,,,,,,,,,,,,,,162.76164510000035,164.2613269000003,164.29469850000032,165.24442550000003,165.29450380000026,166.2444002000002,166.2444002000002,None,,,,,,,,,,,,,,,,,,,,,,,,,0.008333334,-0.12314815,1,0,0,0.3136920599995392,None,161.0617014000004,None,1.5802469129363694,1.4766395999999986,167.4554822,None,ScrollUp,정답입니다,167.4554822,None,167.4554822,None,167.4554822,None,167.4554822,None,168.74008490000006,None,168.74008490000006,169.24404790000017,,,,,,,,,,,,,,,,204,2022-04-27_13h02.59.787,FishGame,2022.1.1,60.00830514941717,
,2,넌 기품있어,2,Orange,B,5.791666666666668,4.5,ScrollUp,ScrollDown,Orange.png,1,Positive,Incongruent,,,,,0,0,0,0,,,,,,,,,,,,,0,1,1,1,,,,,,,,,,,,,,,,,,,,,,,,,,,,,,,,,,,,,,,,,,,,,,,,,,,,,,,,,,,,,,,,,,,,,,,,,,,,,,,,,1.6188271616895995,1.2770650999996178,169.9142877000004,None,ScrollUp,정답입니다,169.9142877000004,None,169.9142877000004,None,169.9142877000004,None,169.9142877000004,None,171.03912710000031,None,171.03912710000031,171.54357230000005,,,,,,,,,,,,,,,,204,2022-04-27_13h02.59.787,FishGame,2022.1.1,60.00830514941717,
,3,나를 보내줘,6,Green,A,0,0,ScrollUp,ScrollDown,Green.png,1,NonTarget,NonTarget,,,,,0,0,0,0,,,,,,,,,,,,,0,2,2,2,,,,,,,,,,,,,,,,,,,,,,,,,,,,,,,,,,,,,,,,,,,,,,,,,,,,,,,,,,,,,,,,,,,,,,,,,,,,,,,,,1.501543209849236,1.4768168000000514,172.20721279999998,None,NoResponse,무응답입니다,172.20721279999998,None,172.20721279999998,None,172.20721279999998,None,172.20721279999998,None,173.5465561000001,None,173.5465561000001,174.0602041000002,,,,,,,,,,,,,,,,204,2022-04-27_13h02.59.787,FishGame,2022.1.1,60.00830514941717,
,4,넌 수동적이야,4,Green,A,2.833333333333333,2.933333333333333,ScrollDown,ScrollUp,Green.png,1,Negative,Incongruent,,,,,0,0,0,0,,,,,,,,,,,,,0,3,3,3,,,,,,,,,,,,,,,,,,,,,,,,,,,,,,,,,,,,,,,,,,,,,,,,,,,,,,,,,,,,,,,,,,,,,,,,,,,,,,,,,1.410493828356266,2.234945200000311,174.7291884000001,None,ScrollDown,정답입니다,174.7291884000001,None,174.7291884000001,None,174.7291884000001,None,174.7291884000001,None,176.81846740000037,None,176.81846740000037,177.3262224,,,,,,,,,,,,,,,,204,2022-04-27_13h02.59.787,FishGame,2022.1.1,60.00830514941717,
,5,넌 사심이 없어,3,Orange,B,4.916666666666666,4.333333333333333,ScrollUp,ScrollDown,Orange.png,1,Neutral,Neutral,,,,,0,0,0,0,,,,,,,,,,,,,0,4,4,4,,,,,,,,,,,,,,,,,,,,,,,,,,,,,,,,,,,,,,,,,,,,,,,,,,,,,,,,,,,,,,,,,,,,,,,,,,,,,,,,,1.4614197543511789,1.5623281000002862,177.9938930000003,None,NoResponse,무응답입니다,177.9938930000003,None,177.9938930000003,None,177.9938930000003,None,177.9938930000003,None,179.41283440000007,None,179.41283440000007,179.92592280000008,,,,,,,,,,,,,,,,204,2022-04-27_13h02.59.787,FishGame,2022.1.1,60.00830514941717,
,6,넌 헤퍼,5,Green,A,2.458333333333334,2.233333333333333,ScrollDown,ScrollUp,Green.png,1,Negative,Incongruent,,,,,0,0,0,0,,,,,,,,,,,,,0,5,5,5,,,,,,,,,,,,,,,,,,,,,,,,,,,,,,,,,,,,,,,,,,,,,,,,,,,,,,,,,,,,,,,,,,,,,,,,,,,,,,,,,1.174382706483205,1.3818396000001485,180.5868888,None,ScrollDown,정답입니다,180.5868888,None,180.5868888,None,180.5868888,None,180.5868888,None,181.8320804,None,181.8320804,182.34229700000014,,,,,,,,,,,,,,,,204,2022-04-27_13h02.59.787,FishGame,2022.1.1,60.00830514941717,
,7,넌 말쑥해,3,Green,A,4.833333333333334,4.333333333333333,ScrollDown,ScrollUp,Green.png,1,Neutral,Neutral,,,,,0,0,0,0,,,,,,,,,,,,,0,6,6,6,,,,,,,,,,,,,,,,,,,,,,,,,,,,,,,,,,,,,,,,,,,,,,,,,,,,,,,,,,,,,,,,,,,,,,,,,,,,,,,,,1.1095678955316544,1.09541900000022,182.99977780000017,None,ScrollDown,정답입니다,182.99977780000017,None,182.99977780000017,None,182.99977780000017,None,182.99977780000017,None,183.95869230000017,None,183.95869230000017,184.45884300000034,,,,,,,,,,,,,,,,204,2022-04-27_13h02.59.787,FishGame,2022.1.1,60.00830514941717,
,8,넌 투덜거려,5,Orange,B,2.541666666666667,2.266666666666667,ScrollUp,ScrollDown,Orange.png,1,Negative,Congruent,,,,,0,0,0,0,,,,,,,,,,,,,0,7,7,7,,,,,,,,,,,,,,,,,,,,,,,,,,,,,,,,,,,,,,,,,,,,,,,,,,,,,,,,,,,,,,,,,,,,,,,,,,,,,,,,,1.5787037052214146,1.136175799999819,185.12851660000024,None,ScrollUp,정답입니다,185.12851660000024,None,185.12851660000024,None,185.12851660000024,None,185.12851660000024,None,186.11804770000026,None,186.11804770000026,186.62508049999997,,,,,,,,,,,,,,,,204,2022-04-27_13h02.59.787,FishGame,2022.1.1,60.00830514941717,
,9,넌 적극적이야,1,Green,A,5.708333333333333,5.533333333333333,ScrollDown,ScrollUp,Green.png,1,Positive,Congruent,,,,,0,0,0,0,,,,,,,,,,,,,0,8,8,8,,,,,,,,,,,,,,,,,,,,,,,,,,,,,,,,,,,,,,,,,,,,,,,,,,,,,,,,,,,,,,,,,,,,,,,,,,,,,,,,,1.0586419602235158,1.274406199999703,187.28164670000024,None,ScrollDown,정답입니다,187.28164670000024,None,187.28164670000024,None,187.28164670000024,None,187.28164670000024,None,188.42507939999996,None,188.42507939999996,188.92479700000013,,,,,,,,,,,,,,,,204,2022-04-27_13h02.59.787,FishGame,2022.1.1,60.00830514941717,
,10,넌 재미없어,4,Orange,B,2.625,2.966666666666667,ScrollUp,ScrollDown,Orange.png,1,Negative,Congruent,,,,,0,0,0,0,,,,,,,,,,,,,0,9,9,9,,,,,,,,,,,,,,,,,,,,,,,,,,,,,,,,,,,,,,,,,,,,,,,,,,,,,,,,,,,,,,,,,,,,,,,,,,,,,,,,,1.5817901206513247,1.2970158000002812,189.59617210000033,None,ScrollUp,정답입니다,189.59617210000033,None,189.59617210000033,None,189.59617210000033,None,189.59617210000033,None,190.74633089999998,None,190.74633089999998,191.2577771000001,,,,,,,,,,,,,,,,204,2022-04-27_13h02.59.787,FishGame,2022.1.1,60.00830514941717,
,11,넌 명석해,2,Green,A,5.875,4.033333333333333,ScrollDown,ScrollUp,Green.png,1,Positive,Congruent,,,,,0,0,0,0,,,,,,,,,,,,,0,10,10,10,,,,,,,,,,,,,,,,,,,,,,,,,,,,,,,,,,,,,,,,,,,,,,,,,,,,,,,,,,,,,,,,,,,,,,,,,,,,,,,,,1.174382706483205,1.0987405999999282,191.9163169000003,None,ScrollDown,정답입니다,191.9163169000003,None,191.9163169000003,None,191.9163169000003,None,191.9163169000003,None,192.8794696,None,192.8794696,193.39092800000026,,,,,,,,,,,,,,,,204,2022-04-27_13h02.59.787,FishGame,2022.1.1,60.00830514941717,
,12,나를 데려가줘,6,Orange,B,0,0,ScrollDown,ScrollUp,Orange.png,1,NonTarget,NonTarget,,,,,0,0,0,0,,,,,,,,,,,,,0,11,11,11,,,,,,,,,,,,,,,,,,,,,,,,,,,,,,,,,,,,,,,,,,,,,,,,,,,,,,,,,,,,,,,,,,,,,,,,,,,,,,,,,1.0725308855374653,1.448838799999976,194.06305629999997,None,ScrollDown,정답입니다,194.06305629999997,None,194.06305629999997,None,194.06305629999997,None,194.06305629999997,None,195.36118390000001,None,195.36118390000001,195.87387070000023,,,,,,,,,,,,,,,,204,2022-04-27_13h02.59.787,FishGame,2022.1.1,60.00830514941717,
,13,넌 소심해,4,Green,A,3,3.1,ScrollDown,ScrollUp,Green.png,1,Negative,Incongruent,,,,,0,0,0,0,,,,,,,,,,,,,0,12,12,12,,,,,,,,,,,,,,,,,,,,,,,,,,,,,,,,,,,,,,,,,,,,,,,,,,,,,,,,,,,,,,,,,,,,,,,,,,,,,,,,,1.160493830839793,1.2687846000003447,196.5301161000002,None,ScrollDown,정답입니다,196.5301161000002,None,196.5301161000002,None,196.5301161000002,None,196.5301161000002,None,197.66541880000023,None,197.66541880000023,198.17368150000038,,,,,,,,,,,,,,,,204,2022-04-27_13h02.59.787,FishGame,2022.1.1,60.00830514941717,
,14,넌 합리적이야,2,Green,A,5.583333333333333,4.733333333333333,ScrollDown,ScrollUp,Green.png,1,Positive,Congruent,,,,,0,0,0,0,,,,,,,,,,,,,0,13,13,13,,,,,,,,,,,,,,,,,,,,,,,,,,,,,,,,,,,,,,,,,,,,,,,,,,,,,,,,,,,,,,,,,,,,,,,,,,,,,,,,,1,1.1549613000001955,198.8351702,None,ScrollDown,정답입니다,198.8351702,None,198.8351702,None,198.8351702,None,198.8351702,None,199.8502367000001,None,199.8502367000001,200.3575919,,,,,,,,,,,,,,,,204,2022-04-27_13h02.59.787,FishGame,2022.1.1,60.00830514941717,
,15,넌 무자비해,5,Orange,B,2.333333333333333,2.1,ScrollUp,ScrollDown,Orange.png,1,Negative,Congruent,,,,,0,0,0,0,,,,,,,,,,,,,0,14,14,14,,,,,,,,,,,,,,,,,,,,,,,,,,,,,,,,,,,,,,,,,,,,,,,,,,,,,,,,,,,,,,,,,,,,,,,,,,,,,,,,,1.6898148159186044,1.2033059000000321,201.05015709999998,None,ScrollUp,정답입니다,201.05015709999998,None,201.05015709999998,None,201.05015709999998,None,201.05015709999998,None,202.0897326000004,None,202.0897326000004,202.59028800000033,,,,,,,,,,,,,,,,204,2022-04-27_13h02.59.787,FishGame,2022.1.1,60.00830514941717,
,16,나를 보내줘,6,Green,A,0,0,ScrollUp,ScrollDown,Green.png,1,NonTarget,NonTarget,,,,,0,0,0,0,,,,,,,,,,,,,0,15,15,15,,,,,,,,,,,,,,,,,,,,,,,,,,,,,,,,,,,,,,,,,,,,,,,,,,,,,,,,,,,,,,,,,,,,,,,,,,,,,,,,,1.7006172885497413,1.3983783000003314,203.24933260000034,None,ScrollUp,정답입니다,203.24933260000034,None,203.24933260000034,None,203.24933260000034,None,203.24933260000034,None,204.5110356,None,204.5110356,205.02292080000007,,,,,,,,,,,,,,,,204,2022-04-27_13h02.59.787,FishGame,2022.1.1,60.00830514941717,
,17,넌 현실적이야,3,Orange,B,4.608695652173913,4.766666666666667,ScrollUp,ScrollDown,Orange.png,1,Neutral,Neutral,,,,,0,0,0,0,,,,,,,,,,,,,0,16,16,16,,,,,,,,,,,,,,,,,,,,,,,,,,,,,,,,,,,,,,,,,,,,,,,,,,,,,,,,,,,,,,,,,,,,,,,,,,,,,,,,,1.6404320945342383,1.2887476999999308,205.72195420000025,None,ScrollUp,정답입니다,205.72195420000025,None,205.72195420000025,None,205.72195420000025,None,205.72195420000025,None,206.8392098000004,None,206.8392098000004,207.33937170000036,,,,,,,,,,,,,,,,204,2022-04-27_13h02.59.787,FishGame,2022.1.1,60.00830514941717,
,18,넌 의리있어,1,Orange,B,5.833333333333334,5.633333333333334,ScrollUp,ScrollDown,Orange.png,1,Positive,Incongruent,,,,,0,0,0,0,,,,,,,,,,,,,0,17,17,17,,,,,,,,,,,,,,,,,,,,,,,,,,,,,,,,,,,,,,,,,,,,,,,,,,,,,,,,,,,,,,,,,,,,,,,,,,,,,,,,,1.7098765472571054,1.100183399999878,208.02044079999996,None,ScrollUp,정답입니다,208.02044079999996,None,208.02044079999996,None,208.02044079999996,None,208.02044079999996,None,208.9624791000001,None,208.9624791000001,209.4723356000004,,,,,,,,,,,,,,,,204,2022-04-27_13h02.59.787,FishGame,2022.1.1,60.00830514941717,
,19,넌 신경과민이야,5,Green,A,2.541666666666667,2.166666666666667,ScrollDown,ScrollUp,Green.png,1,Negative,Incongruent,,,,,0,0,0,0,,,,,,,,,,,,,0,18,18,18,,,,,,,,,,,,,,,,,,,,,,,,,,,,,,,,,,,,,,,,,,,,,,,,,,,,,,,,,,,,,,,,,,,,,,,,,,,,,,,,,1.248456800977389,1.166321500000322,210.16172350000033,None,ScrollDown,정답입니다,210.16172350000033,None,210.16172350000033,None,210.16172350000033,None,210.16172350000033,None,211.1611425000001,None,211.1611425000001,211.67229080000016,,,,,,,,,,,,,,,,204,2022-04-27_13h02.59.787,FishGame,2022.1.1,60.00830514941717,
,20,넌 편안해,1,Green,A,5.916666666666666,5.866666666666666,ScrollDown,ScrollUp,Green.png,1,Positive,Congruent,,,,,0,0,0,0,,,,,,,,,,,,,0,19,19,19,,,,,,,,,,,,,,,,,,,,,,,,,,,,,,,,,,,,,,,,,,,,,,,,,,,,,,,,,,,,,,,,,,,,,,,,,,,,,,,,,1.1589506169160206,1.086116100000254,212.35329470000033,None,ScrollDown,정답입니다,212.35329470000033,None,212.35329470000033,None,212.35329470000033,None,212.35329470000033,None,213.28425920000018,None,213.28425920000018,213.7884726000002,,,,,,,,,,,,,,,,204,2022-04-27_13h02.59.787,FishGame,2022.1.1,60.00830514941717,
,21,넌 품위있어,2,Orange,B,5.291666666666666,4.466666666666667,ScrollUp,ScrollDown,Orange.png,1,Positive,Incongruent,,,,,0,0,0,0,,,,,,,,,,,,,0,20,20,20,,,,,,,,,,,,,,,,,,,,,,,,,,,,,,,,,,,,,,,,,,,,,,,,,,,,,,,,,,,,,,,,,,,,,,,,,,,,,,,,,1.609567902982235,1.1000818000002255,214.4682256000001,None,ScrollUp,정답입니다,214.4682256000001,None,214.4682256000001,None,214.4682256000001,None,214.4682256000001,None,215.4150252000004,None,215.4150252000004,215.92157650000036,,,,,,,,,,,,,,,,204,2022-04-27_13h02.59.787,FishGame,2022.1.1,60.00830514941717,
,22,넌 빈틈없어,3,Green,A,4.833333333333333,3.966666666666667,ScrollDown,ScrollUp,Green.png,1,Neutral,Neutral,,,,,0,0,0,0,,,,,,,,,,,,,0,21,21,21,,,,,,,,,,,,,,,,,,,,,,,,,,,,,,,,,,,,,,,,,,,,,,,,,,,,,,,,,,,,,,,,,,,,,,,,,,,,,,,,,1.192901223897934,1.0036503999999695,216.60405100000025,None,ScrollDown,정답입니다,216.60405100000025,None,216.60405100000025,None,216.60405100000025,None,216.60405100000025,None,217.45087420000027,None,217.45087420000027,217.95492460000014,,,,,,,,,,,,,,,,204,2022-04-27_13h02.59.787,FishGame,2022.1.1,60.00830514941717,
,23,넌 상상력없어,4,Orange,B,2.833333333333333,3.133333333333333,ScrollUp,ScrollDown,Orange.png,1,Negative,Congruent,,,,,0,0,0,0,,,,,,,,,,,,,0,22,22,22,,,,,,,,,,,,,,,,,,,,,,,,,,,,,,,,,,,,,,,,,,,,,,,,,,,,,,,,,,,,,,,,,,,,,,,,,,,,,,,,,1.6558641965190568,1.0984856000000036,218.6352012000002,None,ScrollUp,정답입니다,218.6352012000002,None,218.6352012000002,None,218.6352012000002,None,218.6352012000002,None,219.57933920000005,None,219.57933920000005,220.0875959,,,,,,,,,,,,,,,,204,2022-04-27_13h02.59.787,FishGame,2022.1.1,60.00830514941717,
,24,넌 지혜로워,2,Orange,B,6.333333333333334,4.633333333333334,ScrollUp,ScrollDown,Orange.png,1,Positive,Incongruent,,,,,0,0,0,0,,,,,,,,,,,,,0,23,23,23,,,,,,,,,,,,,,,,,,,,,,,,,,,,,,,,,,,,,,,,,,,,,,,,,,,,,,,,,,,,,,,,,,,,,,,,,,,,,,,,,1.702160490055879,1.1376012999999148,220.7784547000001,None,ScrollUp,정답입니다,220.7784547000001,None,220.7784547000001,None,220.7784547000001,None,220.7784547000001,None,221.74757920000002,None,221.74757920000002,222.25407160000032,,,,,,,,,,,,,,,,204,2022-04-27_13h02.59.787,FishGame,2022.1.1,60.00830514941717,
,25,넌 시끄러워,4,Green,A,2.833333333333333,3.033333333333333,ScrollDown,ScrollUp,Green.png,1,Negative,Incongruent,,,,,0,0,0,0,,,,,,,,,,,,,0,24,24,24,,,,,,,,,,,,,,,,,,,,,,,,,,,,,,,,,,,,,,,,,,,,,,,,,,,,,,,,,,,,,,,,,,,,,,,,,,,,,,,,,1.214506169160207,0.9529674000000341,222.93417500000032,None,ScrollDown,정답입니다,222.93417500000032,None,222.93417500000032,None,222.93417500000032,None,222.93417500000032,None,223.73161530000016,None,223.73161530000016,224.23718180000014,,,,,,,,,,,,,,,,204,2022-04-27_13h02.59.787,FishGame,2022.1.1,60.00830514941717,
,26,넌 만사태평이야,3,Orange,B,4,4.333333333333333,ScrollUp,ScrollDown,Orange.png,1,Neutral,Neutral,,,,,0,0,0,0,,,,,,,,,,,,,0,25,25,25,,,,,,,,,,,,,,,,,,,,,,,,,,,,,,,,,,,,,,,,,,,,,,,,,,,,,,,,,,,,,,,,,,,,,,,,,,,,,,,,,1.6975308607021966,1.0346294999999373,224.92802010000014,None,ScrollUp,정답입니다,224.92802010000014,None,224.92802010000014,None,224.92802010000014,None,224.92802010000014,None,225.7949279000004,None,225.7949279000004,226.30346400000008,,,,,,,,,,,,,,,,204,2022-04-27_13h02.59.787,FishGame,2022.1.1,60.00830514941717,
,27,넌 붙임성있어,1,Green,A,5.708333333333333,5.633333333333334,ScrollDown,ScrollUp,Green.png,1,Positive,Congruent,,,,,0,0,0,0,,,,,,,,,,,,,0,26,26,26,,,,,,,,,,,,,,,,,,,,,,,,,,,,,,,,,,,,,,,,,,,,,,,,,,,,,,,,,,,,,,,,,,,,,,,,,,,,,,,,,1.120370368162791,0.99269379999987,226.98367320000034,None,ScrollDown,정답입니다,226.98367320000034,None,226.98367320000034,None,226.98367320000034,None,226.98367320000034,None,227.81982450000032,None,227.81982450000032,228.32003060000034,,,,,,,,,,,,,,,,204,2022-04-27_13h02.59.787,FishGame,2022.1.1,60.00830514941717,
,28,넌 영리해,2,Green,A,6,4.033333333333333,ScrollDown,ScrollUp,Green.png,1,Positive,Congruent,,,,,0,0,0,0,,,,,,,,,,,,,0,27,27,27,,,,,,,,,,,,,,,,,,,,,,,,,,,,,,,,,,,,,,,,,,,,,,,,,,,,,,,,,,,,,,,,,,,,,,,,,,,,,,,,,1.1033950646718342,0.9938272000003963,228.9898377000004,None,ScrollDown,정답입니다,228.9898377000004,None,228.9898377000004,None,228.9898377000004,None,228.9898377000004,None,229.83608570000024,None,229.83608570000024,230.33647530000007,,,,,,,,,,,,,,,,204,2022-04-27_13h02.59.787,FishGame,2022.1.1,60.00830514941717,
,29,넌 열심이야,1,Orange,B,6.041666666666667,5.833333333333333,ScrollUp,ScrollDown,Orange.png,1,Positive,Incongruent,,,,,0,0,0,0,,,,,,,,,,,,,0,28,28,28,,,,,,,,,,,,,,,,,,,,,,,,,,,,,,,,,,,,,,,,,,,,,,,,,,,,,,,,,,,,,,,,,,,,,,,,,,,,,,,,,1.5030864196984717,0.9812662999997883,231.01847840000028,None,NoResponse,무응답입니다,231.01847840000028,None,231.01847840000028,None,231.01847840000028,None,231.01847840000028,None,231.84653830000025,None,231.84653830000025,232.35288130000026,,,,,,,,,,,,,,,,204,2022-04-27_13h02.59.787,FishGame,2022.1.1,60.00830514941717,
,30,넌 인기없어,4,Orange,B,3,3.3,ScrollUp,ScrollDown,Orange.png,1,Negative,Congruent,,,,,0,0,0,0,,,,,,,,,,,,,0,29,29,29,,,,,,,,,,,,,,,,,,,,,,,,,,,,,,,,,,,,,,,,,,,,,,,,,,,,,,,,,,,,,,,,,,,,,,,,,,,,,,,,,1.7793209999799728,1.0687120000002324,233.0282169000002,None,ScrollUp,정답입니다,233.0282169000002,None,233.0282169000002,None,233.0282169000002,None,233.0282169000002,None,233.94482590000007,None,233.94482590000007,234.45261960000016,,,,,,,,,,,,,,,,204,2022-04-27_13h02.59.787,FishGame,2022.1.1,60.00830514941717,
,31,넌 익살스러워,3,Green,A,4.708333333333334,4.833333333333333,ScrollDown,ScrollUp,Green.png,1,Neutral,Neutral,,,,,0,0,0,0,,,,,,,,,,,,,0,30,30,30,,,,,,,,,,,,,,,,,,,,,,,,,,,,,,,,,,,,,,,,,,,,,,,,,,,,,,,,,,,,,,,,,,,,,,,,,,,,,,,,,1.1018518507480621,1.0268323999998756,235.1381093,None,ScrollDown,정답입니다,235.1381093,None,235.1381093,None,235.1381093,None,235.1381093,None,236.00284460000012,None,236.00284460000012,236.50289680000014,,,,,,,,,,,,,,,,204,2022-04-27_13h02.59.787,FishGame,2022.1.1,60.00830514941717,
,32,넌 이기적이야,5,Orange,B,2.291666666666667,2.333333333333333,ScrollUp,ScrollDown,Orange.png,1,Negative,Congruent,,,,,0,0,0,0,,,,,,,,,,,,,0,31,31,31,,,,,,,,,,,,,,,,,,,,,,,,,,,,,,,,,,,,,,,,,,,,,,,,,,,,,,,,,,,,,,,,,,,,,,,,,,,,,,,,,1.5200617282340922,0.9373623000001317,237.1764776,None,NoResponse,무응답입니다,237.1764776,None,237.1764776,None,237.1764776,None,237.1764776,None,237.96515100000033,None,237.96515100000033,238.46890710000025,,,,,,,,,,,,,,,,204,2022-04-27_13h02.59.787,FishGame,2022.1.1,60.00830514941717,
,33,나를 데려가줘,6,Orange,B,0,0,ScrollDown,ScrollUp,Orange.png,1,NonTarget,NonTarget,,,,,0,0,0,0,,,,,,,,,,,,,0,32,32,32,,,,,,,,,,,,,,,,,,,,,,,,,,,,,,,,,,,,,,,,,,,,,,,,,,,,,,,,,,,,,,,,,,,,,,,,,,,,,,,,,1.2067901243766148,1.4175970999999663,239.15728430000036,None,ScrollDown,정답입니다,239.15728430000036,None,239.15728430000036,None,239.15728430000036,None,239.15728430000036,None,240.41439430000037,None,240.41439430000037,240.91816370000015,,,,,,,,,,,,,,,,204,2022-04-27_13h02.59.787,FishGame,2022.1.1,60.00830514941717,
,34,넌 기회주의자야,5,Green,A,2.875,2.133333333333333,ScrollDown,ScrollUp,Green.png,1,Negative,Incongruent,,,,,0,0,0,0,,,,,,,,,,,,,0,33,33,33,,,,,,,,,,,,,,,,,,,,,,,,,,,,,,,,,,,,,,,,,,,,,,,,,,,,,,,,,,,,,,,,,,,,,,,,,,,,,,,,,1.080246905485789,1.3515525000002526,241.60828370000036,None,ScrollDown,정답입니다,241.60828370000036,None,241.60828370000036,None,241.60828370000036,None,241.60828370000036,None,242.7927340000001,None,242.7927340000001,243.3011851000001,,,,,,,,,,,,,,,,204,2022-04-27_13h02.59.787,FishGame,2022.1.1,60.00830514941717,
,1,넌 미성숙해,4,Green,A,3,3.2,ScrollDown,ScrollUp,Green.png,2,Negative,Incongruent,,,,,0,0,0,0,,,,,,,,,,,,,,,,,0,0,0,0,,,,,,,,,,,,,,,,,,,,,,,,,,,,,,,,,,,,275.33068070000036,276.83030800000006,276.86353910000025,277.8135953000001,277.8636233000002,278.81342110000014,278.81342110000014,None,,,,,,,,,,,,,,,,,,,,,,,,,,,,,,,,,,1,1.1678264000001946,280.02593720000004,None,ScrollDown,정답입니다,280.02593720000004,None,280.02593720000004,None,280.02593720000004,None,280.02593720000004,None,280.99613320000026,None,280.99613320000026,281.49624280000035,243.80110600000035,None,243.80110600000035,None,0.075,-0.074074075,1,0,0,0.016059860000041226,None,273.8140432,None,,,204,2022-04-27_13h02.59.787,FishGame,2022.1.1,60.00830514941717,
,2,넌 반사회적이야,5,Orange,B,2.416666666666667,2.033333333333333,ScrollUp,ScrollDown,Orange.png,2,Negative,Congruent,,,,,0,0,0,0,,,,,,,,,,,,,,,,,0,1,1,1,,,,,,,,,,,,,,,,,,,,,,,,,,,,,,,,,,,,,,,,,,,,,,,,,,,,,,,,,,,,,,,,,,,,,,,,,,,,,1.723765422900518,1.114987800000108,282.17874980000033,None,ScrollUp,정답입니다,282.17874980000033,None,282.17874980000033,None,282.17874980000033,None,282.17874980000033,None,283.13514350000014,None,283.13514350000014,283.6459398000002,,,,,,,,,,,,,,,,204,2022-04-27_13h02.59.787,FishGame,2022.1.1,60.00830514941717,
,3,넌 유능해,2,Green,A,6.208333333333333,4.433333333333334,ScrollDown,ScrollUp,Green.png,2,Positive,Congruent,,,,,0,0,0,0,,,,,,,,,,,,,,,,,0,2,2,2,,,,,,,,,,,,,,,,,,,,,,,,,,,,,,,,,,,,,,,,,,,,,,,,,,,,,,,,,,,,,,,,,,,,,,,,,,,,,1.1064814925193787,0.9521360999997341,284.3119264000002,None,ScrollDown,정답입니다,284.3119264000002,None,284.3119264000002,None,284.3119264000002,None,284.3119264000002,None,285.1188748000004,None,285.1188748000004,285.6291776000003,,,,,,,,,,,,,,,,204,2022-04-27_13h02.59.787,FishGame,2022.1.1,60.00830514941717,
,4,넌 능숙해,2,Orange,B,5.666666666666667,4.733333333333333,ScrollUp,ScrollDown,Orange.png,2,Positive,Incongruent,,,,,0,0,0,0,,,,,,,,,,,,,,,,,0,3,3,3,,,,,,,,,,,,,,,,,,,,,,,,,,,,,,,,,,,,,,,,,,,,,,,,,,,,,,,,,,,,,,,,,,,,,,,,,,,,,1.8966049353281658,1.0240843999999925,286.29184380000015,None,ScrollUp,정답입니다,286.29184380000015,None,286.29184380000015,None,286.29184380000015,None,286.29184380000015,None,287.17896470000005,None,287.17896470000005,287.67879800000037,,,,,,,,,,,,,,,,204,2022-04-27_13h02.59.787,FishGame,2022.1.1,60.00830514941717,
,5,넌 진부해,4,Orange,B,2.458333333333333,3.166666666666667,ScrollUp,ScrollDown,Orange.png,2,Negative,Congruent,,,,,0,0,0,0,,,,,,,,,,,,,,,,,0,4,4,4,,,,,,,,,,,,,,,,,,,,,,,,,,,,,,,,,,,,,,,,,,,,,,,,,,,,,,,,,,,,,,,,,,,,,,,,,,,,,1.904320980111758,1.1588959999999133,288.35065970000005,None,ScrollUp,정답입니다,288.35065970000005,None,288.35065970000005,None,288.35065970000005,None,288.35065970000005,None,289.3621798000004,None,289.3621798000004,289.8619856,,,,,,,,,,,,,,,,204,2022-04-27_13h02.59.787,FishGame,2022.1.1,60.00830514941717,
,6,나를 보내줘,6,Green,A,0,0,ScrollUp,ScrollDown,Green.png,2,NonTarget,NonTarget,,,,,0,0,0,0,,,,,,,,,,,,,,,,,0,5,5,5,,,,,,,,,,,,,,,,,,,,,,,,,,,,,,,,,,,,,,,,,,,,,,,,,,,,,,,,,,,,,,,,,,,,,,,,,,,,,1.825617293516795,1.22178729999996,290.5152433000003,None,ScrollUp,정답입니다,290.5152433000003,None,290.5152433000003,None,290.5152433000003,None,290.5152433000003,None,291.6117567000001,None,291.6117567000001,292.1114926,,,,,,,,,,,,,,,,204,2022-04-27_13h02.59.787,FishGame,2022.1.1,60.00830514941717,
,7,넌 엄격해,3,Green,A,4.166666666666666,4.1,ScrollDown,ScrollUp,Green.png,2,Neutral,Neutral,,,,,0,0,0,0,,,,,,,,,,,,,,,,,0,6,6,6,,,,,,,,,,,,,,,,,,,,,,,,,,,,,,,,,,,,,,,,,,,,,,,,,,,,,,,,,,,,,,,,,,,,,,,,,,,,,1.1913580348094304,1.001318000000083,292.77739040000006,None,ScrollDown,정답입니다,292.77739040000006,None,292.77739040000006,None,292.77739040000006,None,292.77739040000006,None,293.6351906,None,293.6351906,294.14473380000027,,,,,,,,,,,,,,,,204,2022-04-27_13h02.59.787,FishGame,2022.1.1,60.00830514941717,
,8,나를 보내줘,6,Green,A,0,0,ScrollUp,ScrollDown,Green.png,2,NonTarget,NonTarget,,,,,0,0,0,0,,,,,,,,,,,,,,,,,0,7,7,7,,,,,,,,,,,,,,,,,,,,,,,,,,,,,,,,,,,,,,,,,,,,,,,,,,,,,,,,,,,,,,,,,,,,,,,,,,,,,1.7561728407939274,1.1189767000000757,294.8028776000001,None,ScrollUp,정답입니다,294.8028776000001,None,294.8028776000001,None,294.8028776000001,None,294.8028776000001,None,295.78453609999997,None,295.78453609999997,296.29431330000034,,,,,,,,,,,,,,,,204,2022-04-27_13h02.59.787,FishGame,2022.1.1,60.00830514941717,
,9,넌 대담해,3,Orange,B,4.875,4.866666666666666,ScrollUp,ScrollDown,Orange.png,2,Neutral,Neutral,,,,,0,0,0,0,,,,,,,,,,,,,,,,,0,8,8,8,,,,,,,,,,,,,,,,,,,,,,,,,,,,,,,,,,,,,,,,,,,,,,,,,,,,,,,,,,,,,,,,,,,,,,,,,,,,,1.663580241302649,1.123070799999823,296.9753538,None,ScrollUp,정답입니다,296.9753538,None,296.9753538,None,296.9753538,None,296.9753538,None,297.9376781000001,None,297.9376781000001,298.44404910000003,,,,,,,,,,,,,,,,204,2022-04-27_13h02.59.787,FishGame,2022.1.1,60.00830514941717,
,10,넌 꾸준해,1,Green,A,5.916666666666668,5.8,ScrollDown,ScrollUp,Green.png,2,Positive,Congruent,,,,,0,0,0,0,,,,,,,,,,,,,,,,,0,9,9,9,,,,,,,,,,,,,,,,,,,,,,,,,,,,,,,,,,,,,,,,,,,,,,,,,,,,,,,,,,,,,,,,,,,,,,,,,,,,,1.0478395124276478,1.1943223999996917,299.1106910000003,None,ScrollDown,정답입니다,299.1106910000003,None,299.1106910000003,None,299.1106910000003,None,299.1106910000003,None,300.16051890000017,None,300.16051890000017,300.660429,,,,,,,,,,,,,,,,204,2022-04-27_13h02.59.787,FishGame,2022.1.1,60.00830514941717,
,11,나를 데려가줘,6,Orange,B,0,0,ScrollDown,ScrollUp,Orange.png,2,NonTarget,NonTarget,,,,,0,0,0,0,,,,,,,,,,,,,,,,,0,10,10,10,,,,,,,,,,,,,,,,,,,,,,,,,,,,,,,,,,,,,,,,,,,,,,,,,,,,,,,,,,,,,,,,,,,,,,,,,,,,,1,1.279071699999804,301.3272492000001,None,ScrollDown,정답입니다,301.3272492000001,None,301.3272492000001,None,301.3272492000001,None,301.3272492000001,None,302.46290799999997,None,302.46290799999997,302.9768044000002,,,,,,,,,,,,,,,,204,2022-04-27_13h02.59.787,FishGame,2022.1.1,60.00830514941717,
,12,넌 독선적이야,5,Green,A,2.458333333333333,1.933333333333333,ScrollDown,ScrollUp,Green.png,2,Negative,Incongruent,,,,,0,0,0,0,,,,,,,,,,,,,,,,,0,11,11,11,,,,,,,,,,,,,,,,,,,,,,,,,,,,,,,,,,,,,,,,,,,,,,,,,,,,,,,,,,,,,,,,,,,,,,,,,,,,,1.174382706483205,1.1874131999998099,303.64348440000003,None,ScrollDown,정답입니다,303.64348440000003,None,303.64348440000003,None,303.64348440000003,None,303.64348440000003,None,304.6874101000003,None,304.6874101000003,305.19315810000035,,,,,,,,,,,,,,,,204,2022-04-27_13h02.59.787,FishGame,2022.1.1,60.00830514941717,
,13,나를 보내줘,6,Green,A,0,0,ScrollUp,ScrollDown,Green.png,2,NonTarget,NonTarget,,,,,0,0,0,0,,,,,,,,,,,,,,,,,0,12,12,12,,,,,,,,,,,,,,,,,,,,,,,,,,,,,,,,,,,,,,,,,,,,,,,,,,,,,,,,,,,,,,,,,,,,,,,,,,,,,1.839506169160207,1.2082172999998875,305.8524431000001,None,ScrollUp,정답입니다,305.8524431000001,None,305.8524431000001,None,305.8524431000001,None,305.8524431000001,None,306.92640819999997,None,306.92640819999997,307.4262812000002,,,,,,,,,,,,,,,,204,2022-04-27_13h02.59.787,FishGame,2022.1.1,60.00830514941717,
,14,넌 책임감있어,1,Orange,B,6.347826086956522,6,ScrollUp,ScrollDown,Orange.png,2,Positive,Incongruent,,,,,0,0,0,0,,,,,,,,,,,,,,,,,0,13,13,13,,,,,,,,,,,,,,,,,,,,,,,,,,,,,,,,,,,,,,,,,,,,,,,,,,,,,,,,,,,,,,,,,,,,,,,,,,,,,1.8225308656692505,1.2619868000001588,308.0927749000002,None,ScrollUp,정답입니다,308.0927749000002,None,308.0927749000002,None,308.0927749000002,None,308.0927749000002,None,309.21174150000024,None,309.21174150000024,309.7261615000002,,,,,,,,,,,,,,,,204,2022-04-27_13h02.59.787,FishGame,2022.1.1,60.00830514941717,
,15,넌 문학적이야,3,Green,A,4.708333333333334,4.333333333333333,ScrollDown,ScrollUp,Green.png,2,Neutral,Neutral,,,,,0,0,0,0,,,,,,,,,,,,,,,,,0,14,14,14,,,,,,,,,,,,,,,,,,,,,,,,,,,,,,,,,,,,,,,,,,,,,,,,,,,,,,,,,,,,,,,,,,,,,,,,,,,,,1.0972222338120143,1.0589946000000054,310.3860261,None,ScrollDown,정답입니다,310.3860261,None,310.3860261,None,310.3860261,None,310.3860261,None,311.3093108000003,None,311.3093108000003,311.80917910000016,,,,,,,,,,,,,,,,204,2022-04-27_13h02.59.787,FishGame,2022.1.1,60.00830514941717,
,16,넌 재미있어,1,Orange,B,5.875,5.7,ScrollUp,ScrollDown,Orange.png,2,Positive,Incongruent,,,,,0,0,0,0,,,,,,,,,,,,,,,,,0,15,15,15,,,,,,,,,,,,,,,,,,,,,,,,,,,,,,,,,,,,,,,,,,,,,,,,,,,,,,,,,,,,,,,,,,,,,,,,,,,,,1.8873456766208012,1.093055800000002,312.4724500000002,None,ScrollUp,정답입니다,312.4724500000002,None,312.4724500000002,None,312.4724500000002,None,312.4724500000002,None,313.4252940000001,None,313.4252940000001,313.92530190000025,,,,,,,,,,,,,,,,204,2022-04-27_13h02.59.787,FishGame,2022.1.1,60.00830514941717,
,17,나를 데려가줘,6,Orange,B,0,0,ScrollDown,ScrollUp,Orange.png,2,NonTarget,NonTarget,,,,,0,0,0,0,,,,,,,,,,,,,,,,,0,16,16,16,,,,,,,,,,,,,,,,,,,,,,,,,,,,,,,,,,,,,,,,,,,,,,,,,,,,,,,,,,,,,,,,,,,,,,,,,,,,,1,1.201997200000278,314.5908722000004,None,ScrollDown,정답입니다,314.5908722000004,None,314.5908722000004,None,314.5908722000004,None,314.5908722000004,None,315.6495454000001,None,315.6495454000001,316.15840590000016,,,,,,,,,,,,,,,,204,2022-04-27_13h02.59.787,FishGame,2022.1.1,60.00830514941717,
,18,넌 협력적이야,1,Green,A,5.625,5.633333333333334,ScrollDown,ScrollUp,Green.png,2,Positive,Congruent,,,,,0,0,0,0,,,,,,,,,,,,,,,,,0,17,17,17,,,,,,,,,,,,,,,,,,,,,,,,,,,,,,,,,,,,,,,,,,,,,,,,,,,,,,,,,,,,,,,,,,,,,,,,,,,,,1,1.212159900000188,316.8243456,None,ScrollDown,정답입니다,316.8243456,None,316.8243456,None,316.8243456,None,316.8243456,None,317.89262099999996,None,317.89262099999996,318.4081645000001,,,,,,,,,,,,,,,,204,2022-04-27_13h02.59.787,FishGame,2022.1.1,60.00830514941717,
,19,넌 평범해,3,Orange,B,4.333333333333332,4.233333333333333,ScrollUp,ScrollDown,Orange.png,2,Neutral,Neutral,,,,,0,0,0,0,,,,,,,,,,,,,,,,,0,18,18,18,,,,,,,,,,,,,,,,,,,,,,,,,,,,,,,,,,,,,,,,,,,,,,,,,,,,,,,,,,,,,,,,,,,,,,,,,,,,,1.787037044763565,0.9479617000001781,319.0839772000004,None,ScrollUp,정답입니다,319.0839772000004,None,319.0839772000004,None,319.0839772000004,None,319.0839772000004,None,319.8790634000002,None,319.8790634000002,320.3911935000001,,,,,,,,,,,,,,,,204,2022-04-27_13h02.59.787,FishGame,2022.1.1,60.00830514941717,
,20,넌 오만해,5,Green,A,2.333333333333333,2,ScrollDown,ScrollUp,Green.png,2,Negative,Incongruent,,,,,0,0,0,0,,,,,,,,,,,,,,,,,0,19,19,19,,,,,,,,,,,,,,,,,,,,,,,,,,,,,,,,,,,,,,,,,,,,,,,,,,,,,,,,,,,,,,,,,,,,,,,,,,,,,1.0756172637144725,1.017604399999982,321.05687510000007,None,ScrollDown,정답입니다,321.05687510000007,None,321.05687510000007,None,321.05687510000007,None,321.05687510000007,None,321.93123830000013,None,321.93123830000013,322.44089080000003,,,,,,,,,,,,,,,,204,2022-04-27_13h02.59.787,FishGame,2022.1.1,60.00830514941717,
,21,넌 운이없어,4,Orange,B,3,3.466666666666667,ScrollUp,ScrollDown,Orange.png,2,Negative,Congruent,,,,,0,0,0,0,,,,,,,,,,,,,,,,,0,20,20,20,,,,,,,,,,,,,,,,,,,,,,,,,,,,,,,,,,,,,,,,,,,,,,,,,,,,,,,,,,,,,,,,,,,,,,,,,,,,,1.9614197711149852,1.0208695000001171,323.11166490000005,None,ScrollUp,정답입니다,323.11166490000005,None,323.11166490000005,None,323.11166490000005,None,323.11166490000005,None,323.9842515,None,323.9842515,324.49071410000033,,,,,,,,,,,,,,,,204,2022-04-27_13h02.59.787,FishGame,2022.1.1,60.00830514941717,
,22,넌 창조적이야,2,Orange,B,6.125,4.633333333333334,ScrollUp,ScrollDown,Orange.png,2,Positive,Incongruent,,,,,0,0,0,0,,,,,,,,,,,,,,,,,0,21,21,21,,,,,,,,,,,,,,,,,,,,,,,,,,,,,,,,,,,,,,,,,,,,,,,,,,,,,,,,,,,,,,,,,,,,,,,,,,,,,2,1.0448849999997947,325.1635932000004,None,ScrollUp,정답입니다,325.1635932000004,None,325.1635932000004,None,325.1635932000004,None,325.1635932000004,None,326.0575593000003,None,326.0575593000003,326.55716580000035,,,,,,,,,,,,,,,,204,2022-04-27_13h02.59.787,FishGame,2022.1.1,60.00830514941717,
,23,나를 보내줘,6,Green,A,0,0,ScrollUp,ScrollDown,Green.png,2,NonTarget,NonTarget,,,,,0,0,0,0,,,,,,,,,,,,,,,,,0,22,22,22,,,,,,,,,,,,,,,,,,,,,,,,,,,,,,,,,,,,,,,,,,,,,,,,,,,,,,,,,,,,,,,,,,,,,,,,,,,,,1.9490740597248077,1.1652086999997664,327.2128106,None,ScrollUp,정답입니다,327.2128106,None,327.2128106,None,327.2128106,None,327.2128106,None,328.2449419000004,None,328.2449419000004,328.75687960000005,,,,,,,,,,,,,,,,204,2022-04-27_13h02.59.787,FishGame,2022.1.1,60.00830514941717,
,24,넌 통찰력있어,2,Green,A,6.5,4.8,ScrollDown,ScrollUp,Green.png,2,Positive,Congruent,,,,,0,0,0,0,,,,,,,,,,,,,,,,,0,23,23,23,,,,,,,,,,,,,,,,,,,,,,,,,,,,,,,,,,,,,,,,,,,,,,,,,,,,,,,,,,,,,,,,,,,,,,,,,,,,,1,1.1163135000001603,329.42596950000006,None,ScrollDown,정답입니다,329.42596950000006,None,329.42596950000006,None,329.42596950000006,None,329.42596950000006,None,330.39535730000034,None,330.39535730000034,330.90650619999997,,,,,,,,,,,,,,,,204,2022-04-27_13h02.59.787,FishGame,2022.1.1,60.00830514941717,
,25,넌 경솔해,5,Orange,B,2.458333333333333,2.266666666666667,ScrollUp,ScrollDown,Orange.png,2,Negative,Congruent,,,,,0,0,0,0,,,,,,,,,,,,,,,,,0,24,24,24,,,,,,,,,,,,,,,,,,,,,,,,,,,,,,,,,,,,,,,,,,,,,,,,,,,,,,,,,,,,,,,,,,,,,,,,,,,,,1.8950617214043934,1.0019753000001401,331.5788299000001,None,ScrollUp,정답입니다,331.5788299000001,None,331.5788299000001,None,331.5788299000001,None,331.5788299000001,None,332.4296198000002,None,332.4296198000002,332.9397836000003,,,,,,,,,,,,,,,,204,2022-04-27_13h02.59.787,FishGame,2022.1.1,60.00830514941717,
,26,넌 초조해,4,Green,A,2.916666666666667,3.133333333333333,ScrollDown,ScrollUp,Green.png,2,Negative,Incongruent,,,,,0,0,0,0,,,,,,,,,,,,,,,,,0,25,25,25,,,,,,,,,,,,,,,,,,,,,,,,,,,,,,,,,,,,,,,,,,,,,,,,,,,,,,,,,,,,,,,,,,,,,,,,,,,,,1,0.942570600000181,333.6045975000002,None,ScrollDown,정답입니다,333.6045975000002,None,333.6045975000002,None,333.6045975000002,None,333.6045975000002,None,334.40617740000016,None,334.40617740000016,334.9060439,,,,,,,,,,,,,,,,204,2022-04-27_13h02.59.787,FishGame,2022.1.1,60.00830514941717,
,27,넌 무관심해,4,Orange,B,2.833333333333333,2.9,ScrollUp,ScrollDown,Orange.png,2,Negative,Congruent,,,,,0,0,0,0,,,,,,,,,,,,,,,,,0,26,26,26,,,,,,,,,,,,,,,,,,,,,,,,,,,,,,,,,,,,,,,,,,,,,,,,,,,,,,,,,,,,,,,,,,,,,,,,,,,,,2,1.0148588000001837,335.5813197000002,None,ScrollUp,정답입니다,335.5813197000002,None,335.5813197000002,None,335.5813197000002,None,335.5813197000002,None,336.44236580000006,None,336.44236580000006,336.9557461000004,,,,,,,,,,,,,,,,204,2022-04-27_13h02.59.787,FishGame,2022.1.1,60.00830514941717,
,28,넌 감성적이야,3,Orange,B,4.125,4.166666666666667,ScrollUp,ScrollDown,Orange.png,2,Neutral,Neutral,,,,,0,0,0,0,,,,,,,,,,,,,,,,,0,27,27,27,,,,,,,,,,,,,,,,,,,,,,,,,,,,,,,,,,,,,,,,,,,,,,,,,,,,,,,,,,,,,,,,,,,,,,,,,,,,,2,1.3065593000001172,337.6256669000004,None,ScrollUp,정답입니다,337.6256669000004,None,337.6256669000004,None,337.6256669000004,None,337.6256669000004,None,338.78903070000024,None,338.78903070000024,339.28877690000036,,,,,,,,,,,,,,,,204,2022-04-27_13h02.59.787,FishGame,2022.1.1,60.00830514941717,
,29,넌 배려심있어,1,Green,A,6.083333333333333,5.5,ScrollDown,ScrollUp,Green.png,2,Positive,Congruent,,,,,0,0,0,0,,,,,,,,,,,,,,,,,0,28,28,28,,,,,,,,,,,,,,,,,,,,,,,,,,,,,,,,,,,,,,,,,,,,,,,,,,,,,,,,,,,,,,,,,,,,,,,,,,,,,1.1111111094554265,1.000307199999952,339.95829870000034,None,ScrollDown,정답입니다,339.95829870000034,None,339.95829870000034,None,339.95829870000034,None,339.95829870000034,None,340.8116608,None,340.8116608,341.3218498000001,,,,,,,,,,,,,,,,204,2022-04-27_13h02.59.787,FishGame,2022.1.1,60.00830514941717,
,30,넌 숨김없어,3,Green,A,4.5,4.933333333333334,ScrollDown,ScrollUp,Green.png,2,Neutral,Neutral,,,,,0,0,0,0,,,,,,,,,,,,,,,,,0,29,29,29,,,,,,,,,,,,,,,,,,,,,,,,,,,,,,,,,,,,,,,,,,,,,,,,,,,,,,,,,,,,,,,,,,,,,,,,,,,,,1,1.0059931000000688,341.9898567,None,ScrollDown,정답입니다,341.9898567,None,341.9898567,None,341.9898567,None,341.9898567,None,342.84780850000016,None,342.84780850000016,343.35504310000033,,,,,,,,,,,,,,,,204,2022-04-27_13h02.59.787,FishGame,2022.1.1,60.00830514941717,
,31,넌 훌륭해,2,Orange,B,5.916666666666667,4.033333333333333,ScrollUp,ScrollDown,Orange.png,2,Positive,Incongruent,,,,,0,0,0,0,,,,,,,,,,,,,,,,,0,30,30,30,,,,,,,,,,,,,,,,,,,,,,,,,,,,,,,,,,,,,,,,,,,,,,,,,,,,,,,,,,,,,,,,,,,,,,,,,,,,,2,0.9326363999998648,344.03250879999996,None,ScrollUp,정답입니다,344.03250879999996,None,344.03250879999996,None,344.03250879999996,None,344.03250879999996,None,344.8085422000004,None,344.8085422000004,345.32164490000014,,,,,,,,,,,,,,,,204,2022-04-27_13h02.59.787,FishGame,2022.1.1,60.00830514941717,
,32,넌 슬기로워,2,Green,A,6.166666666666667,4.1,ScrollDown,ScrollUp,Green.png,2,Positive,Congruent,,,,,0,0,0,0,,,,,,,,,,,,,,,,,0,31,31,31,,,,,,,,,,,,,,,,,,,,,,,,,,,,,,,,,,,,,,,,,,,,,,,,,,,,,,,,,,,,,,,,,,,,,,,,,,,,,1,0.9143468000002031,345.9780989000001,None,ScrollDown,정답입니다,345.9780989000001,None,345.9780989000001,None,345.9780989000001,None,345.9780989000001,None,346.7593847000003,None,346.7593847000003,347.2710099000001,,,,,,,,,,,,,,,,204,2022-04-27_13h02.59.787,FishGame,2022.1.1,60.00830514941717,
,33,넌 냉혹해,5,Green,A,2.583333333333333,2.1,ScrollDown,ScrollUp,Green.png,2,Negative,Incongruent,,,,,0,0,0,0,,,,,,,,,,,,,,,,,0,32,32,32,,,,,,,,,,,,,,,,,,,,,,,,,,,,,,,,,,,,,,,,,,,,,,,,,,,,,,,,,,,,,,,,,,,,,,,,,,,,,1,0.9646685999996407,347.9416889000004,None,ScrollDown,정답입니다,347.9416889000004,None,347.9416889000004,None,347.9416889000004,None,347.9416889000004,None,348.7572965000004,None,348.7572965000004,349.2708439000003,,,,,,,,,,,,,,,,204,2022-04-27_13h02.59.787,FishGame,2022.1.1,60.00830514941717,
,34,나를 데려가줘,6,Orange,B,0,0,ScrollDown,ScrollUp,Orange.png,2,NonTarget,NonTarget,,,,,0,0,0,0,,,,,,,,,,,,,,,,,0,33,33,33,,,,,,,,,,,,,,,,,,,,,,,,,,,,,,,,,,,,,,,,,,,,,,,,,,,,,,,,,,,,,,,,,,,,,,,,,,,,,1,1.1506885999997394,349.9388355000001,None,ScrollDown,정답입니다,349.9388355000001,None,349.9388355000001,None,349.9388355000001,None,349.9388355000001,None,350.94366820000005,None,350.94366820000005,351.45389109999996,,,,,,,,,,,,,,,,204,2022-04-27_13h02.59.787,FishGame,2022.1.1,60.00830514941717,
,35,넌 편파적이야,5,Orange,B,2.125,2,ScrollUp,ScrollDown,Orange.png,2,Negative,Congruent,,,,,0,0,0,0,,,,,,,,,,,,,,,,,0,34,34,34,,,,,,,,,,,,,,,,,,,,,,,,,,,,,,,,,,,,,,,,,,,,,,,,,,,,,,,,,,,,,,,,,,,,,,,,,,,,,1.9490740597248077,1.049962300000061,352.12483950000023,None,ScrollUp,정답입니다,352.12483950000023,None,352.12483950000023,None,352.12483950000023,None,352.12483950000023,None,353.02644740000005,None,353.02644740000005,353.53699640000013,,,,,,,,,,,,,,,,204,2022-04-27_13h02.59.787,FishGame,2022.1.1,60.00830514941717,
,36,넌 슬퍼,4,Green,A,2.583333333333333,3.066666666666667,ScrollDown,ScrollUp,Green.png,2,Negative,Incongruent,,,,,0,0,0,0,,,,,,,,,,,,,,,,,0,35,35,35,,,,,,,,,,,,,,,,,,,,,,,,,,,,,,,,,,,,,,,,,,,,,,,,,,,,,,,,,,,,,,,,,,,,,,,,,,,,,1,0.8790827000002537,354.19632290000027,None,ScrollDown,정답입니다,354.19632290000027,None,354.19632290000027,None,354.19632290000027,None,354.19632290000027,None,354.9383578000002,None,354.9383578000002,355.4535092000001,,,,,,,,,,,,,,,,204,2022-04-27_13h02.59.787,FishGame,2022.1.1,60.00830514941717,
,37,나를 데려가줘,6,Orange,B,0,0,ScrollDown,ScrollUp,Orange.png,2,NonTarget,NonTarget,,,,,0,0,0,0,,,,,,,,,,,,,,,,,0,36,36,36,,,,,,,,,,,,,,,,,,,,,,,,,,,,,,,,,,,,,,,,,,,,,,,,,,,,,,,,,,,,,,,,,,,,,,,,,,,,,1,1.1820857999996406,356.1243950000003,None,ScrollDown,정답입니다,356.1243950000003,None,356.1243950000003,None,356.1243950000003,None,356.1243950000003,None,357.1566377000004,None,357.1566377000004,357.6697839000003,,,,,,,,,,,,,,,,204,2022-04-27_13h02.59.787,FishGame,2022.1.1,60.00830514941717,
,38,넌 친절해,1,Orange,B,6.041666666666667,5.533333333333333,ScrollUp,ScrollDown,Orange.png,2,Positive,Incongruent,,,,,0,0,0,0,,,,,,,,,,,,,,,,,0,37,37,37,,,,,,,,,,,,,,,,,,,,,,,,,,,,,,,,,,,,,,,,,,,,,,,,,,,,,,,,,,,,,,,,,,,,,,,,,,,,,1.9722222189108531,1.0571498999997857,358.3484002,None,ScrollUp,정답입니다,358.3484002,None,358.3484002,None,358.3484002,None,358.3484002,None,359.2529321000002,None,359.2529321000002,359.7527632000001,,,,,,,,,,,,,,,,204,2022-04-27_13h02.59.787,FishGame,2022.1.1,60.00830514941717,
,1,넌 엉성해,4,Green,A,3,3.3,ScrollDown,ScrollUp,Green.png,3,Negative,Incongruent,,,,,0,0,0,0,,,,,,,,,,,,,,,,,,,,,0,0,0,0,,,,,,,,,,,,,,,,,,,,,,,,,,,,,,,,394.08189010000024,395.5816358000002,395.6147774000001,396.5648698,396.61480630000005,397.5646436000002,397.5646436000002,None,,,,,,,,,,,,,,,,,,,,,,,,,,,,,,,,,,1,1.189841300000353,398.7731686000002,None,ScrollDown,정답입니다,398.7731686000002,None,398.7731686000002,None,398.7731686000002,None,398.7731686000002,None,399.78110270000025,None,399.78110270000025,400.2809238,360.2527398000002,None,360.2527398000002,None,0.19629629,-0.075925924,1,0,0,0.01617896000016117,None,390.2655314000003,None,,,204,2022-04-27_13h02.59.787,FishGame,2022.1.1,60.00830514941717,
,2,나를 보내줘,6,Green,A,0,0,ScrollUp,ScrollDown,Green.png,3,NonTarget,NonTarget,,,,,0,0,0,0,,,,,,,,,,,,,,,,,,,,,0,1,1,1,,,,,,,,,,,,,,,,,,,,,,,,,,,,,,,,,,,,,,,,,,,,,,,,,,,,,,,,,,,,,,,,,,,,,,,,,1.7500000099341075,1.035826199999974,400.94260740000027,None,ScrollUp,정답입니다,400.94260740000027,None,400.94260740000027,None,400.94260740000027,None,400.94260740000027,None,401.8393083000001,None,401.8393083000001,402.34730179999997,,,,,,,,,,,,,,,,204,2022-04-27_13h02.59.787,FishGame,2022.1.1,60.00830514941717,
,3,넌 활발해,1,Orange,B,5.666666666666667,5.6,ScrollUp,ScrollDown,Orange.png,3,Positive,Incongruent,,,,,0,0,0,0,,,,,,,,,,,,,,,,,,,,,0,2,2,2,,,,,,,,,,,,,,,,,,,,,,,,,,,,,,,,,,,,,,,,,,,,,,,,,,,,,,,,,,,,,,,,,,,,,,,,,1.939814825852712,1.0450802999998814,403.0130473000004,None,ScrollUp,정답입니다,403.0130473000004,None,403.0130473000004,None,403.0130473000004,None,403.0130473000004,None,403.91411130000006,None,403.91411130000006,404.41372090000004,,,,,,,,,,,,,,,,204,2022-04-27_13h02.59.787,FishGame,2022.1.1,60.00830514941717,
,4,넌 논리적이야,2,Green,A,5.666666666666666,4.633333333333334,ScrollDown,ScrollUp,Green.png,3,Positive,Congruent,,,,,0,0,0,0,,,,,,,,,,,,,,,,,,,,,0,3,3,3,,,,,,,,,,,,,,,,,,,,,,,,,,,,,,,,,,,,,,,,,,,,,,,,,,,,,,,,,,,,,,,,,,,,,,,,,1.0694444576899211,0.9779923999999482,405.07664980000027,None,ScrollDown,정답입니다,405.07664980000027,None,405.07664980000027,None,405.07664980000027,None,405.07664980000027,None,405.91365220000034,None,405.91365220000034,406.4134608000004,,,,,,,,,,,,,,,,204,2022-04-27_13h02.59.787,FishGame,2022.1.1,60.00830514941717,
,5,넌 과묵해,3,Green,A,3.875,4.4,ScrollDown,ScrollUp,Green.png,3,Neutral,Neutral,,,,,0,0,0,0,,,,,,,,,,,,,,,,,,,,,0,4,4,4,,,,,,,,,,,,,,,,,,,,,,,,,,,,,,,,,,,,,,,,,,,,,,,,,,,,,,,,,,,,,,,,,,,,,,,,,1,0.8726723999998285,407.0756703000002,None,ScrollDown,정답입니다,407.0756703000002,None,407.0756703000002,None,407.0756703000002,None,407.0756703000002,None,407.8069504,None,407.8069504,408.3133965000002,,,,,,,,,,,,,,,,204,2022-04-27_13h02.59.787,FishGame,2022.1.1,60.00830514941717,
,6,나를 데려가줘,6,Orange,B,0,0,ScrollDown,ScrollUp,Orange.png,3,NonTarget,NonTarget,,,,,0,0,0,0,,,,,,,,,,,,,,,,,,,,,0,5,5,5,,,,,,,,,,,,,,,,,,,,,,,,,,,,,,,,,,,,,,,,,,,,,,,,,,,,,,,,,,,,,,,,,,,,,,,,,1,1.1382956999996168,408.97061180000037,None,ScrollDown,정답입니다,408.97061180000037,None,408.97061180000037,None,408.97061180000037,None,408.97061180000037,None,409.9798968,None,409.9798968,410.47968360000004,,,,,,,,,,,,,,,,204,2022-04-27_13h02.59.787,FishGame,2022.1.1,60.00830514941717,
,7,넌 미숙해,4,Orange,B,3,3,ScrollUp,ScrollDown,Orange.png,3,Negative,Congruent,,,,,0,0,0,0,,,,,,,,,,,,,,,,,,,,,0,6,6,6,,,,,,,,,,,,,,,,,,,,,,,,,,,,,,,,,,,,,,,,,,,,,,,,,,,,,,,,,,,,,,,,,,,,,,,,,1.9675925771395366,0.9846956000001228,411.1400940000003,None,ScrollUp,정답입니다,411.1400940000003,None,411.1400940000003,None,411.1400940000003,None,411.1400940000003,None,411.98540230000026,None,411.98540230000026,412.49619810000013,,,,,,,,,,,,,,,,204,2022-04-27_13h02.59.787,FishGame,2022.1.1,60.00830514941717,
,8,나를 보내줘,6,Green,A,0,0,ScrollUp,ScrollDown,Green.png,3,NonTarget,NonTarget,,,,,0,0,0,0,,,,,,,,,,,,,,,,,,,,,0,7,7,7,,,,,,,,,,,,,,,,,,,,,,,,,,,,,,,,,,,,,,,,,,,,,,,,,,,,,,,,,,,,,,,,,,,,,,,,,1.8348765522241592,1.1088580000000547,413.14571079999996,None,ScrollUp,정답입니다,413.14571079999996,None,413.14571079999996,None,413.14571079999996,None,413.14571079999996,None,414.12948840000035,None,414.12948840000035,414.6291352000003,,,,,,,,,,,,,,,,204,2022-04-27_13h02.59.787,FishGame,2022.1.1,60.00830514941717,
,9,넌 자신만만해,3,Orange,B,4.833333333333334,4.333333333333333,ScrollUp,ScrollDown,Orange.png,3,Neutral,Neutral,,,,,0,0,0,0,,,,,,,,,,,,,,,,,,,,,0,8,8,8,,,,,,,,,,,,,,,,,,,,,,,,,,,,,,,,,,,,,,,,,,,,,,,,,,,,,,,,,,,,,,,,,,,,,,,,,1.8209876517454784,1.1620496999998977,415.2968688000001,None,ScrollUp,정답입니다,415.2968688000001,None,415.2968688000001,None,415.2968688000001,None,415.2968688000001,None,416.3122939,None,416.3122939,416.812132,,,,,,,,,,,,,,,,204,2022-04-27_13h02.59.787,FishGame,2022.1.1,60.00830514941717,
,10,넌 탐욕스러워,5,Green,A,2.25,2.1,ScrollDown,ScrollUp,Green.png,3,Negative,Incongruent,,,,,0,0,0,0,,,,,,,,,,,,,,,,,,,,,0,9,9,9,,,,,,,,,,,,,,,,,,,,,,,,,,,,,,,,,,,,,,,,,,,,,,,,,,,,,,,,,,,,,,,,,,,,,,,,,1,0.9327918000003592,417.4791833000004,None,ScrollDown,정답입니다,417.4791833000004,None,417.4791833000004,None,417.4791833000004,None,417.4791833000004,None,418.26841200000035,None,418.26841200000035,418.7786149000003,,,,,,,,,,,,,,,,204,2022-04-27_13h02.59.787,FishGame,2022.1.1,60.00830514941717,
,11,넌 인기있어,2,Green,A,5.458333333333333,4.5,ScrollDown,ScrollUp,Green.png,3,Positive,Congruent,,,,,0,0,0,0,,,,,,,,,,,,,,,,,,,,,0,10,10,10,,,,,,,,,,,,,,,,,,,,,,,,,,,,,,,,,,,,,,,,,,,,,,,,,,,,,,,,,,,,,,,,,,,,,,,,,1,1.0150507000003017,419.4287008000001,None,ScrollDown,정답입니다,419.4287008000001,None,419.4287008000001,None,419.4287008000001,None,419.4287008000001,None,420.3166683000004,None,420.3166683000004,420.8283133,,,,,,,,,,,,,,,,204,2022-04-27_13h02.59.787,FishGame,2022.1.1,60.00830514941717,
,12,나를 데려가줘,6,Orange,B,0,0,ScrollDown,ScrollUp,Orange.png,3,NonTarget,NonTarget,,,,,0,0,0,0,,,,,,,,,,,,,,,,,,,,,0,11,11,11,,,,,,,,,,,,,,,,,,,,,,,,,,,,,,,,,,,,,,,,,,,,,,,,,,,,,,,,,,,,,,,,,,,,,,,,,1.1064814925193787,1.1917840999999498,421.4918826000003,None,ScrollDown,정답입니다,421.4918826000003,None,421.4918826000003,None,421.4918826000003,None,421.4918826000003,None,422.5449529000002,None,422.5449529000002,423.0447519000004,,,,,,,,,,,,,,,,204,2022-04-27_13h02.59.787,FishGame,2022.1.1,60.00830514941717,
,13,넌 뛰어나,2,Orange,B,6.166666666666667,4,ScrollUp,ScrollDown,Orange.png,3,Positive,Incongruent,,,,,0,0,0,0,,,,,,,,,,,,,,,,,,,,,0,12,12,12,,,,,,,,,,,,,,,,,,,,,,,,,,,,,,,,,,,,,,,,,,,,,,,,,,,,,,,,,,,,,,,,,,,,,,,,,2,0.9478154999997059,423.7053555000002,None,ScrollUp,정답입니다,423.7053555000002,None,423.7053555000002,None,423.7053555000002,None,423.7053555000002,None,424.5146436,None,424.5146436,425.02774120000004,,,,,,,,,,,,,,,,204,2022-04-27_13h02.59.787,FishGame,2022.1.1,60.00830514941717,
,14,넌 낙관적이야,1,Green,A,5.75,5.8,ScrollDown,ScrollUp,Green.png,3,Positive,Congruent,,,,,0,0,0,0,,,,,,,,,,,,,,,,,,,,,0,13,13,13,,,,,,,,,,,,,,,,,,,,,,,,,,,,,,,,,,,,,,,,,,,,,,,,,,,,,,,,,,,,,,,,,,,,,,,,,1,1.0329262999998718,425.69235100000014,None,ScrollDown,정답입니다,425.69235100000014,None,425.69235100000014,None,425.69235100000014,None,425.69235100000014,None,426.5823553,None,426.5823553,427.09412020000036,,,,,,,,,,,,,,,,204,2022-04-27_13h02.59.787,FishGame,2022.1.1,60.00830514941717,
,15,넌 산만해,4,Orange,B,2.695652173913043,3.033333333333333,ScrollUp,ScrollDown,Orange.png,3,Negative,Congruent,,,,,0,0,0,0,,,,,,,,,,,,,,,,,,,,,0,14,14,14,,,,,,,,,,,,,,,,,,,,,,,,,,,,,,,,,,,,,,,,,,,,,,,,,,,,,,,,,,,,,,,,,,,,,,,,,1.7777777860562007,0.9851648999997451,427.75305560000015,None,ScrollUp,정답입니다,427.75305560000015,None,427.75305560000015,None,427.75305560000015,None,427.75305560000015,None,428.59993080000004,None,428.59993080000004,429.1105613,,,,,,,,,,,,,,,,204,2022-04-27_13h02.59.787,FishGame,2022.1.1,60.00830514941717,
,16,나를 보내줘,6,Green,A,0,0,ScrollUp,ScrollDown,Green.png,3,NonTarget,NonTarget,,,,,0,0,0,0,,,,,,,,,,,,,,,,,,,,,0,15,15,15,,,,,,,,,,,,,,,,,,,,,,,,,,,,,,,,,,,,,,,,,,,,,,,,,,,,,,,,,,,,,,,,,,,,,,,,,1.8302469104528427,1.038589299999785,429.76053560000037,None,ScrollUp,정답입니다,429.76053560000037,None,429.76053560000037,None,429.76053560000037,None,429.76053560000037,None,430.67046930000015,None,430.67046930000015,431.17705490000026,,,,,,,,,,,,,,,,204,2022-04-27_13h02.59.787,FishGame,2022.1.1,60.00830514941717,
,17,넌 교활해,5,Orange,B,2.333333333333333,2.133333333333333,ScrollUp,ScrollDown,Orange.png,3,Negative,Congruent,,,,,0,0,0,0,,,,,,,,,,,,,,,,,,,,,0,16,16,16,,,,,,,,,,,,,,,,,,,,,,,,,,,,,,,,,,,,,,,,,,,,,,,,,,,,,,,,,,,,,,,,,,,,,,,,,2,1.1387273000000278,431.8437375000003,None,ScrollUp,정답입니다,431.8437375000003,None,431.8437375000003,None,431.8437375000003,None,431.8437375000003,None,432.8365133000002,None,432.8365133000002,433.3433540000001,,,,,,,,,,,,,,,,204,2022-04-27_13h02.59.787,FishGame,2022.1.1,60.00830514941717,
,18,나를 보내줘,6,Green,A,0,0,ScrollUp,ScrollDown,Green.png,3,NonTarget,NonTarget,,,,,0,0,0,0,,,,,,,,,,,,,,,,,,,,,0,17,17,17,,,,,,,,,,,,,,,,,,,,,,,,,,,,,,,,,,,,,,,,,,,,,,,,,,,,,,,,,,,,,,,,,,,,,,,,,1.9814815024534862,1.0839814000000842,433.99228700000003,None,ScrollUp,정답입니다,433.99228700000003,None,433.99228700000003,None,433.99228700000003,None,433.99228700000003,None,434.9495186000004,None,434.9495186000004,435.4598476000001,,,,,,,,,,,,,,,,204,2022-04-27_13h02.59.787,FishGame,2022.1.1,60.00830514941717,
,19,넌 불친절해,5,Orange,B,2.208333333333333,2.033333333333333,ScrollUp,ScrollDown,Orange.png,3,Negative,Congruent,,,,,0,0,0,0,,,,,,,,,,,,,,,,,,,,,0,18,18,18,,,,,,,,,,,,,,,,,,,,,,,,,,,,,,,,,,,,,,,,,,,,,,,,,,,,,,,,,,,,,,,,,,,,,,,,,1.9969135920206706,1.0838472000000365,436.12725,None,ScrollUp,정답입니다,436.12725,None,436.12725,None,436.12725,None,436.12725,None,437.06470100000024,None,437.06470100000024,437.57614710000007,,,,,,,,,,,,,,,,204,2022-04-27_13h02.59.787,FishGame,2022.1.1,60.00830514941717,
,20,넌 지적이야,2,Orange,B,5.75,4.366666666666666,ScrollUp,ScrollDown,Orange.png,3,Positive,Incongruent,,,,,0,0,0,0,,,,,,,,,,,,,,,,,,,,,0,19,19,19,,,,,,,,,,,,,,,,,,,,,,,,,,,,,,,,,,,,,,,,,,,,,,,,,,,,,,,,,,,,,,,,,,,,,,,,,1.9459876318772633,0.9156781000001502,438.2388197,None,ScrollUp,정답입니다,438.2388197,None,438.2388197,None,438.2388197,None,438.2388197,None,439.01356110000006,None,439.01356110000006,439.5259086000001,,,,,,,,,,,,,,,,204,2022-04-27_13h02.59.787,FishGame,2022.1.1,60.00830514941717,
,21,넌 우유부단해,4,Green,A,2.666666666666667,3.166666666666667,ScrollDown,ScrollUp,Green.png,3,Negative,Incongruent,,,,,0,0,0,0,,,,,,,,,,,,,,,,,,,,,0,20,20,20,,,,,,,,,,,,,,,,,,,,,,,,,,,,,,,,,,,,,,,,,,,,,,,,,,,,,,,,,,,,,,,,,,,,,,,,,1,0.876025799999752,440.18771140000035,None,ScrollDown,정답입니다,440.18771140000035,None,440.18771140000035,None,440.18771140000035,None,440.18771140000035,None,440.92579950000027,None,440.92579950000027,441.4256507,,,,,,,,,,,,,,,,204,2022-04-27_13h02.59.787,FishGame,2022.1.1,60.00830514941717,
,22,나를 데려가줘,6,Orange,B,0,0,ScrollDown,ScrollUp,Orange.png,3,NonTarget,NonTarget,,,,,0,0,0,0,,,,,,,,,,,,,,,,,,,,,0,21,21,21,,,,,,,,,,,,,,,,,,,,,,,,,,,,,,,,,,,,,,,,,,,,,,,,,,,,,,,,,,,,,,,,,,,,,,,,,1,1.1171595000000707,442.0911567000003,None,ScrollDown,정답입니다,442.0911567000003,None,442.0911567000003,None,442.0911567000003,None,442.0911567000003,None,443.0662632000003,None,443.0662632000003,443.5753479,,,,,,,,,,,,,,,,204,2022-04-27_13h02.59.787,FishGame,2022.1.1,60.00830514941717,
,23,넌 성실해,1,Orange,B,6.041666666666666,5.7,ScrollUp,ScrollDown,Orange.png,3,Positive,Incongruent,,,,,0,0,0,0,,,,,,,,,,,,,,,,,,,,,0,22,22,22,,,,,,,,,,,,,,,,,,,,,,,,,,,,,,,,,,,,,,,,,,,,,,,,,,,,,,,,,,,,,,,,,,,,,,,,,1.8024691343307495,1.006892599999901,444.2321321000004,None,ScrollUp,정답입니다,444.2321321000004,None,444.2321321000004,None,444.2321321000004,None,444.2321321000004,None,445.1084695000004,None,445.1084695000004,445.60855900000024,,,,,,,,,,,,,,,,204,2022-04-27_13h02.59.787,FishGame,2022.1.1,60.00830514941717,
,24,넌 현실주의적이야,3,Green,A,4.625,4.4,ScrollDown,ScrollUp,Green.png,3,Neutral,Neutral,,,,,0,0,0,0,,,,,,,,,,,,,,,,,,,,,0,23,23,23,,,,,,,,,,,,,,,,,,,,,,,,,,,,,,,,,,,,,,,,,,,,,,,,,,,,,,,,,,,,,,,,,,,,,,,,,1.0416666567325592,0.9824939000000086,446.2693572000003,None,ScrollDown,정답입니다,446.2693572000003,None,446.2693572000003,None,446.2693572000003,None,446.2693572000003,None,447.11402510000016,None,447.11402510000016,447.6248529000004,,,,,,,,,,,,,,,,204,2022-04-27_13h02.59.787,FishGame,2022.1.1,60.00830514941717,
,25,넌 진실돼,1,Green,A,6.625,5.566666666666666,ScrollDown,ScrollUp,Green.png,3,Positive,Congruent,,,,,0,0,0,0,,,,,,,,,,,,,,,,,,,,,0,24,24,24,,,,,,,,,,,,,,,,,,,,,,,,,,,,,,,,,,,,,,,,,,,,,,,,,,,,,,,,,,,,,,,,,,,,,,,,,1,0.8724820000002182,448.28801420000036,None,ScrollDown,정답입니다,448.28801420000036,None,448.28801420000036,None,448.28801420000036,None,448.28801420000036,None,449.0180894,None,449.0180894,449.5246121,,,,,,,,,,,,,,,,204,2022-04-27_13h02.59.787,FishGame,2022.1.1,60.00830514941717,
,26,넌 천진난만해,3,Orange,B,4.958333333333334,4.833333333333333,ScrollUp,ScrollDown,Orange.png,3,Neutral,Neutral,,,,,0,0,0,0,,,,,,,,,,,,,,,,,,,,,0,25,25,25,,,,,,,,,,,,,,,,,,,,,,,,,,,,,,,,,,,,,,,,,,,,,,,,,,,,,,,,,,,,,,,,,,,,,,,,,2,1.0718982000003052,450.18700160000026,None,ScrollUp,정답입니다,450.18700160000026,None,450.18700160000026,None,450.18700160000026,None,450.18700160000026,None,451.1175865,None,451.1175865,451.6244203000001,,,,,,,,,,,,,,,,204,2022-04-27_13h02.59.787,FishGame,2022.1.1,60.00830514941717,
,27,넌 교양없어,5,Green,A,2.416666666666667,2.2,ScrollDown,ScrollUp,Green.png,3,Negative,Incongruent,,,,,0,0,0,0,,,,,,,,,,,,,,,,,,,,,0,26,26,26,,,,,,,,,,,,,,,,,,,,,,,,,,,,,,,,,,,,,,,,,,,,,,,,,,,,,,,,,,,,,,,,,,,,,,,,,1,0.8954733000000488,452.2875304000004,None,ScrollDown,정답입니다,452.2875304000004,None,452.2875304000004,None,452.2875304000004,None,452.2875304000004,None,453.04294690000006,None,453.04294690000006,453.55743280000024,,,,,,,,,,,,,,,,204,2022-04-27_13h02.59.787,FishGame,2022.1.1,60.00830514941717,
,28,나를 보내줘,6,Green,A,0,0,ScrollUp,ScrollDown,Green.png,3,NonTarget,NonTarget,,,,,0,0,0,0,,,,,,,,,,,,,,,,,,,,,0,27,27,27,,,,,,,,,,,,,,,,,,,,,,,,,,,,,,,,,,,,,,,,,,,,,,,,,,,,,,,,,,,,,,,,,,,,,,,,,2,1.0177874000000884,454.2105292000001,None,ScrollUp,정답입니다,454.2105292000001,None,454.2105292000001,None,454.2105292000001,None,454.2105292000001,None,455.09595400000035,None,455.09595400000035,455.60720040000024,,,,,,,,,,,,,,,,204,2022-04-27_13h02.59.787,FishGame,2022.1.1,60.00830514941717,
,29,넌 엉뚱스러워,3,Green,A,4.166666666666667,4.133333333333334,ScrollDown,ScrollUp,Green.png,3,Neutral,Neutral,,,,,0,0,0,0,,,,,,,,,,,,,,,,,,,,,0,28,28,28,,,,,,,,,,,,,,,,,,,,,,,,,,,,,,,,,,,,,,,,,,,,,,,,,,,,,,,,,,,,,,,,,,,,,,,,,1,0.993238399999882,456.2637856000001,None,ScrollDown,정답입니다,456.2637856000001,None,456.2637856000001,None,456.2637856000001,None,456.2637856000001,None,457.1239429000002,None,457.1239429000002,457.62362759999996,,,,,,,,,,,,,,,,204,2022-04-27_13h02.59.787,FishGame,2022.1.1,60.00830514941717,
,30,넌 무지해,4,Orange,B,2.541666666666667,3.066666666666667,ScrollUp,ScrollDown,Orange.png,3,Negative,Congruent,,,,,0,0,0,0,,,,,,,,,,,,,,,,,,,,,0,29,29,29,,,,,,,,,,,,,,,,,,,,,,,,,,,,,,,,,,,,,,,,,,,,,,,,,,,,,,,,,,,,,,,,,,,,,,,,,1.9367283980051677,0.9348109000002296,458.2875801,None,ScrollUp,정답입니다,458.2875801,None,458.2875801,None,458.2875801,None,458.2875801,None,459.0800624000003,None,459.0800624000003,459.59019190000026,,,,,,,,,,,,,,,,204,2022-04-27_13h02.59.787,FishGame,2022.1.1,60.00830514941717,
,31,넌 음울해,5,Orange,B,2.25,2.233333333333333,ScrollUp,ScrollDown,Orange.png,3,Negative,Congruent,,,,,0,0,0,0,,,,,,,,,,,,,,,,,,,,,0,30,30,30,,,,,,,,,,,,,,,,,,,,,,,,,,,,,,,,,,,,,,,,,,,,,,,,,,,,,,,,,,,,,,,,,,,,,,,,,1.7638888855775197,1.0044223999998394,460.25640580000027,None,ScrollUp,정답입니다,460.25640580000027,None,460.25640580000027,None,460.25640580000027,None,460.25640580000027,None,461.1170229000004,None,461.1170229000004,461.6229951,,,,,,,,,,,,,,,,204,2022-04-27_13h02.59.787,FishGame,2022.1.1,60.00830514941717,
,32,넌 냉소적이야,5,Green,A,2.916666666666667,2.4,ScrollDown,ScrollUp,Green.png,3,Negative,Incongruent,,,,,0,0,0,0,,,,,,,,,,,,,,,,,,,,,0,31,31,31,,,,,,,,,,,,,,,,,,,,,,,,,,,,,,,,,,,,,,,,,,,,,,,,,,,,,,,,,,,,,,,,,,,,,,,,,1.174382706483205,0.8992974000002505,462.27546310000025,None,ScrollDown,정답입니다,462.27546310000025,None,462.27546310000025,None,462.27546310000025,None,462.27546310000025,None,463.04595700000027,None,463.04595700000027,463.55618470000036,,,,,,,,,,,,,,,,204,2022-04-27_13h02.59.787,FishGame,2022.1.1,60.00830514941717,
,33,나를 데려가줘,6,Orange,B,0,0,ScrollDown,ScrollUp,Orange.png,3,NonTarget,NonTarget,,,,,0,0,0,0,,,,,,,,,,,,,,,,,,,,,0,32,32,32,,,,,,,,,,,,,,,,,,,,,,,,,,,,,,,,,,,,,,,,,,,,,,,,,,,,,,,,,,,,,,,,,,,,,,,,,1.1064814925193787,1.0340415000000576,464.22053400000004,None,ScrollDown,정답입니다,464.22053400000004,None,464.22053400000004,None,464.22053400000004,None,464.22053400000004,None,465.1123987000001,None,465.1123987000001,465.62255380000033,,,,,,,,,,,,,,,,204,2022-04-27_13h02.59.787,FishGame,2022.1.1,60.00830514941717,
,34,넌 쾌활해,1,Green,A,5.541666666666666,5.733333333333333,ScrollDown,ScrollUp,Green.png,3,Positive,Congruent,,,,,0,0,0,0,,,,,,,,,,,,,,,,,,,,,0,33,33,33,,,,,,,,,,,,,,,,,,,,,,,,,,,,,,,,,,,,,,,,,,,,,,,,,,,,,,,,,,,,,,,,,,,,,,,,,1.0154321193695068,0.8490265999998883,466.2800550000002,None,ScrollDown,정답입니다,466.2800550000002,None,466.2800550000002,None,466.2800550000002,None,466.2800550000002,None,466.9939558000001,None,466.9939558000001,467.505682,,,,,,,,,,,,,,,,204,2022-04-27_13h02.59.787,FishGame,2022.1.1,60.00830514941717,
,35,나를 보내줘,6,Green,A,0,0,ScrollUp,ScrollDown,Green.png,3,NonTarget,NonTarget,,,,,0,0,0,0,,,,,,,,,,,,,,,,,,,,,0,34,34,34,,,,,,,,,,,,,,,,,,,,,,,,,,,,,,,,,,,,,,,,,,,,,,,,,,,,,,,,,,,,,,,,,,,,,,,,,1.787037044763565,0.9999119000003702,468.1623381000004,None,ScrollUp,정답입니다,468.1623381000004,None,468.1623381000004,None,468.1623381000004,None,468.1623381000004,None,469.02681140000004,None,469.02681140000004,469.5387122000002,,,,,,,,,,,,,,,,204,2022-04-27_13h02.59.787,FishGame,2022.1.1,60.00830514941717,
,36,넌 명랑해,1,Orange,B,5.739130434782609,5.666666666666667,ScrollUp,ScrollDown,Orange.png,3,Positive,Incongruent,,,,,0,0,0,0,,,,,,,,,,,,,,,,,,,,,0,35,35,35,,,,,,,,,,,,,,,,,,,,,,,,,,,,,,,,,,,,,,,,,,,,,,,,,,,,,,,,,,,,,,,,,,,,,,,,,1.9444444676240284,0.9599622999999156,470.2038967000003,None,ScrollUp,정답입니다,470.2038967000003,None,470.2038967000003,None,470.2038967000003,None,470.2038967000003,None,471.0218850000001,None,471.0218850000001,471.52176980000013,,,,,,,,,,,,,,,,204,2022-04-27_13h02.59.787,FishGame,2022.1.1,60.00830514941717,
,37,넌 멍해,4,Green,A,2.833333333333333,3.4,ScrollDown,ScrollUp,Green.png,3,Negative,Incongruent,,,,,0,0,0,0,,,,,,,,,,,,,,,,,,,,,0,36,36,36,,,,,,,,,,,,,,,,,,,,,,,,,,,,,,,,,,,,,,,,,,,,,,,,,,,,,,,,,,,,,,,,,,,,,,,,,1,0.9588020000001052,472.1809760000001,None,ScrollDown,정답입니다,472.1809760000001,None,472.1809760000001,None,472.1809760000001,None,472.1809760000001,None,473.00499000000036,None,473.00499000000036,473.50497970000015,,,,,,,,,,,,,,,,204,2022-04-27_13h02.59.787,FishGame,2022.1.1,60.00830514941717,
,38,나를 데려가줘,6,Orange,B,0,0,ScrollDown,ScrollUp,Orange.png,3,NonTarget,NonTarget,,,,,0,0,0,0,,,,,,,,,,,,,,,,,,,,,0,37,37,37,,,,,,,,,,,,,,,,,,,,,,,,,,,,,,,,,,,,,,,,,,,,,,,,,,,,,,,,,,,,,,,,,,,,,,,,,1,1.1052801999999247,474.1700609000004,None,ScrollDown,정답입니다,474.1700609000004,None,474.1700609000004,None,474.1700609000004,None,474.1700609000004,None,475.1311254000002,None,475.1311254000002,475.63799240000026,,,,,,,,,,,,,,,,204,2022-04-27_13h02.59.787,FishGame,2022.1.1,60.00830514941717,
,39,넌 현명해,2,Green,A,6.541666666666666,4.533333333333333,ScrollDown,ScrollUp,Green.png,3,Positive,Congruent,,,,,0,0,0,0,,,,,,,,,,,,,,,,,,,,,0,38,38,38,,,,,,,,,,,,,,,,,,,,,,,,,,,,,,,,,,,,,,,,,,,,,,,,,,,,,,,,,,,,,,,,,,,,,,,,,1,0.921057799999744,476.2936258,None,ScrollDown,정답입니다,476.2936258,None,476.2936258,None,476.2936258,None,476.2936258,None,477.0878611000003,None,477.0878611000003,477.5877273000001,,,,,,,,,,,,,,,,204,2022-04-27_13h02.59.787,FishGame,2022.1.1,60.00830514941717,
,40,넌 수줍어,3,Orange,B,3.541666666666666,4.366666666666666,ScrollUp,ScrollDown,Orange.png,3,Neutral,Neutral,,,,,0,0,0,0,,,,,,,,,,,,,,,,,,,,,0,39,39,39,,,,,,,,,,,,,,,,,,,,,,,,,,,,,,,,,,,,,,,,,,,,,,,,,,,,,,,,,,,,,,,,,,,,,,,,,2,0.854457000000366,478.24982980000004,None,ScrollUp,정답입니다,478.24982980000004,None,478.24982980000004,None,478.24982980000004,None,478.24982980000004,None,478.96382440000025,None,478.96382440000025,479.470781,,,,,,,,,,,,,,,,204,2022-04-27_13h02.59.787,FishGame,2022.1.1,60.00830514941717,
,41,나를 데려가줘,6,Orange,B,0,0,ScrollDown,ScrollUp,Orange.png,3,NonTarget,NonTarget,,,,,0,0,0,0,,,,,,,,,,,,,,,,,,,,,0,40,40,40,,,,,,,,,,,,,,,,,,,,,,,,,,,,,,,,,,,,,,,,,,,,,,,,,,,,,,,,,,,,,,,,,,,,,,,,,1.0308642089366913,0.9747138000002451,480.1372257000003,None,ScrollDown,정답입니다,480.1372257000003,None,480.1372257000003,None,480.1372257000003,None,480.1372257000003,None,480.9708220000002,None,480.9708220000002,481.47055660000024,,,,,,,,,,,,,,,,204,2022-04-27_13h02.59.787,FishGame,2022.1.1,60.00830514941717,
,42,넌 성숙해,2,Orange,B,5.833333333333333,4.533333333333333,ScrollUp,ScrollDown,Orange.png,3,Positive,Incongruent,,,,,0,0,0,0,,,,,,,,,,,,,,,,,,,,,0,41,41,41,,,,,,,,,,,,,,,,,,,,,,,,,,,,,,,,,,,,,,,,,,,,,,,,,,,,,,,,,,,,,,,,,,,,,,,,,2,1.0046648000002278,482.1270846000002,None,ScrollUp,정답입니다,482.1270846000002,None,482.1270846000002,None,482.1270846000002,None,482.1270846000002,None,482.9969040000001,None,482.9969040000001,483.5035634000001,,,,,,,,,,,,,,,,204,2022-04-27_13h02.59.787,FishGame,2022.1.1,60.00830514941717,
,1,넌 매력적이야,2,Orange,B,6.125,4.666666666666667,ScrollUp,ScrollDown,Orange.png,4,Positive,Incongruent,,,,,0,0,0,0,,,,,,,,,,,,,,,,,,,,,,,,,0,0,0,0,,,,,,,,,,,,,,,,,,,,,,,,,,,,515.5332352,517.0326178,517.0659399000001,518.0157891000003,518.0658332000003,519.015844,519.015844,None,,,,,,,,,,,,,,,,,,,,,,,,,,,,,,,,,,1.9012345770994823,1.1030313000001115,520.2199676,None,ScrollUp,정답입니다,520.2199676,None,520.2199676,None,520.2199676,None,520.2199676,None,521.1337937000003,None,521.1337937000003,521.6486309000002,484.0034796,None,484.0034796,None,0.06851852,-0.08981481,1,0,0,0.016200260000005073,None,514.016263,None,,,204,2022-04-27_13h02.59.787,FishGame,2022.1.1,60.00830514941717,
,2,나를 보내줘,6,Green,A,0,0,ScrollUp,ScrollDown,Green.png,4,NonTarget,NonTarget,,,,,0,0,0,0,,,,,,,,,,,,,,,,,,,,,,,,,0,1,1,1,,,,,,,,,,,,,,,,,,,,,,,,,,,,,,,,,,,,,,,,,,,,,,,,,,,,,,,,,,,,,,,,,,,,,1.9537037014961243,1.1018090999996275,522.3051027000001,None,ScrollUp,정답입니다,522.3051027000001,None,522.3051027000001,None,522.3051027000001,None,522.3051027000001,None,523.2702251000001,None,523.2702251000001,523.7817260000002,,,,,,,,,,,,,,,,204,2022-04-27_13h02.59.787,FishGame,2022.1.1,60.00830514941717,
,3,넌 조심스러워,3,Green,A,4.791666666666666,4.666666666666667,ScrollDown,ScrollUp,Green.png,4,Neutral,Neutral,,,,,0,0,0,0,,,,,,,,,,,,,,,,,,,,,,,,,0,2,2,2,,,,,,,,,,,,,,,,,,,,,,,,,,,,,,,,,,,,,,,,,,,,,,,,,,,,,,,,,,,,,,,,,,,,,1,0.8910037000000557,524.4332185000003,None,ScrollDown,정답입니다,524.4332185000003,None,524.4332185000003,None,524.4332185000003,None,524.4332185000003,None,525.1981533000003,None,525.1981533000003,525.6981975000003,,,,,,,,,,,,,,,,204,2022-04-27_13h02.59.787,FishGame,2022.1.1,60.00830514941717,
,4,넌 철학적이야,3,Orange,B,4.5,4.266666666666667,ScrollUp,ScrollDown,Orange.png,4,Neutral,Neutral,,,,,0,0,0,0,,,,,,,,,,,,,,,,,,,,,,,,,0,3,3,3,,,,,,,,,,,,,,,,,,,,,,,,,,,,,,,,,,,,,,,,,,,,,,,,,,,,,,,,,,,,,,,,,,,,,1.9845678806304932,0.9278094999999666,526.3726620000002,None,ScrollUp,정답입니다,526.3726620000002,None,526.3726620000002,None,526.3726620000002,None,526.3726620000002,None,527.1478556000002,None,527.1478556000002,527.6480768000001,,,,,,,,,,,,,,,,204,2022-04-27_13h02.59.787,FishGame,2022.1.1,60.00830514941717,
,5,넌 쩨쩨해,5,Green,A,2.375,2.133333333333333,ScrollDown,ScrollUp,Green.png,4,Negative,Incongruent,,,,,0,0,0,0,,,,,,,,,,,,,,,,,,,,,,,,,0,4,4,4,,,,,,,,,,,,,,,,,,,,,,,,,,,,,,,,,,,,,,,,,,,,,,,,,,,,,,,,,,,,,,,,,,,,,1.0632716019948323,0.8685935999997128,528.3081961000003,None,ScrollDown,정답입니다,528.3081961000003,None,528.3081961000003,None,528.3081961000003,None,528.3081961000003,None,529.0401335000001,None,529.0401335000001,529.5476239,,,,,,,,,,,,,,,,204,2022-04-27_13h02.59.787,FishGame,2022.1.1,60.00830514941717,
,6,나를 데려가줘,6,Orange,B,0,0,ScrollDown,ScrollUp,Orange.png,4,NonTarget,NonTarget,,,,,0,0,0,0,,,,,,,,,,,,,,,,,,,,,,,,,0,5,5,5,,,,,,,,,,,,,,,,,,,,,,,,,,,,,,,,,,,,,,,,,,,,,,,,,,,,,,,,,,,,,,,,,,,,,1.1126543233791988,1.103992400000152,530.2047568000003,None,ScrollDown,정답입니다,530.2047568000003,None,530.2047568000003,None,530.2047568000003,None,530.2047568000003,None,531.1734839000001,None,531.1734839000001,531.6806843000004,,,,,,,,,,,,,,,,204,2022-04-27_13h02.59.787,FishGame,2022.1.1,60.00830514941717,
,7,넌 고집불통이야,5,Orange,B,2.875,2,ScrollUp,ScrollDown,Orange.png,4,Negative,Congruent,,,,,0,0,0,0,,,,,,,,,,,,,,,,,,,,,,,,,0,6,6,6,,,,,,,,,,,,,,,,,,,,,,,,,,,,,,,,,,,,,,,,,,,,,,,,,,,,,,,,,,,,,,,,,,,,,1.959876557191213,0.9990366000001814,532.3551366000002,None,ScrollUp,정답입니다,532.3551366000002,None,532.3551366000002,None,532.3551366000002,None,532.3551366000002,None,533.2020351000001,None,533.2020351000001,533.7138817,,,,,,,,,,,,,,,,204,2022-04-27_13h02.59.787,FishGame,2022.1.1,60.00830514941717,
,8,넌 무심해,4,Green,A,2.875,3.2,ScrollDown,ScrollUp,Green.png,4,Negative,Incongruent,,,,,0,0,0,0,,,,,,,,,,,,,,,,,,,,,,,,,0,7,7,7,,,,,,,,,,,,,,,,,,,,,,,,,,,,,,,,,,,,,,,,,,,,,,,,,,,,,,,,,,,,,,,,,,,,,1,0.8815350999998373,534.3654799000001,None,ScrollDown,정답입니다,534.3654799000001,None,534.3654799000001,None,534.3654799000001,None,534.3654799000001,None,535.1180869,None,535.1180869,535.6301648000003,,,,,,,,,,,,,,,,204,2022-04-27_13h02.59.787,FishGame,2022.1.1,60.00830514941717,
,9,넌 정겨워,1,Green,A,5.791666666666667,5.666666666666667,ScrollDown,ScrollUp,Green.png,4,Positive,Congruent,,,,,0,0,0,0,,,,,,,,,,,,,,,,,,,,,,,,,0,8,8,8,,,,,,,,,,,,,,,,,,,,,,,,,,,,,,,,,,,,,,,,,,,,,,,,,,,,,,,,,,,,,,,,,,,,,1,0.8591503999996348,536.2940604,None,ScrollDown,정답입니다,536.2940604,None,536.2940604,None,536.2940604,None,536.2940604,None,537.0134799000002,None,537.0134799000002,537.5134434000001,,,,,,,,,,,,,,,,204,2022-04-27_13h02.59.787,FishGame,2022.1.1,60.00830514941717,
,10,나를 데려가줘,6,Orange,B,0,0,ScrollDown,ScrollUp,Orange.png,4,NonTarget,NonTarget,,,,,0,0,0,0,,,,,,,,,,,,,,,,,,,,,,,,,0,9,9,9,,,,,,,,,,,,,,,,,,,,,,,,,,,,,,,,,,,,,,,,,,,,,,,,,,,,,,,,,,,,,,,,,,,,,1,1.02744470000016,538.1729806000003,None,ScrollDown,정답입니다,538.1729806000003,None,538.1729806000003,None,538.1729806000003,None,538.1729806000003,None,539.0633481,None,539.0633481,539.5630947,,,,,,,,,,,,,,,,204,2022-04-27_13h02.59.787,FishGame,2022.1.1,60.00830514941717,
,11,넌 체제순응적이야,4,Orange,B,3,3.6,ScrollUp,ScrollDown,Orange.png,4,Negative,Congruent,,,,,0,0,0,0,,,,,,,,,,,,,,,,,,,,,,,,,0,10,10,10,,,,,,,,,,,,,,,,,,,,,,,,,,,,,,,,,,,,,,,,,,,,,,,,,,,,,,,,,,,,,,,,,,,,,2,0.98902870000029,540.2349576000001,None,ScrollUp,정답입니다,540.2349576000001,None,540.2349576000001,None,540.2349576000001,None,540.2349576000001,None,541.0795375000002,None,541.0795375000002,541.5795054,,,,,,,,,,,,,,,,204,2022-04-27_13h02.59.787,FishGame,2022.1.1,60.00830514941717,
,12,나를 보내줘,6,Green,A,0,0,ScrollUp,ScrollDown,Green.png,4,NonTarget,NonTarget,,,,,0,0,0,0,,,,,,,,,,,,,,,,,,,,,,,,,0,11,11,11,,,,,,,,,,,,,,,,,,,,,,,,,,,,,,,,,,,,,,,,,,,,,,,,,,,,,,,,,,,,,,,,,,,,,1.9922839502493541,1.2019952000000558,542.2424676,None,ScrollUp,정답입니다,542.2424676,None,542.2424676,None,542.2424676,None,542.2424676,None,543.3021693000001,None,543.3021693000001,543.8124805000002,,,,,,,,,,,,,,,,204,2022-04-27_13h02.59.787,FishGame,2022.1.1,60.00830514941717,
,13,넌 박식해,2,Green,A,5.625,3.933333333333333,ScrollDown,ScrollUp,Green.png,4,Positive,Congruent,,,,,0,0,0,0,,,,,,,,,,,,,,,,,,,,,,,,,0,12,12,12,,,,,,,,,,,,,,,,,,,,,,,,,,,,,,,,,,,,,,,,,,,,,,,,,,,,,,,,,,,,,,,,,,,,,1.1126543233791988,0.9613717000001998,544.475633,None,ScrollDown,정답입니다,544.475633,None,544.475633,None,544.475633,None,544.475633,None,545.2970668000003,None,545.2970668000003,545.8121860000001,,,,,,,,,,,,,,,,204,2022-04-27_13h02.59.787,FishGame,2022.1.1,60.00830514941717,
,14,나를 보내줘,6,Green,A,0,0,ScrollUp,ScrollDown,Green.png,4,NonTarget,NonTarget,,,,,0,0,0,0,,,,,,,,,,,,,,,,,,,,,,,,,0,13,13,13,,,,,,,,,,,,,,,,,,,,,,,,,,,,,,,,,,,,,,,,,,,,,,,,,,,,,,,,,,,,,,,,,,,,,1.6820987711350122,0.9890399999999318,546.4663548000003,None,ScrollUp,정답입니다,546.4663548000003,None,546.4663548000003,None,546.4663548000003,None,546.4663548000003,None,547.3287177000002,None,547.3287177000002,547.8286492000002,,,,,,,,,,,,,,,,204,2022-04-27_13h02.59.787,FishGame,2022.1.1,60.00830514941717,
,15,넌 침착해,1,Orange,B,5.458333333333333,5.566666666666666,ScrollUp,ScrollDown,Orange.png,4,Positive,Incongruent,,,,,0,0,0,0,,,,,,,,,,,,,,,,,,,,,,,,,0,14,14,14,,,,,,,,,,,,,,,,,,,,,,,,,,,,,,,,,,,,,,,,,,,,,,,,,,,,,,,,,,,,,,,,,,,,,2,1.0909123999999792,548.5006014,None,ScrollUp,정답입니다,548.5006014,None,548.5006014,None,548.5006014,None,548.5006014,None,549.4453244000001,None,549.4453244000001,549.9449370000002,,,,,,,,,,,,,,,,204,2022-04-27_13h02.59.787,FishGame,2022.1.1,60.00830514941717,
,16,나를 데려가줘,6,Orange,B,0,0,ScrollDown,ScrollUp,Orange.png,4,NonTarget,NonTarget,,,,,0,0,0,0,,,,,,,,,,,,,,,,,,,,,,,,,0,15,15,15,,,,,,,,,,,,,,,,,,,,,,,,,,,,,,,,,,,,,,,,,,,,,,,,,,,,,,,,,,,,,,,,,,,,,1,1.0352625999998963,550.6063765000004,None,ScrollDown,정답입니다,550.6063765000004,None,550.6063765000004,None,550.6063765000004,None,550.6063765000004,None,551.5008503000004,None,551.5008503000004,552.0113938000004,,,,,,,,,,,,,,,,204,2022-04-27_13h02.59.787,FishGame,2022.1.1,60.00830514941717,
,17,넌 행복해,1,Green,A,6.416666666666666,6.166666666666667,ScrollDown,ScrollUp,Green.png,4,Positive,Congruent,,,,,0,0,0,0,,,,,,,,,,,,,,,,,,,,,,,,,0,16,16,16,,,,,,,,,,,,,,,,,,,,,,,,,,,,,,,,,,,,,,,,,,,,,,,,,,,,,,,,,,,,,,,,,,,,,1.0015431940555573,1.0083936999999423,552.6743707,None,ScrollDown,정답입니다,552.6743707,None,552.6743707,None,552.6743707,None,552.6743707,None,553.5447496000002,None,553.5447496000002,554.0445975000002,,,,,,,,,,,,,,,,204,2022-04-27_13h02.59.787,FishGame,2022.1.1,60.00830514941717,
,18,넌 겸손해,2,Orange,B,5.791666666666667,4.766666666666667,ScrollUp,ScrollDown,Orange.png,4,Positive,Incongruent,,,,,0,0,0,0,,,,,,,,,,,,,,,,,,,,,,,,,0,17,17,17,,,,,,,,,,,,,,,,,,,,,,,,,,,,,,,,,,,,,,,,,,,,,,,,,,,,,,,,,,,,,,,,,,,,,2,0.9792864000000918,554.717971,None,ScrollUp,정답입니다,554.717971,None,554.717971,None,554.717971,None,554.717971,None,555.5458018000004,None,555.5458018000004,556.0608367,,,,,,,,,,,,,,,,204,2022-04-27_13h02.59.787,FishGame,2022.1.1,60.00830514941717,
,19,나를 보내줘,6,Green,A,0,0,ScrollUp,ScrollDown,Green.png,4,NonTarget,NonTarget,,,,,0,0,0,0,,,,,,,,,,,,,,,,,,,,,,,,,0,18,18,18,,,,,,,,,,,,,,,,,,,,,,,,,,,,,,,,,,,,,,,,,,,,,,,,,,,,,,,,,,,,,,,,,,,,,1.7808641890684764,1.0667647999998735,556.7131221,None,ScrollUp,정답입니다,556.7131221,None,556.7131221,None,556.7131221,None,556.7131221,None,557.6491083000001,None,557.6491083000001,558.1606453000004,,,,,,,,,,,,,,,,204,2022-04-27_13h02.59.787,FishGame,2022.1.1,60.00830514941717,
,20,넌 의심없어,3,Green,A,4.166666666666667,4.6,ScrollDown,ScrollUp,Green.png,4,Neutral,Neutral,,,,,0,0,0,0,,,,,,,,,,,,,,,,,,,,,,,,,0,19,19,19,,,,,,,,,,,,,,,,,,,,,,,,,,,,,,,,,,,,,,,,,,,,,,,,,,,,,,,,,,,,,,,,,,,,,1,1.022638399999778,558.8138305000002,None,ScrollDown,정답입니다,558.8138305000002,None,558.8138305000002,None,558.8138305000002,None,558.8138305000002,None,559.7106861000002,None,559.7106861000002,560.2104487000001,,,,,,,,,,,,,,,,204,2022-04-27_13h02.59.787,FishGame,2022.1.1,60.00830514941717,
,21,넌 시시해,4,Green,A,2.666666666666667,2.966666666666667,ScrollDown,ScrollUp,Green.png,4,Negative,Incongruent,,,,,0,0,0,0,,,,,,,,,,,,,,,,,,,,,,,,,0,20,20,20,,,,,,,,,,,,,,,,,,,,,,,,,,,,,,,,,,,,,,,,,,,,,,,,,,,,,,,,,,,,,,,,,,,,,1,0.9789408000001458,560.8635782000001,None,ScrollDown,정답입니다,560.8635782000001,None,560.8635782000001,None,560.8635782000001,None,560.8635782000001,None,561.7103324,None,561.7103324,562.2102783,,,,,,,,,,,,,,,,204,2022-04-27_13h02.59.787,FishGame,2022.1.1,60.00830514941717,
,22,나를 데려가줘,6,Orange,B,0,0,ScrollDown,ScrollUp,Orange.png,4,NonTarget,NonTarget,,,,,0,0,0,0,,,,,,,,,,,,,,,,,,,,,,,,,0,21,21,21,,,,,,,,,,,,,,,,,,,,,,,,,,,,,,,,,,,,,,,,,,,,,,,,,,,,,,,,,,,,,,,,,,,,,1,1.0665414000000055,562.8675446000002,None,ScrollDown,정답입니다,562.8675446000002,None,562.8675446000002,None,562.8675446000002,None,562.8675446000002,None,563.7986088000002,None,563.7986088000002,564.3100263000001,,,,,,,,,,,,,,,,204,2022-04-27_13h02.59.787,FishGame,2022.1.1,60.00830514941717,
,23,넌 무정해,5,Green,A,2.5,2.2,ScrollDown,ScrollUp,Green.png,4,Negative,Incongruent,,,,,0,0,0,0,,,,,,,,,,,,,,,,,,,,,,,,,0,22,22,22,,,,,,,,,,,,,,,,,,,,,,,,,,,,,,,,,,,,,,,,,,,,,,,,,,,,,,,,,,,,,,,,,,,,,1,0.9713560999998663,564.9577323000003,None,ScrollDown,정답입니다,564.9577323000003,None,564.9577323000003,None,564.9577323000003,None,564.9577323000003,None,565.8024738000004,None,565.8024738000004,566.3095537000004,,,,,,,,,,,,,,,,204,2022-04-27_13h02.59.787,FishGame,2022.1.1,60.00830514941717,
,24,넌 긍정적이야,1,Orange,B,6.041666666666667,6.066666666666666,ScrollUp,ScrollDown,Orange.png,4,Positive,Incongruent,,,,,0,0,0,0,,,,,,,,,,,,,,,,,,,,,,,,,0,23,23,23,,,,,,,,,,,,,,,,,,,,,,,,,,,,,,,,,,,,,,,,,,,,,,,,,,,,,,,,,,,,,,,,,,,,,1.879629631837209,0.9328271999997924,566.9735893000002,None,ScrollUp,정답입니다,566.9735893000002,None,566.9735893000002,None,566.9735893000002,None,566.9735893000002,None,567.7651186000003,None,567.7651186000003,568.2760292000003,,,,,,,,,,,,,,,,204,2022-04-27_13h02.59.787,FishGame,2022.1.1,60.00830514941717,
,25,나를 보내줘,6,Green,A,0,0,ScrollUp,ScrollDown,Green.png,4,NonTarget,NonTarget,,,,,0,0,0,0,,,,,,,,,,,,,,,,,,,,,,,,,0,24,24,24,,,,,,,,,,,,,,,,,,,,,,,,,,,,,,,,,,,,,,,,,,,,,,,,,,,,,,,,,,,,,,,,,,,,,1.9506172736485798,1.0793691999997463,568.936263,None,ScrollUp,정답입니다,568.936263,None,568.936263,None,568.936263,None,568.936263,None,569.8784632000002,None,569.8784632000002,570.3923486000003,,,,,,,,,,,,,,,,204,2022-04-27_13h02.59.787,FishGame,2022.1.1,60.00830514941717,
,26,넌 시기심이 많아,5,Orange,B,2.458333333333333,2.233333333333333,ScrollUp,ScrollDown,Orange.png,4,Negative,Congruent,,,,,0,0,0,0,,,,,,,,,,,,,,,,,,,,,,,,,0,25,25,25,,,,,,,,,,,,,,,,,,,,,,,,,,,,,,,,,,,,,,,,,,,,,,,,,,,,,,,,,,,,,,,,,,,,,2,1.0115382999997564,571.0620256000002,None,ScrollUp,정답입니다,571.0620256000002,None,571.0620256000002,None,571.0620256000002,None,571.0620256000002,None,571.9263507000001,None,571.9263507000001,572.4256443000004,,,,,,,,,,,,,,,,204,2022-04-27_13h02.59.787,FishGame,2022.1.1,60.00830514941717,
,27,넌 탁월해,2,Green,A,5.708333333333334,4.5,ScrollDown,ScrollUp,Green.png,4,Positive,Congruent,,,,,0,0,0,0,,,,,,,,,,,,,,,,,,,,,,,,,0,26,26,26,,,,,,,,,,,,,,,,,,,,,,,,,,,,,,,,,,,,,,,,,,,,,,,,,,,,,,,,,,,,,,,,,,,,,1.0339506367842357,0.8669536999996126,573.0846198000004,None,ScrollDown,정답입니다,573.0846198000004,None,573.0846198000004,None,573.0846198000004,None,573.0846198000004,None,573.8153175000002,None,573.8153175000002,574.3252886,,,,,,,,,,,,,,,,204,2022-04-27_13h02.59.787,FishGame,2022.1.1,60.00830514941717,
,28,나를 데려가줘,6,Orange,B,0,0,ScrollDown,ScrollUp,Orange.png,4,NonTarget,NonTarget,,,,,0,0,0,0,,,,,,,,,,,,,,,,,,,,,,,,,0,27,27,27,,,,,,,,,,,,,,,,,,,,,,,,,,,,,,,,,,,,,,,,,,,,,,,,,,,,,,,,,,,,,,,,,,,,,1.0925925920406978,0.9273754000000736,574.9812870000001,None,ScrollDown,정답입니다,574.9812870000001,None,574.9812870000001,None,574.9812870000001,None,574.9812870000001,None,575.7751190000004,None,575.7751190000004,576.2750794000003,,,,,,,,,,,,,,,,204,2022-04-27_13h02.59.787,FishGame,2022.1.1,60.00830514941717,
,29,넌 조용해,3,Orange,B,4.333333333333333,4.166666666666667,ScrollUp,ScrollDown,Orange.png,4,Neutral,Neutral,,,,,0,0,0,0,,,,,,,,,,,,,,,,,,,,,,,,,0,28,28,28,,,,,,,,,,,,,,,,,,,,,,,,,,,,,,,,,,,,,,,,,,,,,,,,,,,,,,,,,,,,,,,,,,,,,2,1.0348781000002418,576.9603683,None,ScrollUp,정답입니다,576.9603683,None,576.9603683,None,576.9603683,None,576.9603683,None,577.8315118,None,577.8315118,578.3413610000002,,,,,,,,,,,,,,,,204,2022-04-27_13h02.59.787,FishGame,2022.1.1,60.00830514941717,
,30,넌 다정해,1,Green,A,5.833333333333334,5.7,ScrollDown,ScrollUp,Green.png,4,Positive,Congruent,,,,,0,0,0,0,,,,,,,,,,,,,,,,,,,,,,,,,0,29,29,29,,,,,,,,,,,,,,,,,,,,,,,,,,,,,,,,,,,,,,,,,,,,,,,,,,,,,,,,,,,,,,,,,,,,,1,0.9526410999997097,578.9979399000003,None,ScrollDown,정답입니다,578.9979399000003,None,578.9979399000003,None,578.9979399000003,None,578.9979399000003,None,579.8152375,None,579.8152375,580.3245146000004,,,,,,,,,,,,,,,,204,2022-04-27_13h02.59.787,FishGame,2022.1.1,60.00830514941717,
,31,넌 능력있어,2,Orange,B,6.166666666666666,4.6,ScrollUp,ScrollDown,Orange.png,4,Positive,Incongruent,,,,,0,0,0,0,,,,,,,,,,,,,,,,,,,,,,,,,0,30,30,30,,,,,,,,,,,,,,,,,,,,,,,,,,,,,,,,,,,,,,,,,,,,,,,,,,,,,,,,,,,,,,,,,,,,,2,0.9316983000003347,580.9808249000002,None,ScrollUp,정답입니다,580.9808249000002,None,580.9808249000002,None,580.9808249000002,None,580.9808249000002,None,581.7779619000003,None,581.7779619000003,582.2908639000002,,,,,,,,,,,,,,,,204,2022-04-27_13h02.59.787,FishGame,2022.1.1,60.00830514941717,
,32,넌 불쾌해,5,Green,A,2.125,1.933333333333333,ScrollDown,ScrollUp,Green.png,4,Negative,Incongruent,,,,,0,0,0,0,,,,,,,,,,,,,,,,,,,,,,,,,0,31,31,31,,,,,,,,,,,,,,,,,,,,,,,,,,,,,,,,,,,,,,,,,,,,,,,,,,,,,,,,,,,,,,,,,,,,,1,0.9333255000001373,582.9424418000003,None,ScrollDown,정답입니다,582.9424418000003,None,582.9424418000003,None,582.9424418000003,None,582.9424418000003,None,583.7467106000004,None,583.7467106000004,584.2573231000001,,,,,,,,,,,,,,,,204,2022-04-27_13h02.59.787,FishGame,2022.1.1,60.00830514941717,
,33,나를 데려가줘,6,Orange,B,0,0,ScrollDown,ScrollUp,Orange.png,4,NonTarget,NonTarget,,,,,0,0,0,0,,,,,,,,,,,,,,,,,,,,,,,,,0,32,32,32,,,,,,,,,,,,,,,,,,,,,,,,,,,,,,,,,,,,,,,,,,,,,,,,,,,,,,,,,,,,,,,,,,,,,1,1.2612550999997438,584.9218608000001,None,ScrollDown,정답입니다,584.9218608000001,None,584.9218608000001,None,584.9218608000001,None,584.9218608000001,None,586.0371768,None,586.0371768,586.5403606,,,,,,,,,,,,,,,,204,2022-04-27_13h02.59.787,FishGame,2022.1.1,60.00830514941717,
,34,넌 유순해,3,Green,A,4.458333333333333,5,ScrollDown,ScrollUp,Green.png,4,Neutral,Neutral,,,,,0,0,0,0,,,,,,,,,,,,,,,,,,,,,,,,,0,33,33,33,,,,,,,,,,,,,,,,,,,,,,,,,,,,,,,,,,,,,,,,,,,,,,,,,,,,,,,,,,,,,,,,,,,,,1,0.9407360000000153,587.1919816,None,ScrollDown,정답입니다,587.1919816,None,587.1919816,None,587.1919816,None,587.1919816,None,588.0071167000001,None,588.0071167000001,588.5068248000002,,,,,,,,,,,,,,,,204,2022-04-27_13h02.59.787,FishGame,2022.1.1,60.00830514941717,
,35,넌 근심스러워,4,Orange,B,2.708333333333333,3.133333333333333,ScrollUp,ScrollDown,Orange.png,4,Negative,Congruent,,,,,0,0,0,0,,,,,,,,,,,,,,,,,,,,,,,,,0,34,34,34,,,,,,,,,,,,,,,,,,,,,,,,,,,,,,,,,,,,,,,,,,,,,,,,,,,,,,,,,,,,,,,,,,,,,2,0.881960700000036,589.1695885000004,None,ScrollUp,정답입니다,589.1695885000004,None,589.1695885000004,None,589.1695885000004,None,589.1695885000004,None,589.9098812000002,None,589.9098812000002,590.4234654000002,,,,,,,,,,,,,,,,204,2022-04-27_13h02.59.787,FishGame,2022.1.1,60.00830514941717,
,36,넌 세련되었어,2,Green,A,5.5,4.6,ScrollDown,ScrollUp,Green.png,4,Positive,Congruent,,,,,0,0,0,0,,,,,,,,,,,,,,,,,,,,,,,,,0,35,35,35,,,,,,,,,,,,,,,,,,,,,,,,,,,,,,,,,,,,,,,,,,,,,,,,,,,,,,,,,,,,,,,,,,,,,1.0925925920406978,1.1258480000001327,591.0921388000002,None,ScrollDown,정답입니다,591.0921388000002,None,591.0921388000002,None,591.0921388000002,None,591.0921388000002,None,592.0728506,None,592.0728506,592.5728462000002,,,,,,,,,,,,,,,,204,2022-04-27_13h02.59.787,FishGame,2022.1.1,60.00830514941717,
,37,나를 보내줘,6,Green,A,0,0,ScrollUp,ScrollDown,Green.png,4,NonTarget,NonTarget,,,,,0,0,0,0,,,,,,,,,,,,,,,,,,,,,,,,,0,36,36,36,,,,,,,,,,,,,,,,,,,,,,,,,,,,,,,,,,,,,,,,,,,,,,,,,,,,,,,,,,,,,,,,,,,,,1.9367283980051677,0.9176162999997359,593.2262122000002,None,ScrollUp,정답입니다,593.2262122000002,None,593.2262122000002,None,593.2262122000002,None,593.2262122000002,None,594.0110480000003,None,594.0110480000003,594.5226194000002,,,,,,,,,,,,,,,,204,2022-04-27_13h02.59.787,FishGame,2022.1.1,60.00830514941717,
,38,넌 확고해,3,Orange,B,4.708333333333334,4.566666666666666,ScrollUp,ScrollDown,Orange.png,4,Neutral,Neutral,,,,,0,0,0,0,,,,,,,,,,,,,,,,,,,,,,,,,0,37,37,37,,,,,,,,,,,,,,,,,,,,,,,,,,,,,,,,,,,,,,,,,,,,,,,,,,,,,,,,,,,,,,,,,,,,,2,0.9057321999998749,595.1818326000002,None,ScrollUp,정답입니다,595.1818326000002,None,595.1818326000002,None,595.1818326000002,None,595.1818326000002,None,595.9494234000003,None,595.9494234000003,596.4557458000004,,,,,,,,,,,,,,,,204,2022-04-27_13h02.59.787,FishGame,2022.1.1,60.00830514941717,
,39,넌 이해심이 많아,1,Orange,B,6.041666666666668,5.533333333333333,ScrollUp,ScrollDown,Orange.png,4,Positive,Incongruent,,,,,0,0,0,0,,,,,,,,,,,,,,,,,,,,,,,,,0,38,38,38,,,,,,,,,,,,,,,,,,,,,,,,,,,,,,,,,,,,,,,,,,,,,,,,,,,,,,,,,,,,,,,,,,,,,1.9506172736485798,1.0097235999996883,597.1215052000002,None,ScrollUp,정답입니다,597.1215052000002,None,597.1215052000002,None,597.1215052000002,None,597.1215052000002,None,597.9890330000003,None,597.9890330000003,598.4890084000003,,,,,,,,,,,,,,,,204,2022-04-27_13h02.59.787,FishGame,2022.1.1,60.00830514941717,
,40,나를 보내줘,6,Green,A,0,0,ScrollUp,ScrollDown,Green.png,4,NonTarget,NonTarget,,,,,0,0,0,0,,,,,,,,,,,,,,,,,,,,,,,,,0,39,39,39,,,,,,,,,,,,,,,,,,,,,,,,,,,,,,,,,,,,,,,,,,,,,,,,,,,,,,,,,,,,,,,,,,,,,1.9490740597248077,1.0907850000003236,599.1375934000002,None,ScrollUp,정답입니다,599.1375934000002,None,599.1375934000002,None,599.1375934000002,None,599.1375934000002,None,600.1052551000002,None,600.1052551000002,600.6052307,,,,,,,,,,,,,,,,204,2022-04-27_13h02.59.787,FishGame,2022.1.1,60.00830514941717,
,41,넌 거칠어,4,Green,A,2.625,3.033333333333333,ScrollDown,ScrollUp,Green.png,4,Negative,Incongruent,,,,,0,0,0,0,,,,,,,,,,,,,,,,,,,,,,,,,0,40,40,40,,,,,,,,,,,,,,,,,,,,,,,,,,,,,,,,,,,,,,,,,,,,,,,,,,,,,,,,,,,,,,,,,,,,,1,0.933026400000017,601.2725050000004,None,ScrollDown,정답입니다,601.2725050000004,None,601.2725050000004,None,601.2725050000004,None,601.2725050000004,None,602.0611988,None,602.0611988,602.5716170000001,,,,,,,,,,,,,,,,204,2022-04-27_13h02.59.787,FishGame,2022.1.1,60.00830514941717,
,42,넌 변덕맞아,5,Orange,B,2.75,2.166666666666667,ScrollUp,ScrollDown,Orange.png,4,Negative,Congruent,,,,,0,0,0,0,,,,,,,,,,,,,,,,,,,,,,,,,0,41,41,41,,,,,,,,,,,,,,,,,,,,,,,,,,,,,,,,,,,,,,,,,,,,,,,,,,,,,,,,,,,,,,,,,,,,,1.9922839502493541,1.0906660999999076,603.3009912000002,None,ScrollUp,정답입니다,603.3009912000002,None,603.3009912000002,None,603.3009912000002,None,603.3009912000002,None,604.1882547,None,604.1882547,604.6880241000003,,,,,,,,,,,,,,,,204,2022-04-27_13h02.59.787,FishGame,2022.1.1,60.00830514941717,
,43,나를 데려가줘,6,Orange,B,0,0,ScrollDown,ScrollUp,Orange.png,4,NonTarget,NonTarget,,,,,0,0,0,0,,,,,,,,,,,,,,,,,,,,,,,,,0,42,42,42,,,,,,,,,,,,,,,,,,,,,,,,,,,,,,,,,,,,,,,,,,,,,,,,,,,,,,,,,,,,,,,,,,,,,1,0.881903400000283,605.3427469000003,None,ScrollDown,정답입니다,605.3427469000003,None,605.3427469000003,None,605.3427469000003,None,605.3427469000003,None,606.0925973000003,None,606.0925973000003,606.6043699000002,,,,,,,,,,,,,,,,204,2022-04-27_13h02.59.787,FishGame,2022.1.1,60.00830514941717,
,44,넌 외로워,4,Orange,B,2.833333333333333,3.3,ScrollUp,ScrollDown,Orange.png,4,Negative,Congruent,,,,,0,0,0,0,,,,,,,,,,,,,,,,,,,,,,,,,0,43,43,43,,,,,,,,,,,,,,,,,,,,,,,,,,,,,,,,,,,,,,,,,,,,,,,,,,,,,,,,,,,,,,,,,,,,,1.9969135920206706,1.0769436999999016,607.2724973000004,None,ScrollUp,정답입니다,607.2724973000004,None,607.2724973000004,None,607.2724973000004,None,607.2724973000004,None,608.2043511000002,None,608.2043511000002,608.7041281000002,,,,,,,,,,,,,,,,204,2022-04-27_13h02.59.787,FishGame,2022.1.1,60.00830514941717,
,1,넌 불평스러워,5,Green,A,2.25,2.066666666666667,ScrollDown,ScrollUp,Green.png,5,Negative,Incongruent,,,,,0,0,0,0,,,,,,,,,,,,,,,,,,,,,,,,,,,,,0,0,0,0,,,,,,,,,,,,,,,,,,,,,,,,641.1336636000001,642.6333313,642.6665021000003,643.6165494000002,643.6665871,644.6164887,644.6164887,None,,,,,,,,,,,,,,,,,,,,,,,,,,,,,,,,,,1.212962955236435,1.2395685999999841,645.7997941000003,None,ScrollDown,정답입니다,645.7997941000003,None,645.7997941000003,None,645.7997941000003,None,645.7997941000003,None,646.8742459,None,646.8742459,647.3826105000003,609.2040617000002,None,609.2040617000002,None,0.037962962,-0.10462963,1,0,0,0.016196959999433602,None,639.2170353000001,None,,,204,2022-04-27_13h02.59.787,FishGame,2022.1.1,60.00830514941717,
,2,나를 보내줘,6,Green,A,0,0,ScrollUp,ScrollDown,Green.png,5,NonTarget,NonTarget,,,,,0,0,0,0,,,,,,,,,,,,,,,,,,,,,,,,,,,,,0,1,1,1,,,,,,,,,,,,,,,,,,,,,,,,,,,,,,,,,,,,,,,,,,,,,,,,,,,,,,,,,,,,,,,,,1.9537037014961243,1.0664570999997522,648.0297279000001,None,ScrollUp,정답입니다,648.0297279000001,None,648.0297279000001,None,648.0297279000001,None,648.0297279000001,None,648.9709806000001,None,648.9709806000001,649.4822222000003,,,,,,,,,,,,,,,,204,2022-04-27_13h02.59.787,FishGame,2022.1.1,60.00830514941717,
,3,넌 다재다능해,2,Orange,B,6.208333333333333,4.5,ScrollUp,ScrollDown,Orange.png,5,Positive,Incongruent,,,,,0,0,0,0,,,,,,,,,,,,,,,,,,,,,,,,,,,,,0,2,2,2,,,,,,,,,,,,,,,,,,,,,,,,,,,,,,,,,,,,,,,,,,,,,,,,,,,,,,,,,,,,,,,,,2,1.1351057000001674,650.1406285000003,None,ScrollUp,정답입니다,650.1406285000003,None,650.1406285000003,None,650.1406285000003,None,650.1406285000003,None,651.1379809,None,651.1379809,651.6486898000003,,,,,,,,,,,,,,,,204,2022-04-27_13h02.59.787,FishGame,2022.1.1,60.00830514941717,
,4,넌 과감해,3,Green,A,4.833333333333334,4.6,ScrollDown,ScrollUp,Green.png,5,Neutral,Neutral,,,,,0,0,0,0,,,,,,,,,,,,,,,,,,,,,,,,,,,,,0,3,3,3,,,,,,,,,,,,,,,,,,,,,,,,,,,,,,,,,,,,,,,,,,,,,,,,,,,,,,,,,,,,,,,,,1.0354938507080078,0.918101900000238,652.2953775000001,None,ScrollDown,정답입니다,652.2953775000001,None,652.2953775000001,None,652.2953775000001,None,652.2953775000001,None,653.0891413000004,None,653.0891413000004,653.5982777000004,,,,,,,,,,,,,,,,204,2022-04-27_13h02.59.787,FishGame,2022.1.1,60.00830514941717,
,5,넌 고분고분해,3,Orange,B,3.75,4.033333333333333,ScrollUp,ScrollDown,Orange.png,5,Neutral,Neutral,,,,,0,0,0,0,,,,,,,,,,,,,,,,,,,,,,,,,,,,,0,4,4,4,,,,,,,,,,,,,,,,,,,,,,,,,,,,,,,,,,,,,,,,,,,,,,,,,,,,,,,,,,,,,,,,,1.8749999900658925,0.9997353999997358,654.2578245,None,ScrollUp,정답입니다,654.2578245,None,654.2578245,None,654.2578245,None,654.2578245,None,655.1207123000004,None,655.1207123000004,655.6314773000004,,,,,,,,,,,,,,,,204,2022-04-27_13h02.59.787,FishGame,2022.1.1,60.00830514941717,
,6,나를 보내줘,6,Green,A,0,0,ScrollUp,ScrollDown,Green.png,5,NonTarget,NonTarget,,,,,0,0,0,0,,,,,,,,,,,,,,,,,,,,,,,,,,,,,0,5,5,5,,,,,,,,,,,,,,,,,,,,,,,,,,,,,,,,,,,,,,,,,,,,,,,,,,,,,,,,,,,,,,,,,2,1.1283175999997184,656.2854902000004,None,ScrollUp,정답입니다,656.2854902000004,None,656.2854902000004,None,656.2854902000004,None,656.2854902000004,None,657.2813763000004,None,657.2813763000004,657.7812107,,,,,,,,,,,,,,,,204,2022-04-27_13h02.59.787,FishGame,2022.1.1,60.00830514941717,
,7,넌 잘 잊어,4,Green,A,3,3.7,ScrollDown,ScrollUp,Green.png,5,Negative,Incongruent,,,,,0,0,0,0,,,,,,,,,,,,,,,,,,,,,,,,,,,,,0,6,6,6,,,,,,,,,,,,,,,,,,,,,,,,,,,,,,,,,,,,,,,,,,,,,,,,,,,,,,,,,,,,,,,,,1.0848765472571056,0.9769368000002032,658.4350663,None,ScrollDown,정답입니다,658.4350663,None,658.4350663,None,658.4350663,None,658.4350663,None,659.2771759000002,None,659.2771759000002,659.7809742000004,,,,,,,,,,,,,,,,204,2022-04-27_13h02.59.787,FishGame,2022.1.1,60.00830514941717,
,8,넌 탐구심이없어,4,Orange,B,2.833333333333333,3.066666666666667,ScrollUp,ScrollDown,Orange.png,5,Negative,Congruent,,,,,0,0,0,0,,,,,,,,,,,,,,,,,,,,,,,,,,,,,0,7,7,7,,,,,,,,,,,,,,,,,,,,,,,,,,,,,,,,,,,,,,,,,,,,,,,,,,,,,,,,,,,,,,,,,1.560185187806686,0.983799099999942,660.4445309000002,None,ScrollUp,정답입니다,660.4445309000002,None,660.4445309000002,None,660.4445309000002,None,660.4445309000002,None,661.2884578000003,None,661.2884578000003,661.7973145000001,,,,,,,,,,,,,,,,204,2022-04-27_13h02.59.787,FishGame,2022.1.1,60.00830514941717,
,9,나를 데려가줘,6,Orange,B,0,0,ScrollDown,ScrollUp,Orange.png,5,NonTarget,NonTarget,,,,,0,0,0,0,,,,,,,,,,,,,,,,,,,,,,,,,,,,,0,8,8,8,,,,,,,,,,,,,,,,,,,,,,,,,,,,,,,,,,,,,,,,,,,,,,,,,,,,,,,,,,,,,,,,,1,1.0432751000003009,662.4489818000002,None,ScrollDown,정답입니다,662.4489818000002,None,662.4489818000002,None,662.4489818000002,None,662.4489818000002,None,663.3638115000003,None,663.3638115000003,663.8638013,,,,,,,,,,,,,,,,204,2022-04-27_13h02.59.787,FishGame,2022.1.1,60.00830514941717,
,10,넌 참되어,2,Green,A,6.041666666666664,4.733333333333333,ScrollDown,ScrollUp,Green.png,5,Positive,Congruent,,,,,0,0,0,0,,,,,,,,,,,,,,,,,,,,,,,,,,,,,0,9,9,9,,,,,,,,,,,,,,,,,,,,,,,,,,,,,,,,,,,,,,,,,,,,,,,,,,,,,,,,,,,,,,,,,1.0632716019948323,0.9768882999997004,664.5185947,None,ScrollDown,정답입니다,664.5185947,None,664.5185947,None,664.5185947,None,664.5185947,None,665.3636677000004,None,665.3636677000004,665.8634796000001,,,,,,,,,,,,,,,,204,2022-04-27_13h02.59.787,FishGame,2022.1.1,60.00830514941717,
,11,넌 생기있어,1,Orange,B,5.875,5.633333333333334,ScrollUp,ScrollDown,Orange.png,5,Positive,Incongruent,,,,,0,0,0,0,,,,,,,,,,,,,,,,,,,,,,,,,,,,,0,10,10,10,,,,,,,,,,,,,,,,,,,,,,,,,,,,,,,,,,,,,,,,,,,,,,,,,,,,,,,,,,,,,,,,,1.9938271641731262,0.8922720000000481,666.5261067000001,None,ScrollUp,정답입니다,666.5261067000001,None,666.5261067000001,None,666.5261067000001,None,666.5261067000001,None,667.2799358000002,None,667.2799358000002,667.7799291000001,,,,,,,,,,,,,,,,204,2022-04-27_13h02.59.787,FishGame,2022.1.1,60.00830514941717,
,12,넌 비사교적이야,4,Orange,B,2.875,2.9,ScrollUp,ScrollDown,Orange.png,5,Negative,Congruent,,,,,0,0,0,0,,,,,,,,,,,,,,,,,,,,,,,,,,,,,0,11,11,11,,,,,,,,,,,,,,,,,,,,,,,,,,,,,,,,,,,,,,,,,,,,,,,,,,,,,,,,,,,,,,,,,1.8641975422700245,0.9083698999997978,668.4329930000004,None,ScrollUp,정답입니다,668.4329930000004,None,668.4329930000004,None,668.4329930000004,None,668.4329930000004,None,669.2075645,None,669.2075645,669.7130292000002,,,,,,,,,,,,,,,,204,2022-04-27_13h02.59.787,FishGame,2022.1.1,60.00830514941717,
,13,나를 데려가줘,6,Orange,B,0,0,ScrollDown,ScrollUp,Orange.png,5,NonTarget,NonTarget,,,,,0,0,0,0,,,,,,,,,,,,,,,,,,,,,,,,,,,,,0,12,12,12,,,,,,,,,,,,,,,,,,,,,,,,,,,,,,,,,,,,,,,,,,,,,,,,,,,,,,,,,,,,,,,,,1.1080246816078823,0.8864275000000816,670.3666237000002,None,ScrollDown,정답입니다,670.3666237000002,None,670.3666237000002,None,670.3666237000002,None,670.3666237000002,None,671.1217812,None,671.1217812,671.6293968,,,,,,,,,,,,,,,,204,2022-04-27_13h02.59.787,FishGame,2022.1.1,60.00830514941717,
,14,넌 고독해,4,Green,A,2.916666666666667,3.233333333333333,ScrollDown,ScrollUp,Green.png,5,Negative,Incongruent,,,,,0,0,0,0,,,,,,,,,,,,,,,,,,,,,,,,,,,,,0,13,13,13,,,,,,,,,,,,,,,,,,,,,,,,,,,,,,,,,,,,,,,,,,,,,,,,,,,,,,,,,,,,,,,,,1,0.8998373999997966,672.2843675000004,None,ScrollDown,정답입니다,672.2843675000004,None,672.2843675000004,None,672.2843675000004,None,672.2843675000004,None,673.0516510000002,None,673.0516510000002,673.5626021000003,,,,,,,,,,,,,,,,204,2022-04-27_13h02.59.787,FishGame,2022.1.1,60.00830514941717,
,15,넌 신경질적이야,5,Orange,B,2.375,2.233333333333333,ScrollUp,ScrollDown,Orange.png,5,Negative,Congruent,,,,,0,0,0,0,,,,,,,,,,,,,,,,,,,,,,,,,,,,,0,14,14,14,,,,,,,,,,,,,,,,,,,,,,,,,,,,,,,,,,,,,,,,,,,,,,,,,,,,,,,,,,,,,,,,,1.825617293516795,0.9862615000001824,674.2232866000004,None,ScrollUp,정답입니다,674.2232866000004,None,674.2232866000004,None,674.2232866000004,None,674.2232866000004,None,675.0705356000003,None,675.0705356000003,675.5789046,,,,,,,,,,,,,,,,204,2022-04-27_13h02.59.787,FishGame,2022.1.1,60.00830514941717,
,16,넌 똑똑해,2,Orange,B,5.666666666666667,3.966666666666667,ScrollUp,ScrollDown,Orange.png,5,Positive,Incongruent,,,,,0,0,0,0,,,,,,,,,,,,,,,,,,,,,,,,,,,,,0,15,15,15,,,,,,,,,,,,,,,,,,,,,,,,,,,,,,,,,,,,,,,,,,,,,,,,,,,,,,,,,,,,,,,,,1.9876543084780376,1.0438717000001816,676.2424222,None,ScrollUp,정답입니다,676.2424222,None,676.2424222,None,676.2424222,None,676.2424222,None,677.1453716000001,None,677.1453716000001,677.6453576000004,,,,,,,,,,,,,,,,204,2022-04-27_13h02.59.787,FishGame,2022.1.1,60.00830514941717,
,17,나를 보내줘,6,Green,A,0,0,ScrollUp,ScrollDown,Green.png,5,NonTarget,NonTarget,,,,,0,0,0,0,,,,,,,,,,,,,,,,,,,,,,,,,,,,,0,16,16,16,,,,,,,,,,,,,,,,,,,,,,,,,,,,,,,,,,,,,,,,,,,,,,,,,,,,,,,,,,,,,,,,,2,1.1099865000001046,678.2938877000001,None,ScrollUp,정답입니다,678.2938877000001,None,678.2938877000001,None,678.2938877000001,None,678.2938877000001,None,679.2782859000004,None,679.2782859000004,679.7784794000004,,,,,,,,,,,,,,,,204,2022-04-27_13h02.59.787,FishGame,2022.1.1,60.00830514941717,
,18,넌 협조적이야,1,Green,A,5.625,5.666666666666667,ScrollDown,ScrollUp,Green.png,5,Positive,Congruent,,,,,0,0,0,0,,,,,,,,,,,,,,,,,,,,,,,,,,,,,0,17,17,17,,,,,,,,,,,,,,,,,,,,,,,,,,,,,,,,,,,,,,,,,,,,,,,,,,,,,,,,,,,,,,,,,1.1913580348094304,0.9527186999998776,680.4278389000001,None,ScrollDown,정답입니다,680.4278389000001,None,680.4278389000001,None,680.4278389000001,None,680.4278389000001,None,681.2537287,None,681.2537287,681.7614361000001,,,,,,,,,,,,,,,,204,2022-04-27_13h02.59.787,FishGame,2022.1.1,60.00830514941717,
,19,나를 데려가줘,6,Orange,B,0,0,ScrollDown,ScrollUp,Orange.png,5,NonTarget,NonTarget,,,,,0,0,0,0,,,,,,,,,,,,,,,,,,,,,,,,,,,,,0,18,18,18,,,,,,,,,,,,,,,,,,,,,,,,,,,,,,,,,,,,,,,,,,,,,,,,,,,,,,,,,,,,,,,,,1.2499999900658925,1.0983147000001736,682.4178632000003,None,ScrollDown,정답입니다,682.4178632000003,None,682.4178632000003,None,682.4178632000003,None,682.4178632000003,None,683.3831487000002,None,683.3831487000002,683.8945266000001,,,,,,,,,,,,,,,,204,2022-04-27_13h02.59.787,FishGame,2022.1.1,60.00830514941717,
,20,넌 몰인정해,5,Orange,B,2.541666666666667,2.066666666666667,ScrollUp,ScrollDown,Orange.png,5,Negative,Congruent,,,,,0,0,0,0,,,,,,,,,,,,,,,,,,,,,,,,,,,,,0,19,19,19,,,,,,,,,,,,,,,,,,,,,,,,,,,,,,,,,,,,,,,,,,,,,,,,,,,,,,,,,,,,,,,,,1.6404320945342383,0.8512779000002411,684.5613066000001,None,ScrollUp,정답입니다,684.5613066000001,None,684.5613066000001,None,684.5613066000001,None,684.5613066000001,None,685.2679943000003,None,685.2679943000003,685.7776084000002,,,,,,,,,,,,,,,,204,2022-04-27_13h02.59.787,FishGame,2022.1.1,60.00830514941717,
,21,나를 데려가줘,6,Orange,B,0,0,ScrollDown,ScrollUp,Orange.png,5,NonTarget,NonTarget,,,,,0,0,0,0,,,,,,,,,,,,,,,,,,,,,,,,,,,,,0,20,20,20,,,,,,,,,,,,,,,,,,,,,,,,,,,,,,,,,,,,,,,,,,,,,,,,,,,,,,,,,,,,,,,,,1.2175925970077515,1.0160963999996966,686.4351610000003,None,ScrollDown,정답입니다,686.4351610000003,None,686.4351610000003,None,686.4351610000003,None,686.4351610000003,None,687.3154881,None,687.3154881,687.8272596000002,,,,,,,,,,,,,,,,204,2022-04-27_13h02.59.787,FishGame,2022.1.1,60.00830514941717,
