name,TrialNum,Word,WordCategory,FishType,WordList,WordValence,WordReputation,CorrectResp,IncorrectResp,FishTypeFile,Round,WordType,Condition,LoopforOrange.thisRepN,LoopforOrange.thisTrialN,LoopforOrange.thisN,LoopforOrange.thisIndex,OrangeInstLoop.thisRepN,OrangeInstLoop.thisTrialN,OrangeInstLoop.thisN,OrangeInstLoop.thisIndex,OrangePrac.thisRepN,OrangePrac.thisTrialN,OrangePrac.thisN,OrangePrac.thisIndex,temp1.thisRepN,temp1.thisTrialN,temp1.thisN,temp1.thisIndex,OrangeRound1.thisRepN,OrangeRound1.thisTrialN,OrangeRound1.thisN,OrangeRound1.thisIndex,OrangeRound2.thisRepN,OrangeRound2.thisTrialN,OrangeRound2.thisN,OrangeRound2.thisIndex,OrangeRound3.thisRepN,OrangeRound3.thisTrialN,OrangeRound3.thisN,OrangeRound3.thisIndex,OrangeRound4.thisRepN,OrangeRound4.thisTrialN,OrangeRound4.thisN,OrangeRound4.thisIndex,OrangeRound5.thisRepN,OrangeRound5.thisTrialN,OrangeRound5.thisN,OrangeRound5.thisIndex,LoopForGreen.thisRepN,LoopForGreen.thisTrialN,LoopForGreen.thisN,LoopForGreen.thisIndex,text_2.started,text_2.stopped,text_3.started,text_3.stopped,key_resp.keys,key_resp.rt,key_resp.started,key_resp.stopped,PassI_2.started,PassI_2.stopped,PassInst_2.keys,PassInst_2.rt,PassInst_2.started,PassInst_2.stopped,mouse_2.x,mouse_2.y,mouse_2.leftButton,mouse_2.midButton,mouse_2.rightButton,mouse_2.started,mouse_2.stopped,image.started,image.stopped,text_5.started,text_5.stopped,text_6.started,text_6.stopped,text_7.started,text_7.stopped,text_8.started,text_8.stopped,slider_2.response,slider_2.rt,slider_2.started,slider_2.stopped,Response_2,Feedback_2,BackGround_2.started,BackGround_2.stopped,Fish_2.started,Fish_2.stopped,WordBox_2.started,WordBox_2.stopped,Words_2.started,Words_2.stopped,BackGround_Feedback_2.started,BackGround_Feedback_2.stopped,Feedbacks_2.started,Feedbacks_2.stopped,Continue_or_not.keys,Continue_or_not.rt,Continue_or_not.started,Continue_or_not.stopped,image_3.started,image_3.stopped,mouse_3.x,mouse_3.y,mouse_3.leftButton,mouse_3.midButton,mouse_3.rightButton,mouse_3.started,mouse_3.stopped,startmain.started,startmain.stopped,slider.response,slider.rt,slider.started,slider.stopped,Response,Feedback,BackGround.started,BackGround.stopped,Fish.started,Fish.stopped,WordBox.started,WordBox.stopped,Words.started,Words.stopped,BackGround_Feedback.started,BackGround_Feedback.stopped,Feedbacks.started,Feedbacks.stopped,text.started,text.stopped,break_interval.started,break_interval.stopped,mouse.x,mouse.y,mouse.leftButton,mouse.midButton,mouse.rightButton,mouse.started,mouse.stopped,stratnextround.started,stratnextround.stopped,endgame.started,endgame.stopped,participant,date,expName,psychopyVersion,frameRate,
,,,,,,,,,,,,,,,,,,,,,,,,,,,,,,,,,,,,,,,,,,,,,,,,,,,,,,20.22579709999991,None,20.22579709999991,None,space,3.2541905999996743,20.70312230000036,None,,,,,,,,,,,,,,,,,,,,,,,,,,,,,,,,,,,,,,,,,,,,,,,,,,,,,,,,,,,,,,,,,,,,,,,,,,,,,,,,,,,,,,,,,,205,2022-04-28_11h42.32.351,FishGame,2022.1.1,60.00841317951608,
물고기과제_instruction(참가자용)OrangeVersion.mp4,,,,,,,,,,,,,,0,0,0,0,0,0,0,0,,,,,,,,,,,,,,,,,,,,,,,,,,,,,,,,,,,,,,,,,90.82309979999991,None,n,6.451719400000002,90.82309979999991,None,,,,,,,,,,,,,,,,,,,,,,,,,,,,,,,,,,,,,,,,,,,,,,,,,,,,,,,,,,,,,,,,,,,,,,,,,,,,,,,,,,,,205,2022-04-28_11h42.32.351,FishGame,2022.1.1,60.00841317951608,
,1,넌 교활해,5,Green,B,2.333333333333333,2.133333333333333,ScrollUp,ScrollDown,Green.png,practice,,,0,0,0,0,,,,,0,0,0,0,0,0,0,0,,,,,,,,,,,,,,,,,,,,,,,,,,,,,,,,,,,,,,,0.08888889,-0.2,1,0,0,0.513263900000311,None,97.29329169999983,None,105.05905629999961,106.55870959999993,106.59202619999996,107.5419439999996,107.59193719999985,108.5419297999997,108.5419297999997,None,2,2.1880051999996795,109.73484449999978,None,ScrollUp,정답입니다,109.73484449999978,None,109.73484449999978,None,109.73484449999978,None,109.73484449999978,None,111.74530239999967,None,111.74530239999967,112.25794210000004,,,,,,,,,,,,,,,,,,,,,,,,,,,,,,,,,,,,,,,,,,,,,,,,,205,2022-04-28_11h42.32.351,FishGame,2022.1.1,60.00841317951608,
,2,넌 슬기로워,2,Orange,A,6.166666666666667,4.1,ScrollDown,ScrollUp,Orange.png,practice,,,0,0,0,0,,,,,0,0,0,0,0,1,1,1,,,,,,,,,,,,,,,,,,,,,,,,,,,,,,,,,,,,,,,,,,,,,,,,,,,,,,,,1,1.617790899999818,112.93112759999985,None,ScrollDown,정답입니다,112.93112759999985,None,112.93112759999985,None,112.93112759999985,None,112.93112759999985,None,114.3975191999998,None,114.3975191999998,114.9073644,,,,,,,,,,,,,,,,,,,,,,,,,,,,,,,,,,,,,,,,,,,,,,,,,205,2022-04-28_11h42.32.351,FishGame,2022.1.1,60.00841317951608,
,3,나를 보내줘,6,Orange,A,0,0,ScrollUp,ScrollDown,Orange.png,practice,,,0,0,0,0,,,,,0,0,0,0,0,2,2,2,,,,,,,,,,,,,,,,,,,,,,,,,,,,,,,,,,,,,,,,,,,,,,,,,,,,,,,,2,1.4344580999995742,115.56866350000018,None,ScrollUp,정답입니다,115.56866350000018,None,115.56866350000018,None,115.56866350000018,None,115.56866350000018,None,116.86325500000021,None,116.86325500000021,117.37383990000035,,,,,,,,,,,,,,,,,,,,,,,,,,,,,,,,,,,,,,,,,,,,,,,,,205,2022-04-28_11h42.32.351,FishGame,2022.1.1,60.00841317951608,
,4,나를 데려가줘,6,Green,B,0,0,ScrollDown,ScrollUp,Green.png,practice,,,0,0,0,0,,,,,0,0,0,0,0,3,3,3,,,,,,,,,,,,,,,,,,,,,,,,,,,,,,,,,,,,,,,,,,,,,,,,,,,,,,,,1,1.3486120999996274,118.0273172999996,None,ScrollDown,정답입니다,118.0273172999996,None,118.0273172999996,None,118.0273172999996,None,118.0273172999996,None,119.2449772,None,119.2449772,119.75698480000028,,,,,,,,,,,,,,,,,,,,,,,,,,,,,,,,,,,,,,,,,,,,,,,,,205,2022-04-28_11h42.32.351,FishGame,2022.1.1,60.00841317951608,
,1,넌 교활해,5,Green,B,2.333333333333333,2.133333333333333,ScrollUp,ScrollDown,Green.png,practice,,,0,0,0,0,,,,,0,0,0,0,,,,,,,,,,,,,,,,,,,,,,,,,,,,,,,,,,,,,,,,,,,,,,,,,,,,,,,,,,,,,,,,,,,,,,,,,,,,,,n,6.413497700000335,120.2569698999996,None,120.2569698999996,None,,,,,,,,,,,,,,,,,,,,,,,,,,,,,,,,,,,,,,,,,,,205,2022-04-28_11h42.32.351,FishGame,2022.1.1,60.00841317951608,
,1,넌 따뜻해,1,Green,B,6.083333333333333,5.6,ScrollUp,ScrollDown,Green.png,1,Positive,Incongruent,0,0,0,0,,,,,,,,,,,,,0,0,0,0,,,,,,,,,,,,,,,,,,,,,,,,,,,,,,,,,,,,,,,,,,,,128.22267769999962,129.72234320000007,129.75565449999976,130.70559779999985,130.75560330000008,131.7054052000003,131.7054052000003,None,,,,,,,,,,,,,,,,,,,,,,,,,0.09166667,-0.13703704,1,0,0,0.31285879999995814,None,126.68926850000025,None,1.8935185074806213,1.7348566999999093,132.8932875999999,None,ScrollUp,정답입니다,132.8932875999999,None,132.8932875999999,None,132.8932875999999,None,132.8932875999999,None,134.45507689999977,None,134.45507689999977,134.95474869999998,,,,,,,,,,,,,,,,205,2022-04-28_11h42.32.351,FishGame,2022.1.1,60.00841317951608,
,2,넌 기품있어,2,Green,B,5.791666666666668,4.5,ScrollUp,ScrollDown,Green.png,1,Positive,Incongruent,0,0,0,0,,,,,,,,,,,,,0,1,1,1,,,,,,,,,,,,,,,,,,,,,,,,,,,,,,,,,,,,,,,,,,,,,,,,,,,,,,,,,,,,,,,,,,,,,,,,,,,,,,,,,,,,,2,1.605680200000279,135.61776629999986,None,ScrollUp,정답입니다,135.61776629999986,None,135.61776629999986,None,135.61776629999986,None,135.61776629999986,None,137.08178620000035,None,137.08178620000035,137.58802529999957,,,,,,,,,,,,,,,,205,2022-04-28_11h42.32.351,FishGame,2022.1.1,60.00841317951608,
,3,나를 보내줘,6,Orange,A,0,0,ScrollUp,ScrollDown,Orange.png,1,NonTarget,NonTarget,0,0,0,0,,,,,,,,,,,,,0,2,2,2,,,,,,,,,,,,,,,,,,,,,,,,,,,,,,,,,,,,,,,,,,,,,,,,,,,,,,,,,,,,,,,,,,,,,,,,,,,,,,,,,,,,,2,1.4916656000004878,138.25429429999986,None,ScrollUp,정답입니다,138.25429429999986,None,138.25429429999986,None,138.25429429999986,None,138.25429429999986,None,139.60420580000027,None,139.60420580000027,140.10413629999948,,,,,,,,,,,,,,,,205,2022-04-28_11h42.32.351,FishGame,2022.1.1,60.00841317951608,
,4,넌 수동적이야,4,Orange,A,2.833333333333333,2.933333333333333,ScrollDown,ScrollUp,Orange.png,1,Negative,Incongruent,0,0,0,0,,,,,,,,,,,,,0,3,3,3,,,,,,,,,,,,,,,,,,,,,,,,,,,,,,,,,,,,,,,,,,,,,,,,,,,,,,,,,,,,,,,,,,,,,,,,,,,,,,,,,,,,,1,1.7847203000001173,140.7767801,None,ScrollDown,정답입니다,140.7767801,None,140.7767801,None,140.7767801,None,140.7767801,None,142.41072040000017,None,142.41072040000017,142.92049469999984,,,,,,,,,,,,,,,,205,2022-04-28_11h42.32.351,FishGame,2022.1.1,60.00841317951608,
,5,넌 사심이 없어,3,Green,B,4.916666666666666,4.333333333333333,ScrollUp,ScrollDown,Green.png,1,Neutral,Neutral,0,0,0,0,,,,,,,,,,,,,0,4,4,4,,,,,,,,,,,,,,,,,,,,,,,,,,,,,,,,,,,,,,,,,,,,,,,,,,,,,,,,,,,,,,,,,,,,,,,,,,,,,,,,,,,,,2,1.984970099999373,143.5815918999997,None,ScrollUp,정답입니다,143.5815918999997,None,143.5815918999997,None,143.5815918999997,None,143.5815918999997,None,145.4266921999997,None,145.4266921999997,145.93675189999976,,,,,,,,,,,,,,,,205,2022-04-28_11h42.32.351,FishGame,2022.1.1,60.00841317951608,
,6,넌 헤퍼,5,Orange,A,2.458333333333334,2.233333333333333,ScrollDown,ScrollUp,Orange.png,1,Negative,Incongruent,0,0,0,0,,,,,,,,,,,,,0,5,5,5,,,,,,,,,,,,,,,,,,,,,,,,,,,,,,,,,,,,,,,,,,,,,,,,,,,,,,,,,,,,,,,,,,,,,,,,,,,,,,,,,,,,,1.1250000099341075,2.4517386999996233,146.60034369999994,None,ScrollDown,정답입니다,146.60034369999994,None,146.60034369999994,None,146.60034369999994,None,146.60034369999994,None,148.91085810000004,None,148.91085810000004,149.4195867999997,,,,,,,,,,,,,,,,205,2022-04-28_11h42.32.351,FishGame,2022.1.1,60.00841317951608,
,7,넌 말쑥해,3,Orange,A,4.833333333333334,4.333333333333333,ScrollDown,ScrollUp,Orange.png,1,Neutral,Neutral,0,0,0,0,,,,,,,,,,,,,0,6,6,6,,,,,,,,,,,,,,,,,,,,,,,,,,,,,,,,,,,,,,,,,,,,,,,,,,,,,,,,,,,,,,,,,,,,,,,,,,,,,,,,,,,,,1,1.50741139999991,150.08189839999977,None,ScrollDown,정답입니다,150.08189839999977,None,150.08189839999977,None,150.08189839999977,None,150.08189839999977,None,151.4524518999997,None,151.4524518999997,151.95266790000005,,,,,,,,,,,,,,,,205,2022-04-28_11h42.32.351,FishGame,2022.1.1,60.00841317951608,
,8,넌 투덜거려,5,Green,B,2.541666666666667,2.266666666666667,ScrollUp,ScrollDown,Green.png,1,Negative,Congruent,0,0,0,0,,,,,,,,,,,,,0,7,7,7,,,,,,,,,,,,,,,,,,,,,,,,,,,,,,,,,,,,,,,,,,,,,,,,,,,,,,,,,,,,,,,,,,,,,,,,,,,,,,,,,,,,,2,1.5569134999996095,152.61619169999994,None,ScrollUp,정답입니다,152.61619169999994,None,152.61619169999994,None,152.61619169999994,None,152.61619169999994,None,154.0359585999995,None,154.0359585999995,154.53588469999977,,,,,,,,,,,,,,,,205,2022-04-28_11h42.32.351,FishGame,2022.1.1,60.00841317951608,
,9,넌 적극적이야,1,Orange,A,5.708333333333333,5.533333333333333,ScrollDown,ScrollUp,Orange.png,1,Positive,Congruent,0,0,0,0,,,,,,,,,,,,,0,8,8,8,,,,,,,,,,,,,,,,,,,,,,,,,,,,,,,,,,,,,,,,,,,,,,,,,,,,,,,,,,,,,,,,,,,,,,,,,,,,,,,,,,,,,1,1.5302109999993263,155.19966860000022,None,ScrollDown,정답입니다,155.19966860000022,None,155.19966860000022,None,155.19966860000022,None,155.19966860000022,None,156.59073850000004,None,156.59073850000004,157.10190309999962,,,,,,,,,,,,,,,,205,2022-04-28_11h42.32.351,FishGame,2022.1.1,60.00841317951608,
,10,넌 재미없어,4,Green,B,2.625,2.966666666666667,ScrollUp,ScrollDown,Green.png,1,Negative,Congruent,0,0,0,0,,,,,,,,,,,,,0,9,9,9,,,,,,,,,,,,,,,,,,,,,,,,,,,,,,,,,,,,,,,,,,,,,,,,,,,,,,,,,,,,,,,,,,,,,,,,,,,,,,,,,,,,,1.9722222189108531,1.4681000000000495,157.75959570000032,None,ScrollUp,정답입니다,157.75959570000032,None,157.75959570000032,None,157.75959570000032,None,157.75959570000032,None,159.09218799999962,None,159.09218799999962,159.60188070000004,,,,,,,,,,,,,,,,205,2022-04-28_11h42.32.351,FishGame,2022.1.1,60.00841317951608,
,11,넌 명석해,2,Orange,A,5.875,4.033333333333333,ScrollDown,ScrollUp,Orange.png,1,Positive,Congruent,0,0,0,0,,,,,,,,,,,,,0,10,10,10,,,,,,,,,,,,,,,,,,,,,,,,,,,,,,,,,,,,,,,,,,,,,,,,,,,,,,,,,,,,,,,,,,,,,,,,,,,,,,,,,,,,,1,1.5172047999994902,160.25880729999972,None,ScrollDown,정답입니다,160.25880729999972,None,160.25880729999972,None,160.25880729999972,None,160.25880729999972,None,161.64094139999997,None,161.64094139999997,162.15127969999958,,,,,,,,,,,,,,,,205,2022-04-28_11h42.32.351,FishGame,2022.1.1,60.00841317951608,
,12,나를 데려가줘,6,Green,B,0,0,ScrollDown,ScrollUp,Green.png,1,NonTarget,NonTarget,0,0,0,0,,,,,,,,,,,,,0,11,11,11,,,,,,,,,,,,,,,,,,,,,,,,,,,,,,,,,,,,,,,,,,,,,,,,,,,,,,,,,,,,,,,,,,,,,,,,,,,,,,,,,,,,,1,1.5021223000003374,162.80659079999987,None,ScrollDown,정답입니다,162.80659079999987,None,162.80659079999987,None,162.80659079999987,None,162.80659079999987,None,164.17642689999957,None,164.17642689999957,164.6842575999999,,,,,,,,,,,,,,,,205,2022-04-28_11h42.32.351,FishGame,2022.1.1,60.00841317951608,
,13,넌 소심해,4,Orange,A,3,3.1,ScrollDown,ScrollUp,Orange.png,1,Negative,Incongruent,0,0,0,0,,,,,,,,,,,,,0,12,12,12,,,,,,,,,,,,,,,,,,,,,,,,,,,,,,,,,,,,,,,,,,,,,,,,,,,,,,,,,,,,,,,,,,,,,,,,,,,,,,,,,,,,,1,1.8982083000000785,165.34667079999963,None,ScrollDown,정답입니다,165.34667079999963,None,165.34667079999963,None,165.34667079999963,None,165.34667079999963,None,167.10594859999946,None,167.10594859999946,167.61739229999966,,,,,,,,,,,,,,,,205,2022-04-28_11h42.32.351,FishGame,2022.1.1,60.00841317951608,
,14,넌 합리적이야,2,Orange,A,5.583333333333333,4.733333333333333,ScrollDown,ScrollUp,Orange.png,1,Positive,Congruent,0,0,0,0,,,,,,,,,,,,,0,13,13,13,,,,,,,,,,,,,,,,,,,,,,,,,,,,,,,,,,,,,,,,,,,,,,,,,,,,,,,,,,,,,,,,,,,,,,,,,,,,,,,,,,,,,1,1.5843448000005083,168.28200939999988,None,ScrollDown,정답입니다,168.28200939999988,None,168.28200939999988,None,168.28200939999988,None,168.28200939999988,None,169.7243871999999,None,169.7243871999999,170.2337792999997,,,,,,,,,,,,,,,,205,2022-04-28_11h42.32.351,FishGame,2022.1.1,60.00841317951608,
,15,넌 무자비해,5,Green,B,2.333333333333333,2.1,ScrollUp,ScrollDown,Green.png,1,Negative,Congruent,0,0,0,0,,,,,,,,,,,,,0,14,14,14,,,,,,,,,,,,,,,,,,,,,,,,,,,,,,,,,,,,,,,,,,,,,,,,,,,,,,,,,,,,,,,,,,,,,,,,,,,,,,,,,,,,,2,1.4168122999999468,170.8870820000002,None,ScrollUp,정답입니다,170.8870820000002,None,170.8870820000002,None,170.8870820000002,None,170.8870820000002,None,172.1717123999997,None,172.1717123999997,172.68316630000027,,,,,,,,,,,,,,,,205,2022-04-28_11h42.32.351,FishGame,2022.1.1,60.00841317951608,
,16,나를 보내줘,6,Orange,A,0,0,ScrollUp,ScrollDown,Orange.png,1,NonTarget,NonTarget,0,0,0,0,,,,,,,,,,,,,0,15,15,15,,,,,,,,,,,,,,,,,,,,,,,,,,,,,,,,,,,,,,,,,,,,,,,,,,,,,,,,,,,,,,,,,,,,,,,,,,,,,,,,,,,,,2,1.3979740000004313,173.34405799999968,None,ScrollUp,정답입니다,173.34405799999968,None,173.34405799999968,None,173.34405799999968,None,173.34405799999968,None,174.6030135000001,None,174.6030135000001,175.1163907,,,,,,,,,,,,,,,,205,2022-04-28_11h42.32.351,FishGame,2022.1.1,60.00841317951608,
,17,넌 현실적이야,3,Green,B,4.608695652173913,4.766666666666667,ScrollUp,ScrollDown,Green.png,1,Neutral,Neutral,0,0,0,0,,,,,,,,,,,,,0,16,16,16,,,,,,,,,,,,,,,,,,,,,,,,,,,,,,,,,,,,,,,,,,,,,,,,,,,,,,,,,,,,,,,,,,,,,,,,,,,,,,,,,,,,,1.9444444676240284,1.79304300000058,175.7742820000003,None,ScrollUp,정답입니다,175.7742820000003,None,175.7742820000003,None,175.7742820000003,None,175.7742820000003,None,177.43269379999947,None,177.43269379999947,177.93259829999988,,,,,,,,,,,,,,,,205,2022-04-28_11h42.32.351,FishGame,2022.1.1,60.00841317951608,
,18,넌 의리있어,1,Green,B,5.833333333333334,5.633333333333334,ScrollUp,ScrollDown,Green.png,1,Positive,Incongruent,0,0,0,0,,,,,,,,,,,,,0,17,17,17,,,,,,,,,,,,,,,,,,,,,,,,,,,,,,,,,,,,,,,,,,,,,,,,,,,,,,,,,,,,,,,,,,,,,,,,,,,,,,,,,,,,,2,1.6540164999996705,178.5904043999999,None,ScrollUp,정답입니다,178.5904043999999,None,178.5904043999999,None,178.5904043999999,None,178.5904043999999,None,180.10811829999966,None,180.10811829999966,180.61561699999947,,,,,,,,,,,,,,,,205,2022-04-28_11h42.32.351,FishGame,2022.1.1,60.00841317951608,
,19,넌 신경과민이야,5,Orange,A,2.541666666666667,2.166666666666667,ScrollDown,ScrollUp,Orange.png,1,Negative,Incongruent,0,0,0,0,,,,,,,,,,,,,0,18,18,18,,,,,,,,,,,,,,,,,,,,,,,,,,,,,,,,,,,,,,,,,,,,,,,,,,,,,,,,,,,,,,,,,,,,,,,,,,,,,,,,,,,,,1,2.122668899999553,181.28550369999994,None,ScrollDown,정답입니다,181.28550369999994,None,181.28550369999994,None,181.28550369999994,None,181.28550369999994,None,183.2653551000003,None,183.2653551000003,183.76510899999994,,,,,,,,,,,,,,,,205,2022-04-28_11h42.32.351,FishGame,2022.1.1,60.00841317951608,
,20,넌 편안해,1,Orange,A,5.916666666666666,5.866666666666666,ScrollDown,ScrollUp,Orange.png,1,Positive,Congruent,0,0,0,0,,,,,,,,,,,,,0,19,19,19,,,,,,,,,,,,,,,,,,,,,,,,,,,,,,,,,,,,,,,,,,,,,,,,,,,,,,,,,,,,,,,,,,,,,,,,,,,,,,,,,,,,,1,1.516796500000055,184.4285428000003,None,ScrollDown,정답입니다,184.4285428000003,None,184.4285428000003,None,184.4285428000003,None,184.4285428000003,None,185.8043434000001,None,185.8043434000001,186.31493890000002,,,,,,,,,,,,,,,,205,2022-04-28_11h42.32.351,FishGame,2022.1.1,60.00841317951608,
,21,넌 품위있어,2,Green,B,5.291666666666666,4.466666666666667,ScrollUp,ScrollDown,Green.png,1,Positive,Incongruent,0,0,0,0,,,,,,,,,,,,,0,20,20,20,,,,,,,,,,,,,,,,,,,,,,,,,,,,,,,,,,,,,,,,,,,,,,,,,,,,,,,,,,,,,,,,,,,,,,,,,,,,,,,,,,,,,2,1.5345256000000518,186.97458970000025,None,ScrollUp,정답입니다,186.97458970000025,None,186.97458970000025,None,186.97458970000025,None,186.97458970000025,None,188.37017110000033,None,188.37017110000033,188.88141209999958,,,,,,,,,,,,,,,,205,2022-04-28_11h42.32.351,FishGame,2022.1.1,60.00841317951608,
,22,넌 빈틈없어,3,Orange,A,4.833333333333333,3.966666666666667,ScrollDown,ScrollUp,Orange.png,1,Neutral,Neutral,0,0,0,0,,,,,,,,,,,,,0,21,21,21,,,,,,,,,,,,,,,,,,,,,,,,,,,,,,,,,,,,,,,,,,,,,,,,,,,,,,,,,,,,,,,,,,,,,,,,,,,,,,,,,,,,,1,1.6753373000001375,189.54018819999965,None,ScrollDown,정답입니다,189.54018819999965,None,189.54018819999965,None,189.54018819999965,None,189.54018819999965,None,191.0754122999997,None,191.0754122999997,191.58087909999995,,,,,,,,,,,,,,,,205,2022-04-28_11h42.32.351,FishGame,2022.1.1,60.00841317951608,
,23,넌 상상력없어,4,Green,B,2.833333333333333,3.133333333333333,ScrollUp,ScrollDown,Green.png,1,Negative,Congruent,0,0,0,0,,,,,,,,,,,,,0,22,22,22,,,,,,,,,,,,,,,,,,,,,,,,,,,,,,,,,,,,,,,,,,,,,,,,,,,,,,,,,,,,,,,,,,,,,,,,,,,,,,,,,,,,,2,1.4897508000003654,192.24676799999997,None,ScrollUp,정답입니다,192.24676799999997,None,192.24676799999997,None,192.24676799999997,None,192.24676799999997,None,193.59728919999998,None,193.59728919999998,194.09723529999974,,,,,,,,,,,,,,,,205,2022-04-28_11h42.32.351,FishGame,2022.1.1,60.00841317951608,
,24,넌 지혜로워,2,Green,B,6.333333333333334,4.633333333333334,ScrollUp,ScrollDown,Green.png,1,Positive,Incongruent,0,0,0,0,,,,,,,,,,,,,0,23,23,23,,,,,,,,,,,,,,,,,,,,,,,,,,,,,,,,,,,,,,,,,,,,,,,,,,,,,,,,,,,,,,,,,,,,,,,,,,,,,,,,,,,,,1.7978395173947017,1.8419714999999997,194.75902769999993,None,ScrollUp,정답입니다,194.75902769999993,None,194.75902769999993,None,194.75902769999993,None,194.75902769999993,None,196.46358959999998,None,196.46358959999998,196.96352509999997,,,,,,,,,,,,,,,,205,2022-04-28_11h42.32.351,FishGame,2022.1.1,60.00841317951608,
,25,넌 시끄러워,4,Orange,A,2.833333333333333,3.033333333333333,ScrollDown,ScrollUp,Orange.png,1,Negative,Incongruent,0,0,0,0,,,,,,,,,,,,,0,24,24,24,,,,,,,,,,,,,,,,,,,,,,,,,,,,,,,,,,,,,,,,,,,,,,,,,,,,,,,,,,,,,,,,,,,,,,,,,,,,,,,,,,,,,1,1.8059541000002355,197.6294496999999,None,ScrollDown,정답입니다,197.6294496999999,None,197.6294496999999,None,197.6294496999999,None,197.6294496999999,None,199.29683730000033,None,199.29683730000033,199.7967467999997,,,,,,,,,,,,,,,,205,2022-04-28_11h42.32.351,FishGame,2022.1.1,60.00841317951608,
,26,넌 만사태평이야,3,Green,B,4,4.333333333333333,ScrollUp,ScrollDown,Green.png,1,Neutral,Neutral,0,0,0,0,,,,,,,,,,,,,0,25,25,25,,,,,,,,,,,,,,,,,,,,,,,,,,,,,,,,,,,,,,,,,,,,,,,,,,,,,,,,,,,,,,,,,,,,,,,,,,,,,,,,,,,,,2,1.5014605999995183,200.45182079999995,None,ScrollUp,정답입니다,200.45182079999995,None,200.45182079999995,None,200.45182079999995,None,200.45182079999995,None,201.81912339999963,None,201.81912339999963,202.32937979999951,,,,,,,,,,,,,,,,205,2022-04-28_11h42.32.351,FishGame,2022.1.1,60.00841317951608,
,27,넌 붙임성있어,1,Orange,A,5.708333333333333,5.633333333333334,ScrollDown,ScrollUp,Orange.png,1,Positive,Congruent,0,0,0,0,,,,,,,,,,,,,0,26,26,26,,,,,,,,,,,,,,,,,,,,,,,,,,,,,,,,,,,,,,,,,,,,,,,,,,,,,,,,,,,,,,,,,,,,,,,,,,,,,,,,,,,,,1,1.6207387000004019,202.9985617000002,None,ScrollDown,정답입니다,202.9985617000002,None,202.9985617000002,None,202.9985617000002,None,202.9985617000002,None,204.47268859999986,None,204.47268859999986,204.97901749999983,,,,,,,,,,,,,,,,205,2022-04-28_11h42.32.351,FishGame,2022.1.1,60.00841317951608,
,28,넌 영리해,2,Orange,A,6,4.033333333333333,ScrollDown,ScrollUp,Orange.png,1,Positive,Congruent,0,0,0,0,,,,,,,,,,,,,0,27,27,27,,,,,,,,,,,,,,,,,,,,,,,,,,,,,,,,,,,,,,,,,,,,,,,,,,,,,,,,,,,,,,,,,,,,,,,,,,,,,,,,,,,,,1,1.2508517999995092,205.65043669999977,None,ScrollDown,정답입니다,205.65043669999977,None,205.65043669999977,None,205.65043669999977,None,205.65043669999977,None,206.7517087999995,None,206.7517087999995,207.2620667000001,,,,,,,,,,,,,,,,205,2022-04-28_11h42.32.351,FishGame,2022.1.1,60.00841317951608,
,29,넌 열심이야,1,Green,B,6.041666666666667,5.833333333333333,ScrollUp,ScrollDown,Green.png,1,Positive,Incongruent,0,0,0,0,,,,,,,,,,,,,0,28,28,28,,,,,,,,,,,,,,,,,,,,,,,,,,,,,,,,,,,,,,,,,,,,,,,,,,,,,,,,,,,,,,,,,,,,,,,,,,,,,,,,,,,,,2,1.4470911999997043,207.9191281000003,None,ScrollUp,정답입니다,207.9191281000003,None,207.9191281000003,None,207.9191281000003,None,207.9191281000003,None,209.23126750000029,None,209.23126750000029,209.74510999999984,,,,,,,,,,,,,,,,205,2022-04-28_11h42.32.351,FishGame,2022.1.1,60.00841317951608,
,30,넌 인기없어,4,Green,B,3,3.3,ScrollUp,ScrollDown,Green.png,1,Negative,Congruent,0,0,0,0,,,,,,,,,,,,,0,29,29,29,,,,,,,,,,,,,,,,,,,,,,,,,,,,,,,,,,,,,,,,,,,,,,,,,,,,,,,,,,,,,,,,,,,,,,,,,,,,,,,,,,,,,2,1.3181013999992501,210.40063139999984,None,ScrollUp,정답입니다,210.40063139999984,None,210.40063139999984,None,210.40063139999984,None,210.40063139999984,None,211.58498830000008,None,211.58498830000008,212.09482800000023,,,,,,,,,,,,,,,,205,2022-04-28_11h42.32.351,FishGame,2022.1.1,60.00841317951608,
,31,넌 익살스러워,3,Orange,A,4.708333333333334,4.833333333333333,ScrollDown,ScrollUp,Orange.png,1,Neutral,Neutral,0,0,0,0,,,,,,,,,,,,,0,30,30,30,,,,,,,,,,,,,,,,,,,,,,,,,,,,,,,,,,,,,,,,,,,,,,,,,,,,,,,,,,,,,,,,,,,,,,,,,,,,,,,,,,,,,1,1.652058699999543,212.76248029999988,None,ScrollDown,정답입니다,212.76248029999988,None,212.76248029999988,None,212.76248029999988,None,212.76248029999988,None,214.2688404999999,None,214.2688404999999,214.77778969999963,,,,,,,,,,,,,,,,205,2022-04-28_11h42.32.351,FishGame,2022.1.1,60.00841317951608,
,32,넌 이기적이야,5,Green,B,2.291666666666667,2.333333333333333,ScrollUp,ScrollDown,Green.png,1,Negative,Congruent,0,0,0,0,,,,,,,,,,,,,0,31,31,31,,,,,,,,,,,,,,,,,,,,,,,,,,,,,,,,,,,,,,,,,,,,,,,,,,,,,,,,,,,,,,,,,,,,,,,,,,,,,,,,,,,,,2,1.7844228000003568,215.4320773999998,None,ScrollUp,정답입니다,215.4320773999998,None,215.4320773999998,None,215.4320773999998,None,215.4320773999998,None,217.08338430000003,None,217.08338430000003,217.5940300000002,,,,,,,,,,,,,,,,205,2022-04-28_11h42.32.351,FishGame,2022.1.1,60.00841317951608,
,33,나를 데려가줘,6,Green,B,0,0,ScrollDown,ScrollUp,Green.png,1,NonTarget,NonTarget,0,0,0,0,,,,,,,,,,,,,0,32,32,32,,,,,,,,,,,,,,,,,,,,,,,,,,,,,,,,,,,,,,,,,,,,,,,,,,,,,,,,,,,,,,,,,,,,,,,,,,,,,,,,,,,,,1,1.5209460000005492,218.2451570000003,None,ScrollDown,정답입니다,218.2451570000003,None,218.2451570000003,None,218.2451570000003,None,218.2451570000003,None,219.6375253999995,None,219.6375253999995,220.1437820000001,,,,,,,,,,,,,,,,205,2022-04-28_11h42.32.351,FishGame,2022.1.1,60.00841317951608,
,34,넌 기회주의자야,5,Orange,A,2.875,2.133333333333333,ScrollDown,ScrollUp,Orange.png,1,Negative,Incongruent,0,0,0,0,,,,,,,,,,,,,0,33,33,33,,,,,,,,,,,,,,,,,,,,,,,,,,,,,,,,,,,,,,,,,,,,,,,,,,,,,,,,,,,,,,,,,,,,,,,,,,,,,,,,,,,,,1,1.9283081999992646,220.81061799999952,None,ScrollDown,정답입니다,220.81061799999952,None,220.81061799999952,None,220.81061799999952,None,220.81061799999952,None,222.59652790000018,None,222.59652790000018,223.11003720000008,,,,,,,,,,,,,,,,205,2022-04-28_11h42.32.351,FishGame,2022.1.1,60.00841317951608,
,1,넌 미성숙해,4,Orange,A,3,3.2,ScrollDown,ScrollUp,Orange.png,2,Negative,Incongruent,0,0,0,0,,,,,,,,,,,,,,,,,0,0,0,0,,,,,,,,,,,,,,,,,,,,,,,,,,,,,,,,,,,,,,,,255.1394062999998,256.6390620000002,256.6723955999996,257.6222957,257.67225510000026,258.62213169999995,258.62213169999995,None,,,,,,,,,,,,,,,,,,,,,,,,,,,,,,,,,,1,1.8734740999998394,259.8177194,None,ScrollDown,정답입니다,259.8177194,None,259.8177194,None,259.8177194,None,259.8177194,None,261.50701169999957,None,261.50701169999957,262.0216848,223.60995660000026,None,223.60995660000026,None,0.2787037,-0.18055555,1,0,0,0.016055600000072445,None,253.60612140000012,None,,,205,2022-04-28_11h42.32.351,FishGame,2022.1.1,60.00841317951608,
,2,넌 반사회적이야,5,Green,B,2.416666666666667,2.033333333333333,ScrollUp,ScrollDown,Green.png,2,Negative,Congruent,0,0,0,0,,,,,,,,,,,,,,,,,0,1,1,1,,,,,,,,,,,,,,,,,,,,,,,,,,,,,,,,,,,,,,,,,,,,,,,,,,,,,,,,,,,,,,,,,,,,,,,,,,,,,,,,,2,1.55534390000048,262.6751469000001,None,ScrollUp,정답입니다,262.6751469000001,None,262.6751469000001,None,262.6751469000001,None,262.6751469000001,None,264.0977345000001,None,264.0977345000001,264.60457640000004,,,,,,,,,,,,,,,,205,2022-04-28_11h42.32.351,FishGame,2022.1.1,60.00841317951608,
,3,넌 유능해,2,Orange,A,6.208333333333333,4.433333333333334,ScrollDown,ScrollUp,Orange.png,2,Positive,Congruent,0,0,0,0,,,,,,,,,,,,,,,,,0,2,2,2,,,,,,,,,,,,,,,,,,,,,,,,,,,,,,,,,,,,,,,,,,,,,,,,,,,,,,,,,,,,,,,,,,,,,,,,,,,,,,,,,1,1.5234912000005352,265.2692516999996,None,ScrollDown,정답입니다,265.2692516999996,None,265.2692516999996,None,265.2692516999996,None,265.2692516999996,None,266.65481759999966,None,266.65481759999966,267.15430149999975,,,,,,,,,,,,,,,,205,2022-04-28_11h42.32.351,FishGame,2022.1.1,60.00841317951608,
,4,넌 능숙해,2,Green,B,5.666666666666667,4.733333333333333,ScrollUp,ScrollDown,Green.png,2,Positive,Incongruent,0,0,0,0,,,,,,,,,,,,,,,,,0,3,3,3,,,,,,,,,,,,,,,,,,,,,,,,,,,,,,,,,,,,,,,,,,,,,,,,,,,,,,,,,,,,,,,,,,,,,,,,,,,,,,,,,2,1.5662615999999616,267.80502819999947,None,ScrollUp,정답입니다,267.80502819999947,None,267.80502819999947,None,267.80502819999947,None,267.80502819999947,None,269.2430327000002,None,269.2430327000002,269.75402159999976,,,,,,,,,,,,,,,,205,2022-04-28_11h42.32.351,FishGame,2022.1.1,60.00841317951608,
,5,넌 진부해,4,Green,B,2.458333333333333,3.166666666666667,ScrollUp,ScrollDown,Green.png,2,Negative,Congruent,0,0,0,0,,,,,,,,,,,,,,,,,0,4,4,4,,,,,,,,,,,,,,,,,,,,,,,,,,,,,,,,,,,,,,,,,,,,,,,,,,,,,,,,,,,,,,,,,,,,,,,,,,,,,,,,,2,1.384311699999671,270.4130918000001,None,ScrollUp,정답입니다,270.4130918000001,None,270.4130918000001,None,270.4130918000001,None,270.4130918000001,None,271.6593131999998,None,271.6593131999998,272.17029060000004,,,,,,,,,,,,,,,,205,2022-04-28_11h42.32.351,FishGame,2022.1.1,60.00841317951608,
,6,나를 보내줘,6,Orange,A,0,0,ScrollUp,ScrollDown,Orange.png,2,NonTarget,NonTarget,0,0,0,0,,,,,,,,,,,,,,,,,0,5,5,5,,,,,,,,,,,,,,,,,,,,,,,,,,,,,,,,,,,,,,,,,,,,,,,,,,,,,,,,,,,,,,,,,,,,,,,,,,,,,,,,,2,1.3061707999995633,272.8262103999996,None,ScrollUp,정답입니다,272.8262103999996,None,272.8262103999996,None,272.8262103999996,None,272.8262103999996,None,274.0035815000001,None,274.0035815000001,274.5034334000002,,,,,,,,,,,,,,,,205,2022-04-28_11h42.32.351,FishGame,2022.1.1,60.00841317951608,
,7,넌 엄격해,3,Orange,A,4.166666666666666,4.1,ScrollDown,ScrollUp,Orange.png,2,Neutral,Neutral,0,0,0,0,,,,,,,,,,,,,,,,,0,6,6,6,,,,,,,,,,,,,,,,,,,,,,,,,,,,,,,,,,,,,,,,,,,,,,,,,,,,,,,,,,,,,,,,,,,,,,,,,,,,,,,,,1,1.6047134999998889,275.1686029000002,None,ScrollDown,정답입니다,275.1686029000002,None,275.1686029000002,None,275.1686029000002,None,275.1686029000002,None,276.62912940000024,None,276.62912940000024,277.1366210999995,,,,,,,,,,,,,,,,205,2022-04-28_11h42.32.351,FishGame,2022.1.1,60.00841317951608,
,8,나를 보내줘,6,Orange,A,0,0,ScrollUp,ScrollDown,Orange.png,2,NonTarget,NonTarget,0,0,0,0,,,,,,,,,,,,,,,,,0,7,7,7,,,,,,,,,,,,,,,,,,,,,,,,,,,,,,,,,,,,,,,,,,,,,,,,,,,,,,,,,,,,,,,,,,,,,,,,,,,,,,,,,1.9953703780968983,1.2715132000002995,277.78763290000006,None,ScrollUp,정답입니다,277.78763290000006,None,277.78763290000006,None,277.78763290000006,None,277.78763290000006,None,278.9289845000003,None,278.9289845000003,279.4362135000001,,,,,,,,,,,,,,,,205,2022-04-28_11h42.32.351,FishGame,2022.1.1,60.00841317951608,
,9,넌 대담해,3,Green,B,4.875,4.866666666666666,ScrollUp,ScrollDown,Green.png,2,Neutral,Neutral,0,0,0,0,,,,,,,,,,,,,,,,,0,8,8,8,,,,,,,,,,,,,,,,,,,,,,,,,,,,,,,,,,,,,,,,,,,,,,,,,,,,,,,,,,,,,,,,,,,,,,,,,,,,,,,,,1.9259259502092998,1.5884286999998949,280.09668969999984,None,ScrollUp,정답입니다,280.09668969999984,None,280.09668969999984,None,280.09668969999984,None,280.09668969999984,None,281.5460170999995,None,281.5460170999995,282.05249840000033,,,,,,,,,,,,,,,,205,2022-04-28_11h42.32.351,FishGame,2022.1.1,60.00841317951608,
,10,넌 꾸준해,1,Orange,A,5.916666666666668,5.8,ScrollDown,ScrollUp,Orange.png,2,Positive,Congruent,0,0,0,0,,,,,,,,,,,,,,,,,0,9,9,9,,,,,,,,,,,,,,,,,,,,,,,,,,,,,,,,,,,,,,,,,,,,,,,,,,,,,,,,,,,,,,,,,,,,,,,,,,,,,,,,,1,1.5492248999998992,282.7155665999999,None,ScrollDown,정답입니다,282.7155665999999,None,282.7155665999999,None,282.7155665999999,None,282.7155665999999,None,284.12426529999993,None,284.12426529999993,284.6357571999997,,,,,,,,,,,,,,,,205,2022-04-28_11h42.32.351,FishGame,2022.1.1,60.00841317951608,
,11,나를 데려가줘,6,Green,B,0,0,ScrollDown,ScrollUp,Green.png,2,NonTarget,NonTarget,0,0,0,0,,,,,,,,,,,,,,,,,0,10,10,10,,,,,,,,,,,,,,,,,,,,,,,,,,,,,,,,,,,,,,,,,,,,,,,,,,,,,,,,,,,,,,,,,,,,,,,,,,,,,,,,,1,1.3904426999997668,285.29527810000036,None,ScrollDown,정답입니다,285.29527810000036,None,285.29527810000036,None,285.29527810000036,None,285.29527810000036,None,286.5521238000001,None,286.5521238000001,287.0518984999999,,,,,,,,,,,,,,,,205,2022-04-28_11h42.32.351,FishGame,2022.1.1,60.00841317951608,
,12,넌 독선적이야,5,Orange,A,2.458333333333333,1.933333333333333,ScrollDown,ScrollUp,Orange.png,2,Negative,Incongruent,0,0,0,0,,,,,,,,,,,,,,,,,0,11,11,11,,,,,,,,,,,,,,,,,,,,,,,,,,,,,,,,,,,,,,,,,,,,,,,,,,,,,,,,,,,,,,,,,,,,,,,,,,,,,,,,,1,2.015515299999606,287.7122086999998,None,ScrollDown,정답입니다,287.7122086999998,None,287.7122086999998,None,287.7122086999998,None,287.7122086999998,None,289.5900357999999,None,289.5900357999999,290.1013716999996,,,,,,,,,,,,,,,,205,2022-04-28_11h42.32.351,FishGame,2022.1.1,60.00841317951608,
,13,나를 보내줘,6,Orange,A,0,0,ScrollUp,ScrollDown,Orange.png,2,NonTarget,NonTarget,0,0,0,0,,,,,,,,,,,,,,,,,0,12,12,12,,,,,,,,,,,,,,,,,,,,,,,,,,,,,,,,,,,,,,,,,,,,,,,,,,,,,,,,,,,,,,,,,,,,,,,,,,,,,,,,,1.9212963084379833,1.3883624000000054,290.7547118000002,None,ScrollUp,정답입니다,290.7547118000002,None,290.7547118000002,None,290.7547118000002,None,290.7547118000002,None,292.0177308000002,None,292.0177308000002,292.5178300999996,,,,,,,,,,,,,,,,205,2022-04-28_11h42.32.351,FishGame,2022.1.1,60.00841317951608,
,14,넌 책임감있어,1,Green,B,6.347826086956522,6,ScrollUp,ScrollDown,Green.png,2,Positive,Incongruent,0,0,0,0,,,,,,,,,,,,,,,,,0,13,13,13,,,,,,,,,,,,,,,,,,,,,,,,,,,,,,,,,,,,,,,,,,,,,,,,,,,,,,,,,,,,,,,,,,,,,,,,,,,,,,,,,1.9166666666666667,1.5165655000000697,293.1782363000002,None,ScrollUp,정답입니다,293.1782363000002,None,293.1782363000002,None,293.1782363000002,None,293.1782363000002,None,294.5563960999998,None,294.5563960999998,295.0673336,,,,,,,,,,,,,,,,205,2022-04-28_11h42.32.351,FishGame,2022.1.1,60.00841317951608,
,15,넌 문학적이야,3,Orange,A,4.708333333333334,4.333333333333333,ScrollDown,ScrollUp,Orange.png,2,Neutral,Neutral,0,0,0,0,,,,,,,,,,,,,,,,,0,14,14,14,,,,,,,,,,,,,,,,,,,,,,,,,,,,,,,,,,,,,,,,,,,,,,,,,,,,,,,,,,,,,,,,,,,,,,,,,,,,,,,,,1,1.5431056999996144,295.7330058999996,None,ScrollDown,정답입니다,295.7330058999996,None,295.7330058999996,None,295.7330058999996,None,295.7330058999996,None,297.1340792000001,None,297.1340792000001,297.63357089999954,,,,,,,,,,,,,,,,205,2022-04-28_11h42.32.351,FishGame,2022.1.1,60.00841317951608,
,16,넌 재미있어,1,Green,B,5.875,5.7,ScrollUp,ScrollDown,Green.png,2,Positive,Incongruent,0,0,0,0,,,,,,,,,,,,,,,,,0,15,15,15,,,,,,,,,,,,,,,,,,,,,,,,,,,,,,,,,,,,,,,,,,,,,,,,,,,,,,,,,,,,,,,,,,,,,,,,,,,,,,,,,1.9706790049870808,1.783248900000217,298.2857762000003,None,ScrollUp,정답입니다,298.2857762000003,None,298.2857762000003,None,298.2857762000003,None,298.2857762000003,None,299.9389025999999,None,299.9389025999999,300.4500571999997,,,,,,,,,,,,,,,,205,2022-04-28_11h42.32.351,FishGame,2022.1.1,60.00841317951608,
,17,나를 데려가줘,6,Green,B,0,0,ScrollDown,ScrollUp,Green.png,2,NonTarget,NonTarget,0,0,0,0,,,,,,,,,,,,,,,,,0,16,16,16,,,,,,,,,,,,,,,,,,,,,,,,,,,,,,,,,,,,,,,,,,,,,,,,,,,,,,,,,,,,,,,,,,,,,,,,,,,,,,,,,1,1.3314503000001423,301.10087459999977,None,ScrollDown,정답입니다,301.10087459999977,None,301.10087459999977,None,301.10087459999977,None,301.10087459999977,None,302.3045691999996,None,302.3045691999996,302.81642509999983,,,,,,,,,,,,,,,,205,2022-04-28_11h42.32.351,FishGame,2022.1.1,60.00841317951608,
,18,넌 협력적이야,1,Orange,A,5.625,5.633333333333334,ScrollDown,ScrollUp,Orange.png,2,Positive,Congruent,0,0,0,0,,,,,,,,,,,,,,,,,0,17,17,17,,,,,,,,,,,,,,,,,,,,,,,,,,,,,,,,,,,,,,,,,,,,,,,,,,,,,,,,,,,,,,,,,,,,,,,,,,,,,,,,,1,1.8097044999994978,303.4798066000003,None,ScrollDown,정답입니다,303.4798066000003,None,303.4798066000003,None,303.4798066000003,None,303.4798066000003,None,305.14946839999993,None,305.14946839999993,305.6493008999996,,,,,,,,,,,,,,,,205,2022-04-28_11h42.32.351,FishGame,2022.1.1,60.00841317951608,
,19,넌 평범해,3,Green,B,4.333333333333332,4.233333333333333,ScrollUp,ScrollDown,Green.png,2,Neutral,Neutral,0,0,0,0,,,,,,,,,,,,,,,,,0,18,18,18,,,,,,,,,,,,,,,,,,,,,,,,,,,,,,,,,,,,,,,,,,,,,,,,,,,,,,,,,,,,,,,,,,,,,,,,,,,,,,,,,1.8919753183921177,1.7275937000003978,306.31065800000033,None,ScrollUp,정답입니다,306.31065800000033,None,306.31065800000033,None,306.31065800000033,None,306.31065800000033,None,307.8994823000003,None,307.8994823000003,308.3990334,,,,,,,,,,,,,,,,205,2022-04-28_11h42.32.351,FishGame,2022.1.1,60.00841317951608,
,20,넌 오만해,5,Orange,A,2.333333333333333,2,ScrollDown,ScrollUp,Orange.png,2,Negative,Incongruent,0,0,0,0,,,,,,,,,,,,,,,,,0,19,19,19,,,,,,,,,,,,,,,,,,,,,,,,,,,,,,,,,,,,,,,,,,,,,,,,,,,,,,,,,,,,,,,,,,,,,,,,,,,,,,,,,1,2.072454799999832,309.0620938000002,None,ScrollDown,정답입니다,309.0620938000002,None,309.0620938000002,None,309.0620938000002,None,309.0620938000002,None,310.9986866999998,None,310.9986866999998,311.4984721000001,,,,,,,,,,,,,,,,205,2022-04-28_11h42.32.351,FishGame,2022.1.1,60.00841317951608,
,21,넌 운이없어,4,Green,B,3,3.466666666666667,ScrollUp,ScrollDown,Green.png,2,Negative,Congruent,0,0,0,0,,,,,,,,,,,,,,,,,0,20,20,20,,,,,,,,,,,,,,,,,,,,,,,,,,,,,,,,,,,,,,,,,,,,,,,,,,,,,,,,,,,,,,,,,,,,,,,,,,,,,,,,,1.7947530895471573,1.7212601999999606,312.15408449999995,None,ScrollUp,정답입니다,312.15408449999995,None,312.15408449999995,None,312.15408449999995,None,312.15408449999995,None,313.7424138999995,None,313.7424138999995,314.24837149999985,,,,,,,,,,,,,,,,205,2022-04-28_11h42.32.351,FishGame,2022.1.1,60.00841317951608,
,22,넌 창조적이야,2,Green,B,6.125,4.633333333333334,ScrollUp,ScrollDown,Green.png,2,Positive,Incongruent,0,0,0,0,,,,,,,,,,,,,,,,,0,21,21,21,,,,,,,,,,,,,,,,,,,,,,,,,,,,,,,,,,,,,,,,,,,,,,,,,,,,,,,,,,,,,,,,,,,,,,,,,,,,,,,,,1.9984568059444427,1.4388702999995076,314.9065711000003,None,ScrollUp,정답입니다,314.9065711000003,None,314.9065711000003,None,314.9065711000003,None,314.9065711000003,None,316.21271199999956,None,316.21271199999956,316.7147702000002,,,,,,,,,,,,,,,,205,2022-04-28_11h42.32.351,FishGame,2022.1.1,60.00841317951608,
,23,나를 보내줘,6,Orange,A,0,0,ScrollUp,ScrollDown,Orange.png,2,NonTarget,NonTarget,0,0,0,0,,,,,,,,,,,,,,,,,0,22,22,22,,,,,,,,,,,,,,,,,,,,,,,,,,,,,,,,,,,,,,,,,,,,,,,,,,,,,,,,,,,,,,,,,,,,,,,,,,,,,,,,,1.9984568059444427,1.388844600000084,317.37118009999995,None,ScrollUp,정답입니다,317.37118009999995,None,317.37118009999995,None,317.37118009999995,None,317.37118009999995,None,318.63101279999955,None,318.63101279999955,319.13081200000033,,,,,,,,,,,,,,,,205,2022-04-28_11h42.32.351,FishGame,2022.1.1,60.00841317951608,
,24,넌 통찰력있어,2,Orange,A,6.5,4.8,ScrollDown,ScrollUp,Orange.png,2,Positive,Congruent,0,0,0,0,,,,,,,,,,,,,,,,,0,23,23,23,,,,,,,,,,,,,,,,,,,,,,,,,,,,,,,,,,,,,,,,,,,,,,,,,,,,,,,,,,,,,,,,,,,,,,,,,,,,,,,,,1,2.3484857999992528,319.79392610000014,None,ScrollDown,정답입니다,319.79392610000014,None,319.79392610000014,None,319.79392610000014,None,319.79392610000014,None,322.0023369999999,None,322.0023369999999,322.51409839999997,,,,,,,,,,,,,,,,205,2022-04-28_11h42.32.351,FishGame,2022.1.1,60.00841317951608,
,25,넌 경솔해,5,Green,B,2.458333333333333,2.266666666666667,ScrollUp,ScrollDown,Green.png,2,Negative,Congruent,0,0,0,0,,,,,,,,,,,,,,,,,0,24,24,24,,,,,,,,,,,,,,,,,,,,,,,,,,,,,,,,,,,,,,,,,,,,,,,,,,,,,,,,,,,,,,,,,,,,,,,,,,,,,,,,,1.9953703780968983,1.5695539999996981,323.1633781999999,None,ScrollUp,정답입니다,323.1633781999999,None,323.1633781999999,None,323.1633781999999,None,323.1633781999999,None,324.60428150000007,None,324.60428150000007,325.11346330000015,,,,,,,,,,,,,,,,205,2022-04-28_11h42.32.351,FishGame,2022.1.1,60.00841317951608,
,26,넌 초조해,4,Orange,A,2.916666666666667,3.133333333333333,ScrollDown,ScrollUp,Orange.png,2,Negative,Incongruent,0,0,0,0,,,,,,,,,,,,,,,,,0,25,25,25,,,,,,,,,,,,,,,,,,,,,,,,,,,,,,,,,,,,,,,,,,,,,,,,,,,,,,,,,,,,,,,,,,,,,,,,,,,,,,,,,1,1.6849363999999696,325.7753491000003,None,ScrollDown,정답입니다,325.7753491000003,None,325.7753491000003,None,325.7753491000003,None,325.7753491000003,None,327.31975319999947,None,327.31975319999947,327.8300486999997,,,,,,,,,,,,,,,,205,2022-04-28_11h42.32.351,FishGame,2022.1.1,60.00841317951608,
,27,넌 무관심해,4,Green,B,2.833333333333333,2.9,ScrollUp,ScrollDown,Green.png,2,Negative,Congruent,0,0,0,0,,,,,,,,,,,,,,,,,0,26,26,26,,,,,,,,,,,,,,,,,,,,,,,,,,,,,,,,,,,,,,,,,,,,,,,,,,,,,,,,,,,,,,,,,,,,,,,,,,,,,,,,,2,1.6051690000003873,328.4802773000001,None,ScrollUp,정답입니다,328.4802773000001,None,328.4802773000001,None,328.4802773000001,None,328.4802773000001,None,329.9559803000002,None,329.9559803000002,330.4629288999995,,,,,,,,,,,,,,,,205,2022-04-28_11h42.32.351,FishGame,2022.1.1,60.00841317951608,
,28,넌 감성적이야,3,Green,B,4.125,4.166666666666667,ScrollUp,ScrollDown,Green.png,2,Neutral,Neutral,0,0,0,0,,,,,,,,,,,,,,,,,0,27,27,27,,,,,,,,,,,,,,,,,,,,,,,,,,,,,,,,,,,,,,,,,,,,,,,,,,,,,,,,,,,,,,,,,,,,,,,,,,,,,,,,,1.8333333383003871,1.362664200000836,331.1110013999996,None,ScrollUp,정답입니다,331.1110013999996,None,331.1110013999996,None,331.1110013999996,None,331.1110013999996,None,332.34922469999947,None,332.34922469999947,332.86255580000034,,,,,,,,,,,,,,,,205,2022-04-28_11h42.32.351,FishGame,2022.1.1,60.00841317951608,
,29,넌 배려심있어,1,Orange,A,6.083333333333333,5.5,ScrollDown,ScrollUp,Orange.png,2,Positive,Congruent,0,0,0,0,,,,,,,,,,,,,,,,,0,28,28,28,,,,,,,,,,,,,,,,,,,,,,,,,,,,,,,,,,,,,,,,,,,,,,,,,,,,,,,,,,,,,,,,,,,,,,,,,,,,,,,,,1,1.301979100000608,333.5207326,None,ScrollDown,정답입니다,333.5207326,None,333.5207326,None,333.5207326,None,333.5207326,None,334.68560909999997,None,334.68560909999997,335.1955447999999,,,,,,,,,,,,,,,,205,2022-04-28_11h42.32.351,FishGame,2022.1.1,60.00841317951608,
,30,넌 숨김없어,3,Orange,A,4.5,4.933333333333334,ScrollDown,ScrollUp,Orange.png,2,Neutral,Neutral,0,0,0,0,,,,,,,,,,,,,,,,,0,29,29,29,,,,,,,,,,,,,,,,,,,,,,,,,,,,,,,,,,,,,,,,,,,,,,,,,,,,,,,,,,,,,,,,,,,,,,,,,,,,,,,,,1,1.2923832999995284,335.86070409999957,None,ScrollDown,정답입니다,335.86070409999957,None,335.86070409999957,None,335.86070409999957,None,335.86070409999957,None,337.01180899999963,None,337.01180899999963,337.5119439,,,,,,,,,,,,,,,,205,2022-04-28_11h42.32.351,FishGame,2022.1.1,60.00841317951608,
,31,넌 훌륭해,2,Green,B,5.916666666666667,4.033333333333333,ScrollUp,ScrollDown,Green.png,2,Positive,Incongruent,0,0,0,0,,,,,,,,,,,,,,,,,0,30,30,30,,,,,,,,,,,,,,,,,,,,,,,,,,,,,,,,,,,,,,,,,,,,,,,,,,,,,,,,,,,,,,,,,,,,,,,,,,,,,,,,,1.8611111144224803,1.4168799999997646,338.1755370000001,None,ScrollUp,정답입니다,338.1755370000001,None,338.1755370000001,None,338.1755370000001,None,338.1755370000001,None,339.4502265000001,None,339.4502265000001,339.96150709999984,,,,,,,,,,,,,,,,205,2022-04-28_11h42.32.351,FishGame,2022.1.1,60.00841317951608,
,32,넌 슬기로워,2,Orange,A,6.166666666666667,4.1,ScrollDown,ScrollUp,Orange.png,2,Positive,Congruent,0,0,0,0,,,,,,,,,,,,,,,,,0,31,31,31,,,,,,,,,,,,,,,,,,,,,,,,,,,,,,,,,,,,,,,,,,,,,,,,,,,,,,,,,,,,,,,,,,,,,,,,,,,,,,,,,1,1.4401475000004211,340.6231361,None,ScrollDown,정답입니다,340.6231361,None,340.6231361,None,340.6231361,None,340.6231361,None,341.92825600000015,None,341.92825600000015,342.4279029999998,,,,,,,,,,,,,,,,205,2022-04-28_11h42.32.351,FishGame,2022.1.1,60.00841317951608,
,33,넌 냉혹해,5,Orange,A,2.583333333333333,2.1,ScrollDown,ScrollUp,Orange.png,2,Negative,Incongruent,0,0,0,0,,,,,,,,,,,,,,,,,0,32,32,32,,,,,,,,,,,,,,,,,,,,,,,,,,,,,,,,,,,,,,,,,,,,,,,,,,,,,,,,,,,,,,,,,,,,,,,,,,,,,,,,,1,1.4593328000000838,343.09179760000006,None,ScrollDown,정답입니다,343.09179760000006,None,343.09179760000006,None,343.09179760000006,None,343.09179760000006,None,344.4108854999995,None,344.4108854999995,344.91102560000036,,,,,,,,,,,,,,,,205,2022-04-28_11h42.32.351,FishGame,2022.1.1,60.00841317951608,
,34,나를 데려가줘,6,Green,B,0,0,ScrollDown,ScrollUp,Green.png,2,NonTarget,NonTarget,0,0,0,0,,,,,,,,,,,,,,,,,0,33,33,33,,,,,,,,,,,,,,,,,,,,,,,,,,,,,,,,,,,,,,,,,,,,,,,,,,,,,,,,,,,,,,,,,,,,,,,,,,,,,,,,,1,1.2780266999998275,345.5619502999998,None,ScrollDown,정답입니다,345.5619502999998,None,345.5619502999998,None,345.5619502999998,None,345.5619502999998,None,346.71181849999994,None,346.71181849999994,347.22753769999963,,,,,,,,,,,,,,,,205,2022-04-28_11h42.32.351,FishGame,2022.1.1,60.00841317951608,
,35,넌 편파적이야,5,Green,B,2.125,2,ScrollUp,ScrollDown,Green.png,2,Negative,Congruent,0,0,0,0,,,,,,,,,,,,,,,,,0,34,34,34,,,,,,,,,,,,,,,,,,,,,,,,,,,,,,,,,,,,,,,,,,,,,,,,,,,,,,,,,,,,,,,,,,,,,,,,,,,,,,,,,2,1.3450169000007008,347.8853312000001,None,ScrollUp,정답입니다,347.8853312000001,None,347.8853312000001,None,347.8853312000001,None,347.8853312000001,None,349.0944002999995,None,349.0944002999995,349.5936707999999,,,,,,,,,,,,,,,,205,2022-04-28_11h42.32.351,FishGame,2022.1.1,60.00841317951608,
,36,넌 슬퍼,4,Orange,A,2.583333333333333,3.066666666666667,ScrollDown,ScrollUp,Orange.png,2,Negative,Incongruent,0,0,0,0,,,,,,,,,,,,,,,,,0,35,35,35,,,,,,,,,,,,,,,,,,,,,,,,,,,,,,,,,,,,,,,,,,,,,,,,,,,,,,,,,,,,,,,,,,,,,,,,,,,,,,,,,1,1.5521808000003148,350.25103299999955,None,ScrollDown,정답입니다,350.25103299999955,None,350.25103299999955,None,350.25103299999955,None,350.25103299999955,None,351.6671954000003,None,351.6671954000003,352.17668950000007,,,,,,,,,,,,,,,,205,2022-04-28_11h42.32.351,FishGame,2022.1.1,60.00841317951608,
,37,나를 데려가줘,6,Green,B,0,0,ScrollDown,ScrollUp,Green.png,2,NonTarget,NonTarget,0,0,0,0,,,,,,,,,,,,,,,,,0,36,36,36,,,,,,,,,,,,,,,,,,,,,,,,,,,,,,,,,,,,,,,,,,,,,,,,,,,,,,,,,,,,,,,,,,,,,,,,,,,,,,,,,1,1.3436632000002646,352.8326655999999,None,ScrollDown,정답입니다,352.8326655999999,None,352.8326655999999,None,352.8326655999999,None,352.8326655999999,None,354.0430924000002,None,354.0430924000002,354.5430323999999,,,,,,,,,,,,,,,,205,2022-04-28_11h42.32.351,FishGame,2022.1.1,60.00841317951608,
,38,넌 친절해,1,Green,B,6.041666666666667,5.533333333333333,ScrollUp,ScrollDown,Green.png,2,Positive,Incongruent,0,0,0,0,,,,,,,,,,,,,,,,,0,37,37,37,,,,,,,,,,,,,,,,,,,,,,,,,,,,,,,,,,,,,,,,,,,,,,,,,,,,,,,,,,,,,,,,,,,,,,,,,,,,,,,,,2,1.63713800000005,355.20241669999996,None,ScrollUp,정답입니다,355.20241669999996,None,355.20241669999996,None,355.20241669999996,None,355.20241669999996,None,356.70109279999997,None,356.70109279999997,357.20926770000005,,,,,,,,,,,,,,,,205,2022-04-28_11h42.32.351,FishGame,2022.1.1,60.00841317951608,
,1,넌 엉성해,4,Orange,A,3,3.3,ScrollDown,ScrollUp,Orange.png,3,Negative,Incongruent,0,0,0,0,,,,,,,,,,,,,,,,,,,,,0,0,0,0,,,,,,,,,,,,,,,,,,,,,,,,,,,,,,,,,,,,390.88883950000036,392.38814749999983,392.4214377999997,393.3712620999995,393.4213528999999,394.37118869999995,394.37118869999995,None,,,,,,,,,,,,,,,,,,,,,,,,,,,,,,,,,,1,2.1755001999999877,395.569348,None,ScrollDown,정답입니다,395.569348,None,395.569348,None,395.569348,None,395.569348,None,397.5591797999996,None,397.5591797999996,398.0707589000003,357.7093159999995,None,357.7093159999995,None,0.2074074,-0.1287037,1,0,0,0.01621439999962604,None,387.7219715000001,None,,,205,2022-04-28_11h42.32.351,FishGame,2022.1.1,60.00841317951608,
,2,나를 보내줘,6,Orange,A,0,0,ScrollUp,ScrollDown,Orange.png,3,NonTarget,NonTarget,0,0,0,0,,,,,,,,,,,,,,,,,,,,,0,1,1,1,,,,,,,,,,,,,,,,,,,,,,,,,,,,,,,,,,,,,,,,,,,,,,,,,,,,,,,,,,,,,,,,,,,,,,,,,,,,,2,1.3723196999999345,398.7260361999997,None,ScrollUp,정답입니다,398.7260361999997,None,398.7260361999997,None,398.7260361999997,None,398.7260361999997,None,399.9641184000002,None,399.9641184000002,400.47054899999966,,,,,,,,,,,,,,,,205,2022-04-28_11h42.32.351,FishGame,2022.1.1,60.00841317951608,
,3,넌 활발해,1,Green,B,5.666666666666667,5.6,ScrollUp,ScrollDown,Green.png,3,Positive,Incongruent,0,0,0,0,,,,,,,,,,,,,,,,,,,,,0,2,2,2,,,,,,,,,,,,,,,,,,,,,,,,,,,,,,,,,,,,,,,,,,,,,,,,,,,,,,,,,,,,,,,,,,,,,,,,,,,,,1.7916666616996129,1.3819283000002542,401.1305616999998,None,ScrollUp,정답입니다,401.1305616999998,None,401.1305616999998,None,401.1305616999998,None,401.1305616999998,None,402.3767611000003,None,402.3767611000003,402.88686570000027,,,,,,,,,,,,,,,,205,2022-04-28_11h42.32.351,FishGame,2022.1.1,60.00841317951608,
,4,넌 논리적이야,2,Orange,A,5.666666666666666,4.633333333333334,ScrollDown,ScrollUp,Orange.png,3,Positive,Congruent,0,0,0,0,,,,,,,,,,,,,,,,,,,,,0,3,3,3,,,,,,,,,,,,,,,,,,,,,,,,,,,,,,,,,,,,,,,,,,,,,,,,,,,,,,,,,,,,,,,,,,,,,,,,,,,,,1.0092592636744182,1.2208054000002448,403.55015249999997,None,ScrollDown,정답입니다,403.55015249999997,None,403.55015249999997,None,403.55015249999997,None,403.55015249999997,None,404.6292877999995,None,404.6292877999995,405.13654549999956,,,,,,,,,,,,,,,,205,2022-04-28_11h42.32.351,FishGame,2022.1.1,60.00841317951608,
,5,넌 과묵해,3,Orange,A,3.875,4.4,ScrollDown,ScrollUp,Orange.png,3,Neutral,Neutral,0,0,0,0,,,,,,,,,,,,,,,,,,,,,0,4,4,4,,,,,,,,,,,,,,,,,,,,,,,,,,,,,,,,,,,,,,,,,,,,,,,,,,,,,,,,,,,,,,,,,,,,,,,,,,,,,1,1.2048617999998896,405.79913920000035,None,ScrollDown,정답입니다,405.79913920000035,None,405.79913920000035,None,405.79913920000035,None,405.79913920000035,None,406.8697044999999,None,406.8697044999999,407.36942550000003,,,,,,,,,,,,,,,,205,2022-04-28_11h42.32.351,FishGame,2022.1.1,60.00841317951608,
,6,나를 데려가줘,6,Green,B,0,0,ScrollDown,ScrollUp,Green.png,3,NonTarget,NonTarget,0,0,0,0,,,,,,,,,,,,,,,,,,,,,0,5,5,5,,,,,,,,,,,,,,,,,,,,,,,,,,,,,,,,,,,,,,,,,,,,,,,,,,,,,,,,,,,,,,,,,,,,,,,,,,,,,1,1.2402468999998746,408.0200052,None,ScrollDown,정답입니다,408.0200052,None,408.0200052,None,408.0200052,None,408.0200052,None,409.1361159999997,None,409.1361159999997,409.6359394000001,,,,,,,,,,,,,,,,205,2022-04-28_11h42.32.351,FishGame,2022.1.1,60.00841317951608,
,7,넌 미숙해,4,Green,B,3,3,ScrollUp,ScrollDown,Green.png,3,Negative,Congruent,0,0,0,0,,,,,,,,,,,,,,,,,,,,,0,6,6,6,,,,,,,,,,,,,,,,,,,,,,,,,,,,,,,,,,,,,,,,,,,,,,,,,,,,,,,,,,,,,,,,,,,,,,,,,,,,,1.7839506169160206,1.3839846000000762,410.28566729999966,None,ScrollUp,정답입니다,410.28566729999966,None,410.28566729999966,None,410.28566729999966,None,410.28566729999966,None,411.5423873,None,411.5423873,412.0523833999996,,,,,,,,,,,,,,,,205,2022-04-28_11h42.32.351,FishGame,2022.1.1,60.00841317951608,
,8,나를 보내줘,6,Orange,A,0,0,ScrollUp,ScrollDown,Orange.png,3,NonTarget,NonTarget,0,0,0,0,,,,,,,,,,,,,,,,,,,,,0,7,7,7,,,,,,,,,,,,,,,,,,,,,,,,,,,,,,,,,,,,,,,,,,,,,,,,,,,,,,,,,,,,,,,,,,,,,,,,,,,,,1.9567901293436687,1.1480367000003753,412.70727199999965,None,ScrollUp,정답입니다,412.70727199999965,None,412.70727199999965,None,412.70727199999965,None,412.70727199999965,None,413.72233309999956,None,413.72233309999956,414.23516199999995,,,,,,,,,,,,,,,,205,2022-04-28_11h42.32.351,FishGame,2022.1.1,60.00841317951608,
,9,넌 자신만만해,3,Green,B,4.833333333333334,4.333333333333333,ScrollUp,ScrollDown,Green.png,3,Neutral,Neutral,0,0,0,0,,,,,,,,,,,,,,,,,,,,,0,8,8,8,,,,,,,,,,,,,,,,,,,,,,,,,,,,,,,,,,,,,,,,,,,,,,,,,,,,,,,,,,,,,,,,,,,,,,,,,,,,,1.90586419403553,1.9649532000003092,414.88692040000024,None,ScrollUp,정답입니다,414.88692040000024,None,414.88692040000024,None,414.88692040000024,None,414.88692040000024,None,416.72330539999984,None,416.72330539999984,417.23497380000026,,,,,,,,,,,,,,,,205,2022-04-28_11h42.32.351,FishGame,2022.1.1,60.00841317951608,
,10,넌 탐욕스러워,5,Orange,A,2.25,2.1,ScrollDown,ScrollUp,Orange.png,3,Negative,Incongruent,0,0,0,0,,,,,,,,,,,,,,,,,,,,,0,9,9,9,,,,,,,,,,,,,,,,,,,,,,,,,,,,,,,,,,,,,,,,,,,,,,,,,,,,,,,,,,,,,,,,,,,,,,,,,,,,,1,1.972882899999604,417.89800990000003,None,ScrollDown,정답입니다,417.89800990000003,None,417.89800990000003,None,417.89800990000003,None,417.89800990000003,None,419.7348394999999,None,419.7348394999999,420.2345085999996,,,,,,,,,,,,,,,,205,2022-04-28_11h42.32.351,FishGame,2022.1.1,60.00841317951608,
,11,넌 인기있어,2,Orange,A,5.458333333333333,4.5,ScrollDown,ScrollUp,Orange.png,3,Positive,Congruent,0,0,0,0,,,,,,,,,,,,,,,,,,,,,0,10,10,10,,,,,,,,,,,,,,,,,,,,,,,,,,,,,,,,,,,,,,,,,,,,,,,,,,,,,,,,,,,,,,,,,,,,,,,,,,,,,1,1.4360833999999159,420.8908554999998,None,ScrollDown,정답입니다,420.8908554999998,None,420.8908554999998,None,420.8908554999998,None,420.8908554999998,None,422.19161970000005,None,422.19161970000005,422.7008287999997,,,,,,,,,,,,,,,,205,2022-04-28_11h42.32.351,FishGame,2022.1.1,60.00841317951608,
,12,나를 데려가줘,6,Green,B,0,0,ScrollDown,ScrollUp,Green.png,3,NonTarget,NonTarget,0,0,0,0,,,,,,,,,,,,,,,,,,,,,0,11,11,11,,,,,,,,,,,,,,,,,,,,,,,,,,,,,,,,,,,,,,,,,,,,,,,,,,,,,,,,,,,,,,,,,,,,,,,,,,,,,1,1.3159949999999299,423.35289360000024,None,ScrollDown,정답입니다,423.35289360000024,None,423.35289360000024,None,423.35289360000024,None,423.35289360000024,None,424.5392774000002,None,424.5392774000002,425.0506562999999,,,,,,,,,,,,,,,,205,2022-04-28_11h42.32.351,FishGame,2022.1.1,60.00841317951608,
,13,넌 뛰어나,2,Green,B,6.166666666666667,4,ScrollUp,ScrollDown,Green.png,3,Positive,Incongruent,0,0,0,0,,,,,,,,,,,,,,,,,,,,,0,12,12,12,,,,,,,,,,,,,,,,,,,,,,,,,,,,,,,,,,,,,,,,,,,,,,,,,,,,,,,,,,,,,,,,,,,,,,,,,,,,,1.9645061492919922,1.7102749999994558,425.7050208999999,None,ScrollUp,정답입니다,425.7050208999999,None,425.7050208999999,None,425.7050208999999,None,425.7050208999999,None,427.2835990000003,None,427.2835990000003,427.7836506000003,,,,,,,,,,,,,,,,205,2022-04-28_11h42.32.351,FishGame,2022.1.1,60.00841317951608,
,14,넌 낙관적이야,1,Orange,A,5.75,5.8,ScrollDown,ScrollUp,Orange.png,3,Positive,Congruent,0,0,0,0,,,,,,,,,,,,,,,,,,,,,0,13,13,13,,,,,,,,,,,,,,,,,,,,,,,,,,,,,,,,,,,,,,,,,,,,,,,,,,,,,,,,,,,,,,,,,,,,,,,,,,,,,1,1.4645203999998557,428.4459950999999,None,ScrollDown,정답입니다,428.4459950999999,None,428.4459950999999,None,428.4459950999999,None,428.4459950999999,None,429.7703706000002,None,429.7703706000002,430.2830745000001,,,,,,,,,,,,,,,,205,2022-04-28_11h42.32.351,FishGame,2022.1.1,60.00841317951608,
,15,넌 산만해,4,Green,B,2.695652173913043,3.033333333333333,ScrollUp,ScrollDown,Green.png,3,Negative,Congruent,0,0,0,0,,,,,,,,,,,,,,,,,,,,,0,14,14,14,,,,,,,,,,,,,,,,,,,,,,,,,,,,,,,,,,,,,,,,,,,,,,,,,,,,,,,,,,,,,,,,,,,,,,,,,,,,,1.7484567960103354,1.3431402999995044,430.93804180000006,None,ScrollUp,정답입니다,430.93804180000006,None,430.93804180000006,None,430.93804180000006,None,430.93804180000006,None,432.1496411999997,None,432.1496411999997,432.64958659999957,,,,,,,,,,,,,,,,205,2022-04-28_11h42.32.351,FishGame,2022.1.1,60.00841317951608,
,16,나를 보내줘,6,Orange,A,0,0,ScrollUp,ScrollDown,Orange.png,3,NonTarget,NonTarget,0,0,0,0,,,,,,,,,,,,,,,,,,,,,0,15,15,15,,,,,,,,,,,,,,,,,,,,,,,,,,,,,,,,,,,,,,,,,,,,,,,,,,,,,,,,,,,,,,,,,,,,,,,,,,,,,1.658950611948967,1.1936950999997862,433.3066888000003,None,ScrollUp,정답입니다,433.3066888000003,None,433.3066888000003,None,433.3066888000003,None,433.3066888000003,None,434.3621303,None,434.3621303,434.8659756999996,,,,,,,,,,,,,,,,205,2022-04-28_11h42.32.351,FishGame,2022.1.1,60.00841317951608,
,17,넌 교활해,5,Green,B,2.333333333333333,2.133333333333333,ScrollUp,ScrollDown,Green.png,3,Negative,Congruent,0,0,0,0,,,,,,,,,,,,,,,,,,,,,0,16,16,16,,,,,,,,,,,,,,,,,,,,,,,,,,,,,,,,,,,,,,,,,,,,,,,,,,,,,,,,,,,,,,,,,,,,,,,,,,,,,1.8503086417913437,2.0381642000002103,435.52347889999965,None,ScrollUp,정답입니다,435.52347889999965,None,435.52347889999965,None,435.52347889999965,None,435.52347889999965,None,437.42637379999996,None,437.42637379999996,437.9321639,,,,,,,,,,,,,,,,205,2022-04-28_11h42.32.351,FishGame,2022.1.1,60.00841317951608,
,18,나를 보내줘,6,Orange,A,0,0,ScrollUp,ScrollDown,Orange.png,3,NonTarget,NonTarget,0,0,0,0,,,,,,,,,,,,,,,,,,,,,0,17,17,17,,,,,,,,,,,,,,,,,,,,,,,,,,,,,,,,,,,,,,,,,,,,,,,,,,,,,,,,,,,,,,,,,,,,,,,,,,,,,1.8950617214043934,1.3487787999993088,438.59141329999966,None,ScrollUp,정답입니다,438.59141329999966,None,438.59141329999966,None,438.59141329999966,None,438.59141329999966,None,439.8035923999996,None,439.8035923999996,440.31515930000023,,,,,,,,,,,,,,,,205,2022-04-28_11h42.32.351,FishGame,2022.1.1,60.00841317951608,
,19,넌 불친절해,5,Green,B,2.208333333333333,2.033333333333333,ScrollUp,ScrollDown,Green.png,3,Negative,Congruent,0,0,0,0,,,,,,,,,,,,,,,,,,,,,0,18,18,18,,,,,,,,,,,,,,,,,,,,,,,,,,,,,,,,,,,,,,,,,,,,,,,,,,,,,,,,,,,,,,,,,,,,,,,,,,,,,1.7052469179034233,1.4146921000001385,440.9791405999995,None,ScrollUp,정답입니다,440.9791405999995,None,440.9791405999995,None,440.9791405999995,None,440.9791405999995,None,442.2527252,None,442.2527252,442.7649401999997,,,,,,,,,,,,,,,,205,2022-04-28_11h42.32.351,FishGame,2022.1.1,60.00841317951608,
,20,넌 지적이야,2,Green,B,5.75,4.366666666666666,ScrollUp,ScrollDown,Green.png,3,Positive,Incongruent,0,0,0,0,,,,,,,,,,,,,,,,,,,,,0,19,19,19,,,,,,,,,,,,,,,,,,,,,,,,,,,,,,,,,,,,,,,,,,,,,,,,,,,,,,,,,,,,,,,,,,,,,,,,,,,,,1.5879629639287791,1.6091632999996364,443.41702910000004,None,ScrollUp,정답입니다,443.41702910000004,None,443.41702910000004,None,443.41702910000004,None,443.41702910000004,None,444.8940241,None,444.8940241,445.39785759999995,,,,,,,,,,,,,,,,205,2022-04-28_11h42.32.351,FishGame,2022.1.1,60.00841317951608,
,21,넌 우유부단해,4,Orange,A,2.666666666666667,3.166666666666667,ScrollDown,ScrollUp,Orange.png,3,Negative,Incongruent,0,0,0,0,,,,,,,,,,,,,,,,,,,,,0,20,20,20,,,,,,,,,,,,,,,,,,,,,,,,,,,,,,,,,,,,,,,,,,,,,,,,,,,,,,,,,,,,,,,,,,,,,,,,,,,,,1,1.4152473999993163,446.06027900000026,None,ScrollDown,정답입니다,446.06027900000026,None,446.06027900000026,None,446.06027900000026,None,446.06027900000026,None,447.3362423999997,None,447.3362423999997,447.8475784000002,,,,,,,,,,,,,,,,205,2022-04-28_11h42.32.351,FishGame,2022.1.1,60.00841317951608,
,22,나를 데려가줘,6,Green,B,0,0,ScrollDown,ScrollUp,Green.png,3,NonTarget,NonTarget,0,0,0,0,,,,,,,,,,,,,,,,,,,,,0,21,21,21,,,,,,,,,,,,,,,,,,,,,,,,,,,,,,,,,,,,,,,,,,,,,,,,,,,,,,,,,,,,,,,,,,,,,,,,,,,,,1,1.4393672999995033,448.49751670000023,None,ScrollDown,정답입니다,448.49751670000023,None,448.49751670000023,None,448.49751670000023,None,448.49751670000023,None,449.81397579999975,None,449.81397579999975,450.31379990000005,,,,,,,,,,,,,,,,205,2022-04-28_11h42.32.351,FishGame,2022.1.1,60.00841317951608,
,23,넌 성실해,1,Green,B,6.041666666666666,5.7,ScrollUp,ScrollDown,Green.png,3,Positive,Incongruent,0,0,0,0,,,,,,,,,,,,,,,,,,,,,0,22,22,22,,,,,,,,,,,,,,,,,,,,,,,,,,,,,,,,,,,,,,,,,,,,,,,,,,,,,,,,,,,,,,,,,,,,,,,,,,,,,1.8935185074806213,1.3133950000001278,450.9629095999999,None,ScrollUp,정답입니다,450.9629095999999,None,450.9629095999999,None,450.9629095999999,None,450.9629095999999,None,452.14956809999967,None,452.14956809999967,452.66371059999983,,,,,,,,,,,,,,,,205,2022-04-28_11h42.32.351,FishGame,2022.1.1,60.00841317951608,
,24,넌 현실주의적이야,3,Orange,A,4.625,4.4,ScrollDown,ScrollUp,Orange.png,3,Neutral,Neutral,0,0,0,0,,,,,,,,,,,,,,,,,,,,,0,23,23,23,,,,,,,,,,,,,,,,,,,,,,,,,,,,,,,,,,,,,,,,,,,,,,,,,,,,,,,,,,,,,,,,,,,,,,,,,,,,,1,1.3486915000003137,453.31551990000025,None,ScrollDown,정답입니다,453.31551990000025,None,453.31551990000025,None,453.31551990000025,None,453.31551990000025,None,454.5350988,None,454.5350988,455.04665039999963,,,,,,,,,,,,,,,,205,2022-04-28_11h42.32.351,FishGame,2022.1.1,60.00841317951608,
,25,넌 진실돼,1,Orange,A,6.625,5.566666666666666,ScrollDown,ScrollUp,Orange.png,3,Positive,Congruent,0,0,0,0,,,,,,,,,,,,,,,,,,,,,0,24,24,24,,,,,,,,,,,,,,,,,,,,,,,,,,,,,,,,,,,,,,,,,,,,,,,,,,,,,,,,,,,,,,,,,,,,,,,,,,,,,1,1.1341019000001324,455.7081468999995,None,ScrollDown,정답입니다,455.7081468999995,None,455.7081468999995,None,455.7081468999995,None,455.7081468999995,None,456.7033523,None,456.7033523,457.21328339999945,,,,,,,,,,,,,,,,205,2022-04-28_11h42.32.351,FishGame,2022.1.1,60.00841317951608,
,26,넌 천진난만해,3,Green,B,4.958333333333334,4.833333333333333,ScrollUp,ScrollDown,Green.png,3,Neutral,Neutral,0,0,0,0,,,,,,,,,,,,,,,,,,,,,0,25,25,25,,,,,,,,,,,,,,,,,,,,,,,,,,,,,,,,,,,,,,,,,,,,,,,,,,,,,,,,,,,,,,,,,,,,,,,,,,,,,1.7932098756233852,1.4789524000007077,457.86687340000026,None,ScrollUp,정답입니다,457.86687340000026,None,457.86687340000026,None,457.86687340000026,None,457.86687340000026,None,459.21277290000035,None,459.21277290000035,459.71274919999996,,,,,,,,,,,,,,,,205,2022-04-28_11h42.32.351,FishGame,2022.1.1,60.00841317951608,
,27,넌 교양없어,5,Orange,A,2.416666666666667,2.2,ScrollDown,ScrollUp,Orange.png,3,Negative,Incongruent,0,0,0,0,,,,,,,,,,,,,,,,,,,,,0,26,26,26,,,,,,,,,,,,,,,,,,,,,,,,,,,,,,,,,,,,,,,,,,,,,,,,,,,,,,,,,,,,,,,,,,,,,,,,,,,,,1,1.3849244000002727,460.37446550000004,None,ScrollDown,정답입니다,460.37446550000004,None,460.37446550000004,None,460.37446550000004,None,460.37446550000004,None,461.6186582,None,461.6186582,462.1289760999998,,,,,,,,,,,,,,,,205,2022-04-28_11h42.32.351,FishGame,2022.1.1,60.00841317951608,
,28,나를 보내줘,6,Orange,A,0,0,ScrollUp,ScrollDown,Orange.png,3,NonTarget,NonTarget,0,0,0,0,,,,,,,,,,,,,,,,,,,,,0,27,27,27,,,,,,,,,,,,,,,,,,,,,,,,,,,,,,,,,,,,,,,,,,,,,,,,,,,,,,,,,,,,,,,,,,,,,,,,,,,,,1.9429012537002563,1.5201999999999316,462.78095740000026,None,ScrollUp,정답입니다,462.78095740000026,None,462.78095740000026,None,462.78095740000026,None,462.78095740000026,None,464.17109170000003,None,464.17109170000003,464.67866369999956,,,,,,,,,,,,,,,,205,2022-04-28_11h42.32.351,FishGame,2022.1.1,60.00841317951608,
,29,넌 엉뚱스러워,3,Orange,A,4.166666666666667,4.133333333333334,ScrollDown,ScrollUp,Orange.png,3,Neutral,Neutral,0,0,0,0,,,,,,,,,,,,,,,,,,,,,0,28,28,28,,,,,,,,,,,,,,,,,,,,,,,,,,,,,,,,,,,,,,,,,,,,,,,,,,,,,,,,,,,,,,,,,,,,,,,,,,,,,1,1.4671299999999974,465.3419246000003,None,ScrollDown,정답입니다,465.3419246000003,None,465.3419246000003,None,465.3419246000003,None,465.3419246000003,None,466.6683845999996,None,466.6683845999996,467.17833809999956,,,,,,,,,,,,,,,,205,2022-04-28_11h42.32.351,FishGame,2022.1.1,60.00841317951608,
,30,넌 무지해,4,Green,B,2.541666666666667,3.066666666666667,ScrollUp,ScrollDown,Green.png,3,Negative,Congruent,0,0,0,0,,,,,,,,,,,,,,,,,,,,,0,29,29,29,,,,,,,,,,,,,,,,,,,,,,,,,,,,,,,,,,,,,,,,,,,,,,,,,,,,,,,,,,,,,,,,,,,,,,,,,,,,,1.5586419738829136,1.488589000000502,467.82681129999946,None,ScrollUp,정답입니다,467.82681129999946,None,467.82681129999946,None,467.82681129999946,None,467.82681129999946,None,469.1890401999999,None,469.1890401999999,469.69467090000035,,,,,,,,,,,,,,,,205,2022-04-28_11h42.32.351,FishGame,2022.1.1,60.00841317951608,
,31,넌 음울해,5,Green,B,2.25,2.233333333333333,ScrollUp,ScrollDown,Green.png,3,Negative,Congruent,0,0,0,0,,,,,,,,,,,,,,,,,,,,,0,30,30,30,,,,,,,,,,,,,,,,,,,,,,,,,,,,,,,,,,,,,,,,,,,,,,,,,,,,,,,,,,,,,,,,,,,,,,,,,,,,,1.799382706483205,1.8968915999994351,470.35100520000015,None,ScrollUp,정답입니다,470.35100520000015,None,470.35100520000015,None,470.35100520000015,None,470.35100520000015,None,472.11465620000035,None,472.11465620000035,472.6277436999999,,,,,,,,,,,,,,,,205,2022-04-28_11h42.32.351,FishGame,2022.1.1,60.00841317951608,
,32,넌 냉소적이야,5,Orange,A,2.916666666666667,2.4,ScrollDown,ScrollUp,Orange.png,3,Negative,Incongruent,0,0,0,0,,,,,,,,,,,,,,,,,,,,,0,31,31,31,,,,,,,,,,,,,,,,,,,,,,,,,,,,,,,,,,,,,,,,,,,,,,,,,,,,,,,,,,,,,,,,,,,,,,,,,,,,,1,1.527726199999961,473.28302819999953,None,ScrollDown,정답입니다,473.28302819999953,None,473.28302819999953,None,473.28302819999953,None,473.28302819999953,None,474.67419789999985,None,474.67419789999985,475.1773968999996,,,,,,,,,,,,,,,,205,2022-04-28_11h42.32.351,FishGame,2022.1.1,60.00841317951608,
,33,나를 데려가줘,6,Green,B,0,0,ScrollDown,ScrollUp,Green.png,3,NonTarget,NonTarget,0,0,0,0,,,,,,,,,,,,,,,,,,,,,0,32,32,32,,,,,,,,,,,,,,,,,,,,,,,,,,,,,,,,,,,,,,,,,,,,,,,,,,,,,,,,,,,,,,,,,,,,,,,,,,,,,1,1.3763036000000284,475.8298630999998,None,ScrollDown,정답입니다,475.8298630999998,None,475.8298630999998,None,475.8298630999998,None,475.8298630999998,None,477.0771476,None,477.0771476,477.57704060000015,,,,,,,,,,,,,,,,205,2022-04-28_11h42.32.351,FishGame,2022.1.1,60.00841317951608,
,34,넌 쾌활해,1,Orange,A,5.541666666666666,5.733333333333333,ScrollDown,ScrollUp,Orange.png,3,Positive,Congruent,0,0,0,0,,,,,,,,,,,,,,,,,,,,,0,33,33,33,,,,,,,,,,,,,,,,,,,,,,,,,,,,,,,,,,,,,,,,,,,,,,,,,,,,,,,,,,,,,,,,,,,,,,,,,,,,,1,1.6554869999999937,478.23998870000014,None,ScrollDown,정답입니다,478.23998870000014,None,478.23998870000014,None,478.23998870000014,None,478.23998870000014,None,479.76025630000004,None,479.76025630000004,480.2601969999996,,,,,,,,,,,,,,,,205,2022-04-28_11h42.32.351,FishGame,2022.1.1,60.00841317951608,
,35,나를 보내줘,6,Orange,A,0,0,ScrollUp,ScrollDown,Orange.png,3,NonTarget,NonTarget,0,0,0,0,,,,,,,,,,,,,,,,,,,,,0,34,34,34,,,,,,,,,,,,,,,,,,,,,,,,,,,,,,,,,,,,,,,,,,,,,,,,,,,,,,,,,,,,,,,,,,,,,,,,,,,,,1.7978395173947017,1.2491943999993964,480.9056402999995,None,ScrollUp,정답입니다,480.9056402999995,None,480.9056402999995,None,480.9056402999995,None,480.9056402999995,None,482.0321944999996,None,482.0321944999996,482.5434537000001,,,,,,,,,,,,,,,,205,2022-04-28_11h42.32.351,FishGame,2022.1.1,60.00841317951608,
,36,넌 명랑해,1,Green,B,5.739130434782609,5.666666666666667,ScrollUp,ScrollDown,Green.png,3,Positive,Incongruent,0,0,0,0,,,,,,,,,,,,,,,,,,,,,0,35,35,35,,,,,,,,,,,,,,,,,,,,,,,,,,,,,,,,,,,,,,,,,,,,,,,,,,,,,,,,,,,,,,,,,,,,,,,,,,,,,1.6620370397965112,2.0835955000002286,483.1930916000001,None,ScrollUp,정답입니다,483.1930916000001,None,483.1930916000001,None,483.1930916000001,None,483.1930916000001,None,485.1487336,None,485.1487336,485.6593339000001,,,,,,,,,,,,,,,,205,2022-04-28_11h42.32.351,FishGame,2022.1.1,60.00841317951608,
,37,넌 멍해,4,Orange,A,2.833333333333333,3.4,ScrollDown,ScrollUp,Orange.png,3,Negative,Incongruent,0,0,0,0,,,,,,,,,,,,,,,,,,,,,0,36,36,36,,,,,,,,,,,,,,,,,,,,,,,,,,,,,,,,,,,,,,,,,,,,,,,,,,,,,,,,,,,,,,,,,,,,,,,,,,,,,1,1.3721990000003643,486.31964830000015,None,ScrollDown,정답입니다,486.31964830000015,None,486.31964830000015,None,486.31964830000015,None,486.31964830000015,None,487.55895539999983,None,487.55895539999983,488.0589779000002,,,,,,,,,,,,,,,,205,2022-04-28_11h42.32.351,FishGame,2022.1.1,60.00841317951608,
,38,나를 데려가줘,6,Green,B,0,0,ScrollDown,ScrollUp,Green.png,3,NonTarget,NonTarget,0,0,0,0,,,,,,,,,,,,,,,,,,,,,0,37,37,37,,,,,,,,,,,,,,,,,,,,,,,,,,,,,,,,,,,,,,,,,,,,,,,,,,,,,,,,,,,,,,,,,,,,,,,,,,,,,1,1.4417763999999806,488.70348120000017,None,ScrollDown,정답입니다,488.70348120000017,None,488.70348120000017,None,488.70348120000017,None,488.70348120000017,None,490.0256277999997,None,490.0256277999997,490.52526919999946,,,,,,,,,,,,,,,,205,2022-04-28_11h42.32.351,FishGame,2022.1.1,60.00841317951608,
,39,넌 현명해,2,Orange,A,6.541666666666666,4.533333333333333,ScrollDown,ScrollUp,Orange.png,3,Positive,Congruent,0,0,0,0,,,,,,,,,,,,,,,,,,,,,0,38,38,38,,,,,,,,,,,,,,,,,,,,,,,,,,,,,,,,,,,,,,,,,,,,,,,,,,,,,,,,,,,,,,,,,,,,,,,,,,,,,1,1.551146300000255,491.18135489999986,None,ScrollDown,정답입니다,491.18135489999986,None,491.18135489999986,None,491.18135489999986,None,491.18135489999986,None,492.59881789999963,None,492.59881789999963,493.1084281000003,,,,,,,,,,,,,,,,205,2022-04-28_11h42.32.351,FishGame,2022.1.1,60.00841317951608,
,40,넌 수줍어,3,Green,B,3.541666666666666,4.366666666666666,ScrollUp,ScrollDown,Green.png,3,Neutral,Neutral,0,0,0,0,,,,,,,,,,,,,,,,,,,,,0,39,39,39,,,,,,,,,,,,,,,,,,,,,,,,,,,,,,,,,,,,,,,,,,,,,,,,,,,,,,,,,,,,,,,,,,,,,,,,,,,,,1.7808641890684764,1.3217048999995313,493.7588556999999,None,ScrollUp,정답입니다,493.7588556999999,None,493.7588556999999,None,493.7588556999999,None,493.7588556999999,None,494.9580098999995,None,494.9580098999995,495.45810429999983,,,,,,,,,,,,,,,,205,2022-04-28_11h42.32.351,FishGame,2022.1.1,60.00841317951608,
,41,나를 데려가줘,6,Green,B,0,0,ScrollDown,ScrollUp,Green.png,3,NonTarget,NonTarget,0,0,0,0,,,,,,,,,,,,,,,,,,,,,0,40,40,40,,,,,,,,,,,,,,,,,,,,,,,,,,,,,,,,,,,,,,,,,,,,,,,,,,,,,,,,,,,,,,,,,,,,,,,,,,,,,1,1.5755202000000281,496.10925229999975,None,ScrollDown,정답입니다,496.10925229999975,None,496.10925229999975,None,496.10925229999975,None,496.10925229999975,None,497.5578733000002,None,497.5578733000002,498.0577615000002,,,,,,,,,,,,,,,,205,2022-04-28_11h42.32.351,FishGame,2022.1.1,60.00841317951608,
,42,넌 성숙해,2,Green,B,5.833333333333333,4.533333333333333,ScrollUp,ScrollDown,Green.png,3,Positive,Incongruent,0,0,0,0,,,,,,,,,,,,,,,,,,,,,0,41,41,41,,,,,,,,,,,,,,,,,,,,,,,,,,,,,,,,,,,,,,,,,,,,,,,,,,,,,,,,,,,,,,,,,,,,,,,,,,,,,1.7746913582086563,1.4448166000001947,498.70444750000024,None,ScrollUp,정답입니다,498.70444750000024,None,498.70444750000024,None,498.70444750000024,None,498.70444750000024,None,500.02412379999987,None,500.02412379999987,500.52417629999945,,,,,,,,,,,,,,,,205,2022-04-28_11h42.32.351,FishGame,2022.1.1,60.00841317951608,
,1,넌 매력적이야,2,Green,B,6.125,4.666666666666667,ScrollUp,ScrollDown,Green.png,4,Positive,Incongruent,0,0,0,0,,,,,,,,,,,,,,,,,,,,,,,,,0,0,0,0,,,,,,,,,,,,,,,,,,,,,,,,,,,,,,,,533.7697781999996,535.2695598999999,535.3029557999998,536.2529272000002,536.3028144,537.2527101999995,537.2527101999995,None,,,,,,,,,,,,,,,,,,,,,,,,,,,,,,,,,,1.7114197611808777,1.9200462999997399,538.4417780000003,None,ScrollUp,정답입니다,538.4417780000003,None,538.4417780000003,None,538.4417780000003,None,538.4417780000003,None,540.1817717000004,None,540.1817717000004,540.6855642999999,501.0239507999995,None,501.0239507999995,None,0.2462963,-0.10462963,1,0,0,0.01622479999969073,None,531.0367494000002,None,,,205,2022-04-28_11h42.32.351,FishGame,2022.1.1,60.00841317951608,
,2,나를 보내줘,6,Orange,A,0,0,ScrollUp,ScrollDown,Orange.png,4,NonTarget,NonTarget,0,0,0,0,,,,,,,,,,,,,,,,,,,,,,,,,0,1,1,1,,,,,,,,,,,,,,,,,,,,,,,,,,,,,,,,,,,,,,,,,,,,,,,,,,,,,,,,,,,,,,,,,,,,,,,,,1.4459876554707687,1.0770181000007142,541.3376325999998,None,ScrollDown,오답입니다,541.3376325999998,None,541.3376325999998,None,541.3376325999998,None,541.3376325999998,None,542.2877120000003,None,542.2877120000003,542.8019272000001,,,,,,,,,,,,,,,,205,2022-04-28_11h42.32.351,FishGame,2022.1.1,60.00841317951608,
,3,넌 조심스러워,3,Orange,A,4.791666666666666,4.666666666666667,ScrollDown,ScrollUp,Orange.png,4,Neutral,Neutral,0,0,0,0,,,,,,,,,,,,,,,,,,,,,,,,,0,2,2,2,,,,,,,,,,,,,,,,,,,,,,,,,,,,,,,,,,,,,,,,,,,,,,,,,,,,,,,,,,,,,,,,,,,,,,,,,1.080246905485789,2.2381062999993446,543.4583270000003,None,ScrollDown,정답입니다,543.4583270000003,None,543.4583270000003,None,543.4583270000003,None,543.4583270000003,None,545.5624871999999,None,545.5624871999999,546.0681672999999,,,,,,,,,,,,,,,,205,2022-04-28_11h42.32.351,FishGame,2022.1.1,60.00841317951608,
,4,넌 철학적이야,3,Green,B,4.5,4.266666666666667,ScrollUp,ScrollDown,Green.png,4,Neutral,Neutral,0,0,0,0,,,,,,,,,,,,,,,,,,,,,,,,,0,3,3,3,,,,,,,,,,,,,,,,,,,,,,,,,,,,,,,,,,,,,,,,,,,,,,,,,,,,,,,,,,,,,,,,,,,,,,,,,1.7052469179034233,1.2669733000002452,546.7246996000003,None,ScrollUp,정답입니다,546.7246996000003,None,546.7246996000003,None,546.7246996000003,None,546.7246996000003,None,547.8586542000003,None,547.8586542000003,548.3678639999998,,,,,,,,,,,,,,,,205,2022-04-28_11h42.32.351,FishGame,2022.1.1,60.00841317951608,
,5,넌 쩨쩨해,5,Orange,A,2.375,2.133333333333333,ScrollDown,ScrollUp,Orange.png,4,Negative,Incongruent,0,0,0,0,,,,,,,,,,,,,,,,,,,,,,,,,0,4,4,4,,,,,,,,,,,,,,,,,,,,,,,,,,,,,,,,,,,,,,,,,,,,,,,,,,,,,,,,,,,,,,,,,,,,,,,,,1,1.7265427000002092,549.0233952999997,None,ScrollDown,정답입니다,549.0233952999997,None,549.0233952999997,None,549.0233952999997,None,549.0233952999997,None,550.6175886999999,None,550.6175886999999,551.1177459999999,,,,,,,,,,,,,,,,205,2022-04-28_11h42.32.351,FishGame,2022.1.1,60.00841317951608,
,6,나를 데려가줘,6,Green,B,0,0,ScrollDown,ScrollUp,Green.png,4,NonTarget,NonTarget,0,0,0,0,,,,,,,,,,,,,,,,,,,,,,,,,0,5,5,5,,,,,,,,,,,,,,,,,,,,,,,,,,,,,,,,,,,,,,,,,,,,,,,,,,,,,,,,,,,,,,,,,,,,,,,,,1,1.2988812000003236,551.7669358000003,None,ScrollDown,정답입니다,551.7669358000003,None,551.7669358000003,None,551.7669358000003,None,551.7669358000003,None,552.9387719999995,None,552.9387719999995,553.4504987,,,,,,,,,,,,,,,,205,2022-04-28_11h42.32.351,FishGame,2022.1.1,60.00841317951608,
,7,넌 고집불통이야,5,Green,B,2.875,2,ScrollUp,ScrollDown,Green.png,4,Negative,Congruent,0,0,0,0,,,,,,,,,,,,,,,,,,,,,,,,,0,6,6,6,,,,,,,,,,,,,,,,,,,,,,,,,,,,,,,,,,,,,,,,,,,,,,,,,,,,,,,,,,,,,,,,,,,,,,,,,1.7839506169160206,2.0434554999992542,554.1098961999996,None,ScrollUp,정답입니다,554.1098961999996,None,554.1098961999996,None,554.1098961999996,None,554.1098961999996,None,556.0169757000003,None,556.0169757000003,556.5168766999996,,,,,,,,,,,,,,,,205,2022-04-28_11h42.32.351,FishGame,2022.1.1,60.00841317951608,
,8,넌 무심해,4,Orange,A,2.875,3.2,ScrollDown,ScrollUp,Orange.png,4,Negative,Incongruent,0,0,0,0,,,,,,,,,,,,,,,,,,,,,,,,,0,7,7,7,,,,,,,,,,,,,,,,,,,,,,,,,,,,,,,,,,,,,,,,,,,,,,,,,,,,,,,,,,,,,,,,,,,,,,,,,1,1.4717196999999942,557.1741458999995,None,ScrollDown,정답입니다,557.1741458999995,None,557.1741458999995,None,557.1741458999995,None,557.1741458999995,None,558.5164225999997,None,558.5164225999997,559.0164728999998,,,,,,,,,,,,,,,,205,2022-04-28_11h42.32.351,FishGame,2022.1.1,60.00841317951608,
,9,넌 정겨워,1,Orange,A,5.791666666666667,5.666666666666667,ScrollDown,ScrollUp,Orange.png,4,Positive,Congruent,0,0,0,0,,,,,,,,,,,,,,,,,,,,,,,,,0,8,8,8,,,,,,,,,,,,,,,,,,,,,,,,,,,,,,,,,,,,,,,,,,,,,,,,,,,,,,,,,,,,,,,,,,,,,,,,,1,1.2560280999996394,559.6803547999998,None,ScrollDown,정답입니다,559.6803547999998,None,559.6803547999998,None,559.6803547999998,None,559.6803547999998,None,560.7996391999995,None,560.7996391999995,561.2994741000002,,,,,,,,,,,,,,,,205,2022-04-28_11h42.32.351,FishGame,2022.1.1,60.00841317951608,
,10,나를 데려가줘,6,Green,B,0,0,ScrollDown,ScrollUp,Green.png,4,NonTarget,NonTarget,0,0,0,0,,,,,,,,,,,,,,,,,,,,,,,,,0,9,9,9,,,,,,,,,,,,,,,,,,,,,,,,,,,,,,,,,,,,,,,,,,,,,,,,,,,,,,,,,,,,,,,,,,,,,,,,,1,1.329294000000118,561.9506003999995,None,ScrollDown,정답입니다,561.9506003999995,None,561.9506003999995,None,561.9506003999995,None,561.9506003999995,None,563.1517476999998,None,563.1517476999998,563.6658996999995,,,,,,,,,,,,,,,,205,2022-04-28_11h42.32.351,FishGame,2022.1.1,60.00841317951608,
,11,넌 체제순응적이야,4,Green,B,3,3.6,ScrollUp,ScrollDown,Green.png,4,Negative,Congruent,0,0,0,0,,,,,,,,,,,,,,,,,,,,,,,,,0,10,10,10,,,,,,,,,,,,,,,,,,,,,,,,,,,,,,,,,,,,,,,,,,,,,,,,,,,,,,,,,,,,,,,,,,,,,,,,,2,1.4402971999998044,564.3325001000003,None,ScrollUp,정답입니다,564.3325001000003,None,564.3325001000003,None,564.3325001000003,None,564.3325001000003,None,565.6322078000003,None,565.6322078000003,566.1322934999998,,,,,,,,,,,,,,,,205,2022-04-28_11h42.32.351,FishGame,2022.1.1,60.00841317951608,
,12,나를 보내줘,6,Orange,A,0,0,ScrollUp,ScrollDown,Orange.png,4,NonTarget,NonTarget,0,0,0,0,,,,,,,,,,,,,,,,,,,,,,,,,0,11,11,11,,,,,,,,,,,,,,,,,,,,,,,,,,,,,,,,,,,,,,,,,,,,,,,,,,,,,,,,,,,,,,,,,,,,,,,,,2,1.2339005999992878,566.7848280999997,None,ScrollUp,정답입니다,566.7848280999997,None,566.7848280999997,None,566.7848280999997,None,566.7848280999997,None,567.8874218000001,None,567.8874218000001,568.3985293999995,,,,,,,,,,,,,,,,205,2022-04-28_11h42.32.351,FishGame,2022.1.1,60.00841317951608,
,13,넌 박식해,2,Orange,A,5.625,3.933333333333333,ScrollDown,ScrollUp,Orange.png,4,Positive,Congruent,0,0,0,0,,,,,,,,,,,,,,,,,,,,,,,,,0,12,12,12,,,,,,,,,,,,,,,,,,,,,,,,,,,,,,,,,,,,,,,,,,,,,,,,,,,,,,,,,,,,,,,,,,,,,,,,,1,1.454626100000496,569.0622401999999,None,ScrollDown,정답입니다,569.0622401999999,None,569.0622401999999,None,569.0622401999999,None,569.0622401999999,None,570.3753618999999,None,570.3753618999999,570.8816483,,,,,,,,,,,,,,,,205,2022-04-28_11h42.32.351,FishGame,2022.1.1,60.00841317951608,
,14,나를 보내줘,6,Orange,A,0,0,ScrollUp,ScrollDown,Orange.png,4,NonTarget,NonTarget,0,0,0,0,,,,,,,,,,,,,,,,,,,,,,,,,0,13,13,13,,,,,,,,,,,,,,,,,,,,,,,,,,,,,,,,,,,,,,,,,,,,,,,,,,,,,,,,,,,,,,,,,,,,,,,,,1.9490740597248077,1.206073500000457,571.5401419,None,ScrollUp,정답입니다,571.5401419,None,571.5401419,None,571.5401419,None,571.5401419,None,572.6080658000001,None,572.6080658000001,573.1146330000001,,,,,,,,,,,,,,,,205,2022-04-28_11h42.32.351,FishGame,2022.1.1,60.00841317951608,
,15,넌 침착해,1,Green,B,5.458333333333333,5.566666666666666,ScrollUp,ScrollDown,Green.png,4,Positive,Incongruent,0,0,0,0,,,,,,,,,,,,,,,,,,,,,,,,,0,14,14,14,,,,,,,,,,,,,,,,,,,,,,,,,,,,,,,,,,,,,,,,,,,,,,,,,,,,,,,,,,,,,,,,,,,,,,,,,2,1.3624086999998326,573.7699104000003,None,ScrollUp,정답입니다,573.7699104000003,None,573.7699104000003,None,573.7699104000003,None,573.7699104000003,None,574.9998921999995,None,574.9998921999995,575.5143748999999,,,,,,,,,,,,,,,,205,2022-04-28_11h42.32.351,FishGame,2022.1.1,60.00841317951608,
,16,나를 데려가줘,6,Green,B,0,0,ScrollDown,ScrollUp,Green.png,4,NonTarget,NonTarget,0,0,0,0,,,,,,,,,,,,,,,,,,,,,,,,,0,15,15,15,,,,,,,,,,,,,,,,,,,,,,,,,,,,,,,,,,,,,,,,,,,,,,,,,,,,,,,,,,,,,,,,,,,,,,,,,1,1.2880917000002228,576.1633962999995,None,ScrollDown,정답입니다,576.1633962999995,None,576.1633962999995,None,576.1633962999995,None,576.1633962999995,None,577.3236750999995,None,577.3236750999995,577.8306833999995,,,,,,,,,,,,,,,,205,2022-04-28_11h42.32.351,FishGame,2022.1.1,60.00841317951608,
,17,넌 행복해,1,Orange,A,6.416666666666666,6.166666666666667,ScrollDown,ScrollUp,Orange.png,4,Positive,Congruent,0,0,0,0,,,,,,,,,,,,,,,,,,,,,,,,,0,16,16,16,,,,,,,,,,,,,,,,,,,,,,,,,,,,,,,,,,,,,,,,,,,,,,,,,,,,,,,,,,,,,,,,,,,,,,,,,1,1.6500433000001067,578.4942437,None,ScrollDown,정답입니다,578.4942437,None,578.4942437,None,578.4942437,None,578.4942437,None,580.0031964999998,None,580.0031964999998,580.5138139999999,,,,,,,,,,,,,,,,205,2022-04-28_11h42.32.351,FishGame,2022.1.1,60.00841317951608,
,18,넌 겸손해,2,Green,B,5.791666666666667,4.766666666666667,ScrollUp,ScrollDown,Green.png,4,Positive,Incongruent,0,0,0,0,,,,,,,,,,,,,,,,,,,,,,,,,0,17,17,17,,,,,,,,,,,,,,,,,,,,,,,,,,,,,,,,,,,,,,,,,,,,,,,,,,,,,,,,,,,,,,,,,,,,,,,,,1.8163580348094304,1.6052836999997453,581.1711941000003,None,ScrollUp,정답입니다,581.1711941000003,None,581.1711941000003,None,581.1711941000003,None,581.1711941000003,None,582.6397772,None,582.6397772,583.1467432999998,,,,,,,,,,,,,,,,205,2022-04-28_11h42.32.351,FishGame,2022.1.1,60.00841317951608,
,19,나를 보내줘,6,Orange,A,0,0,ScrollUp,ScrollDown,Orange.png,4,NonTarget,NonTarget,0,0,0,0,,,,,,,,,,,,,,,,,,,,,,,,,0,18,18,18,,,,,,,,,,,,,,,,,,,,,,,,,,,,,,,,,,,,,,,,,,,,,,,,,,,,,,,,,,,,,,,,,,,,,,,,,1.5231481483206153,1.525784799999201,583.8021928999997,None,NoResponse,무응답입니다,583.8021928999997,None,583.8021928999997,None,583.8021928999997,None,583.8021928999997,None,585.2016010999996,None,585.2016010999996,585.7129779999996,,,,,,,,,,,,,,,,205,2022-04-28_11h42.32.351,FishGame,2022.1.1,60.00841317951608,
,20,넌 의심없어,3,Orange,A,4.166666666666667,4.6,ScrollDown,ScrollUp,Orange.png,4,Neutral,Neutral,0,0,0,0,,,,,,,,,,,,,,,,,,,,,,,,,0,19,19,19,,,,,,,,,,,,,,,,,,,,,,,,,,,,,,,,,,,,,,,,,,,,,,,,,,,,,,,,,,,,,,,,,,,,,,,,,1,2.3878741999997146,586.3699932999998,None,ScrollDown,정답입니다,586.3699932999998,None,586.3699932999998,None,586.3699932999998,None,586.3699932999998,None,588.6248211000002,None,588.6248211000002,589.1293076000002,,,,,,,,,,,,,,,,205,2022-04-28_11h42.32.351,FishGame,2022.1.1,60.00841317951608,
,21,넌 시시해,4,Orange,A,2.666666666666667,2.966666666666667,ScrollDown,ScrollUp,Orange.png,4,Negative,Incongruent,0,0,0,0,,,,,,,,,,,,,,,,,,,,,,,,,0,20,20,20,,,,,,,,,,,,,,,,,,,,,,,,,,,,,,,,,,,,,,,,,,,,,,,,,,,,,,,,,,,,,,,,,,,,,,,,,1,1.6885394000000815,589.783383,None,ScrollDown,정답입니다,589.783383,None,589.783383,None,589.783383,None,589.783383,None,591.3460192000002,None,591.3460192000002,591.8458125999996,,,,,,,,,,,,,,,,205,2022-04-28_11h42.32.351,FishGame,2022.1.1,60.00841317951608,
,22,나를 데려가줘,6,Green,B,0,0,ScrollDown,ScrollUp,Green.png,4,NonTarget,NonTarget,0,0,0,0,,,,,,,,,,,,,,,,,,,,,,,,,0,21,21,21,,,,,,,,,,,,,,,,,,,,,,,,,,,,,,,,,,,,,,,,,,,,,,,,,,,,,,,,,,,,,,,,,,,,,,,,,1,1.3287016999993284,592.4879967999996,None,ScrollDown,정답입니다,592.4879967999996,None,592.4879967999996,None,592.4879967999996,None,592.4879967999996,None,593.6990226999997,None,593.6990226999997,594.2120034,,,,,,,,,,,,,,,,205,2022-04-28_11h42.32.351,FishGame,2022.1.1,60.00841317951608,
,23,넌 무정해,5,Orange,A,2.5,2.2,ScrollDown,ScrollUp,Orange.png,4,Negative,Incongruent,0,0,0,0,,,,,,,,,,,,,,,,,,,,,,,,,0,22,22,22,,,,,,,,,,,,,,,,,,,,,,,,,,,,,,,,,,,,,,,,,,,,,,,,,,,,,,,,,,,,,,,,,,,,,,,,,1,1.3019150000000081,594.8689634000002,None,ScrollDown,정답입니다,594.8689634000002,None,594.8689634000002,None,594.8689634000002,None,594.8689634000002,None,596.0351326999998,None,596.0351326999998,596.5449720999995,,,,,,,,,,,,,,,,205,2022-04-28_11h42.32.351,FishGame,2022.1.1,60.00841317951608,
,24,넌 긍정적이야,1,Green,B,6.041666666666667,6.066666666666666,ScrollUp,ScrollDown,Green.png,4,Positive,Incongruent,0,0,0,0,,,,,,,,,,,,,,,,,,,,,,,,,0,23,23,23,,,,,,,,,,,,,,,,,,,,,,,,,,,,,,,,,,,,,,,,,,,,,,,,,,,,,,,,,,,,,,,,,,,,,,,,,2,1.3310286999994787,597.2014039999995,None,ScrollUp,정답입니다,597.2014039999995,None,597.2014039999995,None,597.2014039999995,None,597.2014039999995,None,598.3975324000003,None,598.3975324000003,598.9113817999996,,,,,,,,,,,,,,,,205,2022-04-28_11h42.32.351,FishGame,2022.1.1,60.00841317951608,
,25,나를 보내줘,6,Orange,A,0,0,ScrollUp,ScrollDown,Orange.png,4,NonTarget,NonTarget,0,0,0,0,,,,,,,,,,,,,,,,,,,,,,,,,0,24,24,24,,,,,,,,,,,,,,,,,,,,,,,,,,,,,,,,,,,,,,,,,,,,,,,,,,,,,,,,,,,,,,,,,,,,,,,,,1.7530864129463832,1.3153779999993276,599.5558491000002,None,ScrollUp,정답입니다,599.5558491000002,None,599.5558491000002,None,599.5558491000002,None,599.5558491000002,None,600.7491614999999,None,600.7491614999999,601.2610469000001,,,,,,,,,,,,,,,,205,2022-04-28_11h42.32.351,FishGame,2022.1.1,60.00841317951608,
,26,넌 시기심이 많아,5,Green,B,2.458333333333333,2.233333333333333,ScrollUp,ScrollDown,Green.png,4,Negative,Congruent,0,0,0,0,,,,,,,,,,,,,,,,,,,,,,,,,0,25,25,25,,,,,,,,,,,,,,,,,,,,,,,,,,,,,,,,,,,,,,,,,,,,,,,,,,,,,,,,,,,,,,,,,,,,,,,,,1.7500000099341075,1.5689644000003682,601.9267840000002,None,ScrollUp,정답입니다,601.9267840000002,None,601.9267840000002,None,601.9267840000002,None,601.9267840000002,None,603.3520257999999,None,603.3520257999999,603.8606036000001,,,,,,,,,,,,,,,,205,2022-04-28_11h42.32.351,FishGame,2022.1.1,60.00841317951608,
,27,넌 탁월해,2,Orange,A,5.708333333333334,4.5,ScrollDown,ScrollUp,Orange.png,4,Positive,Congruent,0,0,0,0,,,,,,,,,,,,,,,,,,,,,,,,,0,26,26,26,,,,,,,,,,,,,,,,,,,,,,,,,,,,,,,,,,,,,,,,,,,,,,,,,,,,,,,,,,,,,,,,,,,,,,,,,1,1.3798385000000053,604.5242122999998,None,ScrollDown,정답입니다,604.5242122999998,None,604.5242122999998,None,604.5242122999998,None,604.5242122999998,None,605.7622688000001,None,605.7622688000001,606.2770570000002,,,,,,,,,,,,,,,,205,2022-04-28_11h42.32.351,FishGame,2022.1.1,60.00841317951608,
,28,나를 데려가줘,6,Green,B,0,0,ScrollDown,ScrollUp,Green.png,4,NonTarget,NonTarget,0,0,0,0,,,,,,,,,,,,,,,,,,,,,,,,,0,27,27,27,,,,,,,,,,,,,,,,,,,,,,,,,,,,,,,,,,,,,,,,,,,,,,,,,,,,,,,,,,,,,,,,,,,,,,,,,1,1.3027238999993642,606.9238114999998,None,ScrollDown,정답입니다,606.9238114999998,None,606.9238114999998,None,606.9238114999998,None,606.9238114999998,None,608.1002355,None,608.1002355,608.6100405999996,,,,,,,,,,,,,,,,205,2022-04-28_11h42.32.351,FishGame,2022.1.1,60.00841317951608,
,29,넌 조용해,3,Green,B,4.333333333333333,4.166666666666667,ScrollUp,ScrollDown,Green.png,4,Neutral,Neutral,0,0,0,0,,,,,,,,,,,,,,,,,,,,,,,,,0,28,28,28,,,,,,,,,,,,,,,,,,,,,,,,,,,,,,,,,,,,,,,,,,,,,,,,,,,,,,,,,,,,,,,,,,,,,,,,,2,1.656380800000079,609.2580574000003,None,ScrollUp,정답입니다,609.2580574000003,None,609.2580574000003,None,609.2580574000003,None,609.2580574000003,None,610.7930779999997,None,610.7930779999997,611.2929914999995,,,,,,,,,,,,,,,,205,2022-04-28_11h42.32.351,FishGame,2022.1.1,60.00841317951608,
,30,넌 다정해,1,Orange,A,5.833333333333334,5.7,ScrollDown,ScrollUp,Orange.png,4,Positive,Congruent,0,0,0,0,,,,,,,,,,,,,,,,,,,,,,,,,0,29,29,29,,,,,,,,,,,,,,,,,,,,,,,,,,,,,,,,,,,,,,,,,,,,,,,,,,,,,,,,,,,,,,,,,,,,,,,,,1.0046296219031017,1.3150449999993725,611.9542142999999,None,ScrollDown,정답입니다,611.9542142999999,None,611.9542142999999,None,611.9542142999999,None,611.9542142999999,None,613.1312657999997,None,613.1312657999997,613.6427852999996,,,,,,,,,,,,,,,,205,2022-04-28_11h42.32.351,FishGame,2022.1.1,60.00841317951608,
,31,넌 능력있어,2,Green,B,6.166666666666666,4.6,ScrollUp,ScrollDown,Green.png,4,Positive,Incongruent,0,0,0,0,,,,,,,,,,,,,,,,,,,,,,,,,0,30,30,30,,,,,,,,,,,,,,,,,,,,,,,,,,,,,,,,,,,,,,,,,,,,,,,,,,,,,,,,,,,,,,,,,,,,,,,,,2,1.4510303000006388,614.2915849999999,None,ScrollUp,정답입니다,614.2915849999999,None,614.2915849999999,None,614.2915849999999,None,614.2915849999999,None,615.6150554999995,None,615.6150554999995,616.1258203999996,,,,,,,,,,,,,,,,205,2022-04-28_11h42.32.351,FishGame,2022.1.1,60.00841317951608,
,32,넌 불쾌해,5,Orange,A,2.125,1.933333333333333,ScrollDown,ScrollUp,Orange.png,4,Negative,Incongruent,0,0,0,0,,,,,,,,,,,,,,,,,,,,,,,,,0,31,31,31,,,,,,,,,,,,,,,,,,,,,,,,,,,,,,,,,,,,,,,,,,,,,,,,,,,,,,,,,,,,,,,,,,,,,,,,,1,1.947368799999822,616.7819892999996,None,ScrollDown,정답입니다,616.7819892999996,None,616.7819892999996,None,616.7819892999996,None,616.7819892999996,None,618.5966485999998,None,618.5966485999998,619.1087221999996,,,,,,,,,,,,,,,,205,2022-04-28_11h42.32.351,FishGame,2022.1.1,60.00841317951608,
,33,나를 데려가줘,6,Green,B,0,0,ScrollDown,ScrollUp,Green.png,4,NonTarget,NonTarget,0,0,0,0,,,,,,,,,,,,,,,,,,,,,,,,,0,32,32,32,,,,,,,,,,,,,,,,,,,,,,,,,,,,,,,,,,,,,,,,,,,,,,,,,,,,,,,,,,,,,,,,,,,,,,,,,1,1.2688292000002548,619.7614223999999,None,ScrollDown,정답입니다,619.7614223999999,None,619.7614223999999,None,619.7614223999999,None,619.7614223999999,None,620.8996486999995,None,620.8996486999995,621.4083082999996,,,,,,,,,,,,,,,,205,2022-04-28_11h42.32.351,FishGame,2022.1.1,60.00841317951608,
,34,넌 유순해,3,Orange,A,4.458333333333333,5,ScrollDown,ScrollUp,Orange.png,4,Neutral,Neutral,0,0,0,0,,,,,,,,,,,,,,,,,,,,,,,,,0,33,33,33,,,,,,,,,,,,,,,,,,,,,,,,,,,,,,,,,,,,,,,,,,,,,,,,,,,,,,,,,,,,,,,,,,,,,,,,,1.0987654229005177,1.428930400000354,622.0636079999995,None,ScrollDown,정답입니다,622.0636079999995,None,622.0636079999995,None,622.0636079999995,None,622.0636079999995,None,623.3609605000001,None,623.3609605000001,623.8745965999997,,,,,,,,,,,,,,,,205,2022-04-28_11h42.32.351,FishGame,2022.1.1,60.00841317951608,
,35,넌 근심스러워,4,Green,B,2.708333333333333,3.133333333333333,ScrollUp,ScrollDown,Green.png,4,Negative,Congruent,0,0,0,0,,,,,,,,,,,,,,,,,,,,,,,,,0,34,34,34,,,,,,,,,,,,,,,,,,,,,,,,,,,,,,,,,,,,,,,,,,,,,,,,,,,,,,,,,,,,,,,,,,,,,,,,,1.7777777860562007,1.2591631999994206,624.5327693999998,None,ScrollUp,정답입니다,624.5327693999998,None,624.5327693999998,None,624.5327693999998,None,624.5327693999998,None,625.6536633999995,None,625.6536633999995,626.1577354000001,,,,,,,,,,,,,,,,205,2022-04-28_11h42.32.351,FishGame,2022.1.1,60.00841317951608,
,36,넌 세련되었어,2,Orange,A,5.5,4.6,ScrollDown,ScrollUp,Orange.png,4,Positive,Congruent,0,0,0,0,,,,,,,,,,,,,,,,,,,,,,,,,0,35,35,35,,,,,,,,,,,,,,,,,,,,,,,,,,,,,,,,,,,,,,,,,,,,,,,,,,,,,,,,,,,,,,,,,,,,,,,,,1,1.2553769999994984,626.8253353999999,None,ScrollDown,정답입니다,626.8253353999999,None,626.8253353999999,None,626.8253353999999,None,626.8253353999999,None,627.9412184000003,None,627.9412184000003,628.4409534999995,,,,,,,,,,,,,,,,205,2022-04-28_11h42.32.351,FishGame,2022.1.1,60.00841317951608,
,37,나를 보내줘,6,Orange,A,0,0,ScrollUp,ScrollDown,Orange.png,4,NonTarget,NonTarget,0,0,0,0,,,,,,,,,,,,,,,,,,,,,,,,,0,36,36,36,,,,,,,,,,,,,,,,,,,,,,,,,,,,,,,,,,,,,,,,,,,,,,,,,,,,,,,,,,,,,,,,,,,,,,,,,1.8827160596847534,1.161702200000036,629.0912759000003,None,ScrollUp,정답입니다,629.0912759000003,None,629.0912759000003,None,629.0912759000003,None,629.0912759000003,None,630.1239145999998,None,630.1239145999998,630.6238541000002,,,,,,,,,,,,,,,,205,2022-04-28_11h42.32.351,FishGame,2022.1.1,60.00841317951608,
,38,넌 확고해,3,Green,B,4.708333333333334,4.566666666666666,ScrollUp,ScrollDown,Green.png,4,Neutral,Neutral,0,0,0,0,,,,,,,,,,,,,,,,,,,,,,,,,0,37,37,37,,,,,,,,,,,,,,,,,,,,,,,,,,,,,,,,,,,,,,,,,,,,,,,,,,,,,,,,,,,,,,,,,,,,,,,,,1.8657407313585281,1.4793731999998272,631.2808830000004,None,ScrollUp,정답입니다,631.2808830000004,None,631.2808830000004,None,631.2808830000004,None,631.2808830000004,None,632.6263524999995,None,632.6263524999995,633.1403197999998,,,,,,,,,,,,,,,,205,2022-04-28_11h42.32.351,FishGame,2022.1.1,60.00841317951608,
,39,넌 이해심이 많아,1,Green,B,6.041666666666668,5.533333333333333,ScrollUp,ScrollDown,Green.png,4,Positive,Incongruent,0,0,0,0,,,,,,,,,,,,,,,,,,,,,,,,,0,38,38,38,,,,,,,,,,,,,,,,,,,,,,,,,,,,,,,,,,,,,,,,,,,,,,,,,,,,,,,,,,,,,,,,,,,,,,,,,1.7253086368242898,1.2517273000003115,633.7922747000002,None,ScrollUp,정답입니다,633.7922747000002,None,633.7922747000002,None,633.7922747000002,None,633.7922747000002,None,634.9146693000002,None,634.9146693000002,635.4232327,,,,,,,,,,,,,,,,205,2022-04-28_11h42.32.351,FishGame,2022.1.1,60.00841317951608,
,40,나를 보내줘,6,Orange,A,0,0,ScrollUp,ScrollDown,Orange.png,4,NonTarget,NonTarget,0,0,0,0,,,,,,,,,,,,,,,,,,,,,,,,,0,39,39,39,,,,,,,,,,,,,,,,,,,,,,,,,,,,,,,,,,,,,,,,,,,,,,,,,,,,,,,,,,,,,,,,,,,,,,,,,1.8287036965290706,1.2263933000003817,636.0803146999997,None,ScrollUp,정답입니다,636.0803146999997,None,636.0803146999997,None,636.0803146999997,None,636.0803146999997,None,637.1731932000002,None,637.1731932000002,637.6729985000002,,,,,,,,,,,,,,,,205,2022-04-28_11h42.32.351,FishGame,2022.1.1,60.00841317951608,
,41,넌 거칠어,4,Orange,A,2.625,3.033333333333333,ScrollDown,ScrollUp,Orange.png,4,Negative,Incongruent,0,0,0,0,,,,,,,,,,,,,,,,,,,,,,,,,0,40,40,40,,,,,,,,,,,,,,,,,,,,,,,,,,,,,,,,,,,,,,,,,,,,,,,,,,,,,,,,,,,,,,,,,,,,,,,,,1.0077160497506459,1.437704500000109,638.3294562000001,None,ScrollDown,정답입니다,638.3294562000001,None,638.3294562000001,None,638.3294562000001,None,638.3294562000001,None,639.6328108999996,None,639.6328108999996,640.1395471999995,,,,,,,,,,,,,,,,205,2022-04-28_11h42.32.351,FishGame,2022.1.1,60.00841317951608,
,42,넌 변덕맞아,5,Green,B,2.75,2.166666666666667,ScrollUp,ScrollDown,Green.png,4,Negative,Congruent,0,0,0,0,,,,,,,,,,,,,,,,,,,,,,,,,0,41,41,41,,,,,,,,,,,,,,,,,,,,,,,,,,,,,,,,,,,,,,,,,,,,,,,,,,,,,,,,,,,,,,,,,,,,,,,,,2,1.4181791000000885,640.7942000000003,None,ScrollUp,정답입니다,640.7942000000003,None,640.7942000000003,None,640.7942000000003,None,640.7942000000003,None,642.0791005000001,None,642.0791005000001,642.5891670000001,,,,,,,,,,,,,,,,205,2022-04-28_11h42.32.351,FishGame,2022.1.1,60.00841317951608,
,43,나를 데려가줘,6,Green,B,0,0,ScrollDown,ScrollUp,Green.png,4,NonTarget,NonTarget,0,0,0,0,,,,,,,,,,,,,,,,,,,,,,,,,0,42,42,42,,,,,,,,,,,,,,,,,,,,,,,,,,,,,,,,,,,,,,,,,,,,,,,,,,,,,,,,,,,,,,,,,,,,,,,,,1,1.3163097999995443,643.2358101999998,None,ScrollDown,정답입니다,643.2358101999998,None,643.2358101999998,None,643.2358101999998,None,643.2358101999998,None,644.4272105999999,None,644.4272105999999,644.9387476000002,,,,,,,,,,,,,,,,205,2022-04-28_11h42.32.351,FishGame,2022.1.1,60.00841317951608,
,44,넌 외로워,4,Green,B,2.833333333333333,3.3,ScrollUp,ScrollDown,Green.png,4,Negative,Congruent,0,0,0,0,,,,,,,,,,,,,,,,,,,,,,,,,0,43,43,43,,,,,,,,,,,,,,,,,,,,,,,,,,,,,,,,,,,,,,,,,,,,,,,,,,,,,,,,,,,,,,,,,,,,,,,,,1.9845678806304932,2.2487856000007014,645.5962019999997,None,ScrollUp,정답입니다,645.5962019999997,None,645.5962019999997,None,645.5962019999997,None,645.5962019999997,None,647.7101025000002,None,647.7101025000002,648.2215632999996,,,,,,,,,,,,,,,,205,2022-04-28_11h42.32.351,FishGame,2022.1.1,60.00841317951608,
,1,넌 불평스러워,5,Orange,A,2.25,2.066666666666667,ScrollDown,ScrollUp,Orange.png,5,Negative,Incongruent,0,0,0,0,,,,,,,,,,,,,,,,,,,,,,,,,,,,,0,0,0,0,,,,,,,,,,,,,,,,,,,,,,,,,,,,680.4341967,681.9339165000001,681.9671636000003,682.9170733000001,682.9671122999998,683.9170206999997,683.9170206999997,None,,,,,,,,,,,,,,,,,,,,,,,,,,,,,,,,,,1,1.479273099999773,685.1125698999995,None,ScrollDown,정답입니다,685.1125698999995,None,685.1125698999995,None,685.1125698999995,None,685.1125698999995,None,686.4083253999997,None,686.4083253999997,686.9165418000002,648.7214504000003,None,648.7214504000003,None,0.27314815,-0.094444446,1,0,0,0.016226499999902444,None,678.7175377000003,None,,,205,2022-04-28_11h42.32.351,FishGame,2022.1.1,60.00841317951608,
,2,나를 보내줘,6,Orange,A,0,0,ScrollUp,ScrollDown,Orange.png,5,NonTarget,NonTarget,0,0,0,0,,,,,,,,,,,,,,,,,,,,,,,,,,,,,0,1,1,1,,,,,,,,,,,,,,,,,,,,,,,,,,,,,,,,,,,,,,,,,,,,,,,,,,,,,,,,,,,,,,,,,,,,,1.9953703780968983,1.288110499999675,687.5693638000002,None,ScrollUp,정답입니다,687.5693638000002,None,687.5693638000002,None,687.5693638000002,None,687.5693638000002,None,688.7256612000001,None,688.7256612000001,689.2329684999995,,,,,,,,,,,,,,,,205,2022-04-28_11h42.32.351,FishGame,2022.1.1,60.00841317951608,
,3,넌 다재다능해,2,Green,B,6.208333333333333,4.5,ScrollUp,ScrollDown,Green.png,5,Positive,Incongruent,0,0,0,0,,,,,,,,,,,,,,,,,,,,,,,,,,,,,0,2,2,2,,,,,,,,,,,,,,,,,,,,,,,,,,,,,,,,,,,,,,,,,,,,,,,,,,,,,,,,,,,,,,,,,,,,,1.9614197711149852,1.3548150999995414,689.8831993000003,None,ScrollUp,정답입니다,689.8831993000003,None,689.8831993000003,None,689.8831993000003,None,689.8831993000003,None,691.1086746999999,None,691.1086746999999,691.6161657000002,,,,,,,,,,,,,,,,205,2022-04-28_11h42.32.351,FishGame,2022.1.1,60.00841317951608,
,4,넌 과감해,3,Orange,A,4.833333333333334,4.6,ScrollDown,ScrollUp,Orange.png,5,Neutral,Neutral,0,0,0,0,,,,,,,,,,,,,,,,,,,,,,,,,,,,,0,3,3,3,,,,,,,,,,,,,,,,,,,,,,,,,,,,,,,,,,,,,,,,,,,,,,,,,,,,,,,,,,,,,,,,,,,,,1,1.2545350999998846,692.2639929999996,None,ScrollDown,정답입니다,692.2639929999996,None,692.2639929999996,None,692.2639929999996,None,692.2639929999996,None,693.3924545,None,693.3924545,693.8990046999998,,,,,,,,,,,,,,,,205,2022-04-28_11h42.32.351,FishGame,2022.1.1,60.00841317951608,
,5,넌 고분고분해,3,Green,B,3.75,4.033333333333333,ScrollUp,ScrollDown,Green.png,5,Neutral,Neutral,0,0,0,0,,,,,,,,,,,,,,,,,,,,,,,,,,,,,0,4,4,4,,,,,,,,,,,,,,,,,,,,,,,,,,,,,,,,,,,,,,,,,,,,,,,,,,,,,,,,,,,,,,,,,,,,,2,1.340005399999427,694.5529831000003,None,ScrollUp,정답입니다,694.5529831000003,None,694.5529831000003,None,694.5529831000003,None,694.5529831000003,None,695.7654597999999,None,695.7654597999999,696.2656910999995,,,,,,,,,,,,,,,,205,2022-04-28_11h42.32.351,FishGame,2022.1.1,60.00841317951608,
,6,나를 보내줘,6,Orange,A,0,0,ScrollUp,ScrollDown,Orange.png,5,NonTarget,NonTarget,0,0,0,0,,,,,,,,,,,,,,,,,,,,,,,,,,,,,0,5,5,5,,,,,,,,,,,,,,,,,,,,,,,,,,,,,,,,,,,,,,,,,,,,,,,,,,,,,,,,,,,,,,,,,,,,,2,1.2319643999999244,696.9301187000001,None,ScrollUp,정답입니다,696.9301187000001,None,696.9301187000001,None,696.9301187000001,None,696.9301187000001,None,698.0189072000003,None,698.0189072000003,698.5316611999997,,,,,,,,,,,,,,,,205,2022-04-28_11h42.32.351,FishGame,2022.1.1,60.00841317951608,
,7,넌 잘 잊어,4,Orange,A,3,3.7,ScrollDown,ScrollUp,Orange.png,5,Negative,Incongruent,0,0,0,0,,,,,,,,,,,,,,,,,,,,,,,,,,,,,0,6,6,6,,,,,,,,,,,,,,,,,,,,,,,,,,,,,,,,,,,,,,,,,,,,,,,,,,,,,,,,,,,,,,,,,,,,,1,1.3181036000005406,699.1963792999995,None,ScrollDown,정답입니다,699.1963792999995,None,699.1963792999995,None,699.1963792999995,None,699.1963792999995,None,700.3714076999995,None,700.3714076999995,700.8815207999996,,,,,,,,,,,,,,,,205,2022-04-28_11h42.32.351,FishGame,2022.1.1,60.00841317951608,
,8,넌 탐구심이없어,4,Green,B,2.833333333333333,3.066666666666667,ScrollUp,ScrollDown,Green.png,5,Negative,Congruent,0,0,0,0,,,,,,,,,,,,,,,,,,,,,,,,,,,,,0,7,7,7,,,,,,,,,,,,,,,,,,,,,,,,,,,,,,,,,,,,,,,,,,,,,,,,,,,,,,,,,,,,,,,,,,,,,2,1.2442404999992505,701.5348145999997,None,ScrollUp,정답입니다,701.5348145999997,None,701.5348145999997,None,701.5348145999997,None,701.5348145999997,None,702.6486769000003,None,702.6486769000003,703.1477673999998,,,,,,,,,,,,,,,,205,2022-04-28_11h42.32.351,FishGame,2022.1.1,60.00841317951608,
,9,나를 데려가줘,6,Green,B,0,0,ScrollDown,ScrollUp,Green.png,5,NonTarget,NonTarget,0,0,0,0,,,,,,,,,,,,,,,,,,,,,,,,,,,,,0,8,8,8,,,,,,,,,,,,,,,,,,,,,,,,,,,,,,,,,,,,,,,,,,,,,,,,,,,,,,,,,,,,,,,,,,,,,1,1.3614772999999332,703.8150533999997,None,ScrollDown,정답입니다,703.8150533999997,None,703.8150533999997,None,703.8150533999997,None,703.8150533999997,None,705.0489282999997,None,705.0489282999997,705.564284,,,,,,,,,,,,,,,,205,2022-04-28_11h42.32.351,FishGame,2022.1.1,60.00841317951608,
,10,넌 참되어,2,Orange,A,6.041666666666664,4.733333333333333,ScrollDown,ScrollUp,Orange.png,5,Positive,Congruent,0,0,0,0,,,,,,,,,,,,,,,,,,,,,,,,,,,,,0,9,9,9,,,,,,,,,,,,,,,,,,,,,,,,,,,,,,,,,,,,,,,,,,,,,,,,,,,,,,,,,,,,,,,,,,,,,1,1.1821153999999297,706.2209648999997,None,ScrollDown,정답입니다,706.2209648999997,None,706.2209648999997,None,706.2209648999997,None,706.2209648999997,None,707.2694967999996,None,707.2694967999996,707.7804643999998,,,,,,,,,,,,,,,,205,2022-04-28_11h42.32.351,FishGame,2022.1.1,60.00841317951608,
,11,넌 생기있어,1,Green,B,5.875,5.633333333333334,ScrollUp,ScrollDown,Green.png,5,Positive,Incongruent,0,0,0,0,,,,,,,,,,,,,,,,,,,,,,,,,,,,,0,10,10,10,,,,,,,,,,,,,,,,,,,,,,,,,,,,,,,,,,,,,,,,,,,,,,,,,,,,,,,,,,,,,,,,,,,,,2,1.4118436999997357,708.4359208999995,None,ScrollUp,정답입니다,708.4359208999995,None,708.4359208999995,None,708.4359208999995,None,708.4359208999995,None,709.7136682,None,709.7136682,710.2135437999996,,,,,,,,,,,,,,,,205,2022-04-28_11h42.32.351,FishGame,2022.1.1,60.00841317951608,
,12,넌 비사교적이야,4,Green,B,2.875,2.9,ScrollUp,ScrollDown,Green.png,5,Negative,Congruent,0,0,0,0,,,,,,,,,,,,,,,,,,,,,,,,,,,,,0,11,11,11,,,,,,,,,,,,,,,,,,,,,,,,,,,,,,,,,,,,,,,,,,,,,,,,,,,,,,,,,,,,,,,,,,,,,2,1.33938980000039,710.8617222000003,None,ScrollUp,정답입니다,710.8617222000003,None,710.8617222000003,None,710.8617222000003,None,710.8617222000003,None,712.0737339999996,None,712.0737339999996,712.5798272000002,,,,,,,,,,,,,,,,205,2022-04-28_11h42.32.351,FishGame,2022.1.1,60.00841317951608,
,13,나를 데려가줘,6,Green,B,0,0,ScrollDown,ScrollUp,Green.png,5,NonTarget,NonTarget,0,0,0,0,,,,,,,,,,,,,,,,,,,,,,,,,,,,,0,12,12,12,,,,,,,,,,,,,,,,,,,,,,,,,,,,,,,,,,,,,,,,,,,,,,,,,,,,,,,,,,,,,,,,,,,,,1,1.6011020999994798,713.2316104000001,None,ScrollDown,정답입니다,713.2316104000001,None,713.2316104000001,None,713.2316104000001,None,713.2316104000001,None,714.7042001,None,714.7042001,715.2127167999997,,,,,,,,,,,,,,,,205,2022-04-28_11h42.32.351,FishGame,2022.1.1,60.00841317951608,
,14,넌 고독해,4,Orange,A,2.916666666666667,3.233333333333333,ScrollDown,ScrollUp,Orange.png,5,Negative,Incongruent,0,0,0,0,,,,,,,,,,,,,,,,,,,,,,,,,,,,,0,13,13,13,,,,,,,,,,,,,,,,,,,,,,,,,,,,,,,,,,,,,,,,,,,,,,,,,,,,,,,,,,,,,,,,,,,,,1.0138889054457347,1.2760236000003715,715.8655680000002,None,ScrollDown,정답입니다,715.8655680000002,None,715.8655680000002,None,715.8655680000002,None,715.8655680000002,None,717.0126029000003,None,717.0126029000003,717.5126002999996,,,,,,,,,,,,,,,,205,2022-04-28_11h42.32.351,FishGame,2022.1.1,60.00841317951608,
,15,넌 신경질적이야,5,Green,B,2.375,2.233333333333333,ScrollUp,ScrollDown,Green.png,5,Negative,Congruent,0,0,0,0,,,,,,,,,,,,,,,,,,,,,,,,,,,,,0,14,14,14,,,,,,,,,,,,,,,,,,,,,,,,,,,,,,,,,,,,,,,,,,,,,,,,,,,,,,,,,,,,,,,,,,,,,1.9814815024534862,1.3506026000004567,718.1706169999998,None,ScrollUp,정답입니다,718.1706169999998,None,718.1706169999998,None,718.1706169999998,None,718.1706169999998,None,719.3852940999996,None,719.3852940999996,719.8957536999997,,,,,,,,,,,,,,,,205,2022-04-28_11h42.32.351,FishGame,2022.1.1,60.00841317951608,
,16,넌 똑똑해,2,Green,B,5.666666666666667,3.966666666666667,ScrollUp,ScrollDown,Green.png,5,Positive,Incongruent,0,0,0,0,,,,,,,,,,,,,,,,,,,,,,,,,,,,,0,15,15,15,,,,,,,,,,,,,,,,,,,,,,,,,,,,,,,,,,,,,,,,,,,,,,,,,,,,,,,,,,,,,,,,,,,,,1.9259259502092998,1.3124508000000787,720.5471443999995,None,ScrollUp,정답입니다,720.5471443999995,None,720.5471443999995,None,720.5471443999995,None,720.5471443999995,None,721.7286772999996,None,721.7286772999996,722.2288350999997,,,,,,,,,,,,,,,,205,2022-04-28_11h42.32.351,FishGame,2022.1.1,60.00841317951608,
,17,나를 보내줘,6,Orange,A,0,0,ScrollUp,ScrollDown,Orange.png,5,NonTarget,NonTarget,0,0,0,0,,,,,,,,,,,,,,,,,,,,,,,,,,,,,0,16,16,16,,,,,,,,,,,,,,,,,,,,,,,,,,,,,,,,,,,,,,,,,,,,,,,,,,,,,,,,,,,,,,,,,,,,,1.9938271641731262,1.2710606000000553,722.885499,None,ScrollUp,정답입니다,722.885499,None,722.885499,None,722.885499,None,722.885499,None,724.0209228000003,None,724.0209228000003,724.5283176000003,,,,,,,,,,,,,,,,205,2022-04-28_11h42.32.351,FishGame,2022.1.1,60.00841317951608,
,18,넌 협조적이야,1,Orange,A,5.625,5.666666666666667,ScrollDown,ScrollUp,Orange.png,5,Positive,Congruent,0,0,0,0,,,,,,,,,,,,,,,,,,,,,,,,,,,,,0,17,17,17,,,,,,,,,,,,,,,,,,,,,,,,,,,,,,,,,,,,,,,,,,,,,,,,,,,,,,,,,,,,,,,,,,,,,1,1.8286213000001226,725.1827443000002,None,ScrollDown,정답입니다,725.1827443000002,None,725.1827443000002,None,725.1827443000002,None,725.1827443000002,None,726.880126,None,726.880126,727.3945549,,,,,,,,,,,,,,,,205,2022-04-28_11h42.32.351,FishGame,2022.1.1,60.00841317951608,
,19,나를 데려가줘,6,Green,B,0,0,ScrollDown,ScrollUp,Green.png,5,NonTarget,NonTarget,0,0,0,0,,,,,,,,,,,,,,,,,,,,,,,,,,,,,0,18,18,18,,,,,,,,,,,,,,,,,,,,,,,,,,,,,,,,,,,,,,,,,,,,,,,,,,,,,,,,,,,,,,,,,,,,,1,1.1696523000000525,728.0442376999999,None,ScrollDown,정답입니다,728.0442376999999,None,728.0442376999999,None,728.0442376999999,None,728.0442376999999,None,729.0854130999996,None,729.0854130999996,729.5943028000002,,,,,,,,,,,,,,,,205,2022-04-28_11h42.32.351,FishGame,2022.1.1,60.00841317951608,
,20,넌 몰인정해,5,Green,B,2.541666666666667,2.066666666666667,ScrollUp,ScrollDown,Green.png,5,Negative,Congruent,0,0,0,0,,,,,,,,,,,,,,,,,,,,,,,,,,,,,0,19,19,19,,,,,,,,,,,,,,,,,,,,,,,,,,,,,,,,,,,,,,,,,,,,,,,,,,,,,,,,,,,,,,,,,,,,,2,1.3505776000001788,730.2514714999998,None,ScrollUp,정답입니다,730.2514714999998,None,730.2514714999998,None,730.2514714999998,None,730.2514714999998,None,731.4666123999996,None,731.4666123999996,731.9773292,,,,,,,,,,,,,,,,205,2022-04-28_11h42.32.351,FishGame,2022.1.1,60.00841317951608,
,21,나를 데려가줘,6,Green,B,0,0,ScrollDown,ScrollUp,Green.png,5,NonTarget,NonTarget,0,0,0,0,,,,,,,,,,,,,,,,,,,,,,,,,,,,,0,20,20,20,,,,,,,,,,,,,,,,,,,,,,,,,,,,,,,,,,,,,,,,,,,,,,,,,,,,,,,,,,,,,,,,,,,,,1,1.2088561000000482,732.6231037999996,None,ScrollDown,정답입니다,732.6231037999996,None,732.6231037999996,None,732.6231037999996,None,732.6231037999996,None,733.7042654999996,None,733.7042654999996,734.2106021999998,,,,,,,,,,,,,,,,205,2022-04-28_11h42.32.351,FishGame,2022.1.1,60.00841317951608,
,22,넌 순진해,3,Green,B,4.125,4.166666666666667,ScrollUp,ScrollDown,Green.png,5,Neutral,Neutral,0,0,0,0,,,,,,,,,,,,,,,,,,,,,,,,,,,,,0,21,21,21,,,,,,,,,,,,,,,,,,,,,,,,,,,,,,,,,,,,,,,,,,,,,,,,,,,,,,,,,,,,,,,,,,,,,1.9243827362855275,1.233160300000236,734.8544602000002,None,ScrollUp,정답입니다,734.8544602000002,None,734.8544602000002,None,734.8544602000002,None,734.8544602000002,None,735.9660941000002,None,735.9660941000002,736.4767845999995,,,,,,,,,,,,,,,,205,2022-04-28_11h42.32.351,FishGame,2022.1.1,60.00841317951608,
,23,넌 신뢰할만해,1,Orange,A,6.625,5.533333333333333,ScrollDown,ScrollUp,Orange.png,5,Positive,Congruent,0,0,0,0,,,,,,,,,,,,,,,,,,,,,,,,,,,,,0,22,22,22,,,,,,,,,,,,,,,,,,,,,,,,,,,,,,,,,,,,,,,,,,,,,,,,,,,,,,,,,,,,,,,,,,,,,1,1.299400799999603,737.1362496000002,None,ScrollDown,정답입니다,737.1362496000002,None,737.1362496000002,None,737.1362496000002,None,737.1362496000002,None,738.2984655999999,None,738.2984655999999,738.8099292999996,,,,,,,,,,,,,,,,205,2022-04-28_11h42.32.351,FishGame,2022.1.1,60.00841317951608,
,24,나를 보내줘,6,Orange,A,0,0,ScrollUp,ScrollDown,Orange.png,5,NonTarget,NonTarget,0,0,0,0,,,,,,,,,,,,,,,,,,,,,,,,,,,,,0,23,23,23,,,,,,,,,,,,,,,,,,,,,,,,,,,,,,,,,,,,,,,,,,,,,,,,,,,,,,,,,,,,,,,,,,,,,1.9243827362855275,1.1596739000005982,739.4598857000001,None,ScrollUp,정답입니다,739.4598857000001,None,739.4598857000001,None,739.4598857000001,None,739.4598857000001,None,740.4929150999997,None,740.4929150999997,740.9929187999996,,,,,,,,,,,,,,,,205,2022-04-28_11h42.32.351,FishGame,2022.1.1,60.00841317951608,
,25,넌 인색해,5,Orange,A,2.625,2.233333333333333,ScrollDown,ScrollUp,Orange.png,5,Negative,Incongruent,0,0,0,0,,,,,,,,,,,,,,,,,,,,,,,,,,,,,0,24,24,24,,,,,,,,,,,,,,,,,,,,,,,,,,,,,,,,,,,,,,,,,,,,,,,,,,,,,,,,,,,,,,,,,,,,,1,1.2449397000000317,741.6549770000001,None,ScrollDown,정답입니다,741.6549770000001,None,741.6549770000001,None,741.6549770000001,None,741.6549770000001,None,742.7595093,None,742.7595093,743.2593859999997,,,,,,,,,,,,,,,,205,2022-04-28_11h42.32.351,FishGame,2022.1.1,60.00841317951608,
,26,넌 유쾌해,1,Green,B,5.833333333333333,5.766666666666667,ScrollUp,ScrollDown,Green.png,5,Positive,Incongruent,0,0,0,0,,,,,,,,,,,,,,,,,,,,,,,,,,,,,0,25,25,25,,,,,,,,,,,,,,,,,,,,,,,,,,,,,,,,,,,,,,,,,,,,,,,,,,,,,,,,,,,,,,,,,,,,,1.6111111169060073,1.7417443000003914,743.9031193000001,None,ScrollUp,정답입니다,743.9031193000001,None,743.9031193000001,None,743.9031193000001,None,743.9031193000001,None,745.5200419000003,None,745.5200419000003,746.0255523999995,,,,,,,,,,,,,,,,205,2022-04-28_11h42.32.351,FishGame,2022.1.1,60.00841317951608,
