name,TrialNum,Word,WordCategory,FishType,WordList,WordValence,WordReputation,CorrectResp,IncorrectResp,FishTypeFile,Round,WordType,Condition,LoopforOrange.thisRepN,LoopforOrange.thisTrialN,LoopforOrange.thisN,LoopforOrange.thisIndex,LoopForGreen.thisRepN,LoopForGreen.thisTrialN,LoopForGreen.thisN,LoopForGreen.thisIndex,GreenInstLoop.thisRepN,GreenInstLoop.thisTrialN,GreenInstLoop.thisN,GreenInstLoop.thisIndex,GreenPrac.thisRepN,GreenPrac.thisTrialN,GreenPrac.thisN,GreenPrac.thisIndex,trials_2.thisRepN,trials_2.thisTrialN,trials_2.thisN,trials_2.thisIndex,GreenRound1.thisRepN,GreenRound1.thisTrialN,GreenRound1.thisN,GreenRound1.thisIndex,GreenRound2.thisRepN,GreenRound2.thisTrialN,GreenRound2.thisN,GreenRound2.thisIndex,GreenRound3.thisRepN,GreenRound3.thisTrialN,GreenRound3.thisN,GreenRound3.thisIndex,GreenRound4.thisRepN,GreenRound4.thisTrialN,GreenRound4.thisN,GreenRound4.thisIndex,GreenRound5.thisRepN,GreenRound5.thisTrialN,GreenRound5.thisN,GreenRound5.thisIndex,text_2.started,text_2.stopped,text_3.started,text_3.stopped,key_resp.keys,key_resp.rt,key_resp.started,key_resp.stopped,PassI.started,PassI.stopped,PassInst.keys,PassInst.rt,PassInst.started,PassInst.stopped,mouse_2.x,mouse_2.y,mouse_2.leftButton,mouse_2.midButton,mouse_2.rightButton,mouse_2.started,mouse_2.stopped,image.started,image.stopped,text_5.started,text_5.stopped,text_6.started,text_6.stopped,text_7.started,text_7.stopped,text_8.started,text_8.stopped,slider_3.response,slider_3.rt,slider_3.started,slider_3.stopped,Response_3,Feedback_3,BackGround_3.started,BackGround_3.stopped,Fish_3.started,Fish_3.stopped,WordBox_3.started,WordBox_3.stopped,Words_3.started,Words_3.stopped,BackGround_Feedback_3.started,BackGround_Feedback_3.stopped,Feedbacks_3.started,Feedbacks_3.stopped,Continue_or_not_2.keys,Continue_or_not_2.rt,Continue_or_not_2.started,Continue_or_not_2.stopped,image_4.started,image_4.stopped,mouse_3.x,mouse_3.y,mouse_3.leftButton,mouse_3.midButton,mouse_3.rightButton,mouse_3.started,mouse_3.stopped,startmain.started,startmain.stopped,slider_4.response,slider_4.rt,slider_4.started,slider_4.stopped,Response_4,Feedback_4,BackGround_4.started,BackGround_4.stopped,Fish_4.started,Fish_4.stopped,WordBox_4.started,WordBox_4.stopped,Words_4.started,Words_4.stopped,BackGround_Feedback_4.started,BackGround_Feedback_4.stopped,Feedbacks_4.started,Feedbacks_4.stopped,text.started,text.stopped,break_interval.started,break_interval.stopped,mouse.x,mouse.y,mouse.leftButton,mouse.midButton,mouse.rightButton,mouse.started,mouse.stopped,stratnextround.started,stratnextround.stopped,endgame.started,endgame.stopped,participant,date,expName,psychopyVersion,frameRate,
,,,,,,,,,,,,,,,,,,,,,,,,,,,,,,,,,,,,,,,,,,,,,,,,,,,,,,21.463850800000273,None,21.463850800000273,None,space,4.683361599999898,21.95449150000013,None,,,,,,,,,,,,,,,,,,,,,,,,,,,,,,,,,,,,,,,,,,,,,,,,,,,,,,,,,,,,,,,,,,,,,,,,,,,,,,,,,,,,,,,,,,206,2022-05-02_15h36.55.298,FishGame,2022.1.1,59.99149320625346,
물고기과제_instruction(참가자용)GreenVersion.mp4,,,,,,,,,,,,,,,,,,0,0,0,0,0,0,0,0,,,,,,,,,,,,,,,,,,,,,,,,,,,,,,,,,,,,,93.96843500000023,None,n,6.543859899999916,93.96843500000023,None,,,,,,,,,,,,,,,,,,,,,,,,,,,,,,,,,,,,,,,,,,,,,,,,,,,,,,,,,,,,,,,,,,,,,,,,,,,,,,,,,,,,206,2022-05-02_15h36.55.298,FishGame,2022.1.1,59.99149320625346,
,1,넌 교활해,5,Orange,B,2.333333333333333,2.133333333333333,ScrollUp,ScrollDown,Orange.png,practice,,,,,,,0,0,0,0,,,,,0,0,0,0,0,0,0,0,,,,,,,,,,,,,,,,,,,,,,,,,,,,,,,,,,,0.04074074,-0.28611112,1,0,0,0.5134941700002855,None,100.54351910000014,None,104.84316680000029,106.34288409999999,106.37628330000007,107.32623880000028,107.37618490000023,108.32602580000002,108.32602580000002,None,1.4367283967634041,1.464348599999994,109.55902960000003,None,ScrollDown,오답입니다,109.55902960000003,None,109.55902960000003,None,109.55902960000003,None,109.55902960000003,None,110.81504670000004,None,110.81504670000004,111.32552329999999,,,,,,,,,,,,,,,,,,,,,,,,,,,,,,,,,,,,,,,,,,,,,,,,,206,2022-05-02_15h36.55.298,FishGame,2022.1.1,59.99149320625346,
,2,넌 슬기로워,2,Green,A,6.166666666666667,4.1,ScrollDown,ScrollUp,Green.png,practice,,,,,,,0,0,0,0,,,,,0,0,0,0,0,1,1,1,,,,,,,,,,,,,,,,,,,,,,,,,,,,,,,,,,,,,,,,,,,,,,,,,,,,1.496913580301528,1.2833809000003384,111.96852930000023,None,NoResponse,무응답입니다,111.96852930000023,None,111.96852930000023,None,111.96852930000023,None,111.96852930000023,None,113.12075430000004,None,113.12075430000004,113.62536500000033,,,,,,,,,,,,,,,,,,,,,,,,,,,,,,,,,,,,,,,,,,,,,,,,,206,2022-05-02_15h36.55.298,FishGame,2022.1.1,59.99149320625346,
,3,나를 보내줘,6,Green,A,0,0,ScrollUp,ScrollDown,Green.png,practice,,,,,,,0,0,0,0,,,,,0,0,0,0,0,2,2,2,,,,,,,,,,,,,,,,,,,,,,,,,,,,,,,,,,,,,,,,,,,,,,,,,,,,1.7561728407939274,1.119916099999955,114.27924670000039,None,ScrollUp,정답입니다,114.27924670000039,None,114.27924670000039,None,114.27924670000039,None,114.27924670000039,None,115.27375990000019,None,115.27375990000019,115.77503690000003,,,,,,,,,,,,,,,,,,,,,,,,,,,,,,,,,,,,,,,,,,,,,,,,,206,2022-05-02_15h36.55.298,FishGame,2022.1.1,59.99149320625346,
,4,나를 데려가줘,6,Orange,B,0,0,ScrollDown,ScrollUp,Orange.png,practice,,,,,,,0,0,0,0,,,,,0,0,0,0,0,3,3,3,,,,,,,,,,,,,,,,,,,,,,,,,,,,,,,,,,,,,,,,,,,,,,,,,,,,1.182098776102066,1.050239799999872,116.43320100000028,None,ScrollDown,정답입니다,116.43320100000028,None,116.43320100000028,None,116.43320100000028,None,116.43320100000028,None,117.34919000000036,None,117.34919000000036,117.8580135000002,,,,,,,,,,,,,,,,,,,,,,,,,,,,,,,,,,,,,,,,,,,,,,,,,206,2022-05-02_15h36.55.298,FishGame,2022.1.1,59.99149320625346,
,1,넌 교활해,5,Orange,B,2.333333333333333,2.133333333333333,ScrollUp,ScrollDown,Orange.png,practice,,,,,,,0,0,0,0,,,,,0,0,0,0,,,,,,,,,,,,,,,,,,,,,,,,,,,,,,,,,,,,,,,,,,,,,,,,,,,,,,,,,,,,,,,,,,,,,,,,,,y,17.937926099999913,118.3579380000001,None,118.3579380000001,None,,,,,,,,,,,,,,,,,,,,,,,,,,,,,,,,,,,,,,,,,,,206,2022-05-02_15h36.55.298,FishGame,2022.1.1,59.99149320625346,
,1,넌 교활해,5,Orange,B,2.333333333333333,2.133333333333333,ScrollUp,ScrollDown,Orange.png,practice,,,,,,,0,0,0,0,,,,,0,1,1,1,0,0,0,0,,,,,,,,,,,,,,,,,,,,,,,,,,,,,,,,,,,,,,,,,,,,,,,,,,,,1.1373456716537476,1.7082547999998496,136.53546600000027,None,ScrollDown,오답입니다,136.53546600000027,None,136.53546600000027,None,136.53546600000027,None,136.53546600000027,None,138.06533370000034,None,138.06533370000034,138.57211210000014,,,,,,,,,,,,,,,,,,,,,,,,,,,,,,,,,,,,,,,,,,,,,,,,,206,2022-05-02_15h36.55.298,FishGame,2022.1.1,59.99149320625346,
,2,넌 슬기로워,2,Green,A,6.166666666666667,4.1,ScrollDown,ScrollUp,Green.png,practice,,,,,,,0,0,0,0,,,,,0,1,1,1,0,1,1,1,,,,,,,,,,,,,,,,,,,,,,,,,,,,,,,,,,,,,,,,,,,,,,,,,,,,1.0972222338120143,1.1270540000000437,139.22026930000038,None,ScrollDown,정답입니다,139.22026930000038,None,139.22026930000038,None,139.22026930000038,None,139.22026930000038,None,140.22261049999997,None,140.22261049999997,140.72172980000005,,,,,,,,,,,,,,,,,,,,,,,,,,,,,,,,,,,,,,,,,,,,,,,,,206,2022-05-02_15h36.55.298,FishGame,2022.1.1,59.99149320625346,
,3,나를 보내줘,6,Green,A,0,0,ScrollUp,ScrollDown,Green.png,practice,,,,,,,0,0,0,0,,,,,0,1,1,1,0,2,2,2,,,,,,,,,,,,,,,,,,,,,,,,,,,,,,,,,,,,,,,,,,,,,,,,,,,,1.6388888930281005,1.1265443000002051,141.3684403000002,None,ScrollUp,정답입니다,141.3684403000002,None,141.3684403000002,None,141.3684403000002,None,141.3684403000002,None,142.37344170000006,None,142.37344170000006,142.8881295000001,,,,,,,,,,,,,,,,,,,,,,,,,,,,,,,,,,,,,,,,,,,,,,,,,206,2022-05-02_15h36.55.298,FishGame,2022.1.1,59.99149320625346,
,4,나를 데려가줘,6,Orange,B,0,0,ScrollDown,ScrollUp,Orange.png,practice,,,,,,,0,0,0,0,,,,,0,1,1,1,0,3,3,3,,,,,,,,,,,,,,,,,,,,,,,,,,,,,,,,,,,,,,,,,,,,,,,,,,,,1.2685185074806213,0.9870605000000978,143.54190710000012,None,ScrollDown,정답입니다,143.54190710000012,None,143.54190710000012,None,143.54190710000012,None,143.54190710000012,None,144.3978376,None,144.3978376,144.9045575,,,,,,,,,,,,,,,,,,,,,,,,,,,,,,,,,,,,,,,,,,,,,,,,,206,2022-05-02_15h36.55.298,FishGame,2022.1.1,59.99149320625346,
,2,넌 슬기로워,2,Green,A,6.166666666666667,4.1,ScrollDown,ScrollUp,Green.png,practice,,,,,,,0,0,0,0,,,,,0,1,1,1,,,,,,,,,,,,,,,,,,,,,,,,,,,,,,,,,,,,,,,,,,,,,,,,,,,,,,,,,,,,,,,,,,,,,,,,,,n,4.2591309999997975,145.40451100000018,None,145.40451100000018,None,,,,,,,,,,,,,,,,,,,,,,,,,,,,,,,,,,,,,,,,,,,206,2022-05-02_15h36.55.298,FishGame,2022.1.1,59.99149320625346,
,1,넌 따뜻해,1,Orange,B,6.083333333333333,5.6,ScrollUp,ScrollDown,Orange.png,1,Positive,Incongruent,,,,,0,0,0,0,,,,,,,,,,,,,0,0,0,0,,,,,,,,,,,,,,,,,,,,,,,,,,,,,,,,,,,,,,,,151.70386529999996,153.20367280000028,153.2369076,154.18680780000022,154.23680550000017,155.1866514000003,155.1866514000003,None,,,,,,,,,,,,,,,,,,,,,,,,,0.0027777778,-0.21018519,1,0,0,0.314070470000388,None,149.68743270000004,None,1.5910493855675063,1.2776561999999103,156.40233790000002,None,ScrollUp,정답입니다,156.40233790000002,None,156.40233790000002,None,156.40233790000002,None,156.40233790000002,None,157.4888358000003,None,157.4888358000003,158.00302170000032,,,,,,,,,,,,,,,,206,2022-05-02_15h36.55.298,FishGame,2022.1.1,59.99149320625346,
,2,넌 기품있어,2,Orange,B,5.791666666666668,4.5,ScrollUp,ScrollDown,Orange.png,1,Positive,Incongruent,,,,,0,0,0,0,,,,,,,,,,,,,0,1,1,1,,,,,,,,,,,,,,,,,,,,,,,,,,,,,,,,,,,,,,,,,,,,,,,,,,,,,,,,,,,,,,,,,,,,,,,,,,,,,,,,,1.5046296297417334,0.9837542999998732,158.65882640000018,None,NoResponse,무응답입니다,158.65882640000018,None,158.65882640000018,None,158.65882640000018,None,158.65882640000018,None,159.49825350000037,None,159.49825350000037,160.00273540000035,,,,,,,,,,,,,,,,206,2022-05-02_15h36.55.298,FishGame,2022.1.1,59.99149320625346,
,3,나를 보내줘,6,Green,A,0,0,ScrollUp,ScrollDown,Green.png,1,NonTarget,NonTarget,,,,,0,0,0,0,,,,,,,,,,,,,0,2,2,2,,,,,,,,,,,,,,,,,,,,,,,,,,,,,,,,,,,,,,,,,,,,,,,,,,,,,,,,,,,,,,,,,,,,,,,,,,,,,,,,,1.1851851791143417,0.9937664999997651,160.67593560000023,None,ScrollDown,오답입니다,160.67593560000023,None,160.67593560000023,None,160.67593560000023,None,160.67593560000023,None,161.52125720000004,None,161.52125720000004,162.0357401000001,,,,,,,,,,,,,,,,206,2022-05-02_15h36.55.298,FishGame,2022.1.1,59.99149320625346,
,4,넌 수동적이야,4,Green,A,2.833333333333333,2.933333333333333,ScrollDown,ScrollUp,Green.png,1,Negative,Incongruent,,,,,0,0,0,0,,,,,,,,,,,,,0,3,3,3,,,,,,,,,,,,,,,,,,,,,,,,,,,,,,,,,,,,,,,,,,,,,,,,,,,,,,,,,,,,,,,,,,,,,,,,,,,,,,,,,1.2407407313585281,0.9952309000000241,162.71711920000007,None,ScrollDown,정답입니다,162.71711920000007,None,162.71711920000007,None,162.71711920000007,None,162.71711920000007,None,163.55485050000016,None,163.55485050000016,164.06877729999997,,,,,,,,,,,,,,,,206,2022-05-02_15h36.55.298,FishGame,2022.1.1,59.99149320625346,
,5,넌 사심이 없어,3,Orange,B,4.916666666666666,4.333333333333333,ScrollUp,ScrollDown,Orange.png,1,Neutral,Neutral,,,,,0,0,0,0,,,,,,,,,,,,,0,4,4,4,,,,,,,,,,,,,,,,,,,,,,,,,,,,,,,,,,,,,,,,,,,,,,,,,,,,,,,,,,,,,,,,,,,,,,,,,,,,,,,,,1.8317901243766148,0.9794035999998414,164.73700940000026,None,ScrollUp,정답입니다,164.73700940000026,None,164.73700940000026,None,164.73700940000026,None,164.73700940000026,None,165.5709750000001,None,165.5709750000001,166.08522040000025,,,,,,,,,,,,,,,,206,2022-05-02_15h36.55.298,FishGame,2022.1.1,59.99149320625346,
,6,넌 헤퍼,5,Green,A,2.458333333333334,2.233333333333333,ScrollDown,ScrollUp,Green.png,1,Negative,Incongruent,,,,,0,0,0,0,,,,,,,,,,,,,0,5,5,5,,,,,,,,,,,,,,,,,,,,,,,,,,,,,,,,,,,,,,,,,,,,,,,,,,,,,,,,,,,,,,,,,,,,,,,,,,,,,,,,,1.3441358034809432,1.0336769999998978,166.74112990000003,None,ScrollDown,정답입니다,166.74112990000003,None,166.74112990000003,None,166.74112990000003,None,166.74112990000003,None,167.64220710000018,None,167.64220710000018,168.15162409999994,,,,,,,,,,,,,,,,206,2022-05-02_15h36.55.298,FishGame,2022.1.1,59.99149320625346,
,7,넌 말쑥해,3,Green,A,4.833333333333334,4.333333333333333,ScrollDown,ScrollUp,Green.png,1,Neutral,Neutral,,,,,0,0,0,0,,,,,,,,,,,,,0,6,6,6,,,,,,,,,,,,,,,,,,,,,,,,,,,,,,,,,,,,,,,,,,,,,,,,,,,,,,,,,,,,,,,,,,,,,,,,,,,,,,,,,1.2222222139437993,0.9137525999999525,168.8108500000003,None,ScrollDown,정답입니다,168.8108500000003,None,168.8108500000003,None,168.8108500000003,None,168.8108500000003,None,169.5885631000001,None,169.5885631000001,170.10132969999995,,,,,,,,,,,,,,,,206,2022-05-02_15h36.55.298,FishGame,2022.1.1,59.99149320625346,
,8,넌 투덜거려,5,Orange,B,2.541666666666667,2.266666666666667,ScrollUp,ScrollDown,Orange.png,1,Negative,Congruent,,,,,0,0,0,0,,,,,,,,,,,,,0,7,7,7,,,,,,,,,,,,,,,,,,,,,,,,,,,,,,,,,,,,,,,,,,,,,,,,,,,,,,,,,,,,,,,,,,,,,,,,,,,,,,,,,1.743827154239019,0.9612579999998161,170.77140559999998,None,ScrollUp,정답입니다,170.77140559999998,None,170.77140559999998,None,170.77140559999998,None,170.77140559999998,None,171.5876019000002,None,171.5876019000002,172.10108560000026,,,,,,,,,,,,,,,,206,2022-05-02_15h36.55.298,FishGame,2022.1.1,59.99149320625346,
,9,넌 적극적이야,1,Green,A,5.708333333333333,5.533333333333333,ScrollDown,ScrollUp,Green.png,1,Positive,Congruent,,,,,0,0,0,0,,,,,,,,,,,,,0,8,8,8,,,,,,,,,,,,,,,,,,,,,,,,,,,,,,,,,,,,,,,,,,,,,,,,,,,,,,,,,,,,,,,,,,,,,,,,,,,,,,,,,1.2191358109315236,0.9467875000000276,172.76140010000017,None,ScrollDown,정답입니다,172.76140010000017,None,172.76140010000017,None,172.76140010000017,None,172.76140010000017,None,173.56822310000007,None,173.56822310000007,174.0675438000003,,,,,,,,,,,,,,,,206,2022-05-02_15h36.55.298,FishGame,2022.1.1,59.99149320625346,
,10,넌 재미없어,4,Orange,B,2.625,2.966666666666667,ScrollUp,ScrollDown,Orange.png,1,Negative,Congruent,,,,,0,0,0,0,,,,,,,,,,,,,0,9,9,9,,,,,,,,,,,,,,,,,,,,,,,,,,,,,,,,,,,,,,,,,,,,,,,,,,,,,,,,,,,,,,,,,,,,,,,,,,,,,,,,,1.5462962966412306,0.9283421000000089,174.7341137000003,None,NoResponse,무응답입니다,174.7341137000003,None,174.7341137000003,None,174.7341137000003,None,174.7341137000003,None,175.52192379999997,None,175.52192379999997,176.03390880000006,,,,,,,,,,,,,,,,206,2022-05-02_15h36.55.298,FishGame,2022.1.1,59.99149320625346,
,11,넌 명석해,2,Green,A,5.875,4.033333333333333,ScrollDown,ScrollUp,Green.png,1,Positive,Congruent,,,,,0,0,0,0,,,,,,,,,,,,,0,10,10,10,,,,,,,,,,,,,,,,,,,,,,,,,,,,,,,,,,,,,,,,,,,,,,,,,,,,,,,,,,,,,,,,,,,,,,,,,,,,,,,,,1.0462962985038757,0.9947042999997393,176.69578180000008,None,ScrollDown,정답입니다,176.69578180000008,None,176.69578180000008,None,176.69578180000008,None,176.69578180000008,None,177.5508995,None,177.5508995,178.05028400000037,,,,,,,,,,,,,,,,206,2022-05-02_15h36.55.298,FishGame,2022.1.1,59.99149320625346,
,12,나를 데려가줘,6,Orange,B,0,0,ScrollDown,ScrollUp,Orange.png,1,NonTarget,NonTarget,,,,,0,0,0,0,,,,,,,,,,,,,0,11,11,11,,,,,,,,,,,,,,,,,,,,,,,,,,,,,,,,,,,,,,,,,,,,,,,,,,,,,,,,,,,,,,,,,,,,,,,,,,,,,,,,,1.2716049353281655,1.0819604999996955,178.71835090000013,None,ScrollDown,정답입니다,178.71835090000013,None,178.71835090000013,None,178.71835090000013,None,178.71835090000013,None,179.6570002000003,None,179.6570002000003,180.16679680000016,,,,,,,,,,,,,,,,206,2022-05-02_15h36.55.298,FishGame,2022.1.1,59.99149320625346,
,13,넌 소심해,4,Green,A,3,3.1,ScrollDown,ScrollUp,Green.png,1,Negative,Incongruent,,,,,0,0,0,0,,,,,,,,,,,,,0,12,12,12,,,,,,,,,,,,,,,,,,,,,,,,,,,,,,,,,,,,,,,,,,,,,,,,,,,,,,,,,,,,,,,,,,,,,,,,,,,,,,,,,1.256172845760981,0.9111908999998377,180.82279580000022,None,ScrollDown,정답입니다,180.82279580000022,None,180.82279580000022,None,180.82279580000022,None,180.82279580000022,None,181.60030890000007,None,181.60030890000007,182.09980640000003,,,,,,,,,,,,,,,,206,2022-05-02_15h36.55.298,FishGame,2022.1.1,59.99149320625346,
,14,넌 합리적이야,2,Green,A,5.583333333333333,4.733333333333333,ScrollDown,ScrollUp,Green.png,1,Positive,Congruent,,,,,0,0,0,0,,,,,,,,,,,,,0,13,13,13,,,,,,,,,,,,,,,,,,,,,,,,,,,,,,,,,,,,,,,,,,,,,,,,,,,,,,,,,,,,,,,,,,,,,,,,,,,,,,,,,1.2438271592060726,0.9060093999996752,182.77111170000035,None,ScrollDown,정답입니다,182.77111170000035,None,182.77111170000035,None,182.77111170000035,None,182.77111170000035,None,183.53368309999996,None,183.53368309999996,184.03294870000036,,,,,,,,,,,,,,,,206,2022-05-02_15h36.55.298,FishGame,2022.1.1,59.99149320625346,
,15,넌 무자비해,5,Orange,B,2.333333333333333,2.1,ScrollUp,ScrollDown,Orange.png,1,Negative,Congruent,,,,,0,0,0,0,,,,,,,,,,,,,0,14,14,14,,,,,,,,,,,,,,,,,,,,,,,,,,,,,,,,,,,,,,,,,,,,,,,,,,,,,,,,,,,,,,,,,,,,,,,,,,,,,,,,,1.6219135771195092,0.9441264000001865,184.7047080000002,None,ScrollUp,정답입니다,184.7047080000002,None,184.7047080000002,None,184.7047080000002,None,184.7047080000002,None,185.49574490000032,None,185.49574490000032,185.9993104,,,,,,,,,,,,,,,,206,2022-05-02_15h36.55.298,FishGame,2022.1.1,59.99149320625346,
,16,나를 보내줘,6,Green,A,0,0,ScrollUp,ScrollDown,Green.png,1,NonTarget,NonTarget,,,,,0,0,0,0,,,,,,,,,,,,,0,15,15,15,,,,,,,,,,,,,,,,,,,,,,,,,,,,,,,,,,,,,,,,,,,,,,,,,,,,,,,,,,,,,,,,,,,,,,,,,,,,,,,,,1.5833333345750966,1.0712545000001228,186.65067510000017,None,ScrollUp,정답입니다,186.65067510000017,None,186.65067510000017,None,186.65067510000017,None,186.65067510000017,None,187.59294200000022,None,187.59294200000022,188.09912620000023,,,,,,,,,,,,,,,,206,2022-05-02_15h36.55.298,FishGame,2022.1.1,59.99149320625346,
,17,넌 현실적이야,3,Orange,B,4.608695652173913,4.766666666666667,ScrollUp,ScrollDown,Orange.png,1,Neutral,Neutral,,,,,0,0,0,0,,,,,,,,,,,,,0,16,16,16,,,,,,,,,,,,,,,,,,,,,,,,,,,,,,,,,,,,,,,,,,,,,,,,,,,,,,,,,,,,,,,,,,,,,,,,,,,,,,,,,1.67746914178133,1.137873799999852,188.76693820000037,None,ScrollUp,정답입니다,188.76693820000037,None,188.76693820000037,None,188.76693820000037,None,188.76693820000037,None,189.76205849999997,None,189.76205849999997,190.26560070000005,,,,,,,,,,,,,,,,206,2022-05-02_15h36.55.298,FishGame,2022.1.1,59.99149320625346,
,18,넌 의리있어,1,Orange,B,5.833333333333334,5.633333333333334,ScrollUp,ScrollDown,Orange.png,1,Positive,Incongruent,,,,,0,0,0,0,,,,,,,,,,,,,0,17,17,17,,,,,,,,,,,,,,,,,,,,,,,,,,,,,,,,,,,,,,,,,,,,,,,,,,,,,,,,,,,,,,,,,,,,,,,,,,,,,,,,,1.5787037052214146,1.4941874000001008,190.92115060000015,None,ScrollUp,정답입니다,190.92115060000015,None,190.92115060000015,None,190.92115060000015,None,190.92115060000015,None,192.28181930000028,None,192.28181930000028,192.78183370000033,,,,,,,,,,,,,,,,206,2022-05-02_15h36.55.298,FishGame,2022.1.1,59.99149320625346,
,19,넌 신경과민이야,5,Green,A,2.541666666666667,2.166666666666667,ScrollDown,ScrollUp,Green.png,1,Negative,Incongruent,,,,,0,0,0,0,,,,,,,,,,,,,0,18,18,18,,,,,,,,,,,,,,,,,,,,,,,,,,,,,,,,,,,,,,,,,,,,,,,,,,,,,,,,,,,,,,,,,,,,,,,,,,,,,,,,,1.200617293516795,0.95261870000013,193.44821300000012,None,ScrollDown,정답입니다,193.44821300000012,None,193.44821300000012,None,193.44821300000012,None,193.44821300000012,None,194.25733160000027,None,194.25733160000027,194.76496680000037,,,,,,,,,,,,,,,,206,2022-05-02_15h36.55.298,FishGame,2022.1.1,59.99149320625346,
,20,넌 편안해,1,Green,A,5.916666666666666,5.866666666666666,ScrollDown,ScrollUp,Green.png,1,Positive,Congruent,,,,,0,0,0,0,,,,,,,,,,,,,0,19,19,19,,,,,,,,,,,,,,,,,,,,,,,,,,,,,,,,,,,,,,,,,,,,,,,,,,,,,,,,,,,,,,,,,,,,,,,,,,,,,,,,,1.2932098805904388,0.9426690000000235,195.4228551000001,None,ScrollDown,정답입니다,195.4228551000001,None,195.4228551000001,None,195.4228551000001,None,195.4228551000001,None,196.22717740000007,None,196.22717740000007,196.73134660000005,,,,,,,,,,,,,,,,206,2022-05-02_15h36.55.298,FishGame,2022.1.1,59.99149320625346,
,21,넌 품위있어,2,Orange,B,5.291666666666666,4.466666666666667,ScrollUp,ScrollDown,Orange.png,1,Positive,Incongruent,,,,,0,0,0,0,,,,,,,,,,,,,0,20,20,20,,,,,,,,,,,,,,,,,,,,,,,,,,,,,,,,,,,,,,,,,,,,,,,,,,,,,,,,,,,,,,,,,,,,,,,,,,,,,,,,,1.8163580348094304,0.904030000000148,197.3929903000003,None,ScrollUp,정답입니다,197.3929903000003,None,197.3929903000003,None,197.3929903000003,None,197.3929903000003,None,198.15812780000033,None,198.15812780000033,198.66442740000002,,,,,,,,,,,,,,,,206,2022-05-02_15h36.55.298,FishGame,2022.1.1,59.99149320625346,
,22,넌 빈틈없어,3,Green,A,4.833333333333333,3.966666666666667,ScrollDown,ScrollUp,Green.png,1,Neutral,Neutral,,,,,0,0,0,0,,,,,,,,,,,,,0,21,21,21,,,,,,,,,,,,,,,,,,,,,,,,,,,,,,,,,,,,,,,,,,,,,,,,,,,,,,,,,,,,,,,,,,,,,,,,,,,,,,,,,1.1543209999799728,0.9670546000002105,199.32462550000037,None,ScrollDown,정답입니다,199.32462550000037,None,199.32462550000037,None,199.32462550000037,None,199.32462550000037,None,200.15473210000027,None,200.15473210000027,200.66410510000014,,,,,,,,,,,,,,,,206,2022-05-02_15h36.55.298,FishGame,2022.1.1,59.99149320625346,
,23,넌 상상력없어,4,Orange,B,2.833333333333333,3.133333333333333,ScrollUp,ScrollDown,Orange.png,1,Negative,Congruent,,,,,0,0,0,0,,,,,,,,,,,,,0,22,22,22,,,,,,,,,,,,,,,,,,,,,,,,,,,,,,,,,,,,,,,,,,,,,,,,,,,,,,,,,,,,,,,,,,,,,,,,,,,,,,,,,1.8086419651905696,0.9345181999997294,201.3282465000002,None,ScrollUp,정답입니다,201.3282465000002,None,201.3282465000002,None,201.3282465000002,None,201.3282465000002,None,202.12185130000034,None,202.12185130000034,202.63052880000032,,,,,,,,,,,,,,,,206,2022-05-02_15h36.55.298,FishGame,2022.1.1,59.99149320625346,
,24,넌 지혜로워,2,Orange,B,6.333333333333334,4.633333333333334,ScrollUp,ScrollDown,Orange.png,1,Positive,Incongruent,,,,,0,0,0,0,,,,,,,,,,,,,0,23,23,23,,,,,,,,,,,,,,,,,,,,,,,,,,,,,,,,,,,,,,,,,,,,,,,,,,,,,,,,,,,,,,,,,,,,,,,,,,,,,,,,,1.6959876591960588,0.8740130999999565,203.30015090000006,None,ScrollUp,정답입니다,203.30015090000006,None,203.30015090000006,None,203.30015090000006,None,203.30015090000006,None,204.0249017000001,None,204.0249017000001,204.53027770000017,,,,,,,,,,,,,,,,206,2022-05-02_15h36.55.298,FishGame,2022.1.1,59.99149320625346,
,25,넌 시끄러워,4,Green,A,2.833333333333333,3.033333333333333,ScrollDown,ScrollUp,Green.png,1,Negative,Incongruent,,,,,0,0,0,0,,,,,,,,,,,,,0,24,24,24,,,,,,,,,,,,,,,,,,,,,,,,,,,,,,,,,,,,,,,,,,,,,,,,,,,,,,,,,,,,,,,,,,,,,,,,,,,,,,,,,1.200617293516795,0.9378481999997348,205.20020440000008,None,ScrollDown,정답입니다,205.20020440000008,None,205.20020440000008,None,205.20020440000008,None,205.20020440000008,None,205.99054969999997,None,205.99054969999997,206.496807,,,,,,,,,,,,,,,,206,2022-05-02_15h36.55.298,FishGame,2022.1.1,59.99149320625346,
,26,넌 만사태평이야,3,Orange,B,4,4.333333333333333,ScrollUp,ScrollDown,Orange.png,1,Neutral,Neutral,,,,,0,0,0,0,,,,,,,,,,,,,0,25,25,25,,,,,,,,,,,,,,,,,,,,,,,,,,,,,,,,,,,,,,,,,,,,,,,,,,,,,,,,,,,,,,,,,,,,,,,,,,,,,,,,,1.9135802388191223,0.9191340000002128,207.16542100000015,None,ScrollUp,정답입니다,207.16542100000015,None,207.16542100000015,None,207.16542100000015,None,207.16542100000015,None,207.93847700000015,None,207.93847700000015,208.44653010000002,,,,,,,,,,,,,,,,206,2022-05-02_15h36.55.298,FishGame,2022.1.1,59.99149320625346,
,27,넌 붙임성있어,1,Green,A,5.708333333333333,5.633333333333334,ScrollDown,ScrollUp,Green.png,1,Positive,Congruent,,,,,0,0,0,0,,,,,,,,,,,,,0,26,26,26,,,,,,,,,,,,,,,,,,,,,,,,,,,,,,,,,,,,,,,,,,,,,,,,,,,,,,,,,,,,,,,,,,,,,,,,,,,,,,,,,1.32253085821867,0.8841081000000486,209.1094782,None,ScrollDown,정답입니다,209.1094782,None,209.1094782,None,209.1094782,None,209.1094782,None,209.85505280000007,None,209.85505280000007,210.36294840000028,,,,,,,,,,,,,,,,206,2022-05-02_15h36.55.298,FishGame,2022.1.1,59.99149320625346,
,28,넌 영리해,2,Green,A,6,4.033333333333333,ScrollDown,ScrollUp,Green.png,1,Positive,Congruent,,,,,0,0,0,0,,,,,,,,,,,,,0,27,27,27,,,,,,,,,,,,,,,,,,,,,,,,,,,,,,,,,,,,,,,,,,,,,,,,,,,,,,,,,,,,,,,,,,,,,,,,,,,,,,,,,1.2469135870536168,0.8622595000001638,211.0200990000003,None,ScrollDown,정답입니다,211.0200990000003,None,211.0200990000003,None,211.0200990000003,None,211.0200990000003,None,211.75044460000026,None,211.75044460000026,212.26268860000027,,,,,,,,,,,,,,,,206,2022-05-02_15h36.55.298,FishGame,2022.1.1,59.99149320625346,
,29,넌 열심이야,1,Orange,B,6.041666666666667,5.833333333333333,ScrollUp,ScrollDown,Orange.png,1,Positive,Incongruent,,,,,0,0,0,0,,,,,,,,,,,,,0,28,28,28,,,,,,,,,,,,,,,,,,,,,,,,,,,,,,,,,,,,,,,,,,,,,,,,,,,,,,,,,,,,,,,,,,,,,,,,,,,,,,,,,1.8518518557151158,0.919113599999946,212.92566000000033,None,ScrollUp,정답입니다,212.92566000000033,None,212.92566000000033,None,212.92566000000033,None,212.92566000000033,None,213.70361700000012,None,213.70361700000012,214.21243619999996,,,,,,,,,,,,,,,,206,2022-05-02_15h36.55.298,FishGame,2022.1.1,59.99149320625346,
,30,넌 인기없어,4,Orange,B,3,3.3,ScrollUp,ScrollDown,Orange.png,1,Negative,Congruent,,,,,0,0,0,0,,,,,,,,,,,,,0,29,29,29,,,,,,,,,,,,,,,,,,,,,,,,,,,,,,,,,,,,,,,,,,,,,,,,,,,,,,,,,,,,,,,,,,,,,,,,,,,,,,,,,1.7824074029922485,0.8199192000001858,214.87812680000025,None,ScrollUp,정답입니다,214.87812680000025,None,214.87812680000025,None,214.87812680000025,None,214.87812680000025,None,215.55452970000033,None,215.55452970000033,216.06207519999998,,,,,,,,,,,,,,,,206,2022-05-02_15h36.55.298,FishGame,2022.1.1,59.99149320625346,
,31,넌 익살스러워,3,Green,A,4.708333333333334,4.833333333333333,ScrollDown,ScrollUp,Green.png,1,Neutral,Neutral,,,,,0,0,0,0,,,,,,,,,,,,,0,30,30,30,,,,,,,,,,,,,,,,,,,,,,,,,,,,,,,,,,,,,,,,,,,,,,,,,,,,,,,,,,,,,,,,,,,,,,,,,,,,,,,,,1.2731481492519379,0.9294457999999395,216.72532470000033,None,ScrollDown,정답입니다,216.72532470000033,None,216.72532470000033,None,216.72532470000033,None,216.72532470000033,None,217.51881820000017,None,217.51881820000017,218.02866070000027,,,,,,,,,,,,,,,,206,2022-05-02_15h36.55.298,FishGame,2022.1.1,59.99149320625346,
,32,넌 이기적이야,5,Orange,B,2.291666666666667,2.333333333333333,ScrollUp,ScrollDown,Orange.png,1,Negative,Congruent,,,,,0,0,0,0,,,,,,,,,,,,,0,31,31,31,,,,,,,,,,,,,,,,,,,,,,,,,,,,,,,,,,,,,,,,,,,,,,,,,,,,,,,,,,,,,,,,,,,,,,,,,,,,,,,,,1.878086417913437,0.9443310000001475,218.68612650000023,None,ScrollUp,정답입니다,218.68612650000023,None,218.68612650000023,None,218.68612650000023,None,218.68612650000023,None,219.49525949999997,None,219.49525949999997,219.9949488000002,,,,,,,,,,,,,,,,206,2022-05-02_15h36.55.298,FishGame,2022.1.1,59.99149320625346,
,33,나를 데려가줘,6,Orange,B,0,0,ScrollDown,ScrollUp,Orange.png,1,NonTarget,NonTarget,,,,,0,0,0,0,,,,,,,,,,,,,0,32,32,32,,,,,,,,,,,,,,,,,,,,,,,,,,,,,,,,,,,,,,,,,,,,,,,,,,,,,,,,,,,,,,,,,,,,,,,,,,,,,,,,,1.2824074079593024,1.1183730999996442,220.64867510000022,None,ScrollDown,정답입니다,220.64867510000022,None,220.64867510000022,None,220.64867510000022,None,220.64867510000022,None,221.63737400000036,None,221.63737400000036,222.14473799999996,,,,,,,,,,,,,,,,206,2022-05-02_15h36.55.298,FishGame,2022.1.1,59.99149320625346,
,34,넌 기회주의자야,5,Green,A,2.875,2.133333333333333,ScrollDown,ScrollUp,Green.png,1,Negative,Incongruent,,,,,0,0,0,0,,,,,,,,,,,,,0,33,33,33,,,,,,,,,,,,,,,,,,,,,,,,,,,,,,,,,,,,,,,,,,,,,,,,,,,,,,,,,,,,,,,,,,,,,,,,,,,,,,,,,1.2469135870536168,1.1946991999998318,222.81356630000028,None,ScrollDown,정답입니다,222.81356630000028,None,222.81356630000028,None,222.81356630000028,None,222.81356630000028,None,223.8622078000003,None,223.8622078000003,224.3777728,,,,,,,,,,,,,,,,206,2022-05-02_15h36.55.298,FishGame,2022.1.1,59.99149320625346,
,1,넌 미성숙해,4,Green,A,3,3.2,ScrollDown,ScrollUp,Green.png,2,Negative,Incongruent,,,,,0,0,0,0,,,,,,,,,,,,,,,,,0,0,0,0,,,,,,,,,,,,,,,,,,,,,,,,,,,,,,,,,,,,256.39057870000033,257.8900754000001,257.92352230000006,258.8734363000003,258.92344460000004,259.87330010000005,259.87330010000005,None,,,,,,,,,,,,,,,,,,,,,,,,,,,,,,,,,,1.0972222338120143,1.3163018000000193,261.06971330000033,None,ScrollDown,정답입니다,261.06971330000033,None,261.06971330000033,None,261.06971330000033,None,261.06971330000033,None,262.2010193000001,None,262.2010193000001,262.70621150000034,224.87771750000002,None,224.87771750000002,None,0.05277778,-0.24537037,1,0,0,0.01609537000013006,None,254.8738647,None,,,206,2022-05-02_15h36.55.298,FishGame,2022.1.1,59.99149320625346,
,2,넌 반사회적이야,5,Orange,B,2.416666666666667,2.033333333333333,ScrollUp,ScrollDown,Orange.png,2,Negative,Congruent,,,,,0,0,0,0,,,,,,,,,,,,,,,,,0,1,1,1,,,,,,,,,,,,,,,,,,,,,,,,,,,,,,,,,,,,,,,,,,,,,,,,,,,,,,,,,,,,,,,,,,,,,,,,,,,,,1.8549382835626602,0.9939126999997825,263.36588359999996,None,ScrollUp,정답입니다,263.36588359999996,None,263.36588359999996,None,263.36588359999996,None,263.36588359999996,None,264.22297300000037,None,264.22297300000037,264.72262090000004,,,,,,,,,,,,,,,,206,2022-05-02_15h36.55.298,FishGame,2022.1.1,59.99149320625346,
,3,넌 유능해,2,Green,A,6.208333333333333,4.433333333333334,ScrollDown,ScrollUp,Green.png,2,Positive,Congruent,,,,,0,0,0,0,,,,,,,,,,,,,,,,,0,2,2,2,,,,,,,,,,,,,,,,,,,,,,,,,,,,,,,,,,,,,,,,,,,,,,,,,,,,,,,,,,,,,,,,,,,,,,,,,,,,,1.2515432039896646,0.9272628999997323,265.38241430000016,None,ScrollDown,정답입니다,265.38241430000016,None,265.38241430000016,None,265.38241430000016,None,265.38241430000016,None,266.1734679000001,None,266.1734679000001,266.68910570000025,,,,,,,,,,,,,,,,206,2022-05-02_15h36.55.298,FishGame,2022.1.1,59.99149320625346,
,4,넌 능숙해,2,Orange,B,5.666666666666667,4.733333333333333,ScrollUp,ScrollDown,Orange.png,2,Positive,Incongruent,,,,,0,0,0,0,,,,,,,,,,,,,,,,,0,3,3,3,,,,,,,,,,,,,,,,,,,,,,,,,,,,,,,,,,,,,,,,,,,,,,,,,,,,,,,,,,,,,,,,,,,,,,,,,,,,,1.537037037933866,0.859226900000067,267.3288381000002,None,NoResponse,무응답입니다,267.3288381000002,None,267.3288381000002,None,267.3288381000002,None,267.3288381000002,None,268.05996380000033,None,268.05996380000033,268.57211860000007,,,,,,,,,,,,,,,,206,2022-05-02_15h36.55.298,FishGame,2022.1.1,59.99149320625346,
,5,넌 진부해,4,Orange,B,2.458333333333333,3.166666666666667,ScrollUp,ScrollDown,Orange.png,2,Negative,Congruent,,,,,0,0,0,0,,,,,,,,,,,,,,,,,0,4,4,4,,,,,,,,,,,,,,,,,,,,,,,,,,,,,,,,,,,,,,,,,,,,,,,,,,,,,,,,,,,,,,,,,,,,,,,,,,,,,1.7978395173947017,0.8149797999999464,269.2342619000001,None,ScrollUp,정답입니다,269.2342619000001,None,269.2342619000001,None,269.2342619000001,None,269.2342619000001,None,269.9117489,None,269.9117489,270.42196790000025,,,,,,,,,,,,,,,,206,2022-05-02_15h36.55.298,FishGame,2022.1.1,59.99149320625346,
,6,나를 보내줘,6,Green,A,0,0,ScrollUp,ScrollDown,Green.png,2,NonTarget,NonTarget,,,,,0,0,0,0,,,,,,,,,,,,,,,,,0,5,5,5,,,,,,,,,,,,,,,,,,,,,,,,,,,,,,,,,,,,,,,,,,,,,,,,,,,,,,,,,,,,,,,,,,,,,,,,,,,,,1.6435185223817825,1.1170506000003115,271.07414470000003,None,ScrollUp,정답입니다,271.07414470000003,None,271.07414470000003,None,271.07414470000003,None,271.07414470000003,None,272.0629649000002,None,272.0629649000002,272.5716983000002,,,,,,,,,,,,,,,,206,2022-05-02_15h36.55.298,FishGame,2022.1.1,59.99149320625346,
,7,넌 엄격해,3,Green,A,4.166666666666666,4.1,ScrollDown,ScrollUp,Green.png,2,Neutral,Neutral,,,,,0,0,0,0,,,,,,,,,,,,,,,,,0,6,6,6,,,,,,,,,,,,,,,,,,,,,,,,,,,,,,,,,,,,,,,,,,,,,,,,,,,,,,,,,,,,,,,,,,,,,,,,,,,,,1.0354938507080078,1.0623279000001276,273.23068920000014,None,ScrollDown,정답입니다,273.23068920000014,None,273.23068920000014,None,273.23068920000014,None,273.23068920000014,None,274.1548683000001,None,274.1548683000001,274.654763,,,,,,,,,,,,,,,,206,2022-05-02_15h36.55.298,FishGame,2022.1.1,59.99149320625346,
,8,나를 보내줘,6,Green,A,0,0,ScrollUp,ScrollDown,Green.png,2,NonTarget,NonTarget,,,,,0,0,0,0,,,,,,,,,,,,,,,,,0,7,7,7,,,,,,,,,,,,,,,,,,,,,,,,,,,,,,,,,,,,,,,,,,,,,,,,,,,,,,,,,,,,,,,,,,,,,,,,,,,,,1.7145061641931534,1.0358955000001515,275.31469620000007,None,ScrollUp,정답입니다,275.31469620000007,None,275.31469620000007,None,275.31469620000007,None,275.31469620000007,None,276.2130524000004,None,276.2130524000004,276.7211932,,,,,,,,,,,,,,,,206,2022-05-02_15h36.55.298,FishGame,2022.1.1,59.99149320625346,
,9,넌 대담해,3,Orange,B,4.875,4.866666666666666,ScrollUp,ScrollDown,Orange.png,2,Neutral,Neutral,,,,,0,0,0,0,,,,,,,,,,,,,,,,,0,8,8,8,,,,,,,,,,,,,,,,,,,,,,,,,,,,,,,,,,,,,,,,,,,,,,,,,,,,,,,,,,,,,,,,,,,,,,,,,,,,,1.7546296268701553,0.8672840000003816,277.38791790000005,None,ScrollUp,정답입니다,277.38791790000005,None,277.38791790000005,None,277.38791790000005,None,277.38791790000005,None,278.1128189000001,None,278.1128189000001,278.6209391000002,,,,,,,,,,,,,,,,206,2022-05-02_15h36.55.298,FishGame,2022.1.1,59.99149320625346,
,10,넌 꾸준해,1,Green,A,5.916666666666668,5.8,ScrollDown,ScrollUp,Green.png,2,Positive,Congruent,,,,,0,0,0,0,,,,,,,,,,,,,,,,,0,9,9,9,,,,,,,,,,,,,,,,,,,,,,,,,,,,,,,,,,,,,,,,,,,,,,,,,,,,,,,,,,,,,,,,,,,,,,,,,,,,,1.276234577099482,0.945003700000143,279.27297880000015,None,ScrollDown,정답입니다,279.27297880000015,None,279.27297880000015,None,279.27297880000015,None,279.27297880000015,None,280.08910030000015,None,280.08910030000015,280.60399480000024,,,,,,,,,,,,,,,,206,2022-05-02_15h36.55.298,FishGame,2022.1.1,59.99149320625346,
,11,나를 데려가줘,6,Orange,B,0,0,ScrollDown,ScrollUp,Orange.png,2,NonTarget,NonTarget,,,,,0,0,0,0,,,,,,,,,,,,,,,,,0,10,10,10,,,,,,,,,,,,,,,,,,,,,,,,,,,,,,,,,,,,,,,,,,,,,,,,,,,,,,,,,,,,,,,,,,,,,,,,,,,,,1.1867283930381138,1.1151491999999052,281.25880670000015,None,ScrollDown,정답입니다,281.25880670000015,None,281.25880670000015,None,281.25880670000015,None,281.25880670000015,None,282.24220319999995,None,282.24220319999995,282.75369709999995,,,,,,,,,,,,,,,,206,2022-05-02_15h36.55.298,FishGame,2022.1.1,59.99149320625346,
,12,넌 독선적이야,5,Green,A,2.458333333333333,1.933333333333333,ScrollDown,ScrollUp,Green.png,2,Negative,Incongruent,,,,,0,0,0,0,,,,,,,,,,,,,,,,,0,11,11,11,,,,,,,,,,,,,,,,,,,,,,,,,,,,,,,,,,,,,,,,,,,,,,,,,,,,,,,,,,,,,,,,,,,,,,,,,,,,,1.2037036965290706,0.9167065999999977,283.4170100000001,None,ScrollDown,정답입니다,283.4170100000001,None,283.4170100000001,None,283.4170100000001,None,283.4170100000001,None,284.1943080000001,None,284.1943080000001,284.7034814000003,,,,,,,,,,,,,,,,206,2022-05-02_15h36.55.298,FishGame,2022.1.1,59.99149320625346,
,13,나를 보내줘,6,Green,A,0,0,ScrollUp,ScrollDown,Green.png,2,NonTarget,NonTarget,,,,,0,0,0,0,,,,,,,,,,,,,,,,,0,12,12,12,,,,,,,,,,,,,,,,,,,,,,,,,,,,,,,,,,,,,,,,,,,,,,,,,,,,,,,,,,,,,,,,,,,,,,,,,,,,,1.6419753084580102,0.8951406999999563,285.34941700000036,None,ScrollUp,정답입니다,285.34941700000036,None,285.34941700000036,None,285.34941700000036,None,285.34941700000036,None,286.12306420000004,None,286.12306420000004,286.6364942,,,,,,,,,,,,,,,,206,2022-05-02_15h36.55.298,FishGame,2022.1.1,59.99149320625346,
,14,넌 책임감있어,1,Orange,B,6.347826086956522,6,ScrollUp,ScrollDown,Orange.png,2,Positive,Incongruent,,,,,0,0,0,0,,,,,,,,,,,,,,,,,0,13,13,13,,,,,,,,,,,,,,,,,,,,,,,,,,,,,,,,,,,,,,,,,,,,,,,,,,,,,,,,,,,,,,,,,,,,,,,,,,,,,1.6250000049670539,1.0483091999999488,287.2968044000004,None,ScrollUp,정답입니다,287.2968044000004,None,287.2968044000004,None,287.2968044000004,None,287.2968044000004,None,288.20881380000037,None,288.20881380000037,288.7195948000003,,,,,,,,,,,,,,,,206,2022-05-02_15h36.55.298,FishGame,2022.1.1,59.99149320625346,
,15,넌 문학적이야,3,Green,A,4.708333333333334,4.333333333333333,ScrollDown,ScrollUp,Green.png,2,Neutral,Neutral,,,,,0,0,0,0,,,,,,,,,,,,,,,,,0,14,14,14,,,,,,,,,,,,,,,,,,,,,,,,,,,,,,,,,,,,,,,,,,,,,,,,,,,,,,,,,,,,,,,,,,,,,,,,,,,,,1.1728395173947017,0.9014865000003738,289.3787053000001,None,ScrollDown,정답입니다,289.3787053000001,None,289.3787053000001,None,289.3787053000001,None,289.3787053000001,None,290.14524630000005,None,290.14524630000005,290.65277600000036,,,,,,,,,,,,,,,,206,2022-05-02_15h36.55.298,FishGame,2022.1.1,59.99149320625346,
,16,넌 재미있어,1,Orange,B,5.875,5.7,ScrollUp,ScrollDown,Orange.png,2,Positive,Incongruent,,,,,0,0,0,0,,,,,,,,,,,,,,,,,0,15,15,15,,,,,,,,,,,,,,,,,,,,,,,,,,,,,,,,,,,,,,,,,,,,,,,,,,,,,,,,,,,,,,,,,,,,,,,,,,,,,1.4938271606030564,0.8431361000002653,291.31044840000004,None,NoResponse,무응답입니다,291.31044840000004,None,291.31044840000004,None,291.31044840000004,None,291.31044840000004,None,292.02287479999995,None,292.02287479999995,292.5359013000002,,,,,,,,,,,,,,,,206,2022-05-02_15h36.55.298,FishGame,2022.1.1,59.99149320625346,
,17,나를 데려가줘,6,Orange,B,0,0,ScrollDown,ScrollUp,Orange.png,2,NonTarget,NonTarget,,,,,0,0,0,0,,,,,,,,,,,,,,,,,0,16,16,16,,,,,,,,,,,,,,,,,,,,,,,,,,,,,,,,,,,,,,,,,,,,,,,,,,,,,,,,,,,,,,,,,,,,,,,,,,,,,1.0200617114702861,1.031724700000268,293.1918990000004,None,ScrollDown,정답입니다,293.1918990000004,None,293.1918990000004,None,293.1918990000004,None,293.1918990000004,None,294.0919624000003,None,294.0919624000003,294.6022095000003,,,,,,,,,,,,,,,,206,2022-05-02_15h36.55.298,FishGame,2022.1.1,59.99149320625346,
,18,넌 협력적이야,1,Green,A,5.625,5.633333333333334,ScrollDown,ScrollUp,Green.png,2,Positive,Congruent,,,,,0,0,0,0,,,,,,,,,,,,,,,,,0,17,17,17,,,,,,,,,,,,,,,,,,,,,,,,,,,,,,,,,,,,,,,,,,,,,,,,,,,,,,,,,,,,,,,,,,,,,,,,,,,,,1.1311728407939274,1.3353471999998874,295.25418100000024,None,ScrollDown,정답입니다,295.25418100000024,None,295.25418100000024,None,295.25418100000024,None,295.25418100000024,None,296.45965019999994,None,296.45965019999994,296.9685794000002,,,,,,,,,,,,,,,,206,2022-05-02_15h36.55.298,FishGame,2022.1.1,59.99149320625346,
,19,넌 평범해,3,Orange,B,4.333333333333332,4.233333333333333,ScrollUp,ScrollDown,Orange.png,2,Neutral,Neutral,,,,,0,0,0,0,,,,,,,,,,,,,,,,,0,18,18,18,,,,,,,,,,,,,,,,,,,,,,,,,,,,,,,,,,,,,,,,,,,,,,,,,,,,,,,,,,,,,,,,,,,,,,,,,,,,,1.9336419701576233,0.993467000000237,297.6265005,None,ScrollUp,정답입니다,297.6265005,None,297.6265005,None,297.6265005,None,297.6265005,None,298.48542810000026,None,298.48542810000026,298.9850292000001,,,,,,,,,,,,,,,,206,2022-05-02_15h36.55.298,FishGame,2022.1.1,59.99149320625346,
,20,넌 오만해,5,Green,A,2.333333333333333,2,ScrollDown,ScrollUp,Green.png,2,Negative,Incongruent,,,,,0,0,0,0,,,,,,,,,,,,,,,,,0,19,19,19,,,,,,,,,,,,,,,,,,,,,,,,,,,,,,,,,,,,,,,,,,,,,,,,,,,,,,,,,,,,,,,,,,,,,,,,,,,,,1,1.0614114999998492,299.6412862000002,None,ScrollDown,정답입니다,299.6412862000002,None,299.6412862000002,None,299.6412862000002,None,299.6412862000002,None,300.5711013,None,300.5711013,301.0847711000001,,,,,,,,,,,,,,,,206,2022-05-02_15h36.55.298,FishGame,2022.1.1,59.99149320625346,
,21,넌 운이없어,4,Orange,B,3,3.466666666666667,ScrollUp,ScrollDown,Orange.png,2,Negative,Congruent,,,,,0,0,0,0,,,,,,,,,,,,,,,,,0,20,20,20,,,,,,,,,,,,,,,,,,,,,,,,,,,,,,,,,,,,,,,,,,,,,,,,,,,,,,,,,,,,,,,,,,,,,,,,,,,,,2,0.9978298000000905,301.74157570000034,None,ScrollUp,정답입니다,301.74157570000034,None,301.74157570000034,None,301.74157570000034,None,301.74157570000034,None,302.60651499999994,None,302.60651499999994,303.11788079999997,,,,,,,,,,,,,,,,206,2022-05-02_15h36.55.298,FishGame,2022.1.1,59.99149320625346,
,22,넌 창조적이야,2,Orange,B,6.125,4.633333333333334,ScrollUp,ScrollDown,Orange.png,2,Positive,Incongruent,,,,,0,0,0,0,,,,,,,,,,,,,,,,,0,21,21,21,,,,,,,,,,,,,,,,,,,,,,,,,,,,,,,,,,,,,,,,,,,,,,,,,,,,,,,,,,,,,,,,,,,,,,,,,,,,,1.9243827362855275,0.8935520999998516,303.794179,None,ScrollUp,정답입니다,303.794179,None,303.794179,None,303.794179,None,303.794179,None,304.53433330000007,None,304.53433330000007,305.0341129000003,,,,,,,,,,,,,,,,206,2022-05-02_15h36.55.298,FishGame,2022.1.1,59.99149320625346,
,23,나를 보내줘,6,Green,A,0,0,ScrollUp,ScrollDown,Green.png,2,NonTarget,NonTarget,,,,,0,0,0,0,,,,,,,,,,,,,,,,,0,22,22,22,,,,,,,,,,,,,,,,,,,,,,,,,,,,,,,,,,,,,,,,,,,,,,,,,,,,,,,,,,,,,,,,,,,,,,,,,,,,,1.8287036965290706,1.0525759000001926,305.68422740000005,None,ScrollUp,정답입니다,305.68422740000005,None,305.68422740000005,None,305.68422740000005,None,305.68422740000005,None,306.6097982000001,None,306.6097982000001,307.1173643000002,,,,,,,,,,,,,,,,206,2022-05-02_15h36.55.298,FishGame,2022.1.1,59.99149320625346,
,24,넌 통찰력있어,2,Green,A,6.5,4.8,ScrollDown,ScrollUp,Green.png,2,Positive,Congruent,,,,,0,0,0,0,,,,,,,,,,,,,,,,,0,23,23,23,,,,,,,,,,,,,,,,,,,,,,,,,,,,,,,,,,,,,,,,,,,,,,,,,,,,,,,,,,,,,,,,,,,,,,,,,,,,,1.1790123482545216,0.8732474999997066,307.7832655000002,None,ScrollDown,정답입니다,307.7832655000002,None,307.7832655000002,None,307.7832655000002,None,307.7832655000002,None,308.5114601,None,308.5114601,309.0169896000002,,,,,,,,,,,,,,,,206,2022-05-02_15h36.55.298,FishGame,2022.1.1,59.99149320625346,
,25,넌 경솔해,5,Orange,B,2.458333333333333,2.266666666666667,ScrollUp,ScrollDown,Orange.png,2,Negative,Congruent,,,,,0,0,0,0,,,,,,,,,,,,,,,,,0,24,24,24,,,,,,,,,,,,,,,,,,,,,,,,,,,,,,,,,,,,,,,,,,,,,,,,,,,,,,,,,,,,,,,,,,,,,,,,,,,,,1.9104938358068466,0.9761763000001338,309.6889487000003,None,ScrollUp,정답입니다,309.6889487000003,None,309.6889487000003,None,309.6889487000003,None,309.6889487000003,None,310.5167354,None,310.5167354,311.01679650000005,,,,,,,,,,,,,,,,206,2022-05-02_15h36.55.298,FishGame,2022.1.1,59.99149320625346,
,26,넌 초조해,4,Green,A,2.916666666666667,3.133333333333333,ScrollDown,ScrollUp,Green.png,2,Negative,Incongruent,,,,,0,0,0,0,,,,,,,,,,,,,,,,,0,25,25,25,,,,,,,,,,,,,,,,,,,,,,,,,,,,,,,,,,,,,,,,,,,,,,,,,,,,,,,,,,,,,,,,,,,,,,,,,,,,,1.0123456915219624,1.0167833999998948,311.6651845000001,None,ScrollDown,정답입니다,311.6651845000001,None,311.6651845000001,None,311.6651845000001,None,311.6651845000001,None,312.5570409000002,None,312.5570409000002,313.0665137000001,,,,,,,,,,,,,,,,206,2022-05-02_15h36.55.298,FishGame,2022.1.1,59.99149320625346,
,27,넌 무관심해,4,Orange,B,2.833333333333333,2.9,ScrollUp,ScrollDown,Orange.png,2,Negative,Congruent,,,,,0,0,0,0,,,,,,,,,,,,,,,,,0,26,26,26,,,,,,,,,,,,,,,,,,,,,,,,,,,,,,,,,,,,,,,,,,,,,,,,,,,,,,,,,,,,,,,,,,,,,,,,,,,,,1.787037044763565,0.9269196999998712,313.7238572000001,None,ScrollUp,정답입니다,313.7238572000001,None,313.7238572000001,None,313.7238572000001,None,313.7238572000001,None,314.51269900000034,None,314.51269900000034,315.0162991000002,,,,,,,,,,,,,,,,206,2022-05-02_15h36.55.298,FishGame,2022.1.1,59.99149320625346,
,28,넌 감성적이야,3,Orange,B,4.125,4.166666666666667,ScrollUp,ScrollDown,Orange.png,2,Neutral,Neutral,,,,,0,0,0,0,,,,,,,,,,,,,,,,,0,27,27,27,,,,,,,,,,,,,,,,,,,,,,,,,,,,,,,,,,,,,,,,,,,,,,,,,,,,,,,,,,,,,,,,,,,,,,,,,,,,,1.8811728457609813,0.9100361999999222,315.67315910000025,None,ScrollUp,정답입니다,315.67315910000025,None,315.67315910000025,None,315.67315910000025,None,315.67315910000025,None,316.44934190000004,None,316.44934190000004,316.94934600000033,,,,,,,,,,,,,,,,206,2022-05-02_15h36.55.298,FishGame,2022.1.1,59.99149320625346,
,29,넌 배려심있어,1,Green,A,6.083333333333333,5.5,ScrollDown,ScrollUp,Green.png,2,Positive,Congruent,,,,,0,0,0,0,,,,,,,,,,,,,,,,,0,28,28,28,,,,,,,,,,,,,,,,,,,,,,,,,,,,,,,,,,,,,,,,,,,,,,,,,,,,,,,,,,,,,,,,,,,,,,,,,,,,,1,0.888539000000037,317.6123057,None,ScrollDown,정답입니다,317.6123057,None,317.6123057,None,317.6123057,None,317.6123057,None,318.36266509999996,None,318.36266509999996,318.86580860000004,,,,,,,,,,,,,,,,206,2022-05-02_15h36.55.298,FishGame,2022.1.1,59.99149320625346,
,30,넌 숨김없어,3,Green,A,4.5,4.933333333333334,ScrollDown,ScrollUp,Green.png,2,Neutral,Neutral,,,,,0,0,0,0,,,,,,,,,,,,,,,,,0,29,29,29,,,,,,,,,,,,,,,,,,,,,,,,,,,,,,,,,,,,,,,,,,,,,,,,,,,,,,,,,,,,,,,,,,,,,,,,,,,,,1,0.8526840999998058,319.5214787,None,ScrollDown,정답입니다,319.5214787,None,319.5214787,None,319.5214787,None,319.5214787,None,320.2406347000001,None,320.2406347000001,320.7487850000002,,,,,,,,,,,,,,,,206,2022-05-02_15h36.55.298,FishGame,2022.1.1,59.99149320625346,
,31,넌 훌륭해,2,Orange,B,5.916666666666667,4.033333333333333,ScrollUp,ScrollDown,Orange.png,2,Positive,Incongruent,,,,,0,0,0,0,,,,,,,,,,,,,,,,,0,30,30,30,,,,,,,,,,,,,,,,,,,,,,,,,,,,,,,,,,,,,,,,,,,,,,,,,,,,,,,,,,,,,,,,,,,,,,,,,,,,,1.9228395223617554,0.9048794000000271,321.4051464000004,None,ScrollUp,정답입니다,321.4051464000004,None,321.4051464000004,None,321.4051464000004,None,321.4051464000004,None,322.1751399,None,322.1751399,322.6821649000003,,,,,,,,,,,,,,,,206,2022-05-02_15h36.55.298,FishGame,2022.1.1,59.99149320625346,
,32,넌 슬기로워,2,Green,A,6.166666666666667,4.1,ScrollDown,ScrollUp,Green.png,2,Positive,Congruent,,,,,0,0,0,0,,,,,,,,,,,,,,,,,0,31,31,31,,,,,,,,,,,,,,,,,,,,,,,,,,,,,,,,,,,,,,,,,,,,,,,,,,,,,,,,,,,,,,,,,,,,,,,,,,,,,1.0108024775981903,0.9563926999999239,323.33183439999993,None,ScrollDown,정답입니다,323.33183439999993,None,323.33183439999993,None,323.33183439999993,None,323.33183439999993,None,324.16513269999996,None,324.16513269999996,324.6650066000002,,,,,,,,,,,,,,,,206,2022-05-02_15h36.55.298,FishGame,2022.1.1,59.99149320625346,
,33,넌 냉혹해,5,Green,A,2.583333333333333,2.1,ScrollDown,ScrollUp,Green.png,2,Negative,Incongruent,,,,,0,0,0,0,,,,,,,,,,,,,,,,,0,32,32,32,,,,,,,,,,,,,,,,,,,,,,,,,,,,,,,,,,,,,,,,,,,,,,,,,,,,,,,,,,,,,,,,,,,,,,,,,,,,,1,0.9853079000004072,325.3242158000003,None,ScrollDown,정답입니다,325.3242158000003,None,325.3242158000003,None,325.3242158000003,None,325.3242158000003,None,326.1724574,None,326.1724574,326.6815617000002,,,,,,,,,,,,,,,,206,2022-05-02_15h36.55.298,FishGame,2022.1.1,59.99149320625346,
,34,나를 데려가줘,6,Orange,B,0,0,ScrollDown,ScrollUp,Orange.png,2,NonTarget,NonTarget,,,,,0,0,0,0,,,,,,,,,,,,,,,,,0,33,33,33,,,,,,,,,,,,,,,,,,,,,,,,,,,,,,,,,,,,,,,,,,,,,,,,,,,,,,,,,,,,,,,,,,,,,,,,,,,,,1.0509259402751923,1.0482779999997547,327.33520369999997,None,ScrollDown,정답입니다,327.33520369999997,None,327.33520369999997,None,327.33520369999997,None,327.33520369999997,None,328.2537347000002,None,328.2537347000002,328.7645794,,,,,,,,,,,,,,,,206,2022-05-02_15h36.55.298,FishGame,2022.1.1,59.99149320625346,
,35,넌 편파적이야,5,Orange,B,2.125,2,ScrollUp,ScrollDown,Orange.png,2,Negative,Congruent,,,,,0,0,0,0,,,,,,,,,,,,,,,,,0,34,34,34,,,,,,,,,,,,,,,,,,,,,,,,,,,,,,,,,,,,,,,,,,,,,,,,,,,,,,,,,,,,,,,,,,,,,,,,,,,,,1.9953703780968983,0.9712624999997388,329.4204786,None,ScrollUp,정답입니다,329.4204786,None,329.4204786,None,329.4204786,None,329.4204786,None,330.25750910000033,None,330.25750910000033,330.76428060000035,,,,,,,,,,,,,,,,206,2022-05-02_15h36.55.298,FishGame,2022.1.1,59.99149320625346,
,36,넌 슬퍼,4,Green,A,2.583333333333333,3.066666666666667,ScrollDown,ScrollUp,Green.png,2,Negative,Incongruent,,,,,0,0,0,0,,,,,,,,,,,,,,,,,0,35,35,35,,,,,,,,,,,,,,,,,,,,,,,,,,,,,,,,,,,,,,,,,,,,,,,,,,,,,,,,,,,,,,,,,,,,,,,,,,,,,1.0185184975465138,0.8829971000000114,331.41393940000034,None,ScrollDown,정답입니다,331.41393940000034,None,331.41393940000034,None,331.41393940000034,None,331.41393940000034,None,332.17006949999995,None,332.17006949999995,332.6807103000001,,,,,,,,,,,,,,,,206,2022-05-02_15h36.55.298,FishGame,2022.1.1,59.99149320625346,
,37,나를 데려가줘,6,Orange,B,0,0,ScrollDown,ScrollUp,Orange.png,2,NonTarget,NonTarget,,,,,0,0,0,0,,,,,,,,,,,,,,,,,0,36,36,36,,,,,,,,,,,,,,,,,,,,,,,,,,,,,,,,,,,,,,,,,,,,,,,,,,,,,,,,,,,,,,,,,,,,,,,,,,,,,1,1.116566000000148,333.3411648000001,None,ScrollDown,정답입니다,333.3411648000001,None,333.3411648000001,None,333.3411648000001,None,333.3411648000001,None,334.31936680000035,None,334.31936680000035,334.8304696,,,,,,,,,,,,,,,,206,2022-05-02_15h36.55.298,FishGame,2022.1.1,59.99149320625346,
,38,넌 친절해,1,Orange,B,6.041666666666667,5.533333333333333,ScrollUp,ScrollDown,Orange.png,2,Positive,Incongruent,,,,,0,0,0,0,,,,,,,,,,,,,,,,,0,37,37,37,,,,,,,,,,,,,,,,,,,,,,,,,,,,,,,,,,,,,,,,,,,,,,,,,,,,,,,,,,,,,,,,,,,,,,,,,,,,,1.9876543084780376,1.0687203000002228,335.49917129999994,None,ScrollUp,정답입니다,335.49917129999994,None,335.49917129999994,None,335.49917129999994,None,335.49917129999994,None,336.4205873000001,None,336.4205873000001,336.93020300000035,,,,,,,,,,,,,,,,206,2022-05-02_15h36.55.298,FishGame,2022.1.1,59.99149320625346,
,1,넌 엉성해,4,Green,A,3,3.3,ScrollDown,ScrollUp,Green.png,3,Negative,Incongruent,,,,,0,0,0,0,,,,,,,,,,,,,,,,,,,,,0,0,0,0,,,,,,,,,,,,,,,,,,,,,,,,,,,,,,,,369.5928517000002,371.09248290000005,371.1259159000001,372.07583520000026,372.12585390000004,373.07565920000025,373.07565920000025,None,,,,,,,,,,,,,,,,,,,,,,,,,,,,,,,,,,1.1095678955316544,1.14266009999983,374.2682173000003,None,ScrollDown,정답입니다,374.2682173000003,None,374.2682173000003,None,374.2682173000003,None,374.2682173000003,None,375.2325568000001,None,375.2325568000001,375.74184700000023,337.43007750000015,None,337.43007750000015,None,0.19074073,-0.24907407,1,0,0,0.016239270000369288,None,367.44291520000024,None,,,206,2022-05-02_15h36.55.298,FishGame,2022.1.1,59.99149320625346,
,2,나를 보내줘,6,Green,A,0,0,ScrollUp,ScrollDown,Green.png,3,NonTarget,NonTarget,,,,,0,0,0,0,,,,,,,,,,,,,,,,,,,,,0,1,1,1,,,,,,,,,,,,,,,,,,,,,,,,,,,,,,,,,,,,,,,,,,,,,,,,,,,,,,,,,,,,,,,,,,,,,,,,,1.7283950646718345,0.9509788000000299,376.3864268000002,None,ScrollUp,정답입니다,376.3864268000002,None,376.3864268000002,None,376.3864268000002,None,376.3864268000002,None,377.21686530000034,None,377.21686530000034,377.72502239999994,,,,,,,,,,,,,,,,206,2022-05-02_15h36.55.298,FishGame,2022.1.1,59.99149320625346,
,3,넌 활발해,1,Orange,B,5.666666666666667,5.6,ScrollUp,ScrollDown,Orange.png,3,Positive,Incongruent,,,,,0,0,0,0,,,,,,,,,,,,,,,,,,,,,0,2,2,2,,,,,,,,,,,,,,,,,,,,,,,,,,,,,,,,,,,,,,,,,,,,,,,,,,,,,,,,,,,,,,,,,,,,,,,,,1.9583333432674408,0.9570780000003651,378.39013590000013,None,ScrollUp,정답입니다,378.39013590000013,None,378.39013590000013,None,378.39013590000013,None,378.39013590000013,None,379.20811930000036,None,379.20811930000036,379.7080237,,,,,,,,,,,,,,,,206,2022-05-02_15h36.55.298,FishGame,2022.1.1,59.99149320625346,
,4,넌 논리적이야,2,Green,A,5.666666666666666,4.633333333333334,ScrollDown,ScrollUp,Green.png,3,Positive,Congruent,,,,,0,0,0,0,,,,,,,,,,,,,,,,,,,,,0,3,3,3,,,,,,,,,,,,,,,,,,,,,,,,,,,,,,,,,,,,,,,,,,,,,,,,,,,,,,,,,,,,,,,,,,,,,,,,,1,1.066041800000221,380.36664910000036,None,ScrollDown,정답입니다,380.36664910000036,None,380.36664910000036,None,380.36664910000036,None,380.36664910000036,None,381.2976523000002,None,381.2976523000002,381.8078593,,,,,,,,,,,,,,,,206,2022-05-02_15h36.55.298,FishGame,2022.1.1,59.99149320625346,
,5,넌 과묵해,3,Green,A,3.875,4.4,ScrollDown,ScrollUp,Green.png,3,Neutral,Neutral,,,,,0,0,0,0,,,,,,,,,,,,,,,,,,,,,0,4,4,4,,,,,,,,,,,,,,,,,,,,,,,,,,,,,,,,,,,,,,,,,,,,,,,,,,,,,,,,,,,,,,,,,,,,,,,,,1,1.0610153000002356,382.4590311000002,None,ScrollDown,정답입니다,382.4590311000002,None,382.4590311000002,None,382.4590311000002,None,382.4590311000002,None,383.39120600000024,None,383.39120600000024,383.8907889000002,,,,,,,,,,,,,,,,206,2022-05-02_15h36.55.298,FishGame,2022.1.1,59.99149320625346,
,6,나를 데려가줘,6,Orange,B,0,0,ScrollDown,ScrollUp,Orange.png,3,NonTarget,NonTarget,,,,,0,0,0,0,,,,,,,,,,,,,,,,,,,,,0,5,5,5,,,,,,,,,,,,,,,,,,,,,,,,,,,,,,,,,,,,,,,,,,,,,,,,,,,,,,,,,,,,,,,,,,,,,,,,,1,1.1149003000000448,384.54760650000026,None,ScrollDown,정답입니다,384.54760650000026,None,384.54760650000026,None,384.54760650000026,None,384.54760650000026,None,385.5292489000003,None,385.5292489000003,386.04063250000036,,,,,,,,,,,,,,,,206,2022-05-02_15h36.55.298,FishGame,2022.1.1,59.99149320625346,
,7,넌 미숙해,4,Orange,B,3,3,ScrollUp,ScrollDown,Orange.png,3,Negative,Congruent,,,,,0,0,0,0,,,,,,,,,,,,,,,,,,,,,0,6,6,6,,,,,,,,,,,,,,,,,,,,,,,,,,,,,,,,,,,,,,,,,,,,,,,,,,,,,,,,,,,,,,,,,,,,,,,,,2,0.9338285000003452,386.6897705000001,None,ScrollUp,정답입니다,386.6897705000001,None,386.6897705000001,None,386.6897705000001,None,386.6897705000001,None,387.4953224000001,None,387.4953224000001,388.0070079000002,,,,,,,,,,,,,,,,206,2022-05-02_15h36.55.298,FishGame,2022.1.1,59.99149320625346,
,8,나를 보내줘,6,Green,A,0,0,ScrollUp,ScrollDown,Green.png,3,NonTarget,NonTarget,,,,,0,0,0,0,,,,,,,,,,,,,,,,,,,,,0,7,7,7,,,,,,,,,,,,,,,,,,,,,,,,,,,,,,,,,,,,,,,,,,,,,,,,,,,,,,,,,,,,,,,,,,,,,,,,,2,0.9928708000002189,388.6506972000002,None,ScrollUp,정답입니다,388.6506972000002,None,388.6506972000002,None,388.6506972000002,None,388.6506972000002,None,389.5235676000002,None,389.5235676000002,390.02344170000015,,,,,,,,,,,,,,,,206,2022-05-02_15h36.55.298,FishGame,2022.1.1,59.99149320625346,
,9,넌 자신만만해,3,Orange,B,4.833333333333334,4.333333333333333,ScrollUp,ScrollDown,Orange.png,3,Neutral,Neutral,,,,,0,0,0,0,,,,,,,,,,,,,,,,,,,,,0,8,8,8,,,,,,,,,,,,,,,,,,,,,,,,,,,,,,,,,,,,,,,,,,,,,,,,,,,,,,,,,,,,,,,,,,,,,,,,,1.9629629850387573,1.019134699999995,390.67733750000025,None,ScrollUp,정답입니다,390.67733750000025,None,390.67733750000025,None,390.67733750000025,None,390.67733750000025,None,391.5646850000003,None,391.5646850000003,392.07314240000005,,,,,,,,,,,,,,,,206,2022-05-02_15h36.55.298,FishGame,2022.1.1,59.99149320625346,
,10,넌 탐욕스러워,5,Green,A,2.25,2.1,ScrollDown,ScrollUp,Green.png,3,Negative,Incongruent,,,,,0,0,0,0,,,,,,,,,,,,,,,,,,,,,0,9,9,9,,,,,,,,,,,,,,,,,,,,,,,,,,,,,,,,,,,,,,,,,,,,,,,,,,,,,,,,,,,,,,,,,,,,,,,,,1,0.9545693999998548,392.7275945000001,None,ScrollDown,정답입니다,392.7275945000001,None,392.7275945000001,None,392.7275945000001,None,392.7275945000001,None,393.54930790000026,None,393.54930790000026,394.05643069999996,,,,,,,,,,,,,,,,206,2022-05-02_15h36.55.298,FishGame,2022.1.1,59.99149320625346,
,11,넌 인기있어,2,Green,A,5.458333333333333,4.5,ScrollDown,ScrollUp,Green.png,3,Positive,Congruent,,,,,0,0,0,0,,,,,,,,,,,,,,,,,,,,,0,10,10,10,,,,,,,,,,,,,,,,,,,,,,,,,,,,,,,,,,,,,,,,,,,,,,,,,,,,,,,,,,,,,,,,,,,,,,,,,1,0.9558860000001914,394.70507210000005,None,ScrollDown,정답입니다,394.70507210000005,None,394.70507210000005,None,394.70507210000005,None,394.70507210000005,None,395.53938130000006,None,395.53938130000006,396.03931630000034,,,,,,,,,,,,,,,,206,2022-05-02_15h36.55.298,FishGame,2022.1.1,59.99149320625346,
,12,나를 데려가줘,6,Orange,B,0,0,ScrollDown,ScrollUp,Orange.png,3,NonTarget,NonTarget,,,,,0,0,0,0,,,,,,,,,,,,,,,,,,,,,0,11,11,11,,,,,,,,,,,,,,,,,,,,,,,,,,,,,,,,,,,,,,,,,,,,,,,,,,,,,,,,,,,,,,,,,,,,,,,,,1.0092592636744182,1.0859194000004209,396.6901251000004,None,ScrollDown,정답입니다,396.6901251000004,None,396.6901251000004,None,396.6901251000004,None,396.6901251000004,None,397.6489647000003,None,397.6489647000003,398.15585869999995,,,,,,,,,,,,,,,,206,2022-05-02_15h36.55.298,FishGame,2022.1.1,59.99149320625346,
,13,넌 뛰어나,2,Orange,B,6.166666666666667,4,ScrollUp,ScrollDown,Orange.png,3,Positive,Incongruent,,,,,0,0,0,0,,,,,,,,,,,,,,,,,,,,,0,12,12,12,,,,,,,,,,,,,,,,,,,,,,,,,,,,,,,,,,,,,,,,,,,,,,,,,,,,,,,,,,,,,,,,,,,,,,,,,1.9089506218830745,0.9462115999999696,398.81267230000003,None,ScrollUp,정답입니다,398.81267230000003,None,398.81267230000003,None,398.81267230000003,None,398.81267230000003,None,399.62604230000034,None,399.62604230000034,400.13880800000015,,,,,,,,,,,,,,,,206,2022-05-02_15h36.55.298,FishGame,2022.1.1,59.99149320625346,
,14,넌 낙관적이야,1,Green,A,5.75,5.8,ScrollDown,ScrollUp,Green.png,3,Positive,Congruent,,,,,0,0,0,0,,,,,,,,,,,,,,,,,,,,,0,13,13,13,,,,,,,,,,,,,,,,,,,,,,,,,,,,,,,,,,,,,,,,,,,,,,,,,,,,,,,,,,,,,,,,,,,,,,,,,1.1188271542390187,0.9286050999999134,400.79527080000025,None,ScrollDown,정답입니다,400.79527080000025,None,400.79527080000025,None,400.79527080000025,None,400.79527080000025,None,401.5888592000001,None,401.5888592000001,402.088518,,,,,,,,,,,,,,,,206,2022-05-02_15h36.55.298,FishGame,2022.1.1,59.99149320625346,
,15,넌 산만해,4,Orange,B,2.695652173913043,3.033333333333333,ScrollUp,ScrollDown,Orange.png,3,Negative,Congruent,,,,,0,0,0,0,,,,,,,,,,,,,,,,,,,,,0,14,14,14,,,,,,,,,,,,,,,,,,,,,,,,,,,,,,,,,,,,,,,,,,,,,,,,,,,,,,,,,,,,,,,,,,,,,,,,,1.7145061641931534,1.002878199999941,402.7458091000003,None,ScrollUp,정답입니다,402.7458091000003,None,402.7458091000003,None,402.7458091000003,None,402.7458091000003,None,403.6156831000003,None,403.6156831000003,404.12158309999995,,,,,,,,,,,,,,,,206,2022-05-02_15h36.55.298,FishGame,2022.1.1,59.99149320625346,
,16,나를 보내줘,6,Green,A,0,0,ScrollUp,ScrollDown,Green.png,3,NonTarget,NonTarget,,,,,0,0,0,0,,,,,,,,,,,,,,,,,,,,,0,15,15,15,,,,,,,,,,,,,,,,,,,,,,,,,,,,,,,,,,,,,,,,,,,,,,,,,,,,,,,,,,,,,,,,,,,,,,,,,1.904320980111758,1.0350261999997201,404.7664485,None,ScrollUp,정답입니다,404.7664485,None,404.7664485,None,404.7664485,None,404.7664485,None,405.6775582,None,405.6775582,406.1880831000003,,,,,,,,,,,,,,,,206,2022-05-02_15h36.55.298,FishGame,2022.1.1,59.99149320625346,
,17,넌 교활해,5,Orange,B,2.333333333333333,2.133333333333333,ScrollUp,ScrollDown,Orange.png,3,Negative,Congruent,,,,,0,0,0,0,,,,,,,,,,,,,,,,,,,,,0,16,16,16,,,,,,,,,,,,,,,,,,,,,,,,,,,,,,,,,,,,,,,,,,,,,,,,,,,,,,,,,,,,,,,,,,,,,,,,,1.7962963034709294,0.8897030000002815,406.84803290000036,None,ScrollUp,정답입니다,406.84803290000036,None,406.84803290000036,None,406.84803290000036,None,406.84803290000036,None,407.6043588000002,None,407.6043588000002,408.1044558000003,,,,,,,,,,,,,,,,206,2022-05-02_15h36.55.298,FishGame,2022.1.1,59.99149320625346,
,18,나를 보내줘,6,Green,A,0,0,ScrollUp,ScrollDown,Green.png,3,NonTarget,NonTarget,,,,,0,0,0,0,,,,,,,,,,,,,,,,,,,,,0,17,17,17,,,,,,,,,,,,,,,,,,,,,,,,,,,,,,,,,,,,,,,,,,,,,,,,,,,,,,,,,,,,,,,,,,,,,,,,,1.9537037014961243,1.020779599999969,408.74960390000024,None,ScrollUp,정답입니다,408.74960390000024,None,408.74960390000024,None,408.74960390000024,None,408.74960390000024,None,409.6467652000001,None,409.6467652000001,410.1541771000002,,,,,,,,,,,,,,,,206,2022-05-02_15h36.55.298,FishGame,2022.1.1,59.99149320625346,
,19,넌 불친절해,5,Orange,B,2.208333333333333,2.033333333333333,ScrollUp,ScrollDown,Orange.png,3,Negative,Congruent,,,,,0,0,0,0,,,,,,,,,,,,,,,,,,,,,0,18,18,18,,,,,,,,,,,,,,,,,,,,,,,,,,,,,,,,,,,,,,,,,,,,,,,,,,,,,,,,,,,,,,,,,,,,,,,,,1.7530864129463832,0.8338372999996864,410.8170546000001,None,ScrollUp,정답입니다,410.8170546000001,None,410.8170546000001,None,410.8170546000001,None,410.8170546000001,None,411.51066960000026,None,411.51066960000026,412.0206204000001,,,,,,,,,,,,,,,,206,2022-05-02_15h36.55.298,FishGame,2022.1.1,59.99149320625346,
,20,넌 지적이야,2,Orange,B,5.75,4.366666666666666,ScrollUp,ScrollDown,Orange.png,3,Positive,Incongruent,,,,,0,0,0,0,,,,,,,,,,,,,,,,,,,,,0,19,19,19,,,,,,,,,,,,,,,,,,,,,,,,,,,,,,,,,,,,,,,,,,,,,,,,,,,,,,,,,,,,,,,,,,,,,,,,,1.9490740597248077,0.8524989000002279,412.66999090000036,None,ScrollUp,정답입니다,412.66999090000036,None,412.66999090000036,None,412.66999090000036,None,412.66999090000036,None,413.39417249999997,None,413.39417249999997,413.9037026000001,,,,,,,,,,,,,,,,206,2022-05-02_15h36.55.298,FishGame,2022.1.1,59.99149320625346,
,21,넌 우유부단해,4,Green,A,2.666666666666667,3.166666666666667,ScrollDown,ScrollUp,Green.png,3,Negative,Incongruent,,,,,0,0,0,0,,,,,,,,,,,,,,,,,,,,,0,20,20,20,,,,,,,,,,,,,,,,,,,,,,,,,,,,,,,,,,,,,,,,,,,,,,,,,,,,,,,,,,,,,,,,,,,,,,,,,1.0277777810891469,1.0141456000001199,414.55681619999996,None,ScrollDown,정답입니다,414.55681619999996,None,414.55681619999996,None,414.55681619999996,None,414.55681619999996,None,415.4392689000001,None,415.4392689000001,415.95374119999997,,,,,,,,,,,,,,,,206,2022-05-02_15h36.55.298,FishGame,2022.1.1,59.99149320625346,
,22,나를 데려가줘,6,Orange,B,0,0,ScrollDown,ScrollUp,Orange.png,3,NonTarget,NonTarget,,,,,0,0,0,0,,,,,,,,,,,,,,,,,,,,,0,21,21,21,,,,,,,,,,,,,,,,,,,,,,,,,,,,,,,,,,,,,,,,,,,,,,,,,,,,,,,,,,,,,,,,,,,,,,,,,1.0478395124276478,1.0554410999998254,416.60376369999994,None,ScrollDown,정답입니다,416.60376369999994,None,416.60376369999994,None,416.60376369999994,None,416.60376369999994,None,417.5293765000001,None,417.5293765000001,418.0365449000001,,,,,,,,,,,,,,,,206,2022-05-02_15h36.55.298,FishGame,2022.1.1,59.99149320625346,
,23,넌 성실해,1,Orange,B,6.041666666666666,5.7,ScrollUp,ScrollDown,Orange.png,3,Positive,Incongruent,,,,,0,0,0,0,,,,,,,,,,,,,,,,,,,,,0,22,22,22,,,,,,,,,,,,,,,,,,,,,,,,,,,,,,,,,,,,,,,,,,,,,,,,,,,,,,,,,,,,,,,,,,,,,,,,,2,0.944354100000055,418.6888021,None,ScrollUp,정답입니다,418.6888021,None,418.6888021,None,418.6888021,None,418.6888021,None,419.5032656000003,None,419.5032656000003,420.0029353,,,,,,,,,,,,,,,,206,2022-05-02_15h36.55.298,FishGame,2022.1.1,59.99149320625346,
,24,넌 현실주의적이야,3,Green,A,4.625,4.4,ScrollDown,ScrollUp,Green.png,3,Neutral,Neutral,,,,,0,0,0,0,,,,,,,,,,,,,,,,,,,,,0,23,23,23,,,,,,,,,,,,,,,,,,,,,,,,,,,,,,,,,,,,,,,,,,,,,,,,,,,,,,,,,,,,,,,,,,,,,,,,,1.0138889054457347,1.0889352000003782,420.6542306000001,None,ScrollDown,정답입니다,420.6542306000001,None,420.6542306000001,None,420.6542306000001,None,420.6542306000001,None,421.6194856000002,None,421.6194856000002,422.1192535,,,,,,,,,,,,,,,,206,2022-05-02_15h36.55.298,FishGame,2022.1.1,59.99149320625346,
,25,넌 진실돼,1,Green,A,6.625,5.566666666666666,ScrollDown,ScrollUp,Green.png,3,Positive,Congruent,,,,,0,0,0,0,,,,,,,,,,,,,,,,,,,,,0,24,24,24,,,,,,,,,,,,,,,,,,,,,,,,,,,,,,,,,,,,,,,,,,,,,,,,,,,,,,,,,,,,,,,,,,,,,,,,,1.1975308656692505,0.9519950000003519,422.7845647000004,None,ScrollDown,정답입니다,422.7845647000004,None,422.7845647000004,None,422.7845647000004,None,422.7845647000004,None,423.59500370000023,None,423.59500370000023,424.1024189,,,,,,,,,,,,,,,,206,2022-05-02_15h36.55.298,FishGame,2022.1.1,59.99149320625346,
,26,넌 천진난만해,3,Orange,B,4.958333333333334,4.833333333333333,ScrollUp,ScrollDown,Orange.png,3,Neutral,Neutral,,,,,0,0,0,0,,,,,,,,,,,,,,,,,,,,,0,25,25,25,,,,,,,,,,,,,,,,,,,,,,,,,,,,,,,,,,,,,,,,,,,,,,,,,,,,,,,,,,,,,,,,,,,,,,,,,1.9243827362855275,0.9143570999999611,424.76377100000036,None,ScrollUp,정답입니다,424.76377100000036,None,424.76377100000036,None,424.76377100000036,None,424.76377100000036,None,425.5397226,None,425.5397226,426.0521584000003,,,,,,,,,,,,,,,,206,2022-05-02_15h36.55.298,FishGame,2022.1.1,59.99149320625346,
,27,넌 교양없어,5,Green,A,2.416666666666667,2.2,ScrollDown,ScrollUp,Green.png,3,Negative,Incongruent,,,,,0,0,0,0,,,,,,,,,,,,,,,,,,,,,0,26,26,26,,,,,,,,,,,,,,,,,,,,,,,,,,,,,,,,,,,,,,,,,,,,,,,,,,,,,,,,,,,,,,,,,,,,,,,,,1.0246913532416027,0.9531113999996705,426.7098642000001,None,ScrollDown,정답입니다,426.7098642000001,None,426.7098642000001,None,426.7098642000001,None,426.7098642000001,None,427.52833150000015,None,427.52833150000015,428.0353263000002,,,,,,,,,,,,,,,,206,2022-05-02_15h36.55.298,FishGame,2022.1.1,59.99149320625346,
,28,나를 보내줘,6,Green,A,0,0,ScrollUp,ScrollDown,Green.png,3,NonTarget,NonTarget,,,,,0,0,0,0,,,,,,,,,,,,,,,,,,,,,0,27,27,27,,,,,,,,,,,,,,,,,,,,,,,,,,,,,,,,,,,,,,,,,,,,,,,,,,,,,,,,,,,,,,,,,,,,,,,,,1.8626543283462524,1.001127500000166,428.67919640000036,None,ScrollUp,정답입니다,428.67919640000036,None,428.67919640000036,None,428.67919640000036,None,428.67919640000036,None,429.5585183000003,None,429.5585183000003,430.0682939000003,,,,,,,,,,,,,,,,206,2022-05-02_15h36.55.298,FishGame,2022.1.1,59.99149320625346,
,29,넌 엉뚱스러워,3,Green,A,4.166666666666667,4.133333333333334,ScrollDown,ScrollUp,Green.png,3,Neutral,Neutral,,,,,0,0,0,0,,,,,,,,,,,,,,,,,,,,,0,28,28,28,,,,,,,,,,,,,,,,,,,,,,,,,,,,,,,,,,,,,,,,,,,,,,,,,,,,,,,,,,,,,,,,,,,,,,,,,1.115740751226743,0.9117715000002136,430.7210672000001,None,ScrollDown,정답입니다,430.7210672000001,None,430.7210672000001,None,430.7210672000001,None,430.7210672000001,None,431.5023024000002,None,431.5023024000002,432.00151440000036,,,,,,,,,,,,,,,,206,2022-05-02_15h36.55.298,FishGame,2022.1.1,59.99149320625346,
,30,넌 무지해,4,Orange,B,2.541666666666667,3.066666666666667,ScrollUp,ScrollDown,Orange.png,3,Negative,Congruent,,,,,0,0,0,0,,,,,,,,,,,,,,,,,,,,,0,29,29,29,,,,,,,,,,,,,,,,,,,,,,,,,,,,,,,,,,,,,,,,,,,,,,,,,,,,,,,,,,,,,,,,,,,,,,,,,1.7638888855775197,0.9207753000000594,432.6720524000002,None,ScrollUp,정답입니다,432.6720524000002,None,432.6720524000002,None,432.6720524000002,None,432.6720524000002,None,433.46159260000013,None,433.46159260000013,433.96784700000035,,,,,,,,,,,,,,,,206,2022-05-02_15h36.55.298,FishGame,2022.1.1,59.99149320625346,
,31,넌 음울해,5,Orange,B,2.25,2.233333333333333,ScrollUp,ScrollDown,Orange.png,3,Negative,Congruent,,,,,0,0,0,0,,,,,,,,,,,,,,,,,,,,,0,30,30,30,,,,,,,,,,,,,,,,,,,,,,,,,,,,,,,,,,,,,,,,,,,,,,,,,,,,,,,,,,,,,,,,,,,,,,,,,1.878086417913437,0.9548817999998391,434.6506212000004,None,ScrollUp,정답입니다,434.6506212000004,None,434.6506212000004,None,434.6506212000004,None,434.6506212000004,None,435.45079609999993,None,435.45079609999993,435.9513057000004,,,,,,,,,,,,,,,,206,2022-05-02_15h36.55.298,FishGame,2022.1.1,59.99149320625346,
,32,넌 냉소적이야,5,Green,A,2.916666666666667,2.4,ScrollDown,ScrollUp,Green.png,3,Negative,Incongruent,,,,,0,0,0,0,,,,,,,,,,,,,,,,,,,,,0,31,31,31,,,,,,,,,,,,,,,,,,,,,,,,,,,,,,,,,,,,,,,,,,,,,,,,,,,,,,,,,,,,,,,,,,,,,,,,,1.174382706483205,0.9536900000002788,436.6068484000002,None,ScrollDown,정답입니다,436.6068484000002,None,436.6068484000002,None,436.6068484000002,None,436.6068484000002,None,437.4363625000001,None,437.4363625000001,437.9507442000004,,,,,,,,,,,,,,,,206,2022-05-02_15h36.55.298,FishGame,2022.1.1,59.99149320625346,
,33,나를 데려가줘,6,Orange,B,0,0,ScrollDown,ScrollUp,Orange.png,3,NonTarget,NonTarget,,,,,0,0,0,0,,,,,,,,,,,,,,,,,,,,,0,32,32,32,,,,,,,,,,,,,,,,,,,,,,,,,,,,,,,,,,,,,,,,,,,,,,,,,,,,,,,,,,,,,,,,,,,,,,,,,1.2839506218830743,1.0441771999999219,438.60250840000026,None,ScrollDown,정답입니다,438.60250840000026,None,438.60250840000026,None,438.60250840000026,None,438.60250840000026,None,439.51690540000027,None,439.51690540000027,440.01704080000036,,,,,,,,,,,,,,,,206,2022-05-02_15h36.55.298,FishGame,2022.1.1,59.99149320625346,
,34,넌 쾌활해,1,Green,A,5.541666666666666,5.733333333333333,ScrollDown,ScrollUp,Green.png,3,Positive,Congruent,,,,,0,0,0,0,,,,,,,,,,,,,,,,,,,,,0,33,33,33,,,,,,,,,,,,,,,,,,,,,,,,,,,,,,,,,,,,,,,,,,,,,,,,,,,,,,,,,,,,,,,,,,,,,,,,,1.2422839452823002,0.9642251000000215,440.67072210000015,None,ScrollDown,정답입니다,440.67072210000015,None,440.67072210000015,None,440.67072210000015,None,440.67072210000015,None,441.5069126000003,None,441.5069126000003,442.01682400000027,,,,,,,,,,,,,,,,206,2022-05-02_15h36.55.298,FishGame,2022.1.1,59.99149320625346,
,35,나를 보내줘,6,Green,A,0,0,ScrollUp,ScrollDown,Green.png,3,NonTarget,NonTarget,,,,,0,0,0,0,,,,,,,,,,,,,,,,,,,,,0,34,34,34,,,,,,,,,,,,,,,,,,,,,,,,,,,,,,,,,,,,,,,,,,,,,,,,,,,,,,,,,,,,,,,,,,,,,,,,,1.9074074079593022,0.9983214999997472,442.6666352000002,None,ScrollUp,정답입니다,442.6666352000002,None,442.6666352000002,None,442.6666352000002,None,442.6666352000002,None,443.53800550000005,None,443.53800550000005,444.0501029000002,,,,,,,,,,,,,,,,206,2022-05-02_15h36.55.298,FishGame,2022.1.1,59.99149320625346,
,36,넌 명랑해,1,Orange,B,5.739130434782609,5.666666666666667,ScrollUp,ScrollDown,Orange.png,3,Positive,Incongruent,,,,,0,0,0,0,,,,,,,,,,,,,,,,,,,,,0,35,35,35,,,,,,,,,,,,,,,,,,,,,,,,,,,,,,,,,,,,,,,,,,,,,,,,,,,,,,,,,,,,,,,,,,,,,,,,,1.7808641890684764,0.9197716000003311,444.7010822000002,None,ScrollUp,정답입니다,444.7010822000002,None,444.7010822000002,None,444.7010822000002,None,444.7010822000002,None,445.4936407,None,445.4936407,445.9996648000001,,,,,,,,,,,,,,,,206,2022-05-02_15h36.55.298,FishGame,2022.1.1,59.99149320625346,
,37,넌 멍해,4,Green,A,2.833333333333333,3.4,ScrollDown,ScrollUp,Green.png,3,Negative,Incongruent,,,,,0,0,0,0,,,,,,,,,,,,,,,,,,,,,0,36,36,36,,,,,,,,,,,,,,,,,,,,,,,,,,,,,,,,,,,,,,,,,,,,,,,,,,,,,,,,,,,,,,,,,,,,,,,,,1.1774691343307495,1.076763199999732,446.65612009999995,None,ScrollDown,정답입니다,446.65612009999995,None,446.65612009999995,None,446.65612009999995,None,446.65612009999995,None,447.60114079999994,None,447.60114079999994,448.1160540000001,,,,,,,,,,,,,,,,206,2022-05-02_15h36.55.298,FishGame,2022.1.1,59.99149320625346,
,38,나를 데려가줘,6,Orange,B,0,0,ScrollDown,ScrollUp,Orange.png,3,NonTarget,NonTarget,,,,,0,0,0,0,,,,,,,,,,,,,,,,,,,,,0,37,37,37,,,,,,,,,,,,,,,,,,,,,,,,,,,,,,,,,,,,,,,,,,,,,,,,,,,,,,,,,,,,,,,,,,,,,,,,,1.2885802388191223,1.051741199999924,448.76820380000026,None,ScrollDown,정답입니다,448.76820380000026,None,448.76820380000026,None,448.76820380000026,None,448.76820380000026,None,449.6905415000001,None,449.6905415000001,450.19902460000003,,,,,,,,,,,,,,,,206,2022-05-02_15h36.55.298,FishGame,2022.1.1,59.99149320625346,
,39,넌 현명해,2,Green,A,6.541666666666666,4.533333333333333,ScrollDown,ScrollUp,Green.png,3,Positive,Congruent,,,,,0,0,0,0,,,,,,,,,,,,,,,,,,,,,0,38,38,38,,,,,,,,,,,,,,,,,,,,,,,,,,,,,,,,,,,,,,,,,,,,,,,,,,,,,,,,,,,,,,,,,,,,,,,,,1.1280864129463832,1.11773600000015,450.84771930000034,None,ScrollDown,정답입니다,450.84771930000034,None,450.84771930000034,None,450.84771930000034,None,450.84771930000034,None,451.84006610000006,None,451.84006610000006,452.3487935000003,,,,,,,,,,,,,,,,206,2022-05-02_15h36.55.298,FishGame,2022.1.1,59.99149320625346,
,40,넌 수줍어,3,Orange,B,3.541666666666666,4.366666666666666,ScrollUp,ScrollDown,Orange.png,3,Neutral,Neutral,,,,,0,0,0,0,,,,,,,,,,,,,,,,,,,,,0,39,39,39,,,,,,,,,,,,,,,,,,,,,,,,,,,,,,,,,,,,,,,,,,,,,,,,,,,,,,,,,,,,,,,,,,,,,,,,,1.9552469154198964,1.042956399999639,453.01063509999994,None,ScrollUp,정답입니다,453.01063509999994,None,453.01063509999994,None,453.01063509999994,None,453.01063509999994,None,453.9154900000003,None,453.9154900000003,454.4152734000004,,,,,,,,,,,,,,,,206,2022-05-02_15h36.55.298,FishGame,2022.1.1,59.99149320625346,
,41,나를 데려가줘,6,Orange,B,0,0,ScrollDown,ScrollUp,Orange.png,3,NonTarget,NonTarget,,,,,0,0,0,0,,,,,,,,,,,,,,,,,,,,,0,40,40,40,,,,,,,,,,,,,,,,,,,,,,,,,,,,,,,,,,,,,,,,,,,,,,,,,,,,,,,,,,,,,,,,,,,,,,,,,1.1033950646718342,1.118875399999979,455.06821149999996,None,ScrollDown,정답입니다,455.06821149999996,None,455.06821149999996,None,455.06821149999996,None,455.06821149999996,None,456.05828470000006,None,456.05828470000006,456.56490269999995,,,,,,,,,,,,,,,,206,2022-05-02_15h36.55.298,FishGame,2022.1.1,59.99149320625346,
,42,넌 성숙해,2,Orange,B,5.833333333333333,4.533333333333333,ScrollUp,ScrollDown,Orange.png,3,Positive,Incongruent,,,,,0,0,0,0,,,,,,,,,,,,,,,,,,,,,0,41,41,41,,,,,,,,,,,,,,,,,,,,,,,,,,,,,,,,,,,,,,,,,,,,,,,,,,,,,,,,,,,,,,,,,,,,,,,,,1.6651234552264214,0.9982490000002144,457.2167706,None,ScrollUp,정답입니다,457.2167706,None,457.2167706,None,457.2167706,None,457.2167706,None,458.0871137000004,None,458.0871137000004,458.5980711000002,,,,,,,,,,,,,,,,206,2022-05-02_15h36.55.298,FishGame,2022.1.1,59.99149320625346,
,1,넌 매력적이야,2,Orange,B,6.125,4.666666666666667,ScrollUp,ScrollDown,Orange.png,4,Positive,Incongruent,,,,,0,0,0,0,,,,,,,,,,,,,,,,,,,,,,,,,0,0,0,0,,,,,,,,,,,,,,,,,,,,,,,,,,,,491.46090010000034,492.96042190000026,492.9937477000003,493.9436036000002,493.9935507,494.9435040000003,494.9435040000003,None,,,,,,,,,,,,,,,,,,,,,,,,,,,,,,,,,,1.7160493781169257,1.1358071999998174,496.14420210000026,None,ScrollUp,정답입니다,496.14420210000026,None,496.14420210000026,None,496.14420210000026,None,496.14420210000026,None,497.08886200000006,None,497.08886200000006,497.5933990000003,459.0979056000001,None,459.0979056000001,None,0.30462962,-0.25648147,1,0,0,0.0162408700002743,None,489.0941061000003,None,,,206,2022-05-02_15h36.55.298,FishGame,2022.1.1,59.99149320625346,
,2,나를 보내줘,6,Green,A,0,0,ScrollUp,ScrollDown,Green.png,4,NonTarget,NonTarget,,,,,0,0,0,0,,,,,,,,,,,,,,,,,,,,,,,,,0,1,1,1,,,,,,,,,,,,,,,,,,,,,,,,,,,,,,,,,,,,,,,,,,,,,,,,,,,,,,,,,,,,,,,,,,,,,1.7345678955316544,1.099968600000011,498.23589900000024,None,ScrollUp,정답입니다,498.23589900000024,None,498.23589900000024,None,498.23589900000024,None,498.23589900000024,None,499.21619720000035,None,499.21619720000035,499.72637550000036,,,,,,,,,,,,,,,,206,2022-05-02_15h36.55.298,FishGame,2022.1.1,59.99149320625346,
,3,넌 조심스러워,3,Green,A,4.791666666666666,4.666666666666667,ScrollDown,ScrollUp,Green.png,4,Neutral,Neutral,,,,,0,0,0,0,,,,,,,,,,,,,,,,,,,,,,,,,0,2,2,2,,,,,,,,,,,,,,,,,,,,,,,,,,,,,,,,,,,,,,,,,,,,,,,,,,,,,,,,,,,,,,,,,,,,,1.0246913532416027,1.5242284999999356,500.3672967000002,None,ScrollDown,정답입니다,500.3672967000002,None,500.3672967000002,None,500.3672967000002,None,500.3672967000002,None,501.77068959999997,None,501.77068959999997,502.27585910000016,,,,,,,,,,,,,,,,206,2022-05-02_15h36.55.298,FishGame,2022.1.1,59.99149320625346,
,4,넌 철학적이야,3,Orange,B,4.5,4.266666666666667,ScrollUp,ScrollDown,Orange.png,4,Neutral,Neutral,,,,,0,0,0,0,,,,,,,,,,,,,,,,,,,,,,,,,0,3,3,3,,,,,,,,,,,,,,,,,,,,,,,,,,,,,,,,,,,,,,,,,,,,,,,,,,,,,,,,,,,,,,,,,,,,,1.6111111169060073,0.9875601000003371,502.94095259999995,None,ScrollUp,정답입니다,502.94095259999995,None,502.94095259999995,None,502.94095259999995,None,502.94095259999995,None,503.78513920000023,None,503.78513920000023,504.29214060000004,,,,,,,,,,,,,,,,206,2022-05-02_15h36.55.298,FishGame,2022.1.1,59.99149320625346,
,5,넌 쩨쩨해,5,Green,A,2.375,2.133333333333333,ScrollDown,ScrollUp,Green.png,4,Negative,Incongruent,,,,,0,0,0,0,,,,,,,,,,,,,,,,,,,,,,,,,0,4,4,4,,,,,,,,,,,,,,,,,,,,,,,,,,,,,,,,,,,,,,,,,,,,,,,,,,,,,,,,,,,,,,,,,,,,,1.0354938507080078,0.9595346999999492,504.9485778000003,None,ScrollDown,정답입니다,504.9485778000003,None,504.9485778000003,None,504.9485778000003,None,504.9485778000003,None,505.77080990000013,None,505.77080990000013,506.2752974,,,,,,,,,,,,,,,,206,2022-05-02_15h36.55.298,FishGame,2022.1.1,59.99149320625346,
,6,나를 데려가줘,6,Orange,B,0,0,ScrollDown,ScrollUp,Orange.png,4,NonTarget,NonTarget,,,,,0,0,0,0,,,,,,,,,,,,,,,,,,,,,,,,,0,5,5,5,,,,,,,,,,,,,,,,,,,,,,,,,,,,,,,,,,,,,,,,,,,,,,,,,,,,,,,,,,,,,,,,,,,,,1.0385802288850148,1.068036199999824,506.9377550000004,None,ScrollDown,정답입니다,506.9377550000004,None,506.9377550000004,None,506.9377550000004,None,506.9377550000004,None,507.86656710000034,None,507.86656710000034,508.3750788000002,,,,,,,,,,,,,,,,206,2022-05-02_15h36.55.298,FishGame,2022.1.1,59.99149320625346,
,7,넌 고집불통이야,5,Orange,B,2.875,2,ScrollUp,ScrollDown,Orange.png,4,Negative,Congruent,,,,,0,0,0,0,,,,,,,,,,,,,,,,,,,,,,,,,0,6,6,6,,,,,,,,,,,,,,,,,,,,,,,,,,,,,,,,,,,,,,,,,,,,,,,,,,,,,,,,,,,,,,,,,,,,,1.9660493632157643,0.8851874000001771,509.0342227000001,None,ScrollUp,정답입니다,509.0342227000001,None,509.0342227000001,None,509.0342227000001,None,509.0342227000001,None,509.7833866000001,None,509.7833866000001,510.29135670000005,,,,,,,,,,,,,,,,206,2022-05-02_15h36.55.298,FishGame,2022.1.1,59.99149320625346,
,8,넌 무심해,4,Green,A,2.875,3.2,ScrollDown,ScrollUp,Green.png,4,Negative,Incongruent,,,,,0,0,0,0,,,,,,,,,,,,,,,,,,,,,,,,,0,7,7,7,,,,,,,,,,,,,,,,,,,,,,,,,,,,,,,,,,,,,,,,,,,,,,,,,,,,,,,,,,,,,,,,,,,,,1.2685185074806213,0.9288181000001714,510.9483505000003,None,ScrollDown,정답입니다,510.9483505000003,None,510.9483505000003,None,510.9483505000003,None,510.9483505000003,None,511.74630760000036,None,511.74630760000036,512.2578708000001,,,,,,,,,,,,,,,,206,2022-05-02_15h36.55.298,FishGame,2022.1.1,59.99149320625346,
,9,넌 정겨워,1,Green,A,5.791666666666667,5.666666666666667,ScrollDown,ScrollUp,Green.png,4,Positive,Congruent,,,,,0,0,0,0,,,,,,,,,,,,,,,,,,,,,,,,,0,8,8,8,,,,,,,,,,,,,,,,,,,,,,,,,,,,,,,,,,,,,,,,,,,,,,,,,,,,,,,,,,,,,,,,,,,,,1.3101851840813956,0.9450138000001971,512.9193702000002,None,ScrollDown,정답입니다,512.9193702000002,None,512.9193702000002,None,512.9193702000002,None,512.9193702000002,None,513.7249427000002,None,513.7249427000002,514.2242888000001,,,,,,,,,,,,,,,,206,2022-05-02_15h36.55.298,FishGame,2022.1.1,59.99149320625346,
,10,나를 데려가줘,6,Orange,B,0,0,ScrollDown,ScrollUp,Orange.png,4,NonTarget,NonTarget,,,,,0,0,0,0,,,,,,,,,,,,,,,,,,,,,,,,,0,9,9,9,,,,,,,,,,,,,,,,,,,,,,,,,,,,,,,,,,,,,,,,,,,,,,,,,,,,,,,,,,,,,,,,,,,,,1.2638888905445733,1.0057999000000564,514.8803922000002,None,ScrollDown,정답입니다,514.8803922000002,None,514.8803922000002,None,514.8803922000002,None,514.8803922000002,None,515.7507539000003,None,515.7507539000003,516.2574264,,,,,,,,,,,,,,,,206,2022-05-02_15h36.55.298,FishGame,2022.1.1,59.99149320625346,
,11,넌 체제순응적이야,4,Orange,B,3,3.6,ScrollUp,ScrollDown,Orange.png,4,Negative,Congruent,,,,,0,0,0,0,,,,,,,,,,,,,,,,,,,,,,,,,0,10,10,10,,,,,,,,,,,,,,,,,,,,,,,,,,,,,,,,,,,,,,,,,,,,,,,,,,,,,,,,,,,,,,,,,,,,,1.7546296268701553,1.0313799999998992,516.9284403000001,None,ScrollUp,정답입니다,516.9284403000001,None,516.9284403000001,None,516.9284403000001,None,516.9284403000001,None,517.8123270000001,None,517.8123270000001,518.3237382000002,,,,,,,,,,,,,,,,206,2022-05-02_15h36.55.298,FishGame,2022.1.1,59.99149320625346,
,12,나를 보내줘,6,Green,A,0,0,ScrollUp,ScrollDown,Green.png,4,NonTarget,NonTarget,,,,,0,0,0,0,,,,,,,,,,,,,,,,,,,,,,,,,0,11,11,11,,,,,,,,,,,,,,,,,,,,,,,,,,,,,,,,,,,,,,,,,,,,,,,,,,,,,,,,,,,,,,,,,,,,,1.6481481517354646,0.9454018999999789,518.9718144000003,None,ScrollUp,정답입니다,518.9718144000003,None,518.9718144000003,None,518.9718144000003,None,518.9718144000003,None,519.790168,None,519.790168,520.2902248,,,,,,,,,,,,,,,,206,2022-05-02_15h36.55.298,FishGame,2022.1.1,59.99149320625346,
,13,넌 박식해,2,Green,A,5.625,3.933333333333333,ScrollDown,ScrollUp,Green.png,4,Positive,Congruent,,,,,0,0,0,0,,,,,,,,,,,,,,,,,,,,,,,,,0,12,12,12,,,,,,,,,,,,,,,,,,,,,,,,,,,,,,,,,,,,,,,,,,,,,,,,,,,,,,,,,,,,,,,,,,,,,1.214506169160207,0.951025700000173,520.9450184000002,None,ScrollDown,정답입니다,520.9450184000002,None,520.9450184000002,None,520.9450184000002,None,520.9450184000002,None,521.7646592000001,None,521.7646592000001,522.2732826000001,,,,,,,,,,,,,,,,206,2022-05-02_15h36.55.298,FishGame,2022.1.1,59.99149320625346,
,14,나를 보내줘,6,Green,A,0,0,ScrollUp,ScrollDown,Green.png,4,NonTarget,NonTarget,,,,,0,0,0,0,,,,,,,,,,,,,,,,,,,,,,,,,0,13,13,13,,,,,,,,,,,,,,,,,,,,,,,,,,,,,,,,,,,,,,,,,,,,,,,,,,,,,,,,,,,,,,,,,,,,,1.71913580596447,0.9278920000001563,522.9244373000001,None,ScrollUp,정답입니다,522.9244373000001,None,522.9244373000001,None,522.9244373000001,None,522.9244373000001,None,523.7230535000003,None,523.7230535000003,524.2228881999999,,,,,,,,,,,,,,,,206,2022-05-02_15h36.55.298,FishGame,2022.1.1,59.99149320625346,
,15,넌 침착해,1,Orange,B,5.458333333333333,5.566666666666666,ScrollUp,ScrollDown,Orange.png,4,Positive,Incongruent,,,,,0,0,0,0,,,,,,,,,,,,,,,,,,,,,,,,,0,14,14,14,,,,,,,,,,,,,,,,,,,,,,,,,,,,,,,,,,,,,,,,,,,,,,,,,,,,,,,,,,,,,,,,,,,,,1.743827154239019,0.9819824999999582,524.8820612,None,ScrollUp,정답입니다,524.8820612,None,524.8820612,None,524.8820612,None,524.8820612,None,525.7285096,None,525.7285096,526.2393681000003,,,,,,,,,,,,,,,,206,2022-05-02_15h36.55.298,FishGame,2022.1.1,59.99149320625346,
,16,나를 데려가줘,6,Orange,B,0,0,ScrollDown,ScrollUp,Orange.png,4,NonTarget,NonTarget,,,,,0,0,0,0,,,,,,,,,,,,,,,,,,,,,,,,,0,15,15,15,,,,,,,,,,,,,,,,,,,,,,,,,,,,,,,,,,,,,,,,,,,,,,,,,,,,,,,,,,,,,,,,,,,,,1.0416666567325592,1.089453599999615,526.8913547000002,None,ScrollDown,정답입니다,526.8913547000002,None,526.8913547000002,None,526.8913547000002,None,526.8913547000002,None,527.8558498000002,None,527.8558498000002,528.3559264,,,,,,,,,,,,,,,,206,2022-05-02_15h36.55.298,FishGame,2022.1.1,59.99149320625346,
,17,넌 행복해,1,Green,A,6.416666666666666,6.166666666666667,ScrollDown,ScrollUp,Green.png,4,Positive,Congruent,,,,,0,0,0,0,,,,,,,,,,,,,,,,,,,,,,,,,0,16,16,16,,,,,,,,,,,,,,,,,,,,,,,,,,,,,,,,,,,,,,,,,,,,,,,,,,,,,,,,,,,,,,,,,,,,,1.0123456915219624,0.964705899999899,529.0139989000004,None,ScrollDown,정답입니다,529.0139989000004,None,529.0139989000004,None,529.0139989000004,None,529.0139989000004,None,529.8446211,None,529.8446211,530.3556415000003,,,,,,,,,,,,,,,,206,2022-05-02_15h36.55.298,FishGame,2022.1.1,59.99149320625346,
,18,넌 겸손해,2,Orange,B,5.791666666666667,4.766666666666667,ScrollUp,ScrollDown,Orange.png,4,Positive,Incongruent,,,,,0,0,0,0,,,,,,,,,,,,,,,,,,,,,,,,,0,17,17,17,,,,,,,,,,,,,,,,,,,,,,,,,,,,,,,,,,,,,,,,,,,,,,,,,,,,,,,,,,,,,,,,,,,,,1.7731481442848842,0.9853608000003078,531.0175226000001,None,ScrollUp,정답입니다,531.0175226000001,None,531.0175226000001,None,531.0175226000001,None,531.0175226000001,None,531.8641469000004,None,531.8641469000004,532.3720228000002,,,,,,,,,,,,,,,,206,2022-05-02_15h36.55.298,FishGame,2022.1.1,59.99149320625346,
,19,나를 보내줘,6,Green,A,0,0,ScrollUp,ScrollDown,Green.png,4,NonTarget,NonTarget,,,,,0,0,0,0,,,,,,,,,,,,,,,,,,,,,,,,,0,18,18,18,,,,,,,,,,,,,,,,,,,,,,,,,,,,,,,,,,,,,,,,,,,,,,,,,,,,,,,,,,,,,,,,,,,,,1.8132716069618862,0.9748878000000332,533.0179725000003,None,ScrollUp,정답입니다,533.0179725000003,None,533.0179725000003,None,533.0179725000003,None,533.0179725000003,None,533.8665848,None,533.8665848,534.3717057000003,,,,,,,,,,,,,,,,206,2022-05-02_15h36.55.298,FishGame,2022.1.1,59.99149320625346,
,20,넌 의심없어,3,Green,A,4.166666666666667,4.6,ScrollDown,ScrollUp,Green.png,4,Neutral,Neutral,,,,,0,0,0,0,,,,,,,,,,,,,,,,,,,,,,,,,0,19,19,19,,,,,,,,,,,,,,,,,,,,,,,,,,,,,,,,,,,,,,,,,,,,,,,,,,,,,,,,,,,,,,,,,,,,,1,0.9783535999999913,535.0206293000001,None,ScrollDown,정답입니다,535.0206293000001,None,535.0206293000001,None,535.0206293000001,None,535.0206293000001,None,535.8720557000001,None,535.8720557000001,536.3714325999999,,,,,,,,,,,,,,,,206,2022-05-02_15h36.55.298,FishGame,2022.1.1,59.99149320625346,
,21,넌 시시해,4,Green,A,2.666666666666667,2.966666666666667,ScrollDown,ScrollUp,Green.png,4,Negative,Incongruent,,,,,0,0,0,0,,,,,,,,,,,,,,,,,,,,,,,,,0,20,20,20,,,,,,,,,,,,,,,,,,,,,,,,,,,,,,,,,,,,,,,,,,,,,,,,,,,,,,,,,,,,,,,,,,,,,1.0925925920406978,1.0320260999997117,537.0169807000002,None,ScrollDown,정답입니다,537.0169807000002,None,537.0169807000002,None,537.0169807000002,None,537.0169807000002,None,537.9272346000002,None,537.9272346000002,538.4379223999999,,,,,,,,,,,,,,,,206,2022-05-02_15h36.55.298,FishGame,2022.1.1,59.99149320625346,
,22,나를 데려가줘,6,Orange,B,0,0,ScrollDown,ScrollUp,Orange.png,4,NonTarget,NonTarget,,,,,0,0,0,0,,,,,,,,,,,,,,,,,,,,,,,,,0,21,21,21,,,,,,,,,,,,,,,,,,,,,,,,,,,,,,,,,,,,,,,,,,,,,,,,,,,,,,,,,,,,,,,,,,,,,1.0416666567325592,1.0690546000000722,539.0934483999999,None,ScrollDown,정답입니다,539.0934483999999,None,539.0934483999999,None,539.0934483999999,None,539.0934483999999,None,540.0288836,None,540.0288836,540.5376432000003,,,,,,,,,,,,,,,,206,2022-05-02_15h36.55.298,FishGame,2022.1.1,59.99149320625346,
,23,넌 무정해,5,Green,A,2.5,2.2,ScrollDown,ScrollUp,Green.png,4,Negative,Incongruent,,,,,0,0,0,0,,,,,,,,,,,,,,,,,,,,,,,,,0,22,22,22,,,,,,,,,,,,,,,,,,,,,,,,,,,,,,,,,,,,,,,,,,,,,,,,,,,,,,,,,,,,,,,,,,,,,1,0.9944281999996747,541.1801936000002,None,ScrollDown,정답입니다,541.1801936000002,None,541.1801936000002,None,541.1801936000002,None,541.1801936000002,None,542.0540925,None,542.0540925,542.5540564000003,,,,,,,,,,,,,,,,206,2022-05-02_15h36.55.298,FishGame,2022.1.1,59.99149320625346,
,24,넌 긍정적이야,1,Orange,B,6.041666666666667,6.066666666666666,ScrollUp,ScrollDown,Orange.png,4,Positive,Incongruent,,,,,0,0,0,0,,,,,,,,,,,,,,,,,,,,,,,,,0,23,23,23,,,,,,,,,,,,,,,,,,,,,,,,,,,,,,,,,,,,,,,,,,,,,,,,,,,,,,,,,,,,,,,,,,,,,1.839506169160207,0.8894865000002028,543.2117128,None,ScrollUp,정답입니다,543.2117128,None,543.2117128,None,543.2117128,None,543.2117128,None,543.9708948000002,None,543.9708948000002,544.4703995,,,,,,,,,,,,,,,,206,2022-05-02_15h36.55.298,FishGame,2022.1.1,59.99149320625346,
,25,나를 보내줘,6,Green,A,0,0,ScrollUp,ScrollDown,Green.png,4,NonTarget,NonTarget,,,,,0,0,0,0,,,,,,,,,,,,,,,,,,,,,,,,,0,24,24,24,,,,,,,,,,,,,,,,,,,,,,,,,,,,,,,,,,,,,,,,,,,,,,,,,,,,,,,,,,,,,,,,,,,,,1.765432099501292,0.9542575999998917,545.1123484,None,ScrollUp,정답입니다,545.1123484,None,545.1123484,None,545.1123484,None,545.1123484,None,545.9465150999999,None,545.9465150999999,546.4535081000004,,,,,,,,,,,,,,,,206,2022-05-02_15h36.55.298,FishGame,2022.1.1,59.99149320625346,
,26,넌 시기심이 많아,5,Orange,B,2.458333333333333,2.233333333333333,ScrollUp,ScrollDown,Orange.png,4,Negative,Congruent,,,,,0,0,0,0,,,,,,,,,,,,,,,,,,,,,,,,,0,25,25,25,,,,,,,,,,,,,,,,,,,,,,,,,,,,,,,,,,,,,,,,,,,,,,,,,,,,,,,,,,,,,,,,,,,,,1.9567901293436687,1.0363782999997966,547.1135126000004,None,ScrollUp,정답입니다,547.1135126000004,None,547.1135126000004,None,547.1135126000004,None,547.1135126000004,None,548.0127633000002,None,548.0127633000002,548.5200598000001,,,,,,,,,,,,,,,,206,2022-05-02_15h36.55.298,FishGame,2022.1.1,59.99149320625346,
,27,넌 탁월해,2,Green,A,5.708333333333334,4.5,ScrollDown,ScrollUp,Green.png,4,Positive,Congruent,,,,,0,0,0,0,,,,,,,,,,,,,,,,,,,,,,,,,0,26,26,26,,,,,,,,,,,,,,,,,,,,,,,,,,,,,,,,,,,,,,,,,,,,,,,,,,,,,,,,,,,,,,,,,,,,,1.0524691541989644,1.043033800000103,549.1839221,None,ScrollDown,정답입니다,549.1839221,None,549.1839221,None,549.1839221,None,549.1839221,None,550.0826119000003,None,550.0826119000003,550.5864105,,,,,,,,,,,,,,,,206,2022-05-02_15h36.55.298,FishGame,2022.1.1,59.99149320625346,
,28,나를 데려가줘,6,Orange,B,0,0,ScrollDown,ScrollUp,Orange.png,4,NonTarget,NonTarget,,,,,0,0,0,0,,,,,,,,,,,,,,,,,,,,,,,,,0,27,27,27,,,,,,,,,,,,,,,,,,,,,,,,,,,,,,,,,,,,,,,,,,,,,,,,,,,,,,,,,,,,,,,,,,,,,1.0771604776382446,1.2857576999999765,551.2431523,None,ScrollDown,정답입니다,551.2431523,None,551.2431523,None,551.2431523,None,551.2431523,None,552.3956062000002,None,552.3956062000002,552.9028042,,,,,,,,,,,,,,,,206,2022-05-02_15h36.55.298,FishGame,2022.1.1,59.99149320625346,
,29,넌 조용해,3,Orange,B,4.333333333333333,4.166666666666667,ScrollUp,ScrollDown,Orange.png,4,Neutral,Neutral,,,,,0,0,0,0,,,,,,,,,,,,,,,,,,,,,,,,,0,28,28,28,,,,,,,,,,,,,,,,,,,,,,,,,,,,,,,,,,,,,,,,,,,,,,,,,,,,,,,,,,,,,,,,,,,,,1.6820987711350122,1.1452408000000105,553.5611160000003,None,ScrollUp,정답입니다,553.5611160000003,None,553.5611160000003,None,553.5611160000003,None,553.5611160000003,None,554.5698461000002,None,554.5698461000002,555.0690870000003,,,,,,,,,,,,,,,,206,2022-05-02_15h36.55.298,FishGame,2022.1.1,59.99149320625346,
,30,넌 다정해,1,Green,A,5.833333333333334,5.7,ScrollDown,ScrollUp,Green.png,4,Positive,Congruent,,,,,0,0,0,0,,,,,,,,,,,,,,,,,,,,,,,,,0,29,29,29,,,,,,,,,,,,,,,,,,,,,,,,,,,,,,,,,,,,,,,,,,,,,,,,,,,,,,,,,,,,,,,,,,,,,1.2608024626970291,0.9290105999998559,555.7242283,None,ScrollDown,정답입니다,555.7242283,None,555.7242283,None,555.7242283,None,555.7242283,None,556.5246722000002,None,556.5246722000002,557.0356059000001,,,,,,,,,,,,,,,,206,2022-05-02_15h36.55.298,FishGame,2022.1.1,59.99149320625346,
,31,넌 능력있어,2,Orange,B,6.166666666666666,4.6,ScrollUp,ScrollDown,Orange.png,4,Positive,Incongruent,,,,,0,0,0,0,,,,,,,,,,,,,,,,,,,,,,,,,0,30,30,30,,,,,,,,,,,,,,,,,,,,,,,,,,,,,,,,,,,,,,,,,,,,,,,,,,,,,,,,,,,,,,,,,,,,,1.7345678955316544,1.6499316999997973,557.6778661000003,None,ScrollUp,정답입니다,557.6778661000003,None,557.6778661000003,None,557.6778661000003,None,557.6778661000003,None,559.2088048,None,559.2088048,559.7185250000002,,,,,,,,,,,,,,,,206,2022-05-02_15h36.55.298,FishGame,2022.1.1,59.99149320625346,
,32,넌 불쾌해,5,Green,A,2.125,1.933333333333333,ScrollDown,ScrollUp,Green.png,4,Negative,Incongruent,,,,,0,0,0,0,,,,,,,,,,,,,,,,,,,,,,,,,0,31,31,31,,,,,,,,,,,,,,,,,,,,,,,,,,,,,,,,,,,,,,,,,,,,,,,,,,,,,,,,,,,,,,,,,,,,,1.3117283980051675,1.0334108000001834,560.3621613,None,ScrollDown,정답입니다,560.3621613,None,560.3621613,None,560.3621613,None,560.3621613,None,561.2750622000003,None,561.2750622000003,561.7850065000002,,,,,,,,,,,,,,,,206,2022-05-02_15h36.55.298,FishGame,2022.1.1,59.99149320625346,
,33,나를 데려가줘,6,Orange,B,0,0,ScrollDown,ScrollUp,Orange.png,4,NonTarget,NonTarget,,,,,0,0,0,0,,,,,,,,,,,,,,,,,,,,,,,,,0,32,32,32,,,,,,,,,,,,,,,,,,,,,,,,,,,,,,,,,,,,,,,,,,,,,,,,,,,,,,,,,,,,,,,,,,,,,1.1898148208856583,1.0982313999998041,562.4393520000003,None,ScrollDown,정답입니다,562.4393520000003,None,562.4393520000003,None,562.4393520000003,None,562.4393520000003,None,563.4065568999999,None,563.4065568999999,563.9180711000004,,,,,,,,,,,,,,,,206,2022-05-02_15h36.55.298,FishGame,2022.1.1,59.99149320625346,
,34,넌 유순해,3,Green,A,4.458333333333333,5,ScrollDown,ScrollUp,Green.png,4,Neutral,Neutral,,,,,0,0,0,0,,,,,,,,,,,,,,,,,,,,,,,,,0,33,33,33,,,,,,,,,,,,,,,,,,,,,,,,,,,,,,,,,,,,,,,,,,,,,,,,,,,,,,,,,,,,,,,,,,,,,1.2052469104528427,1.6278830000001108,564.5691491000002,None,ScrollDown,정답입니다,564.5691491000002,None,564.5691491000002,None,564.5691491000002,None,564.5691491000002,None,566.0679901000003,None,566.0679901000003,566.5676475,,,,,,,,,,,,,,,,206,2022-05-02_15h36.55.298,FishGame,2022.1.1,59.99149320625346,
,35,넌 근심스러워,4,Orange,B,2.708333333333333,3.133333333333333,ScrollUp,ScrollDown,Orange.png,4,Negative,Congruent,,,,,0,0,0,0,,,,,,,,,,,,,,,,,,,,,,,,,0,34,34,34,,,,,,,,,,,,,,,,,,,,,,,,,,,,,,,,,,,,,,,,,,,,,,,,,,,,,,,,,,,,,,,,,,,,,1.6759259278575578,0.9836562999998932,567.2377705000004,None,ScrollUp,정답입니다,567.2377705000004,None,567.2377705000004,None,567.2377705000004,None,567.2377705000004,None,568.0756031000001,None,568.0756031000001,568.5840604,,,,,,,,,,,,,,,,206,2022-05-02_15h36.55.298,FishGame,2022.1.1,59.99149320625346,
,36,넌 세련되었어,2,Green,A,5.5,4.6,ScrollDown,ScrollUp,Green.png,4,Positive,Congruent,,,,,0,0,0,0,,,,,,,,,,,,,,,,,,,,,,,,,0,35,35,35,,,,,,,,,,,,,,,,,,,,,,,,,,,,,,,,,,,,,,,,,,,,,,,,,,,,,,,,,,,,,,,,,,,,,1,1.115495699999883,569.2506381000003,None,ScrollDown,정답입니다,569.2506381000003,None,569.2506381000003,None,569.2506381000003,None,569.2506381000003,None,570.2231948000003,None,570.2231948000003,570.7338219000003,,,,,,,,,,,,,,,,206,2022-05-02_15h36.55.298,FishGame,2022.1.1,59.99149320625346,
,37,나를 보내줘,6,Green,A,0,0,ScrollUp,ScrollDown,Green.png,4,NonTarget,NonTarget,,,,,0,0,0,0,,,,,,,,,,,,,,,,,,,,,,,,,0,36,36,36,,,,,,,,,,,,,,,,,,,,,,,,,,,,,,,,,,,,,,,,,,,,,,,,,,,,,,,,,,,,,,,,,,,,,1.8410493830839794,1.0125542999999197,571.3779368,None,ScrollUp,정답입니다,571.3779368,None,571.3779368,None,571.3779368,None,571.3779368,None,572.2678418,None,572.2678418,572.7668547000003,,,,,,,,,,,,,,,,206,2022-05-02_15h36.55.298,FishGame,2022.1.1,59.99149320625346,
,38,넌 확고해,3,Orange,B,4.708333333333334,4.566666666666666,ScrollUp,ScrollDown,Orange.png,4,Neutral,Neutral,,,,,0,0,0,0,,,,,,,,,,,,,,,,,,,,,,,,,0,37,37,37,,,,,,,,,,,,,,,,,,,,,,,,,,,,,,,,,,,,,,,,,,,,,,,,,,,,,,,,,,,,,,,,,,,,,1.8518518557151158,1.3778548000000228,573.4430404,None,ScrollUp,정답입니다,573.4430404,None,573.4430404,None,573.4430404,None,573.4430404,None,574.6836624000002,None,574.6836624000002,575.1831922000001,,,,,,,,,,,,,,,,206,2022-05-02_15h36.55.298,FishGame,2022.1.1,59.99149320625346,
,39,넌 이해심이 많아,1,Orange,B,6.041666666666668,5.533333333333333,ScrollUp,ScrollDown,Orange.png,4,Positive,Incongruent,,,,,0,0,0,0,,,,,,,,,,,,,,,,,,,,,,,,,0,38,38,38,,,,,,,,,,,,,,,,,,,,,,,,,,,,,,,,,,,,,,,,,,,,,,,,,,,,,,,,,,,,,,,,,,,,,2,1.0924362000000656,575.8334833000004,None,ScrollUp,정답입니다,575.8334833000004,None,575.8334833000004,None,575.8334833000004,None,575.8334833000004,None,576.7997084000003,None,576.7997084000003,577.2995547,,,,,,,,,,,,,,,,206,2022-05-02_15h36.55.298,FishGame,2022.1.1,59.99149320625346,
,40,나를 보내줘,6,Green,A,0,0,ScrollUp,ScrollDown,Green.png,4,NonTarget,NonTarget,,,,,0,0,0,0,,,,,,,,,,,,,,,,,,,,,,,,,0,39,39,39,,,,,,,,,,,,,,,,,,,,,,,,,,,,,,,,,,,,,,,,,,,,,,,,,,,,,,,,,,,,,,,,,,,,,1.9290123283863068,1.0732418000002326,577.9475382,None,ScrollUp,정답입니다,577.9475382,None,577.9475382,None,577.9475382,None,577.9475382,None,578.8992807,None,578.8992807,579.3993145,,,,,,,,,,,,,,,,206,2022-05-02_15h36.55.298,FishGame,2022.1.1,59.99149320625346,
,41,넌 거칠어,4,Green,A,2.625,3.033333333333333,ScrollDown,ScrollUp,Green.png,4,Negative,Incongruent,,,,,0,0,0,0,,,,,,,,,,,,,,,,,,,,,,,,,0,40,40,40,,,,,,,,,,,,,,,,,,,,,,,,,,,,,,,,,,,,,,,,,,,,,,,,,,,,,,,,,,,,,,,,,,,,,1.060185174147288,1.1019330999997692,580.0619089000002,None,ScrollDown,정답입니다,580.0619089000002,None,580.0619089000002,None,580.0619089000002,None,580.0619089000002,None,581.0249607000001,None,581.0249607000001,581.5323409000002,,,,,,,,,,,,,,,,206,2022-05-02_15h36.55.298,FishGame,2022.1.1,59.99149320625346,
,42,넌 변덕맞아,5,Orange,B,2.75,2.166666666666667,ScrollUp,ScrollDown,Orange.png,4,Negative,Congruent,,,,,0,0,0,0,,,,,,,,,,,,,,,,,,,,,,,,,0,41,41,41,,,,,,,,,,,,,,,,,,,,,,,,,,,,,,,,,,,,,,,,,,,,,,,,,,,,,,,,,,,,,,,,,,,,,1.7484567960103354,1.0064034000001811,582.1961621,None,ScrollUp,정답입니다,582.1961621,None,582.1961621,None,582.1961621,None,582.1961621,None,583.0597935000001,None,583.0597935000001,583.5655308,,,,,,,,,,,,,,,,206,2022-05-02_15h36.55.298,FishGame,2022.1.1,59.99149320625346,
,43,나를 데려가줘,6,Orange,B,0,0,ScrollDown,ScrollUp,Orange.png,4,NonTarget,NonTarget,,,,,0,0,0,0,,,,,,,,,,,,,,,,,,,,,,,,,0,42,42,42,,,,,,,,,,,,,,,,,,,,,,,,,,,,,,,,,,,,,,,,,,,,,,,,,,,,,,,,,,,,,,,,,,,,,1.3040123408039412,1.2948652000000038,584.2185337000001,None,ScrollDown,정답입니다,584.2185337000001,None,584.2185337000001,None,584.2185337000001,None,584.2185337000001,None,585.3845737000001,None,585.3845737000001,585.8985103,,,,,,,,,,,,,,,,206,2022-05-02_15h36.55.298,FishGame,2022.1.1,59.99149320625346,
,44,넌 외로워,4,Orange,B,2.833333333333333,3.3,ScrollUp,ScrollDown,Orange.png,4,Negative,Congruent,,,,,0,0,0,0,,,,,,,,,,,,,,,,,,,,,,,,,0,43,43,43,,,,,,,,,,,,,,,,,,,,,,,,,,,,,,,,,,,,,,,,,,,,,,,,,,,,,,,,,,,,,,,,,,,,,1.6373456791043282,1.0459513000000698,586.5602287000002,None,ScrollUp,정답입니다,586.5602287000002,None,586.5602287000002,None,586.5602287000002,None,586.5602287000002,None,587.4654610000002,None,587.4654610000002,587.9648805000002,,,,,,,,,,,,,,,,206,2022-05-02_15h36.55.298,FishGame,2022.1.1,59.99149320625346,
,1,넌 불평스러워,5,Green,A,2.25,2.066666666666667,ScrollDown,ScrollUp,Green.png,5,Negative,Incongruent,,,,,0,0,0,0,,,,,,,,,,,,,,,,,,,,,,,,,,,,,0,0,0,0,,,,,,,,,,,,,,,,,,,,,,,,623.0778163,624.5769450000003,624.6103820000003,625.5601710999999,625.6102617000001,626.5600705000002,626.5600705000002,None,,,,,,,,,,,,,,,,,,,,,,,,,,,,,,,,,,1.3317901293436685,1.0314351000001807,627.7485319000002,None,ScrollDown,정답입니다,627.7485319000002,None,627.7485319000002,None,627.7485319000002,None,627.7485319000002,None,628.610815,None,628.610815,629.1264017000003,588.4648838000003,None,588.4648838000003,None,0.16944444,-0.15555556,1,0,0,0.01621117000013328,None,618.4777514000002,None,,,206,2022-05-02_15h36.55.298,FishGame,2022.1.1,59.99149320625346,
,2,나를 보내줘,6,Green,A,0,0,ScrollUp,ScrollDown,Green.png,5,NonTarget,NonTarget,,,,,0,0,0,0,,,,,,,,,,,,,,,,,,,,,,,,,,,,,0,1,1,1,,,,,,,,,,,,,,,,,,,,,,,,,,,,,,,,,,,,,,,,,,,,,,,,,,,,,,,,,,,,,,,,,1.9089506218830745,1.0270998999999392,629.7694683,None,ScrollUp,정답입니다,629.7694683,None,629.7694683,None,629.7694683,None,629.7694683,None,630.6764384000003,None,630.6764384000003,631.1761615,,,,,,,,,,,,,,,,206,2022-05-02_15h36.55.298,FishGame,2022.1.1,59.99149320625346,
,3,넌 다재다능해,2,Orange,B,6.208333333333333,4.5,ScrollUp,ScrollDown,Orange.png,5,Positive,Incongruent,,,,,0,0,0,0,,,,,,,,,,,,,,,,,,,,,,,,,,,,,0,2,2,2,,,,,,,,,,,,,,,,,,,,,,,,,,,,,,,,,,,,,,,,,,,,,,,,,,,,,,,,,,,,,,,,,2,0.9823670000000675,631.8310045000003,None,ScrollUp,정답입니다,631.8310045000003,None,631.8310045000003,None,631.8310045000003,None,631.8310045000003,None,632.6814968000003,None,632.6814968000003,633.1924488,,,,,,,,,,,,,,,,206,2022-05-02_15h36.55.298,FishGame,2022.1.1,59.99149320625346,
,4,넌 과감해,3,Green,A,4.833333333333334,4.6,ScrollDown,ScrollUp,Green.png,5,Neutral,Neutral,,,,,0,0,0,0,,,,,,,,,,,,,,,,,,,,,,,,,,,,,0,3,3,3,,,,,,,,,,,,,,,,,,,,,,,,,,,,,,,,,,,,,,,,,,,,,,,,,,,,,,,,,,,,,,,,,1.2299382835626602,0.9616222999998172,633.8344826000002,None,ScrollDown,정답입니다,633.8344826000002,None,633.8344826000002,None,633.8344826000002,None,633.8344826000002,None,634.6759357999999,None,634.6759357999999,635.1756919,,,,,,,,,,,,,,,,206,2022-05-02_15h36.55.298,FishGame,2022.1.1,59.99149320625346,
,5,넌 고분고분해,3,Orange,B,3.75,4.033333333333333,ScrollUp,ScrollDown,Orange.png,5,Neutral,Neutral,,,,,0,0,0,0,,,,,,,,,,,,,,,,,,,,,,,,,,,,,0,4,4,4,,,,,,,,,,,,,,,,,,,,,,,,,,,,,,,,,,,,,,,,,,,,,,,,,,,,,,,,,,,,,,,,,1.9567901293436687,0.8805892999998832,635.8340364000001,None,ScrollUp,정답입니다,635.8340364000001,None,635.8340364000001,None,635.8340364000001,None,635.8340364000001,None,636.5788191000001,None,636.5788191000001,637.0919789,,,,,,,,,,,,,,,,206,2022-05-02_15h36.55.298,FishGame,2022.1.1,59.99149320625346,
,6,나를 보내줘,6,Green,A,0,0,ScrollUp,ScrollDown,Green.png,5,NonTarget,NonTarget,,,,,0,0,0,0,,,,,,,,,,,,,,,,,,,,,,,,,,,,,0,5,5,5,,,,,,,,,,,,,,,,,,,,,,,,,,,,,,,,,,,,,,,,,,,,,,,,,,,,,,,,,,,,,,,,,1.837962955236435,0.9905746999997973,637.7397947,None,ScrollUp,정답입니다,637.7397947,None,637.7397947,None,637.7397947,None,637.7397947,None,638.6055834000003,None,638.6055834000003,639.1083606000002,,,,,,,,,,,,,,,,206,2022-05-02_15h36.55.298,FishGame,2022.1.1,59.99149320625346,
,7,넌 잘 잊어,4,Green,A,3,3.7,ScrollDown,ScrollUp,Green.png,5,Negative,Incongruent,,,,,0,0,0,0,,,,,,,,,,,,,,,,,,,,,,,,,,,,,0,6,6,6,,,,,,,,,,,,,,,,,,,,,,,,,,,,,,,,,,,,,,,,,,,,,,,,,,,,,,,,,,,,,,,,,1.162037044763565,0.9791854999998577,639.7616378000002,None,ScrollDown,정답입니다,639.7616378000002,None,639.7616378000002,None,639.7616378000002,None,639.7616378000002,None,640.6096297000004,None,640.6096297000004,641.1247715,,,,,,,,,,,,,,,,206,2022-05-02_15h36.55.298,FishGame,2022.1.1,59.99149320625346,
,8,넌 탐구심이없어,4,Orange,B,2.833333333333333,3.066666666666667,ScrollUp,ScrollDown,Orange.png,5,Negative,Congruent,,,,,0,0,0,0,,,,,,,,,,,,,,,,,,,,,,,,,,,,,0,7,7,7,,,,,,,,,,,,,,,,,,,,,,,,,,,,,,,,,,,,,,,,,,,,,,,,,,,,,,,,,,,,,,,,,1.766975313425064,0.9629147999999077,641.7887376000003,None,ScrollUp,정답입니다,641.7887376000003,None,641.7887376000003,None,641.7887376000003,None,641.7887376000003,None,642.6119811000003,None,642.6119811000003,643.1245576000001,,,,,,,,,,,,,,,,206,2022-05-02_15h36.55.298,FishGame,2022.1.1,59.99149320625346,
,9,나를 데려가줘,6,Orange,B,0,0,ScrollDown,ScrollUp,Orange.png,5,NonTarget,NonTarget,,,,,0,0,0,0,,,,,,,,,,,,,,,,,,,,,,,,,,,,,0,8,8,8,,,,,,,,,,,,,,,,,,,,,,,,,,,,,,,,,,,,,,,,,,,,,,,,,,,,,,,,,,,,,,,,,1.1481481442848842,1.0606779999998253,643.7766119000003,None,ScrollDown,정답입니다,643.7766119000003,None,643.7766119000003,None,643.7766119000003,None,643.7766119000003,None,644.7041105000003,None,644.7041105000003,645.2076347000002,,,,,,,,,,,,,,,,206,2022-05-02_15h36.55.298,FishGame,2022.1.1,59.99149320625346,
,10,넌 참되어,2,Green,A,6.041666666666664,4.733333333333333,ScrollDown,ScrollUp,Green.png,5,Positive,Congruent,,,,,0,0,0,0,,,,,,,,,,,,,,,,,,,,,,,,,,,,,0,9,9,9,,,,,,,,,,,,,,,,,,,,,,,,,,,,,,,,,,,,,,,,,,,,,,,,,,,,,,,,,,,,,,,,,1.2283950696388881,1.0954298999999992,645.8599155000002,None,ScrollDown,정답입니다,645.8599155000002,None,645.8599155000002,None,645.8599155000002,None,645.8599155000002,None,646.8274895,None,646.8274895,647.3406988000002,,,,,,,,,,,,,,,,206,2022-05-02_15h36.55.298,FishGame,2022.1.1,59.99149320625346,
,11,넌 생기있어,1,Orange,B,5.875,5.633333333333334,ScrollUp,ScrollDown,Orange.png,5,Positive,Incongruent,,,,,0,0,0,0,,,,,,,,,,,,,,,,,,,,,,,,,,,,,0,10,10,10,,,,,,,,,,,,,,,,,,,,,,,,,,,,,,,,,,,,,,,,,,,,,,,,,,,,,,,,,,,,,,,,,1.7808641890684764,1.0479128000001765,648.0007585000003,None,ScrollUp,정답입니다,648.0007585000003,None,648.0007585000003,None,648.0007585000003,None,648.0007585000003,None,648.9115958000002,None,648.9115958000002,649.4237615000002,,,,,,,,,,,,,,,,206,2022-05-02_15h36.55.298,FishGame,2022.1.1,59.99149320625346,
,12,넌 비사교적이야,4,Orange,B,2.875,2.9,ScrollUp,ScrollDown,Orange.png,5,Negative,Congruent,,,,,0,0,0,0,,,,,,,,,,,,,,,,,,,,,,,,,,,,,0,11,11,11,,,,,,,,,,,,,,,,,,,,,,,,,,,,,,,,,,,,,,,,,,,,,,,,,,,,,,,,,,,,,,,,,1.858024686574936,0.864457399999992,650.0762290000002,None,ScrollUp,정답입니다,650.0762290000002,None,650.0762290000002,None,650.0762290000002,None,650.0762290000002,None,650.8113081000001,None,650.8113081000001,651.3235085000001,,,,,,,,,,,,,,,,206,2022-05-02_15h36.55.298,FishGame,2022.1.1,59.99149320625346,
,13,나를 데려가줘,6,Orange,B,0,0,ScrollDown,ScrollUp,Orange.png,5,NonTarget,NonTarget,,,,,0,0,0,0,,,,,,,,,,,,,,,,,,,,,,,,,,,,,0,12,12,12,,,,,,,,,,,,,,,,,,,,,,,,,,,,,,,,,,,,,,,,,,,,,,,,,,,,,,,,,,,,,,,,,1.0092592636744182,1.126339200000075,651.9758529000001,None,ScrollDown,정답입니다,651.9758529000001,None,651.9758529000001,None,651.9758529000001,None,651.9758529000001,None,652.9735539000003,None,652.9735539000003,653.4731836999999,,,,,,,,,,,,,,,,206,2022-05-02_15h36.55.298,FishGame,2022.1.1,59.99149320625346,
,14,넌 고독해,4,Green,A,2.916666666666667,3.233333333333333,ScrollDown,ScrollUp,Green.png,5,Negative,Incongruent,,,,,0,0,0,0,,,,,,,,,,,,,,,,,,,,,,,,,,,,,0,13,13,13,,,,,,,,,,,,,,,,,,,,,,,,,,,,,,,,,,,,,,,,,,,,,,,,,,,,,,,,,,,,,,,,,1.016975333293279,1.0936778000000231,654.1353650000001,None,ScrollDown,정답입니다,654.1353650000001,None,654.1353650000001,None,654.1353650000001,None,654.1353650000001,None,655.0899830000003,None,655.0899830000003,655.5896032,,,,,,,,,,,,,,,,206,2022-05-02_15h36.55.298,FishGame,2022.1.1,59.99149320625346,
,15,넌 신경질적이야,5,Orange,B,2.375,2.233333333333333,ScrollUp,ScrollDown,Orange.png,5,Negative,Congruent,,,,,0,0,0,0,,,,,,,,,,,,,,,,,,,,,,,,,,,,,0,14,14,14,,,,,,,,,,,,,,,,,,,,,,,,,,,,,,,,,,,,,,,,,,,,,,,,,,,,,,,,,,,,,,,,,1.7283950646718345,0.9608680999999706,656.2511996000003,None,ScrollUp,정답입니다,656.2511996000003,None,656.2511996000003,None,656.2511996000003,None,656.2511996000003,None,657.0730384000003,None,657.0730384000003,657.5727215000002,,,,,,,,,,,,,,,,206,2022-05-02_15h36.55.298,FishGame,2022.1.1,59.99149320625346,
,16,넌 똑똑해,2,Orange,B,5.666666666666667,3.966666666666667,ScrollUp,ScrollDown,Orange.png,5,Positive,Incongruent,,,,,0,0,0,0,,,,,,,,,,,,,,,,,,,,,,,,,,,,,0,15,15,15,,,,,,,,,,,,,,,,,,,,,,,,,,,,,,,,,,,,,,,,,,,,,,,,,,,,,,,,,,,,,,,,,1.6759259278575578,1.115574999999808,658.2325272000003,None,ScrollUp,정답입니다,658.2325272000003,None,658.2325272000003,None,658.2325272000003,None,658.2325272000003,None,659.2117917,None,659.2117917,659.7224312000003,,,,,,,,,,,,,,,,206,2022-05-02_15h36.55.298,FishGame,2022.1.1,59.99149320625346,
,17,나를 보내줘,6,Green,A,0,0,ScrollUp,ScrollDown,Green.png,5,NonTarget,NonTarget,,,,,0,0,0,0,,,,,,,,,,,,,,,,,,,,,,,,,,,,,0,16,16,16,,,,,,,,,,,,,,,,,,,,,,,,,,,,,,,,,,,,,,,,,,,,,,,,,,,,,,,,,,,,,,,,,1.7006172885497413,1.0039170999998532,660.3651176000003,None,ScrollUp,정답입니다,660.3651176000003,None,660.3651176000003,None,660.3651176000003,None,660.3651176000003,None,661.2490477000001,None,661.2490477000001,661.7555423000003,,,,,,,,,,,,,,,,206,2022-05-02_15h36.55.298,FishGame,2022.1.1,59.99149320625346,
,18,넌 협조적이야,1,Green,A,5.625,5.666666666666667,ScrollDown,ScrollUp,Green.png,5,Positive,Congruent,,,,,0,0,0,0,,,,,,,,,,,,,,,,,,,,,,,,,,,,,0,17,17,17,,,,,,,,,,,,,,,,,,,,,,,,,,,,,,,,,,,,,,,,,,,,,,,,,,,,,,,,,,,,,,,,,1.3441358034809432,0.9338374999997541,662.4034446000001,None,ScrollDown,정답입니다,662.4034446000001,None,662.4034446000001,None,662.4034446000001,None,662.4034446000001,None,663.2131631000002,None,663.2131631000002,663.7218269,,,,,,,,,,,,,,,,206,2022-05-02_15h36.55.298,FishGame,2022.1.1,59.99149320625346,
,19,나를 데려가줘,6,Orange,B,0,0,ScrollDown,ScrollUp,Orange.png,5,NonTarget,NonTarget,,,,,0,0,0,0,,,,,,,,,,,,,,,,,,,,,,,,,,,,,0,18,18,18,,,,,,,,,,,,,,,,,,,,,,,,,,,,,,,,,,,,,,,,,,,,,,,,,,,,,,,,,,,,,,,,,1.0570987462997437,1.1611391999999796,664.3786647000002,None,ScrollDown,정답입니다,664.3786647000002,None,664.3786647000002,None,664.3786647000002,None,664.3786647000002,None,665.4049194000004,None,665.4049194000004,665.9050395000004,,,,,,,,,,,,,,,,206,2022-05-02_15h36.55.298,FishGame,2022.1.1,59.99149320625346,
