name,TrialNum,Word,WordCategory,FishType,WordList,WordValence,WordReputation,CorrectResp,IncorrectResp,FishTypeFile,Round,WordType,Condition,LoopforOrange.thisRepN,LoopforOrange.thisTrialN,LoopforOrange.thisN,LoopforOrange.thisIndex,OrangeInstLoop.thisRepN,OrangeInstLoop.thisTrialN,OrangeInstLoop.thisN,OrangeInstLoop.thisIndex,OrangePrac.thisRepN,OrangePrac.thisTrialN,OrangePrac.thisN,OrangePrac.thisIndex,temp1.thisRepN,temp1.thisTrialN,temp1.thisN,temp1.thisIndex,OrangeRound1.thisRepN,OrangeRound1.thisTrialN,OrangeRound1.thisN,OrangeRound1.thisIndex,OrangeRound2.thisRepN,OrangeRound2.thisTrialN,OrangeRound2.thisN,OrangeRound2.thisIndex,OrangeRound3.thisRepN,OrangeRound3.thisTrialN,OrangeRound3.thisN,OrangeRound3.thisIndex,OrangeRound4.thisRepN,OrangeRound4.thisTrialN,OrangeRound4.thisN,OrangeRound4.thisIndex,OrangeRound5.thisRepN,OrangeRound5.thisTrialN,OrangeRound5.thisN,OrangeRound5.thisIndex,LoopForGreen.thisRepN,LoopForGreen.thisTrialN,LoopForGreen.thisN,LoopForGreen.thisIndex,text_2.started,text_2.stopped,text_3.started,text_3.stopped,key_resp.keys,key_resp.rt,key_resp.started,key_resp.stopped,PassI_2.started,PassI_2.stopped,PassInst_2.keys,PassInst_2.rt,PassInst_2.started,PassInst_2.stopped,mouse_2.x,mouse_2.y,mouse_2.leftButton,mouse_2.midButton,mouse_2.rightButton,mouse_2.started,mouse_2.stopped,image.started,image.stopped,text_5.started,text_5.stopped,text_6.started,text_6.stopped,text_7.started,text_7.stopped,text_8.started,text_8.stopped,slider_2.response,slider_2.rt,slider_2.started,slider_2.stopped,Response_2,Feedback_2,BackGround_2.started,BackGround_2.stopped,Fish_2.started,Fish_2.stopped,WordBox_2.started,WordBox_2.stopped,Words_2.started,Words_2.stopped,BackGround_Feedback_2.started,BackGround_Feedback_2.stopped,Feedbacks_2.started,Feedbacks_2.stopped,Continue_or_not.keys,Continue_or_not.rt,Continue_or_not.started,Continue_or_not.stopped,image_3.started,image_3.stopped,mouse_3.x,mouse_3.y,mouse_3.leftButton,mouse_3.midButton,mouse_3.rightButton,mouse_3.started,mouse_3.stopped,startmain.started,startmain.stopped,slider.response,slider.rt,slider.started,slider.stopped,Response,Feedback,BackGround.started,BackGround.stopped,Fish.started,Fish.stopped,WordBox.started,WordBox.stopped,Words.started,Words.stopped,BackGround_Feedback.started,BackGround_Feedback.stopped,Feedbacks.started,Feedbacks.stopped,text.started,text.stopped,break_interval.started,break_interval.stopped,mouse.x,mouse.y,mouse.leftButton,mouse.midButton,mouse.rightButton,mouse.started,mouse.stopped,stratnextround.started,stratnextround.stopped,endgame.started,endgame.stopped,participant,date,expName,psychopyVersion,frameRate,
,,,,,,,,,,,,,,,,,,,,,,,,,,,,,,,,,,,,,,,,,,,,,,,,,,,,,,20.971172699999897,None,20.971172699999897,None,space,3.569468700000016,21.46734209999977,None,,,,,,,,,,,,,,,,,,,,,,,,,,,,,,,,,,,,,,,,,,,,,,,,,,,,,,,,,,,,,,,,,,,,,,,,,,,,,,,,,,,,,,,,,,207,2022-05-03_11h20.48.929,FishGame,2022.1.1,59.99462448158363,
물고기과제_instruction(참가자용)OrangeVersion.mp4,,,,,,,,,,,,,,0,0,0,0,0,0,0,0,,,,,,,,,,,,,,,,,,,,,,,,,,,,,,,,,,,,,,,,,91.86557149999999,None,n,4.321110599999884,91.86557149999999,None,,,,,,,,,,,,,,,,,,,,,,,,,,,,,,,,,,,,,,,,,,,,,,,,,,,,,,,,,,,,,,,,,,,,,,,,,,,,,,,,,,,,207,2022-05-03_11h20.48.929,FishGame,2022.1.1,59.99462448158363,
,1,넌 교활해,5,Green,B,2.333333333333333,2.133333333333333,ScrollUp,ScrollDown,Green.png,practice,,,0,0,0,0,,,,,0,0,0,0,0,0,0,0,,,,,,,,,,,,,,,,,,,,,,,,,,,,,,,,,,,,,,,0.07037037,-0.075925924,1,0,0,0.5134541699999318,None,96.20768649999991,None,108.45674949999966,109.95640689999982,109.9895904,110.93944569999985,110.98905769999965,111.93908229999988,111.93908229999988,None,1.0030864079793294,1.2092258000002403,113.10206560000006,None,ScrollDown,오답입니다,113.10206560000006,None,113.10206560000006,None,113.10206560000006,None,113.10206560000006,None,114.16895159999967,None,114.16895159999967,114.67194699999982,,,,,,,,,,,,,,,,,,,,,,,,,,,,,,,,,,,,,,,,,,,,,,,,,207,2022-05-03_11h20.48.929,FishGame,2022.1.1,59.99462448158363,
,2,넌 슬기로워,2,Orange,A,6.166666666666667,4.1,ScrollDown,ScrollUp,Orange.png,practice,,,0,0,0,0,,,,,0,0,0,0,0,1,1,1,,,,,,,,,,,,,,,,,,,,,,,,,,,,,,,,,,,,,,,,,,,,,,,,,,,,,,,,1.2546296318372092,1.2277862000000823,115.34337509999978,None,ScrollDown,정답입니다,115.34337509999978,None,115.34337509999978,None,115.34337509999978,None,115.34337509999978,None,116.4253076,None,116.4253076,116.93830909999997,,,,,,,,,,,,,,,,,,,,,,,,,,,,,,,,,,,,,,,,,,,,,,,,,207,2022-05-03_11h20.48.929,FishGame,2022.1.1,59.99462448158363,
,3,나를 보내줘,6,Orange,A,0,0,ScrollUp,ScrollDown,Orange.png,practice,,,0,0,0,0,,,,,0,0,0,0,0,2,2,2,,,,,,,,,,,,,,,,,,,,,,,,,,,,,,,,,,,,,,,,,,,,,,,,,,,,,,,,1.8287036965290706,1.4038432000002103,117.59685790000003,None,ScrollUp,정답입니다,117.59685790000003,None,117.59685790000003,None,117.59685790000003,None,117.59685790000003,None,118.86473299999989,None,118.86473299999989,119.37122950000003,,,,,,,,,,,,,,,,,,,,,,,,,,,,,,,,,,,,,,,,,,,,,,,,,207,2022-05-03_11h20.48.929,FishGame,2022.1.1,59.99462448158363,
,4,나를 데려가줘,6,Green,B,0,0,ScrollDown,ScrollUp,Green.png,practice,,,0,0,0,0,,,,,0,0,0,0,0,3,3,3,,,,,,,,,,,,,,,,,,,,,,,,,,,,,,,,,,,,,,,,,,,,,,,,,,,,,,,,1.3503086467583976,1.7091370999996798,120.02267279999978,None,ScrollDown,정답입니다,120.02267279999978,None,120.02267279999978,None,120.02267279999978,None,120.02267279999978,None,121.60558919999994,None,121.60558919999994,122.1209346999999,,,,,,,,,,,,,,,,,,,,,,,,,,,,,,,,,,,,,,,,,,,,,,,,,207,2022-05-03_11h20.48.929,FishGame,2022.1.1,59.99462448158363,
,1,넌 교활해,5,Green,B,2.333333333333333,2.133333333333333,ScrollUp,ScrollDown,Green.png,practice,,,0,0,0,0,,,,,0,0,0,0,,,,,,,,,,,,,,,,,,,,,,,,,,,,,,,,,,,,,,,,,,,,,,,,,,,,,,,,,,,,,,,,,,,,,,,,,,,,,,y,3.5489450999998553,122.62084559999994,None,122.62084559999994,None,,,,,,,,,,,,,,,,,,,,,,,,,,,,,,,,,,,,,,,,,,,207,2022-05-03_11h20.48.929,FishGame,2022.1.1,59.99462448158363,
,1,넌 교활해,5,Green,B,2.333333333333333,2.133333333333333,ScrollUp,ScrollDown,Green.png,practice,,,0,0,0,0,,,,,0,1,1,1,0,0,0,0,,,,,,,,,,,,,,,,,,,,,,,,,,,,,,,,,,,,,,,,,,,,,,,,,,,,,,,,1.2608024626970291,1.3201076000000285,126.34993629999963,None,ScrollDown,오답입니다,126.34993629999963,None,126.34993629999963,None,126.34993629999963,None,126.34993629999963,None,127.54304849999971,None,127.54304849999971,128.0535734,,,,,,,,,,,,,,,,,,,,,,,,,,,,,,,,,,,,,,,,,,,,,,,,,207,2022-05-03_11h20.48.929,FishGame,2022.1.1,59.99462448158363,
,2,넌 슬기로워,2,Orange,A,6.166666666666667,4.1,ScrollDown,ScrollUp,Orange.png,practice,,,0,0,0,0,,,,,0,1,1,1,0,1,1,1,,,,,,,,,,,,,,,,,,,,,,,,,,,,,,,,,,,,,,,,,,,,,,,,,,,,,,,,1.2052469104528427,1.0766470999997182,128.70547880000004,None,ScrollDown,정답입니다,128.70547880000004,None,128.70547880000004,None,128.70547880000004,None,128.70547880000004,None,129.65037949999987,None,129.65037949999987,130.15331399999968,,,,,,,,,,,,,,,,,,,,,,,,,,,,,,,,,,,,,,,,,,,,,,,,,207,2022-05-03_11h20.48.929,FishGame,2022.1.1,59.99462448158363,
,3,나를 보내줘,6,Orange,A,0,0,ScrollUp,ScrollDown,Orange.png,practice,,,0,0,0,0,,,,,0,1,1,1,0,2,2,2,,,,,,,,,,,,,,,,,,,,,,,,,,,,,,,,,,,,,,,,,,,,,,,,,,,,,,,,1.6944444452722869,1.0255984000000353,130.8241269,None,ScrollUp,정답입니다,130.8241269,None,130.8241269,None,130.8241269,None,130.8241269,None,131.70321209999975,None,131.70321209999975,132.20306039999969,,,,,,,,,,,,,,,,,,,,,,,,,,,,,,,,,,,,,,,,,,,,,,,,,207,2022-05-03_11h20.48.929,FishGame,2022.1.1,59.99462448158363,
,4,나를 데려가줘,6,Green,B,0,0,ScrollDown,ScrollUp,Green.png,practice,,,0,0,0,0,,,,,0,1,1,1,0,3,3,3,,,,,,,,,,,,,,,,,,,,,,,,,,,,,,,,,,,,,,,,,,,,,,,,,,,,,,,,1,0.8848244000000705,132.85352339999963,None,ScrollDown,정답입니다,132.85352339999963,None,132.85352339999963,None,132.85352339999963,None,132.85352339999963,None,133.60898529999986,None,133.60898529999986,134.11953360000007,,,,,,,,,,,,,,,,,,,,,,,,,,,,,,,,,,,,,,,,,,,,,,,,,207,2022-05-03_11h20.48.929,FishGame,2022.1.1,59.99462448158363,
,2,넌 슬기로워,2,Orange,A,6.166666666666667,4.1,ScrollDown,ScrollUp,Orange.png,practice,,,0,0,0,0,,,,,0,1,1,1,,,,,,,,,,,,,,,,,,,,,,,,,,,,,,,,,,,,,,,,,,,,,,,,,,,,,,,,,,,,,,,,,,,,,,,,,,,,,,n,5.993505599999935,134.6193518,None,134.6193518,None,,,,,,,,,,,,,,,,,,,,,,,,,,,,,,,,,,,,,,,,,,,207,2022-05-03_11h20.48.929,FishGame,2022.1.1,59.99462448158363,
,1,넌 따뜻해,1,Green,B,6.083333333333333,5.6,ScrollUp,ScrollDown,Green.png,1,Positive,Incongruent,0,0,0,0,,,,,,,,,,,,,0,0,0,0,,,,,,,,,,,,,,,,,,,,,,,,,,,,,,,,,,,,,,,,,,,,144.78500899999972,146.2846212999998,146.31787189999977,147.26798579999968,147.31789869999966,148.2676690999997,148.2676690999997,None,,,,,,,,,,,,,,,,,,,,,,,,,0.009259259,-0.12037037,1,0,0,0.31391017000078136,None,140.63525299999992,None,1.5231481483206153,0.9806459000001269,149.47160559999975,None,NoResponse,무응답입니다,149.47160559999975,None,149.47160559999975,None,149.47160559999975,None,149.47160559999975,None,150.2670420999998,None,150.2670420999998,150.76734820000001,,,,,,,,,,,,,,,,207,2022-05-03_11h20.48.929,FishGame,2022.1.1,59.99462448158363,
,2,넌 기품있어,2,Green,B,5.791666666666668,4.5,ScrollUp,ScrollDown,Green.png,1,Positive,Incongruent,0,0,0,0,,,,,,,,,,,,,0,1,1,1,,,,,,,,,,,,,,,,,,,,,,,,,,,,,,,,,,,,,,,,,,,,,,,,,,,,,,,,,,,,,,,,,,,,,,,,,,,,,,,,,,,,,1.4413580261170864,0.8599610000001121,151.43287310000005,None,ScrollDown,오답입니다,151.43287310000005,None,151.43287310000005,None,151.43287310000005,None,151.43287310000005,None,152.15253829999983,None,152.15253829999983,152.66719059999969,,,,,,,,,,,,,,,,207,2022-05-03_11h20.48.929,FishGame,2022.1.1,59.99462448158363,
,3,나를 보내줘,6,Orange,A,0,0,ScrollUp,ScrollDown,Orange.png,1,NonTarget,NonTarget,0,0,0,0,,,,,,,,,,,,,0,2,2,2,,,,,,,,,,,,,,,,,,,,,,,,,,,,,,,,,,,,,,,,,,,,,,,,,,,,,,,,,,,,,,,,,,,,,,,,,,,,,,,,,,,,,1.1574074029922485,0.9423916000000645,153.36676799999987,None,ScrollDown,오답입니다,153.36676799999987,None,153.36676799999987,None,153.36676799999987,None,153.36676799999987,None,154.13362979999965,None,154.13362979999965,154.63333639999973,,,,,,,,,,,,,,,,207,2022-05-03_11h20.48.929,FishGame,2022.1.1,59.99462448158363,
,4,넌 수동적이야,4,Orange,A,2.833333333333333,2.933333333333333,ScrollDown,ScrollUp,Orange.png,1,Negative,Incongruent,0,0,0,0,,,,,,,,,,,,,0,3,3,3,,,,,,,,,,,,,,,,,,,,,,,,,,,,,,,,,,,,,,,,,,,,,,,,,,,,,,,,,,,,,,,,,,,,,,,,,,,,,,,,,,,,,1.2700617214043937,1.2002637999999024,155.3114682999999,None,ScrollDown,정답입니다,155.3114682999999,None,155.3114682999999,None,155.3114682999999,None,155.3114682999999,None,156.36143969999966,None,156.36143969999966,156.86662869999964,,,,,,,,,,,,,,,,207,2022-05-03_11h20.48.929,FishGame,2022.1.1,59.99462448158363,
,5,넌 사심이 없어,3,Green,B,4.916666666666666,4.333333333333333,ScrollUp,ScrollDown,Green.png,1,Neutral,Neutral,0,0,0,0,,,,,,,,,,,,,0,4,4,4,,,,,,,,,,,,,,,,,,,,,,,,,,,,,,,,,,,,,,,,,,,,,,,,,,,,,,,,,,,,,,,,,,,,,,,,,,,,,,,,,,,,,1.6388888930281005,2.0510623999998643,157.52759620000006,None,ScrollUp,정답입니다,157.52759620000006,None,157.52759620000006,None,157.52759620000006,None,157.52759620000006,None,159.4396982999997,None,159.4396982999997,159.94954340000004,,,,,,,,,,,,,,,,207,2022-05-03_11h20.48.929,FishGame,2022.1.1,59.99462448158363,
,6,넌 헤퍼,5,Orange,A,2.458333333333334,2.233333333333333,ScrollDown,ScrollUp,Orange.png,1,Negative,Incongruent,0,0,0,0,,,,,,,,,,,,,0,5,5,5,,,,,,,,,,,,,,,,,,,,,,,,,,,,,,,,,,,,,,,,,,,,,,,,,,,,,,,,,,,,,,,,,,,,,,,,,,,,,,,,,,,,,1.2114197413126628,0.9312675000001036,160.61286169999994,None,ScrollDown,정답입니다,160.61286169999994,None,160.61286169999994,None,160.61286169999994,None,160.61286169999994,None,161.40401059999976,None,161.40401059999976,161.9159566999997,,,,,,,,,,,,,,,,207,2022-05-03_11h20.48.929,FishGame,2022.1.1,59.99462448158363,
,7,넌 말쑥해,3,Orange,A,4.833333333333334,4.333333333333333,ScrollDown,ScrollUp,Orange.png,1,Neutral,Neutral,0,0,0,0,,,,,,,,,,,,,0,6,6,6,,,,,,,,,,,,,,,,,,,,,,,,,,,,,,,,,,,,,,,,,,,,,,,,,,,,,,,,,,,,,,,,,,,,,,,,,,,,,,,,,,,,,1.2731481492519379,0.9050536999998258,162.5810250999998,None,ScrollDown,정답입니다,162.5810250999998,None,162.5810250999998,None,162.5810250999998,None,162.5810250999998,None,163.35015919999978,None,163.35015919999978,163.86565040000005,,,,,,,,,,,,,,,,207,2022-05-03_11h20.48.929,FishGame,2022.1.1,59.99462448158363,
,8,넌 투덜거려,5,Green,B,2.541666666666667,2.266666666666667,ScrollUp,ScrollDown,Green.png,1,Negative,Congruent,0,0,0,0,,,,,,,,,,,,,0,7,7,7,,,,,,,,,,,,,,,,,,,,,,,,,,,,,,,,,,,,,,,,,,,,,,,,,,,,,,,,,,,,,,,,,,,,,,,,,,,,,,,,,,,,,1.6913580298423767,0.9668406000000687,164.52884109999968,None,ScrollUp,정답입니다,164.52884109999968,None,164.52884109999968,None,164.52884109999968,None,164.52884109999968,None,165.3565736999999,None,165.3565736999999,165.86540709999963,,,,,,,,,,,,,,,,207,2022-05-03_11h20.48.929,FishGame,2022.1.1,59.99462448158363,
,9,넌 적극적이야,1,Orange,A,5.708333333333333,5.533333333333333,ScrollDown,ScrollUp,Orange.png,1,Positive,Congruent,0,0,0,0,,,,,,,,,,,,,0,8,8,8,,,,,,,,,,,,,,,,,,,,,,,,,,,,,,,,,,,,,,,,,,,,,,,,,,,,,,,,,,,,,,,,,,,,,,,,,,,,,,,,,,,,,1.1712963034709294,0.9957036000000699,166.5269285999998,None,ScrollDown,정답입니다,166.5269285999998,None,166.5269285999998,None,166.5269285999998,None,166.5269285999998,None,167.38418490000004,None,167.38418490000004,167.89848230000007,,,,,,,,,,,,,,,,207,2022-05-03_11h20.48.929,FishGame,2022.1.1,59.99462448158363,
,10,넌 재미없어,4,Green,B,2.625,2.966666666666667,ScrollUp,ScrollDown,Green.png,1,Negative,Congruent,0,0,0,0,,,,,,,,,,,,,0,9,9,9,,,,,,,,,,,,,,,,,,,,,,,,,,,,,,,,,,,,,,,,,,,,,,,,,,,,,,,,,,,,,,,,,,,,,,,,,,,,,,,,,,,,,1.6697530845801034,0.9184757000002719,168.55740389999983,None,ScrollUp,정답입니다,168.55740389999983,None,168.55740389999983,None,168.55740389999983,None,168.55740389999983,None,169.33936730000005,None,169.33936730000005,169.84822510000004,,,,,,,,,,,,,,,,207,2022-05-03_11h20.48.929,FishGame,2022.1.1,59.99462448158363,
,11,넌 명석해,2,Orange,A,5.875,4.033333333333333,ScrollDown,ScrollUp,Orange.png,1,Positive,Congruent,0,0,0,0,,,,,,,,,,,,,0,10,10,10,,,,,,,,,,,,,,,,,,,,,,,,,,,,,,,,,,,,,,,,,,,,,,,,,,,,,,,,,,,,,,,,,,,,,,,,,,,,,,,,,,,,,1.1018518507480621,0.9025609000000259,170.51188449999972,None,ScrollDown,정답입니다,170.51188449999972,None,170.51188449999972,None,170.51188449999972,None,170.51188449999972,None,171.27248029999964,None,171.27248029999964,171.78129099999978,,,,,,,,,,,,,,,,207,2022-05-03_11h20.48.929,FishGame,2022.1.1,59.99462448158363,
,12,나를 데려가줘,6,Green,B,0,0,ScrollDown,ScrollUp,Green.png,1,NonTarget,NonTarget,0,0,0,0,,,,,,,,,,,,,0,11,11,11,,,,,,,,,,,,,,,,,,,,,,,,,,,,,,,,,,,,,,,,,,,,,,,,,,,,,,,,,,,,,,,,,,,,,,,,,,,,,,,,,,,,,1,1.2120287000002463,172.4383002999998,None,ScrollDown,정답입니다,172.4383002999998,None,172.4383002999998,None,172.4383002999998,None,172.4383002999998,None,173.51469150000003,None,173.51469150000003,174.01434930000005,,,,,,,,,,,,,,,,207,2022-05-03_11h20.48.929,FishGame,2022.1.1,59.99462448158363,
,13,넌 소심해,4,Orange,A,3,3.1,ScrollDown,ScrollUp,Orange.png,1,Negative,Incongruent,0,0,0,0,,,,,,,,,,,,,0,12,12,12,,,,,,,,,,,,,,,,,,,,,,,,,,,,,,,,,,,,,,,,,,,,,,,,,,,,,,,,,,,,,,,,,,,,,,,,,,,,,,,,,,,,,1.751543199022611,0.9197713999997177,174.67539859999988,None,ScrollUp,오답입니다,174.67539859999988,None,174.67539859999988,None,174.67539859999988,None,174.67539859999988,None,175.45934719999968,None,175.45934719999968,175.9644460999998,,,,,,,,,,,,,,,,207,2022-05-03_11h20.48.929,FishGame,2022.1.1,59.99462448158363,
,14,넌 합리적이야,2,Orange,A,5.583333333333333,4.733333333333333,ScrollDown,ScrollUp,Orange.png,1,Positive,Congruent,0,0,0,0,,,,,,,,,,,,,0,13,13,13,,,,,,,,,,,,,,,,,,,,,,,,,,,,,,,,,,,,,,,,,,,,,,,,,,,,,,,,,,,,,,,,,,,,,,,,,,,,,,,,,,,,,1.2623456766208014,0.8193710999998984,176.6299356999998,None,ScrollDown,정답입니다,176.6299356999998,None,176.6299356999998,None,176.6299356999998,None,176.6299356999998,None,177.30852519999962,None,177.30852519999962,177.81392819999974,,,,,,,,,,,,,,,,207,2022-05-03_11h20.48.929,FishGame,2022.1.1,59.99462448158363,
,15,넌 무자비해,5,Green,B,2.333333333333333,2.1,ScrollUp,ScrollDown,Green.png,1,Negative,Congruent,0,0,0,0,,,,,,,,,,,,,0,14,14,14,,,,,,,,,,,,,,,,,,,,,,,,,,,,,,,,,,,,,,,,,,,,,,,,,,,,,,,,,,,,,,,,,,,,,,,,,,,,,,,,,,,,,1.6512345671653748,0.6983267999999043,178.47516959999984,None,ScrollUp,정답입니다,178.47516959999984,None,178.47516959999984,None,178.47516959999984,None,178.47516959999984,None,179.03669039999977,None,179.03669039999977,179.54690619999974,,,,,,,,,,,,,,,,207,2022-05-03_11h20.48.929,FishGame,2022.1.1,59.99462448158363,
,16,나를 보내줘,6,Orange,A,0,0,ScrollUp,ScrollDown,Orange.png,1,NonTarget,NonTarget,0,0,0,0,,,,,,,,,,,,,0,15,15,15,,,,,,,,,,,,,,,,,,,,,,,,,,,,,,,,,,,,,,,,,,,,,,,,,,,,,,,,,,,,,,,,,,,,,,,,,,,,,,,,,,,,,1.6358024651805558,1.380214100000103,180.2015778,None,ScrollUp,정답입니다,180.2015778,None,180.2015778,None,180.2015778,None,180.2015778,None,181.45036389999996,None,181.45036389999996,181.96341519999987,,,,,,,,,,,,,,,,207,2022-05-03_11h20.48.929,FishGame,2022.1.1,59.99462448158363,
,17,넌 현실적이야,3,Green,B,4.608695652173913,4.766666666666667,ScrollUp,ScrollDown,Green.png,1,Neutral,Neutral,0,0,0,0,,,,,,,,,,,,,0,16,16,16,,,,,,,,,,,,,,,,,,,,,,,,,,,,,,,,,,,,,,,,,,,,,,,,,,,,,,,,,,,,,,,,,,,,,,,,,,,,,,,,,,,,,1.5632716032365956,0.9598666000001685,182.6242072,None,ScrollUp,정답입니다,182.6242072,None,182.6242072,None,182.6242072,None,182.6242072,None,183.44153789999973,None,183.44153789999973,183.94641729999967,,,,,,,,,,,,,,,,207,2022-05-03_11h20.48.929,FishGame,2022.1.1,59.99462448158363,
,18,넌 의리있어,1,Green,B,5.833333333333334,5.633333333333334,ScrollUp,ScrollDown,Green.png,1,Positive,Incongruent,0,0,0,0,,,,,,,,,,,,,0,17,17,17,,,,,,,,,,,,,,,,,,,,,,,,,,,,,,,,,,,,,,,,,,,,,,,,,,,,,,,,,,,,,,,,,,,,,,,,,,,,,,,,,,,,,1.5740740758677325,0.7937985999997181,184.6012695999998,None,ScrollUp,정답입니다,184.6012695999998,None,184.6012695999998,None,184.6012695999998,None,184.6012695999998,None,185.2628737,None,185.2628737,185.7629208999997,,,,,,,,,,,,,,,,207,2022-05-03_11h20.48.929,FishGame,2022.1.1,59.99462448158363,
,19,넌 신경과민이야,5,Orange,A,2.541666666666667,2.166666666666667,ScrollDown,ScrollUp,Orange.png,1,Negative,Incongruent,0,0,0,0,,,,,,,,,,,,,0,18,18,18,,,,,,,,,,,,,,,,,,,,,,,,,,,,,,,,,,,,,,,,,,,,,,,,,,,,,,,,,,,,,,,,,,,,,,,,,,,,,,,,,,,,,1.0694444576899211,0.8589966999998069,186.4321556,None,ScrollDown,정답입니다,186.4321556,None,186.4321556,None,186.4321556,None,186.4321556,None,187.1463163999997,None,187.1463163999997,187.64594510000006,,,,,,,,,,,,,,,,207,2022-05-03_11h20.48.929,FishGame,2022.1.1,59.99462448158363,
,20,넌 편안해,1,Orange,A,5.916666666666666,5.866666666666666,ScrollDown,ScrollUp,Orange.png,1,Positive,Congruent,0,0,0,0,,,,,,,,,,,,,0,19,19,19,,,,,,,,,,,,,,,,,,,,,,,,,,,,,,,,,,,,,,,,,,,,,,,,,,,,,,,,,,,,,,,,,,,,,,,,,,,,,,,,,,,,,1.3317901293436685,0.7353101000003335,188.30948309999985,None,ScrollDown,정답입니다,188.30948309999985,None,188.30948309999985,None,188.30948309999985,None,188.30948309999985,None,188.90434449999975,None,188.90434449999975,189.41236219999973,,,,,,,,,,,,,,,,207,2022-05-03_11h20.48.929,FishGame,2022.1.1,59.99462448158363,
,21,넌 품위있어,2,Green,B,5.291666666666666,4.466666666666667,ScrollUp,ScrollDown,Green.png,1,Positive,Incongruent,0,0,0,0,,,,,,,,,,,,,0,20,20,20,,,,,,,,,,,,,,,,,,,,,,,,,,,,,,,,,,,,,,,,,,,,,,,,,,,,,,,,,,,,,,,,,,,,,,,,,,,,,,,,,,,,,1.7577160547176998,0.8350008000002163,190.0691984,None,ScrollUp,정답입니다,190.0691984,None,190.0691984,None,190.0691984,None,190.0691984,None,190.76959839999972,None,190.76959839999972,191.27874269999984,,,,,,,,,,,,,,,,207,2022-05-03_11h20.48.929,FishGame,2022.1.1,59.99462448158363,
,22,넌 빈틈없어,3,Orange,A,4.833333333333333,3.966666666666667,ScrollDown,ScrollUp,Orange.png,1,Neutral,Neutral,0,0,0,0,,,,,,,,,,,,,0,21,21,21,,,,,,,,,,,,,,,,,,,,,,,,,,,,,,,,,,,,,,,,,,,,,,,,,,,,,,,,,,,,,,,,,,,,,,,,,,,,,,,,,,,,,1.3518518482645354,0.9367637999998806,191.94387430000006,None,ScrollDown,정답입니다,191.94387430000006,None,191.94387430000006,None,191.94387430000006,None,191.94387430000006,None,192.73853029999964,None,192.73853029999964,193.2451375999999,,,,,,,,,,,,,,,,207,2022-05-03_11h20.48.929,FishGame,2022.1.1,59.99462448158363,
,23,넌 상상력없어,4,Green,B,2.833333333333333,3.133333333333333,ScrollUp,ScrollDown,Green.png,1,Negative,Congruent,0,0,0,0,,,,,,,,,,,,,0,22,22,22,,,,,,,,,,,,,,,,,,,,,,,,,,,,,,,,,,,,,,,,,,,,,,,,,,,,,,,,,,,,,,,,,,,,,,,,,,,,,,,,,,,,,1.4953703702582668,0.7938443000002735,193.90519760000006,None,NoResponse,무응답입니다,193.90519760000006,None,193.90519760000006,None,193.90519760000006,None,193.90519760000006,None,194.5658073999998,None,194.5658073999998,195.07832179999969,,,,,,,,,,,,,,,,207,2022-05-03_11h20.48.929,FishGame,2022.1.1,59.99462448158363,
,24,넌 지혜로워,2,Green,B,6.333333333333334,4.633333333333334,ScrollUp,ScrollDown,Green.png,1,Positive,Incongruent,0,0,0,0,,,,,,,,,,,,,0,23,23,23,,,,,,,,,,,,,,,,,,,,,,,,,,,,,,,,,,,,,,,,,,,,,,,,,,,,,,,,,,,,,,,,,,,,,,,,,,,,,,,,,,,,,1.5663580248753228,0.755742199999986,195.74164359999986,None,ScrollUp,정답입니다,195.74164359999986,None,195.74164359999986,None,195.74164359999986,None,195.74164359999986,None,196.3571966999998,None,196.3571966999998,196.86132279999993,,,,,,,,,,,,,,,,207,2022-05-03_11h20.48.929,FishGame,2022.1.1,59.99462448158363,
,25,넌 시끄러워,4,Orange,A,2.833333333333333,3.033333333333333,ScrollDown,ScrollUp,Orange.png,1,Negative,Incongruent,0,0,0,0,,,,,,,,,,,,,0,24,24,24,,,,,,,,,,,,,,,,,,,,,,,,,,,,,,,,,,,,,,,,,,,,,,,,,,,,,,,,,,,,,,,,,,,,,,,,,,,,,,,,,,,,,1.2222222139437993,0.7360149000001002,197.53769299999976,None,ScrollDown,정답입니다,197.53769299999976,None,197.53769299999976,None,197.53769299999976,None,197.53769299999976,None,198.1204699,None,198.1204699,198.62784280000005,,,,,,,,,,,,,,,,207,2022-05-03_11h20.48.929,FishGame,2022.1.1,59.99462448158363,
,26,넌 만사태평이야,3,Green,B,4,4.333333333333333,ScrollUp,ScrollDown,Green.png,1,Neutral,Neutral,0,0,0,0,,,,,,,,,,,,,0,25,25,25,,,,,,,,,,,,,,,,,,,,,,,,,,,,,,,,,,,,,,,,,,,,,,,,,,,,,,,,,,,,,,,,,,,,,,,,,,,,,,,,,,,,,1.5123456787938871,0.8156379000001834,199.2901253,None,NoResponse,무응답입니다,199.2901253,None,199.2901253,None,199.2901253,None,199.2901253,None,199.9688028999999,None,199.9688028999999,200.47755359999974,,,,,,,,,,,,,,,,207,2022-05-03_11h20.48.929,FishGame,2022.1.1,59.99462448158363,
,27,넌 붙임성있어,1,Orange,A,5.708333333333333,5.633333333333334,ScrollDown,ScrollUp,Orange.png,1,Positive,Congruent,0,0,0,0,,,,,,,,,,,,,0,26,26,26,,,,,,,,,,,,,,,,,,,,,,,,,,,,,,,,,,,,,,,,,,,,,,,,,,,,,,,,,,,,,,,,,,,,,,,,,,,,,,,,,,,,,1.1728395173947017,0.8724652999999307,201.14502330000005,None,ScrollDown,정답입니다,201.14502330000005,None,201.14502330000005,None,201.14502330000005,None,201.14502330000005,None,201.8779099999997,None,201.8779099999997,202.37751469999967,,,,,,,,,,,,,,,,207,2022-05-03_11h20.48.929,FishGame,2022.1.1,59.99462448158363,
,28,넌 영리해,2,Orange,A,6,4.033333333333333,ScrollDown,ScrollUp,Orange.png,1,Positive,Congruent,0,0,0,0,,,,,,,,,,,,,0,27,27,27,,,,,,,,,,,,,,,,,,,,,,,,,,,,,,,,,,,,,,,,,,,,,,,,,,,,,,,,,,,,,,,,,,,,,,,,,,,,,,,,,,,,,1.3086419701576233,0.8319488000001911,203.04147759999978,None,ScrollDown,정답입니다,203.04147759999978,None,203.04147759999978,None,203.04147759999978,None,203.04147759999978,None,203.73224299999993,None,203.73224299999993,204.24390640000001,,,,,,,,,,,,,,,,207,2022-05-03_11h20.48.929,FishGame,2022.1.1,59.99462448158363,
,29,넌 열심이야,1,Green,B,6.041666666666667,5.833333333333333,ScrollUp,ScrollDown,Green.png,1,Positive,Incongruent,0,0,0,0,,,,,,,,,,,,,0,28,28,28,,,,,,,,,,,,,,,,,,,,,,,,,,,,,,,,,,,,,,,,,,,,,,,,,,,,,,,,,,,,,,,,,,,,,,,,,,,,,,,,,,,,,1.7314814925193787,0.7758201000001463,204.89922239999987,None,ScrollUp,정답입니다,204.89922239999987,None,204.89922239999987,None,204.89922239999987,None,204.89922239999987,None,205.54354620000004,None,205.54354620000004,206.0435622,,,,,,,,,,,,,,,,207,2022-05-03_11h20.48.929,FishGame,2022.1.1,59.99462448158363,
,30,넌 인기없어,4,Green,B,3,3.3,ScrollUp,ScrollDown,Green.png,1,Negative,Congruent,0,0,0,0,,,,,,,,,,,,,0,29,29,29,,,,,,,,,,,,,,,,,,,,,,,,,,,,,,,,,,,,,,,,,,,,,,,,,,,,,,,,,,,,,,,,,,,,,,,,,,,,,,,,,,,,,1.7006172885497413,0.9489456000001155,206.69844680000006,None,ScrollUp,정답입니다,206.69844680000006,None,206.69844680000006,None,206.69844680000006,None,206.69844680000006,None,207.5164823,None,207.5164823,208.02657999999974,,,,,,,,,,,,,,,,207,2022-05-03_11h20.48.929,FishGame,2022.1.1,59.99462448158363,
,31,넌 익살스러워,3,Orange,A,4.708333333333334,4.833333333333333,ScrollDown,ScrollUp,Orange.png,1,Neutral,Neutral,0,0,0,0,,,,,,,,,,,,,0,30,30,30,,,,,,,,,,,,,,,,,,,,,,,,,,,,,,,,,,,,,,,,,,,,,,,,,,,,,,,,,,,,,,,,,,,,,,,,,,,,,,,,,,,,,1.115740751226743,0.8116789999999128,208.6950726,None,ScrollDown,정답입니다,208.6950726,None,208.6950726,None,208.6950726,None,208.6950726,None,209.36136080000006,None,209.36136080000006,209.8764868999997,,,,,,,,,,,,,,,,207,2022-05-03_11h20.48.929,FishGame,2022.1.1,59.99462448158363,
,32,넌 이기적이야,5,Green,B,2.291666666666667,2.333333333333333,ScrollUp,ScrollDown,Green.png,1,Negative,Congruent,0,0,0,0,,,,,,,,,,,,,0,31,31,31,,,,,,,,,,,,,,,,,,,,,,,,,,,,,,,,,,,,,,,,,,,,,,,,,,,,,,,,,,,,,,,,,,,,,,,,,,,,,,,,,,,,,1.7407407512267432,0.7617151000004014,210.53010289999975,None,ScrollUp,정답입니다,210.53010289999975,None,210.53010289999975,None,210.53010289999975,None,210.53010289999975,None,211.15638609999996,None,211.15638609999996,211.65951529999984,,,,,,,,,,,,,,,,207,2022-05-03_11h20.48.929,FishGame,2022.1.1,59.99462448158363,
,33,나를 데려가줘,6,Green,B,0,0,ScrollDown,ScrollUp,Green.png,1,NonTarget,NonTarget,0,0,0,0,,,,,,,,,,,,,0,32,32,32,,,,,,,,,,,,,,,,,,,,,,,,,,,,,,,,,,,,,,,,,,,,,,,,,,,,,,,,,,,,,,,,,,,,,,,,,,,,,,,,,,,,,1.7824074029922485,0.7140545999995993,212.31113890000006,None,ScrollUp,오답입니다,212.31113890000006,None,212.31113890000006,None,212.31113890000006,None,212.31113890000006,None,212.8976619,None,212.8976619,213.40931180000007,,,,,,,,,,,,,,,,207,2022-05-03_11h20.48.929,FishGame,2022.1.1,59.99462448158363,
,34,넌 기회주의자야,5,Orange,A,2.875,2.133333333333333,ScrollDown,ScrollUp,Orange.png,1,Negative,Incongruent,0,0,0,0,,,,,,,,,,,,,0,33,33,33,,,,,,,,,,,,,,,,,,,,,,,,,,,,,,,,,,,,,,,,,,,,,,,,,,,,,,,,,,,,,,,,,,,,,,,,,,,,,,,,,,,,,1.0046296219031017,0.9123174999999719,214.07553280000002,None,ScrollDown,정답입니다,214.07553280000002,None,214.07553280000002,None,214.07553280000002,None,214.07553280000002,None,214.8444182999997,None,214.8444182999997,215.35906569999997,,,,,,,,,,,,,,,,207,2022-05-03_11h20.48.929,FishGame,2022.1.1,59.99462448158363,
,1,넌 미성숙해,4,Orange,A,3,3.2,ScrollDown,ScrollUp,Orange.png,2,Negative,Incongruent,0,0,0,0,,,,,,,,,,,,,,,,,0,0,0,0,,,,,,,,,,,,,,,,,,,,,,,,,,,,,,,,,,,,,,,,248.13839310000003,249.63809509999965,249.67136349999964,250.62126929999977,250.67124569999987,251.6211985,251.6211985,None,,,,,,,,,,,,,,,,,,,,,,,,,,,,,,,,,,1.1080246816078823,0.8722649999999703,252.8251037,None,ScrollDown,정답입니다,252.8251037,None,252.8251037,None,252.8251037,None,252.8251037,None,253.50771110000005,None,253.50771110000005,254.0207464,215.85898099999986,None,215.85898099999986,None,0.009259259,-0.08425926,1,0,0,0.016058069999871805,None,245.85513679999985,None,,,207,2022-05-03_11h20.48.929,FishGame,2022.1.1,59.99462448158363,
,2,넌 반사회적이야,5,Green,B,2.416666666666667,2.033333333333333,ScrollUp,ScrollDown,Green.png,2,Negative,Congruent,0,0,0,0,,,,,,,,,,,,,,,,,0,1,1,1,,,,,,,,,,,,,,,,,,,,,,,,,,,,,,,,,,,,,,,,,,,,,,,,,,,,,,,,,,,,,,,,,,,,,,,,,,,,,,,,,1.5478395074605942,1.1278332000001683,254.67749000000003,None,NoResponse,무응답입니다,254.67749000000003,None,254.67749000000003,None,254.67749000000003,None,254.67749000000003,None,255.6748244999999,None,255.6748244999999,256.1871406999999,,,,,,,,,,,,,,,,207,2022-05-03_11h20.48.929,FishGame,2022.1.1,59.99462448158363,
,3,넌 유능해,2,Orange,A,6.208333333333333,4.433333333333334,ScrollDown,ScrollUp,Orange.png,2,Positive,Congruent,0,0,0,0,,,,,,,,,,,,,,,,,0,2,2,2,,,,,,,,,,,,,,,,,,,,,,,,,,,,,,,,,,,,,,,,,,,,,,,,,,,,,,,,,,,,,,,,,,,,,,,,,,,,,,,,,1.2268518557151158,0.8844055000004118,256.85291979999965,None,ScrollDown,정답입니다,256.85291979999965,None,256.85291979999965,None,256.85291979999965,None,256.85291979999965,None,257.59701659999973,None,257.59701659999973,258.1035603,,,,,,,,,,,,,,,,207,2022-05-03_11h20.48.929,FishGame,2022.1.1,59.99462448158363,
,4,넌 능숙해,2,Green,B,5.666666666666667,4.733333333333333,ScrollUp,ScrollDown,Green.png,2,Positive,Incongruent,0,0,0,0,,,,,,,,,,,,,,,,,0,3,3,3,,,,,,,,,,,,,,,,,,,,,,,,,,,,,,,,,,,,,,,,,,,,,,,,,,,,,,,,,,,,,,,,,,,,,,,,,,,,,,,,,1.527777779226502,0.7107366000000184,258.7528976999997,None,NoResponse,무응답입니다,258.7528976999997,None,258.7528976999997,None,258.7528976999997,None,258.7528976999997,None,259.3369942999998,None,259.3369942999998,259.83686179999995,,,,,,,,,,,,,,,,207,2022-05-03_11h20.48.929,FishGame,2022.1.1,59.99462448158363,
,5,넌 진부해,4,Green,B,2.458333333333333,3.166666666666667,ScrollUp,ScrollDown,Green.png,2,Negative,Congruent,0,0,0,0,,,,,,,,,,,,,,,,,0,4,4,4,,,,,,,,,,,,,,,,,,,,,,,,,,,,,,,,,,,,,,,,,,,,,,,,,,,,,,,,,,,,,,,,,,,,,,,,,,,,,,,,,1.6712962985038757,0.7948484999997163,260.4896537999998,None,ScrollUp,정답입니다,260.4896537999998,None,260.4896537999998,None,260.4896537999998,None,260.4896537999998,None,261.1578666999999,None,261.1578666999999,261.66993709999997,,,,,,,,,,,,,,,,207,2022-05-03_11h20.48.929,FishGame,2022.1.1,59.99462448158363,
,6,나를 보내줘,6,Orange,A,0,0,ScrollUp,ScrollDown,Orange.png,2,NonTarget,NonTarget,0,0,0,0,,,,,,,,,,,,,,,,,0,5,5,5,,,,,,,,,,,,,,,,,,,,,,,,,,,,,,,,,,,,,,,,,,,,,,,,,,,,,,,,,,,,,,,,,,,,,,,,,,,,,,,,,1.8672839452823002,1.2999575999997433,262.32466069999964,None,ScrollUp,정답입니다,262.32466069999964,None,262.32466069999964,None,262.32466069999964,None,262.32466069999964,None,263.4921680999996,None,263.4921680999996,264.00282500000003,,,,,,,,,,,,,,,,207,2022-05-03_11h20.48.929,FishGame,2022.1.1,59.99462448158363,
,7,넌 엄격해,3,Orange,A,4.166666666666666,4.1,ScrollDown,ScrollUp,Orange.png,2,Neutral,Neutral,0,0,0,0,,,,,,,,,,,,,,,,,0,6,6,6,,,,,,,,,,,,,,,,,,,,,,,,,,,,,,,,,,,,,,,,,,,,,,,,,,,,,,,,,,,,,,,,,,,,,,,,,,,,,,,,,1.0339506367842357,0.9051730000001044,264.66610969999965,None,ScrollDown,정답입니다,264.66610969999965,None,264.66610969999965,None,264.66610969999965,None,264.66610969999965,None,265.42909280000003,None,265.42909280000003,265.9359910999997,,,,,,,,,,,,,,,,207,2022-05-03_11h20.48.929,FishGame,2022.1.1,59.99462448158363,
,8,나를 보내줘,6,Orange,A,0,0,ScrollUp,ScrollDown,Orange.png,2,NonTarget,NonTarget,0,0,0,0,,,,,,,,,,,,,,,,,0,7,7,7,,,,,,,,,,,,,,,,,,,,,,,,,,,,,,,,,,,,,,,,,,,,,,,,,,,,,,,,,,,,,,,,,,,,,,,,,,,,,,,,,1.8132716069618862,1.2490772000001016,266.5955249999997,None,ScrollUp,정답입니다,266.5955249999997,None,266.5955249999997,None,266.5955249999997,None,266.5955249999997,None,267.7087139,None,267.7087139,268.2190258999999,,,,,,,,,,,,,,,,207,2022-05-03_11h20.48.929,FishGame,2022.1.1,59.99462448158363,
,9,넌 대담해,3,Green,B,4.875,4.866666666666666,ScrollUp,ScrollDown,Green.png,2,Neutral,Neutral,0,0,0,0,,,,,,,,,,,,,,,,,0,8,8,8,,,,,,,,,,,,,,,,,,,,,,,,,,,,,,,,,,,,,,,,,,,,,,,,,,,,,,,,,,,,,,,,,,,,,,,,,,,,,,,,,1.5817901206513247,0.8116880000002311,268.8725147,None,ScrollUp,정답입니다,268.8725147,None,268.8725147,None,268.8725147,None,268.8725147,None,269.5558259999998,None,269.5558259999998,270.0687313999997,,,,,,,,,,,,,,,,207,2022-05-03_11h20.48.929,FishGame,2022.1.1,59.99462448158363,
,10,넌 꾸준해,1,Orange,A,5.916666666666668,5.8,ScrollDown,ScrollUp,Orange.png,2,Positive,Congruent,0,0,0,0,,,,,,,,,,,,,,,,,0,9,9,9,,,,,,,,,,,,,,,,,,,,,,,,,,,,,,,,,,,,,,,,,,,,,,,,,,,,,,,,,,,,,,,,,,,,,,,,,,,,,,,,,1.1496913582086563,0.858712999999625,270.73253609999983,None,ScrollDown,정답입니다,270.73253609999983,None,270.73253609999983,None,270.73253609999983,None,270.73253609999983,None,271.4521072999996,None,271.4521072999996,271.95179979999966,,,,,,,,,,,,,,,,207,2022-05-03_11h20.48.929,FishGame,2022.1.1,59.99462448158363,
,11,나를 데려가줘,6,Green,B,0,0,ScrollDown,ScrollUp,Green.png,2,NonTarget,NonTarget,0,0,0,0,,,,,,,,,,,,,,,,,0,10,10,10,,,,,,,,,,,,,,,,,,,,,,,,,,,,,,,,,,,,,,,,,,,,,,,,,,,,,,,,,,,,,,,,,,,,,,,,,,,,,,,,,1.0324074228604634,1.9503959999997278,272.6052175,None,ScrollDown,정답입니다,272.6052175,None,272.6052175,None,272.6052175,None,272.6052175,None,274.4242371999999,None,274.4242371999999,274.9347856999998,,,,,,,,,,,,,,,,207,2022-05-03_11h20.48.929,FishGame,2022.1.1,59.99462448158363,
,12,넌 독선적이야,5,Orange,A,2.458333333333333,1.933333333333333,ScrollDown,ScrollUp,Orange.png,2,Negative,Incongruent,0,0,0,0,,,,,,,,,,,,,,,,,0,11,11,11,,,,,,,,,,,,,,,,,,,,,,,,,,,,,,,,,,,,,,,,,,,,,,,,,,,,,,,,,,,,,,,,,,,,,,,,,,,,,,,,,1.1589506169160206,1.0998289999997723,275.6001503999996,None,ScrollDown,정답입니다,275.6001503999996,None,275.6001503999996,None,275.6001503999996,None,275.6001503999996,None,276.55765129999963,None,276.55765129999963,277.0678810999998,,,,,,,,,,,,,,,,207,2022-05-03_11h20.48.929,FishGame,2022.1.1,59.99462448158363,
,13,나를 보내줘,6,Orange,A,0,0,ScrollUp,ScrollDown,Orange.png,2,NonTarget,NonTarget,0,0,0,0,,,,,,,,,,,,,,,,,0,12,12,12,,,,,,,,,,,,,,,,,,,,,,,,,,,,,,,,,,,,,,,,,,,,,,,,,,,,,,,,,,,,,,,,,,,,,,,,,,,,,,,,,1.7546296268701553,1.093608099999983,277.72062659999983,None,ScrollUp,정답입니다,277.72062659999983,None,277.72062659999983,None,277.72062659999983,None,277.72062659999983,None,278.68466050000006,None,278.68466050000006,279.1841844999999,,,,,,,,,,,,,,,,207,2022-05-03_11h20.48.929,FishGame,2022.1.1,59.99462448158363,
,14,넌 책임감있어,1,Green,B,6.347826086956522,6,ScrollUp,ScrollDown,Green.png,2,Positive,Incongruent,0,0,0,0,,,,,,,,,,,,,,,,,0,13,13,13,,,,,,,,,,,,,,,,,,,,,,,,,,,,,,,,,,,,,,,,,,,,,,,,,,,,,,,,,,,,,,,,,,,,,,,,,,,,,,,,,1.8009259204069774,0.9141325999999026,279.843437,None,ScrollUp,정답입니다,279.843437,None,279.843437,None,279.843437,None,279.843437,None,280.62198679999983,None,280.62198679999983,281.1339458999996,,,,,,,,,,,,,,,,207,2022-05-03_11h20.48.929,FishGame,2022.1.1,59.99462448158363,
,15,넌 문학적이야,3,Orange,A,4.708333333333334,4.333333333333333,ScrollDown,ScrollUp,Orange.png,2,Neutral,Neutral,0,0,0,0,,,,,,,,,,,,,,,,,0,14,14,14,,,,,,,,,,,,,,,,,,,,,,,,,,,,,,,,,,,,,,,,,,,,,,,,,,,,,,,,,,,,,,,,,,,,,,,,,,,,,,,,,1.0324074228604634,0.9345883000000867,281.7990940999998,None,ScrollDown,정답입니다,281.7990940999998,None,281.7990940999998,None,281.7990940999998,None,281.7990940999998,None,282.59041769999976,None,282.59041769999976,283.10037239999974,,,,,,,,,,,,,,,,207,2022-05-03_11h20.48.929,FishGame,2022.1.1,59.99462448158363,
,16,넌 재미있어,1,Green,B,5.875,5.7,ScrollUp,ScrollDown,Green.png,2,Positive,Incongruent,0,0,0,0,,,,,,,,,,,,,,,,,0,15,15,15,,,,,,,,,,,,,,,,,,,,,,,,,,,,,,,,,,,,,,,,,,,,,,,,,,,,,,,,,,,,,,,,,,,,,,,,,,,,,,,,,1.703703703979651,0.9265362999999525,283.7510266999998,None,ScrollUp,정답입니다,283.7510266999998,None,283.7510266999998,None,283.7510266999998,None,283.7510266999998,None,284.5455806,None,284.5455806,285.05010879999963,,,,,,,,,,,,,,,,207,2022-05-03_11h20.48.929,FishGame,2022.1.1,59.99462448158363,
,17,나를 데려가줘,6,Green,B,0,0,ScrollDown,ScrollUp,Green.png,2,NonTarget,NonTarget,0,0,0,0,,,,,,,,,,,,,,,,,0,16,16,16,,,,,,,,,,,,,,,,,,,,,,,,,,,,,,,,,,,,,,,,,,,,,,,,,,,,,,,,,,,,,,,,,,,,,,,,,,,,,,,,,1.6944444452722869,0.8682111000002806,285.70169719999967,None,ScrollUp,오답입니다,285.70169719999967,None,285.70169719999967,None,285.70169719999967,None,285.70169719999967,None,286.44439379999994,None,286.44439379999994,286.94993509999995,,,,,,,,,,,,,,,,207,2022-05-03_11h20.48.929,FishGame,2022.1.1,59.99462448158363,
,18,넌 협력적이야,1,Orange,A,5.625,5.633333333333334,ScrollDown,ScrollUp,Orange.png,2,Positive,Congruent,0,0,0,0,,,,,,,,,,,,,,,,,0,17,17,17,,,,,,,,,,,,,,,,,,,,,,,,,,,,,,,,,,,,,,,,,,,,,,,,,,,,,,,,,,,,,,,,,,,,,,,,,,,,,,,,,1,1.081771099999969,287.61378289999993,None,ScrollDown,정답입니다,287.61378289999993,None,287.61378289999993,None,287.61378289999993,None,287.61378289999993,None,288.55647729999964,None,288.55647729999964,289.06648640000003,,,,,,,,,,,,,,,,207,2022-05-03_11h20.48.929,FishGame,2022.1.1,59.99462448158363,
,19,넌 평범해,3,Green,B,4.333333333333332,4.233333333333333,ScrollUp,ScrollDown,Green.png,2,Neutral,Neutral,0,0,0,0,,,,,,,,,,,,,,,,,0,18,18,18,,,,,,,,,,,,,,,,,,,,,,,,,,,,,,,,,,,,,,,,,,,,,,,,,,,,,,,,,,,,,,,,,,,,,,,,,,,,,,,,,1.5817901206513247,0.8226793999997426,289.7229422999999,None,ScrollUp,정답입니다,289.7229422999999,None,289.7229422999999,None,289.7229422999999,None,289.7229422999999,None,290.41635700000006,None,290.41635700000006,290.9167588,,,,,,,,,,,,,,,,207,2022-05-03_11h20.48.929,FishGame,2022.1.1,59.99462448158363,
,20,넌 오만해,5,Orange,A,2.333333333333333,2,ScrollDown,ScrollUp,Orange.png,2,Negative,Incongruent,0,0,0,0,,,,,,,,,,,,,,,,,0,19,19,19,,,,,,,,,,,,,,,,,,,,,,,,,,,,,,,,,,,,,,,,,,,,,,,,,,,,,,,,,,,,,,,,,,,,,,,,,,,,,,,,,1.1697530895471573,1.0093391000000338,291.5753878999999,None,ScrollDown,정답입니다,291.5753878999999,None,291.5753878999999,None,291.5753878999999,None,291.5753878999999,None,292.4442660999998,None,292.4442660999998,292.9491272,,,,,,,,,,,,,,,,207,2022-05-03_11h20.48.929,FishGame,2022.1.1,59.99462448158363,
,21,넌 운이없어,4,Green,B,3,3.466666666666667,ScrollUp,ScrollDown,Green.png,2,Negative,Congruent,0,0,0,0,,,,,,,,,,,,,,,,,0,20,20,20,,,,,,,,,,,,,,,,,,,,,,,,,,,,,,,,,,,,,,,,,,,,,,,,,,,,,,,,,,,,,,,,,,,,,,,,,,,,,,,,,1.6697530845801034,0.9678011000000879,293.6006926,None,ScrollUp,정답입니다,293.6006926,None,293.6006926,None,293.6006926,None,293.6006926,None,294.43964319999986,None,294.43964319999986,294.94883009999967,,,,,,,,,,,,,,,,207,2022-05-03_11h20.48.929,FishGame,2022.1.1,59.99462448158363,
,22,넌 창조적이야,2,Green,B,6.125,4.633333333333334,ScrollUp,ScrollDown,Green.png,2,Positive,Incongruent,0,0,0,0,,,,,,,,,,,,,,,,,0,21,21,21,,,,,,,,,,,,,,,,,,,,,,,,,,,,,,,,,,,,,,,,,,,,,,,,,,,,,,,,,,,,,,,,,,,,,,,,,,,,,,,,,1.5540123445292315,0.9615606000002117,295.6075200999999,None,ScrollUp,정답입니다,295.6075200999999,None,295.6075200999999,None,295.6075200999999,None,295.6075200999999,None,296.4322070999997,None,296.4322070999997,296.9320214999998,,,,,,,,,,,,,,,,207,2022-05-03_11h20.48.929,FishGame,2022.1.1,59.99462448158363,
,23,나를 보내줘,6,Orange,A,0,0,ScrollUp,ScrollDown,Orange.png,2,NonTarget,NonTarget,0,0,0,0,,,,,,,,,,,,,,,,,0,22,22,22,,,,,,,,,,,,,,,,,,,,,,,,,,,,,,,,,,,,,,,,,,,,,,,,,,,,,,,,,,,,,,,,,,,,,,,,,,,,,,,,,1.7361111094554267,1.0843721999999616,297.58994329999996,None,ScrollUp,정답입니다,297.58994329999996,None,297.58994329999996,None,297.58994329999996,None,297.58994329999996,None,298.5384104999998,None,298.5384104999998,299.0485540999998,,,,,,,,,,,,,,,,207,2022-05-03_11h20.48.929,FishGame,2022.1.1,59.99462448158363,
,24,넌 통찰력있어,2,Orange,A,6.5,4.8,ScrollDown,ScrollUp,Orange.png,2,Positive,Congruent,0,0,0,0,,,,,,,,,,,,,,,,,0,23,23,23,,,,,,,,,,,,,,,,,,,,,,,,,,,,,,,,,,,,,,,,,,,,,,,,,,,,,,,,,,,,,,,,,,,,,,,,,,,,,,,,,1.2654321044683456,0.968815000000177,299.7116879,None,ScrollDown,정답입니다,299.7116879,None,299.7116879,None,299.7116879,None,299.7116879,None,300.53942949999964,None,300.53942949999964,301.0481971999998,,,,,,,,,,,,,,,,207,2022-05-03_11h20.48.929,FishGame,2022.1.1,59.99462448158363,
,25,넌 경솔해,5,Green,B,2.458333333333333,2.266666666666667,ScrollUp,ScrollDown,Green.png,2,Negative,Congruent,0,0,0,0,,,,,,,,,,,,,,,,,0,24,24,24,,,,,,,,,,,,,,,,,,,,,,,,,,,,,,,,,,,,,,,,,,,,,,,,,,,,,,,,,,,,,,,,,,,,,,,,,,,,,,,,,1.5540123445292315,0.729189800000313,301.6999265999998,None,ScrollUp,정답입니다,301.6999265999998,None,301.6999265999998,None,301.6999265999998,None,301.6999265999998,None,302.30174309999984,None,302.30174309999984,302.8144911999998,,,,,,,,,,,,,,,,207,2022-05-03_11h20.48.929,FishGame,2022.1.1,59.99462448158363,
,26,넌 초조해,4,Orange,A,2.916666666666667,3.133333333333333,ScrollDown,ScrollUp,Orange.png,2,Negative,Incongruent,0,0,0,0,,,,,,,,,,,,,,,,,0,25,25,25,,,,,,,,,,,,,,,,,,,,,,,,,,,,,,,,,,,,,,,,,,,,,,,,,,,,,,,,,,,,,,,,,,,,,,,,,,,,,,,,,1.325617286066214,0.9060028999997485,303.4763002999998,None,ScrollDown,정답입니다,303.4763002999998,None,303.4763002999998,None,303.4763002999998,None,303.4763002999998,None,304.2415934999999,None,304.2415934999999,304.74759330000006,,,,,,,,,,,,,,,,207,2022-05-03_11h20.48.929,FishGame,2022.1.1,59.99462448158363,
,27,넌 무관심해,4,Green,B,2.833333333333333,2.9,ScrollUp,ScrollDown,Green.png,2,Negative,Congruent,0,0,0,0,,,,,,,,,,,,,,,,,0,26,26,26,,,,,,,,,,,,,,,,,,,,,,,,,,,,,,,,,,,,,,,,,,,,,,,,,,,,,,,,,,,,,,,,,,,,,,,,,,,,,,,,,1.6851851865649223,0.9186230000000251,305.4063941999998,None,ScrollUp,정답입니다,305.4063941999998,None,305.4063941999998,None,305.4063941999998,None,305.4063941999998,None,306.1892349999998,None,306.1892349999998,306.69743689999996,,,,,,,,,,,,,,,,207,2022-05-03_11h20.48.929,FishGame,2022.1.1,59.99462448158363,
,28,넌 감성적이야,3,Green,B,4.125,4.166666666666667,ScrollUp,ScrollDown,Green.png,2,Neutral,Neutral,0,0,0,0,,,,,,,,,,,,,,,,,0,27,27,27,,,,,,,,,,,,,,,,,,,,,,,,,,,,,,,,,,,,,,,,,,,,,,,,,,,,,,,,,,,,,,,,,,,,,,,,,,,,,,,,,1.787037044763565,0.8655173999995895,307.35096729999987,None,ScrollUp,정답입니다,307.35096729999987,None,307.35096729999987,None,307.35096729999987,None,307.35096729999987,None,308.08982119999973,None,308.08982119999973,308.59716579999986,,,,,,,,,,,,,,,,207,2022-05-03_11h20.48.929,FishGame,2022.1.1,59.99462448158363,
,29,넌 배려심있어,1,Orange,A,6.083333333333333,5.5,ScrollDown,ScrollUp,Orange.png,2,Positive,Congruent,0,0,0,0,,,,,,,,,,,,,,,,,0,28,28,28,,,,,,,,,,,,,,,,,,,,,,,,,,,,,,,,,,,,,,,,,,,,,,,,,,,,,,,,,,,,,,,,,,,,,,,,,,,,,,,,,1.32253085821867,0.984443199999987,309.2585371,None,ScrollDown,정답입니다,309.2585371,None,309.2585371,None,309.2585371,None,309.2585371,None,310.1058073999998,None,310.1058073999998,310.61362770000005,,,,,,,,,,,,,,,,207,2022-05-03_11h20.48.929,FishGame,2022.1.1,59.99462448158363,
,30,넌 숨김없어,3,Orange,A,4.5,4.933333333333334,ScrollDown,ScrollUp,Orange.png,2,Neutral,Neutral,0,0,0,0,,,,,,,,,,,,,,,,,0,29,29,29,,,,,,,,,,,,,,,,,,,,,,,,,,,,,,,,,,,,,,,,,,,,,,,,,,,,,,,,,,,,,,,,,,,,,,,,,,,,,,,,,1.1836419651905696,1.1343719000001329,311.2781964999999,None,ScrollDown,정답입니다,311.2781964999999,None,311.2781964999999,None,311.2781964999999,None,311.2781964999999,None,312.27201279999963,None,312.27201279999963,312.77993779999997,,,,,,,,,,,,,,,,207,2022-05-03_11h20.48.929,FishGame,2022.1.1,59.99462448158363,
,31,넌 훌륭해,2,Green,B,5.916666666666667,4.033333333333333,ScrollUp,ScrollDown,Green.png,2,Positive,Incongruent,0,0,0,0,,,,,,,,,,,,,,,,,0,30,30,30,,,,,,,,,,,,,,,,,,,,,,,,,,,,,,,,,,,,,,,,,,,,,,,,,,,,,,,,,,,,,,,,,,,,,,,,,,,,,,,,,1.6913580298423767,1.2221744000003127,313.4471645999997,None,ScrollUp,정답입니다,313.4471645999997,None,313.4471645999997,None,313.4471645999997,None,313.4471645999997,None,314.5230686,None,314.5230686,315.0296389,,,,,,,,,,,,,,,,207,2022-05-03_11h20.48.929,FishGame,2022.1.1,59.99462448158363,
,32,넌 슬기로워,2,Orange,A,6.166666666666667,4.1,ScrollDown,ScrollUp,Orange.png,2,Positive,Congruent,0,0,0,0,,,,,,,,,,,,,,,,,0,31,31,31,,,,,,,,,,,,,,,,,,,,,,,,,,,,,,,,,,,,,,,,,,,,,,,,,,,,,,,,,,,,,,,,,,,,,,,,,,,,,,,,,1.194444437821706,0.9420601000001625,315.6911449999998,None,ScrollDown,정답입니다,315.6911449999998,None,315.6911449999998,None,315.6911449999998,None,315.6911449999998,None,316.49069469999995,None,316.49069469999995,316.99612639999987,,,,,,,,,,,,,,,,207,2022-05-03_11h20.48.929,FishGame,2022.1.1,59.99462448158363,
,33,넌 냉혹해,5,Orange,A,2.583333333333333,2.1,ScrollDown,ScrollUp,Orange.png,2,Negative,Incongruent,0,0,0,0,,,,,,,,,,,,,,,,,0,32,32,32,,,,,,,,,,,,,,,,,,,,,,,,,,,,,,,,,,,,,,,,,,,,,,,,,,,,,,,,,,,,,,,,,,,,,,,,,,,,,,,,,1.1388888855775197,0.9665729999996984,317.656199,None,ScrollDown,정답입니다,317.656199,None,317.656199,None,317.656199,None,317.656199,None,318.48662609999974,None,318.48662609999974,318.9958751999998,,,,,,,,,,,,,,,,207,2022-05-03_11h20.48.929,FishGame,2022.1.1,59.99462448158363,
,34,나를 데려가줘,6,Green,B,0,0,ScrollDown,ScrollUp,Green.png,2,NonTarget,NonTarget,0,0,0,0,,,,,,,,,,,,,,,,,0,33,33,33,,,,,,,,,,,,,,,,,,,,,,,,,,,,,,,,,,,,,,,,,,,,,,,,,,,,,,,,,,,,,,,,,,,,,,,,,,,,,,,,,1.1527777860562007,1.1605555000001004,319.6508457,None,ScrollDown,정답입니다,319.6508457,None,319.6508457,None,319.6508457,None,319.6508457,None,320.6753669999998,None,320.6753669999998,321.1788105999999,,,,,,,,,,,,,,,,207,2022-05-03_11h20.48.929,FishGame,2022.1.1,59.99462448158363,
,35,넌 편파적이야,5,Green,B,2.125,2,ScrollUp,ScrollDown,Green.png,2,Negative,Congruent,0,0,0,0,,,,,,,,,,,,,,,,,0,34,34,34,,,,,,,,,,,,,,,,,,,,,,,,,,,,,,,,,,,,,,,,,,,,,,,,,,,,,,,,,,,,,,,,,,,,,,,,,,,,,,,,,1.8641975422700245,0.9595471000002362,321.83825899999965,None,ScrollUp,정답입니다,321.83825899999965,None,321.83825899999965,None,321.83825899999965,None,321.83825899999965,None,322.6621130999997,None,322.6621130999997,323.16184799999974,,,,,,,,,,,,,,,,207,2022-05-03_11h20.48.929,FishGame,2022.1.1,59.99462448158363,
,36,넌 슬퍼,4,Orange,A,2.583333333333333,3.066666666666667,ScrollDown,ScrollUp,Orange.png,2,Negative,Incongruent,0,0,0,0,,,,,,,,,,,,,,,,,0,35,35,35,,,,,,,,,,,,,,,,,,,,,,,,,,,,,,,,,,,,,,,,,,,,,,,,,,,,,,,,,,,,,,,,,,,,,,,,,,,,,,,,,1.0833333333333333,1.3164455999999518,323.81758169999966,None,ScrollDown,정답입니다,323.81758169999966,None,323.81758169999966,None,323.81758169999966,None,323.81758169999966,None,325.00108299999965,None,325.00108299999965,325.51171989999966,,,,,,,,,,,,,,,,207,2022-05-03_11h20.48.929,FishGame,2022.1.1,59.99462448158363,
,37,나를 데려가줘,6,Green,B,0,0,ScrollDown,ScrollUp,Green.png,2,NonTarget,NonTarget,0,0,0,0,,,,,,,,,,,,,,,,,0,36,36,36,,,,,,,,,,,,,,,,,,,,,,,,,,,,,,,,,,,,,,,,,,,,,,,,,,,,,,,,,,,,,,,,,,,,,,,,,,,,,,,,,1.1666666616996129,1.361567599999944,326.1619692999998,None,ScrollDown,정답입니다,326.1619692999998,None,326.1619692999998,None,326.1619692999998,None,326.1619692999998,None,327.39818849999983,None,327.39818849999983,327.9116449999997,,,,,,,,,,,,,,,,207,2022-05-03_11h20.48.929,FishGame,2022.1.1,59.99462448158363,
,38,넌 친절해,1,Green,B,6.041666666666667,5.533333333333333,ScrollUp,ScrollDown,Green.png,2,Positive,Incongruent,0,0,0,0,,,,,,,,,,,,,,,,,0,37,37,37,,,,,,,,,,,,,,,,,,,,,,,,,,,,,,,,,,,,,,,,,,,,,,,,,,,,,,,,,,,,,,,,,,,,,,,,,,,,,,,,,1.7839506169160206,0.9698377999998229,328.57727739999973,None,ScrollUp,정답입니다,328.57727739999973,None,328.57727739999973,None,328.57727739999973,None,328.57727739999973,None,329.4032109999998,None,329.4032109999998,329.9110862999996,,,,,,,,,,,,,,,,207,2022-05-03_11h20.48.929,FishGame,2022.1.1,59.99462448158363,
,1,넌 엉성해,4,Orange,A,3,3.3,ScrollDown,ScrollUp,Orange.png,3,Negative,Incongruent,0,0,0,0,,,,,,,,,,,,,,,,,,,,,0,0,0,0,,,,,,,,,,,,,,,,,,,,,,,,,,,,,,,,,,,,364.7069499999998,366.2066434999997,366.2398721999998,367.1898374000002,367.23985900000025,368.1895586999999,368.1895586999999,None,,,,,,,,,,,,,,,,,,,,,,,,,,,,,,,,,,1.1589506169160206,0.818170999999893,369.37968439999986,None,ScrollDown,정답입니다,369.37968439999986,None,369.37968439999986,None,369.37968439999986,None,369.37968439999986,None,370.01608810000016,None,370.01608810000016,370.5225054000002,330.4109344999997,None,330.4109344999997,None,0.0037037036,-0.062962964,1,0,0,0.016227369999796792,None,360.42401919999975,None,,,207,2022-05-03_11h20.48.929,FishGame,2022.1.1,59.99462448158363,
,2,나를 보내줘,6,Orange,A,0,0,ScrollUp,ScrollDown,Orange.png,3,NonTarget,NonTarget,0,0,0,0,,,,,,,,,,,,,,,,,,,,,0,1,1,1,,,,,,,,,,,,,,,,,,,,,,,,,,,,,,,,,,,,,,,,,,,,,,,,,,,,,,,,,,,,,,,,,,,,,,,,,,,,,1.6620370397965112,1.034976399999323,371.1880344000001,None,ScrollUp,정답입니다,371.1880344000001,None,371.1880344000001,None,371.1880344000001,None,371.1880344000001,None,372.07918229999996,None,372.07918229999996,372.5888877999996,,,,,,,,,,,,,,,,207,2022-05-03_11h20.48.929,FishGame,2022.1.1,59.99462448158363,
,3,넌 활발해,1,Green,B,5.666666666666667,5.6,ScrollUp,ScrollDown,Green.png,3,Positive,Incongruent,0,0,0,0,,,,,,,,,,,,,,,,,,,,,0,2,2,2,,,,,,,,,,,,,,,,,,,,,,,,,,,,,,,,,,,,,,,,,,,,,,,,,,,,,,,,,,,,,,,,,,,,,,,,,,,,,1.7098765472571054,0.8987286999999924,373.24742309999965,None,ScrollUp,정답입니다,373.24742309999965,None,373.24742309999965,None,373.24742309999965,None,373.24742309999965,None,374.01049239999975,None,374.01049239999975,374.5220346999995,,,,,,,,,,,,,,,,207,2022-05-03_11h20.48.929,FishGame,2022.1.1,59.99462448158363,
,4,넌 논리적이야,2,Orange,A,5.666666666666666,4.633333333333334,ScrollDown,ScrollUp,Orange.png,3,Positive,Congruent,0,0,0,0,,,,,,,,,,,,,,,,,,,,,0,3,3,3,,,,,,,,,,,,,,,,,,,,,,,,,,,,,,,,,,,,,,,,,,,,,,,,,,,,,,,,,,,,,,,,,,,,,,,,,,,,,1.1280864129463832,0.8765527000005022,375.1893107999995,None,ScrollDown,정답입니다,375.1893107999995,None,375.1893107999995,None,375.1893107999995,None,375.1893107999995,None,375.9220414000001,None,375.9220414000001,376.42173490000005,,,,,,,,,,,,,,,,207,2022-05-03_11h20.48.929,FishGame,2022.1.1,59.99462448158363,
,5,넌 과묵해,3,Orange,A,3.875,4.4,ScrollDown,ScrollUp,Orange.png,3,Neutral,Neutral,0,0,0,0,,,,,,,,,,,,,,,,,,,,,0,4,4,4,,,,,,,,,,,,,,,,,,,,,,,,,,,,,,,,,,,,,,,,,,,,,,,,,,,,,,,,,,,,,,,,,,,,,,,,,,,,,1.1466049303611119,0.9076699999995981,377.09138770000027,None,ScrollDown,정답입니다,377.09138770000027,None,377.09138770000027,None,377.09138770000027,None,377.09138770000027,None,377.8497195,None,377.8497195,378.3548512999996,,,,,,,,,,,,,,,,207,2022-05-03_11h20.48.929,FishGame,2022.1.1,59.99462448158363,
,6,나를 데려가줘,6,Green,B,0,0,ScrollDown,ScrollUp,Green.png,3,NonTarget,NonTarget,0,0,0,0,,,,,,,,,,,,,,,,,,,,,0,5,5,5,,,,,,,,,,,,,,,,,,,,,,,,,,,,,,,,,,,,,,,,,,,,,,,,,,,,,,,,,,,,,,,,,,,,,,,,,,,,,1,1.0669517000005726,379.0022626,None,ScrollDown,정답입니다,379.0022626,None,379.0022626,None,379.0022626,None,379.0022626,None,379.9448483999995,None,379.9448483999995,380.4545849999995,,,,,,,,,,,,,,,,207,2022-05-03_11h20.48.929,FishGame,2022.1.1,59.99462448158363,
,7,넌 미숙해,4,Green,B,3,3,ScrollUp,ScrollDown,Green.png,3,Negative,Congruent,0,0,0,0,,,,,,,,,,,,,,,,,,,,,0,6,6,6,,,,,,,,,,,,,,,,,,,,,,,,,,,,,,,,,,,,,,,,,,,,,,,,,,,,,,,,,,,,,,,,,,,,,,,,,,,,,1.8317901243766148,0.8724910999999338,381.10686329999953,None,ScrollUp,정답입니다,381.10686329999953,None,381.10686329999953,None,381.10686329999953,None,381.10686329999953,None,381.8493776999994,None,381.8493776999994,382.3543645,,,,,,,,,,,,,,,,207,2022-05-03_11h20.48.929,FishGame,2022.1.1,59.99462448158363,
,8,나를 보내줘,6,Orange,A,0,0,ScrollUp,ScrollDown,Orange.png,3,NonTarget,NonTarget,0,0,0,0,,,,,,,,,,,,,,,,,,,,,0,7,7,7,,,,,,,,,,,,,,,,,,,,,,,,,,,,,,,,,,,,,,,,,,,,,,,,,,,,,,,,,,,,,,,,,,,,,,,,,,,,,1.8626543283462524,1.0489585999994233,383.0057595999997,None,ScrollUp,정답입니다,383.0057595999997,None,383.0057595999997,None,383.0057595999997,None,383.0057595999997,None,383.9267863999994,None,383.9267863999994,384.4374281999999,,,,,,,,,,,,,,,,207,2022-05-03_11h20.48.929,FishGame,2022.1.1,59.99462448158363,
,9,넌 자신만만해,3,Green,B,4.833333333333334,4.333333333333333,ScrollUp,ScrollDown,Green.png,3,Neutral,Neutral,0,0,0,0,,,,,,,,,,,,,,,,,,,,,0,8,8,8,,,,,,,,,,,,,,,,,,,,,,,,,,,,,,,,,,,,,,,,,,,,,,,,,,,,,,,,,,,,,,,,,,,,,,,,,,,,,1.9074074079593022,0.9901644999999917,385.0840712999998,None,ScrollUp,정답입니다,385.0840712999998,None,385.0840712999998,None,385.0840712999998,None,385.0840712999998,None,385.95411199999944,None,385.95411199999944,386.4538182999995,,,,,,,,,,,,,,,,207,2022-05-03_11h20.48.929,FishGame,2022.1.1,59.99462448158363,
,10,넌 탐욕스러워,5,Orange,A,2.25,2.1,ScrollDown,ScrollUp,Orange.png,3,Negative,Incongruent,0,0,0,0,,,,,,,,,,,,,,,,,,,,,0,9,9,9,,,,,,,,,,,,,,,,,,,,,,,,,,,,,,,,,,,,,,,,,,,,,,,,,,,,,,,,,,,,,,,,,,,,,,,,,,,,,1.0740740497907002,0.8955480000004172,387.1270622000002,None,ScrollDown,정답입니다,387.1270622000002,None,387.1270622000002,None,387.1270622000002,None,387.1270622000002,None,387.8729512,None,387.8729512,388.3870035,,,,,,,,,,,,,,,,207,2022-05-03_11h20.48.929,FishGame,2022.1.1,59.99462448158363,
,11,넌 인기있어,2,Orange,A,5.458333333333333,4.5,ScrollDown,ScrollUp,Orange.png,3,Positive,Congruent,0,0,0,0,,,,,,,,,,,,,,,,,,,,,0,10,10,10,,,,,,,,,,,,,,,,,,,,,,,,,,,,,,,,,,,,,,,,,,,,,,,,,,,,,,,,,,,,,,,,,,,,,,,,,,,,,1.160493830839793,0.950767100000121,389.04123869999967,None,ScrollDown,정답입니다,389.04123869999967,None,389.04123869999967,None,389.04123869999967,None,389.04123869999967,None,389.8595061999995,None,389.8595061999995,390.3700151000003,,,,,,,,,,,,,,,,207,2022-05-03_11h20.48.929,FishGame,2022.1.1,59.99462448158363,
,12,나를 데려가줘,6,Green,B,0,0,ScrollDown,ScrollUp,Green.png,3,NonTarget,NonTarget,0,0,0,0,,,,,,,,,,,,,,,,,,,,,0,11,11,11,,,,,,,,,,,,,,,,,,,,,,,,,,,,,,,,,,,,,,,,,,,,,,,,,,,,,,,,,,,,,,,,,,,,,,,,,,,,,1.1867283930381138,1.2977240999998685,391.02021369999966,None,ScrollDown,정답입니다,391.02021369999966,None,391.02021369999966,None,391.02021369999966,None,391.02021369999966,None,392.1907487999997,None,392.1907487999997,392.7030211000001,,,,,,,,,,,,,,,,207,2022-05-03_11h20.48.929,FishGame,2022.1.1,59.99462448158363,
,13,넌 뛰어나,2,Green,B,6.166666666666667,4,ScrollUp,ScrollDown,Green.png,3,Positive,Incongruent,0,0,0,0,,,,,,,,,,,,,,,,,,,,,0,12,12,12,,,,,,,,,,,,,,,,,,,,,,,,,,,,,,,,,,,,,,,,,,,,,,,,,,,,,,,,,,,,,,,,,,,,,,,,,,,,,1.766975313425064,1.0450897999999142,393.3534641999995,None,ScrollUp,정답입니다,393.3534641999995,None,393.3534641999995,None,393.3534641999995,None,393.3534641999995,None,394.2711026999996,None,394.2711026999996,394.7860916999998,,,,,,,,,,,,,,,,207,2022-05-03_11h20.48.929,FishGame,2022.1.1,59.99462448158363,
,14,넌 낙관적이야,1,Orange,A,5.75,5.8,ScrollDown,ScrollUp,Orange.png,3,Positive,Congruent,0,0,0,0,,,,,,,,,,,,,,,,,,,,,0,13,13,13,,,,,,,,,,,,,,,,,,,,,,,,,,,,,,,,,,,,,,,,,,,,,,,,,,,,,,,,,,,,,,,,,,,,,,,,,,,,,1.1049382785956066,1.681562999999187,395.44881819999955,None,ScrollDown,정답입니다,395.44881819999955,None,395.44881819999955,None,395.44881819999955,None,395.44881819999955,None,396.9914195000001,None,396.9914195000001,397.5024091999994,,,,,,,,,,,,,,,,207,2022-05-03_11h20.48.929,FishGame,2022.1.1,59.99462448158363,
,15,넌 산만해,4,Green,B,2.695652173913043,3.033333333333333,ScrollUp,ScrollDown,Green.png,3,Negative,Congruent,0,0,0,0,,,,,,,,,,,,,,,,,,,,,0,14,14,14,,,,,,,,,,,,,,,,,,,,,,,,,,,,,,,,,,,,,,,,,,,,,,,,,,,,,,,,,,,,,,,,,,,,,,,,,,,,,1.7376543233791986,0.934786300000269,398.1566592999998,None,ScrollUp,정답입니다,398.1566592999998,None,398.1566592999998,None,398.1566592999998,None,398.1566592999998,None,398.95883479999975,None,398.95883479999975,399.46879889999946,,,,,,,,,,,,,,,,207,2022-05-03_11h20.48.929,FishGame,2022.1.1,59.99462448158363,
,16,나를 보내줘,6,Orange,A,0,0,ScrollUp,ScrollDown,Orange.png,3,NonTarget,NonTarget,0,0,0,0,,,,,,,,,,,,,,,,,,,,,0,15,15,15,,,,,,,,,,,,,,,,,,,,,,,,,,,,,,,,,,,,,,,,,,,,,,,,,,,,,,,,,,,,,,,,,,,,,,,,,,,,,1.9706790049870808,1.4007797000003848,400.1204527,None,ScrollUp,정답입니다,400.1204527,None,400.1204527,None,400.1204527,None,400.1204527,None,401.39208080000026,None,401.39208080000026,401.90185629999996,,,,,,,,,,,,,,,,207,2022-05-03_11h20.48.929,FishGame,2022.1.1,59.99462448158363,
,17,넌 교활해,5,Green,B,2.333333333333333,2.133333333333333,ScrollUp,ScrollDown,Green.png,3,Negative,Congruent,0,0,0,0,,,,,,,,,,,,,,,,,,,,,0,16,16,16,,,,,,,,,,,,,,,,,,,,,,,,,,,,,,,,,,,,,,,,,,,,,,,,,,,,,,,,,,,,,,,,,,,,,,,,,,,,,1.7561728407939274,1.0019232000004195,402.55313860000024,None,ScrollUp,정답입니다,402.55313860000024,None,402.55313860000024,None,402.55313860000024,None,402.55313860000024,None,403.42423039999994,None,403.42423039999994,403.9349419,,,,,,,,,,,,,,,,207,2022-05-03_11h20.48.929,FishGame,2022.1.1,59.99462448158363,
,18,나를 보내줘,6,Orange,A,0,0,ScrollUp,ScrollDown,Orange.png,3,NonTarget,NonTarget,0,0,0,0,,,,,,,,,,,,,,,,,,,,,0,17,17,17,,,,,,,,,,,,,,,,,,,,,,,,,,,,,,,,,,,,,,,,,,,,,,,,,,,,,,,,,,,,,,,,,,,,,,,,,,,,,1.8657407313585281,1.7484018000004653,404.5899494999994,None,ScrollUp,정답입니다,404.5899494999994,None,404.5899494999994,None,404.5899494999994,None,404.5899494999994,None,406.2074668999994,None,406.2074668999994,406.7178359999998,,,,,,,,,,,,,,,,207,2022-05-03_11h20.48.929,FishGame,2022.1.1,59.99462448158363,
,19,넌 불친절해,5,Green,B,2.208333333333333,2.033333333333333,ScrollUp,ScrollDown,Green.png,3,Negative,Congruent,0,0,0,0,,,,,,,,,,,,,,,,,,,,,0,18,18,18,,,,,,,,,,,,,,,,,,,,,,,,,,,,,,,,,,,,,,,,,,,,,,,,,,,,,,,,,,,,,,,,,,,,,,,,,,,,,1.8641975422700245,1.1808584999998857,407.3714964999999,None,ScrollUp,정답입니다,407.3714964999999,None,407.3714964999999,None,407.3714964999999,None,407.3714964999999,None,408.4220796999998,None,408.4220796999998,408.9341849000002,,,,,,,,,,,,,,,,207,2022-05-03_11h20.48.929,FishGame,2022.1.1,59.99462448158363,
,20,넌 지적이야,2,Green,B,5.75,4.366666666666666,ScrollUp,ScrollDown,Green.png,3,Positive,Incongruent,0,0,0,0,,,,,,,,,,,,,,,,,,,,,0,19,19,19,,,,,,,,,,,,,,,,,,,,,,,,,,,,,,,,,,,,,,,,,,,,,,,,,,,,,,,,,,,,,,,,,,,,,,,,,,,,,1.8456790000200272,1.0236207999996623,409.5830208999996,None,ScrollUp,정답입니다,409.5830208999996,None,409.5830208999996,None,409.5830208999996,None,409.5830208999996,None,410.48447529999976,None,410.48447529999976,410.9841040000001,,,,,,,,,,,,,,,,207,2022-05-03_11h20.48.929,FishGame,2022.1.1,59.99462448158363,
,21,넌 우유부단해,4,Orange,A,2.666666666666667,3.166666666666667,ScrollDown,ScrollUp,Orange.png,3,Negative,Incongruent,0,0,0,0,,,,,,,,,,,,,,,,,,,,,0,20,20,20,,,,,,,,,,,,,,,,,,,,,,,,,,,,,,,,,,,,,,,,,,,,,,,,,,,,,,,,,,,,,,,,,,,,,,,,,,,,,1,1.238365199999862,411.6463939999994,None,ScrollDown,정답입니다,411.6463939999994,None,411.6463939999994,None,411.6463939999994,None,411.6463939999994,None,412.7433253999998,None,412.7433253999998,413.2504165999999,,,,,,,,,,,,,,,,207,2022-05-03_11h20.48.929,FishGame,2022.1.1,59.99462448158363,
,22,나를 데려가줘,6,Green,B,0,0,ScrollDown,ScrollUp,Green.png,3,NonTarget,NonTarget,0,0,0,0,,,,,,,,,,,,,,,,,,,,,0,21,21,21,,,,,,,,,,,,,,,,,,,,,,,,,,,,,,,,,,,,,,,,,,,,,,,,,,,,,,,,,,,,,,,,,,,,,,,,,,,,,1,2.2161071999998967,413.8975086999999,None,ScrollDown,정답입니다,413.8975086999999,None,413.8975086999999,None,413.8975086999999,None,413.8975086999999,None,415.9885663999994,None,415.9885663999994,416.49999469999966,,,,,,,,,,,,,,,,207,2022-05-03_11h20.48.929,FishGame,2022.1.1,59.99462448158363,
,23,넌 성실해,1,Green,B,6.041666666666666,5.7,ScrollUp,ScrollDown,Green.png,3,Positive,Incongruent,0,0,0,0,,,,,,,,,,,,,,,,,,,,,0,22,22,22,,,,,,,,,,,,,,,,,,,,,,,,,,,,,,,,,,,,,,,,,,,,,,,,,,,,,,,,,,,,,,,,,,,,,,,,,,,,,1.6188271616895995,0.9695259999998598,417.1499266000001,None,ScrollUp,정답입니다,417.1499266000001,None,417.1499266000001,None,417.1499266000001,None,417.1499266000001,None,417.9930813000001,None,417.9930813000001,418.49972609999986,,,,,,,,,,,,,,,,207,2022-05-03_11h20.48.929,FishGame,2022.1.1,59.99462448158363,
,24,넌 현실주의적이야,3,Orange,A,4.625,4.4,ScrollDown,ScrollUp,Orange.png,3,Neutral,Neutral,0,0,0,0,,,,,,,,,,,,,,,,,,,,,0,23,23,23,,,,,,,,,,,,,,,,,,,,,,,,,,,,,,,,,,,,,,,,,,,,,,,,,,,,,,,,,,,,,,,,,,,,,,,,,,,,,1.1141975373029709,0.9772598999998081,419.15404820000003,None,ScrollDown,정답입니다,419.15404820000003,None,419.15404820000003,None,419.15404820000003,None,419.15404820000003,None,419.9996999999994,None,419.9996999999994,420.4994686,,,,,,,,,,,,,,,,207,2022-05-03_11h20.48.929,FishGame,2022.1.1,59.99462448158363,
,25,넌 진실돼,1,Orange,A,6.625,5.566666666666666,ScrollDown,ScrollUp,Orange.png,3,Positive,Congruent,0,0,0,0,,,,,,,,,,,,,,,,,,,,,0,24,24,24,,,,,,,,,,,,,,,,,,,,,,,,,,,,,,,,,,,,,,,,,,,,,,,,,,,,,,,,,,,,,,,,,,,,,,,,,,,,,1,1.9091331999998147,421.15813739999976,None,ScrollDown,정답입니다,421.15813739999976,None,421.15813739999976,None,421.15813739999976,None,421.15813739999976,None,422.9326731000001,None,422.9326731000001,423.43234179999945,,,,,,,,,,,,,,,,207,2022-05-03_11h20.48.929,FishGame,2022.1.1,59.99462448158363,
,26,넌 천진난만해,3,Green,B,4.958333333333334,4.833333333333333,ScrollUp,ScrollDown,Green.png,3,Neutral,Neutral,0,0,0,0,,,,,,,,,,,,,,,,,,,,,0,25,25,25,,,,,,,,,,,,,,,,,,,,,,,,,,,,,,,,,,,,,,,,,,,,,,,,,,,,,,,,,,,,,,,,,,,,,,,,,,,,,1.805555562178294,1.0752355999993597,424.0895372999994,None,ScrollUp,정답입니다,424.0895372999994,None,424.0895372999994,None,424.0895372999994,None,424.0895372999994,None,425.0325071999996,None,425.0325071999996,425.5320684999997,,,,,,,,,,,,,,,,207,2022-05-03_11h20.48.929,FishGame,2022.1.1,59.99462448158363,
,27,넌 교양없어,5,Orange,A,2.416666666666667,2.2,ScrollDown,ScrollUp,Orange.png,3,Negative,Incongruent,0,0,0,0,,,,,,,,,,,,,,,,,,,,,0,26,26,26,,,,,,,,,,,,,,,,,,,,,,,,,,,,,,,,,,,,,,,,,,,,,,,,,,,,,,,,,,,,,,,,,,,,,,,,,,,,,1.0061728358268738,1.0369580999995378,426.1885591,None,ScrollDown,정답입니다,426.1885591,None,426.1885591,None,426.1885591,None,426.1885591,None,427.0909923999998,None,427.0909923999998,427.59866710000006,,,,,,,,,,,,,,,,207,2022-05-03_11h20.48.929,FishGame,2022.1.1,59.99462448158363,
,28,나를 보내줘,6,Orange,A,0,0,ScrollUp,ScrollDown,Orange.png,3,NonTarget,NonTarget,0,0,0,0,,,,,,,,,,,,,,,,,,,,,0,27,27,27,,,,,,,,,,,,,,,,,,,,,,,,,,,,,,,,,,,,,,,,,,,,,,,,,,,,,,,,,,,,,,,,,,,,,,,,,,,,,1.9228395223617554,1.0487482999997155,428.25437859999965,None,ScrollUp,정답입니다,428.25437859999965,None,428.25437859999965,None,428.25437859999965,None,428.25437859999965,None,429.17099549999966,None,429.17099549999966,429.6817106999997,,,,,,,,,,,,,,,,207,2022-05-03_11h20.48.929,FishGame,2022.1.1,59.99462448158363,
,29,넌 엉뚱스러워,3,Orange,A,4.166666666666667,4.133333333333334,ScrollDown,ScrollUp,Orange.png,3,Neutral,Neutral,0,0,0,0,,,,,,,,,,,,,,,,,,,,,0,28,28,28,,,,,,,,,,,,,,,,,,,,,,,,,,,,,,,,,,,,,,,,,,,,,,,,,,,,,,,,,,,,,,,,,,,,,,,,,,,,,1,0.9480469000000085,430.3430019999996,None,ScrollDown,정답입니다,430.3430019999996,None,430.3430019999996,None,430.3430019999996,None,430.3430019999996,None,431.15274039999986,None,431.15274039999986,431.66471639999963,,,,,,,,,,,,,,,,207,2022-05-03_11h20.48.929,FishGame,2022.1.1,59.99462448158363,
,30,넌 무지해,4,Green,B,2.541666666666667,3.066666666666667,ScrollUp,ScrollDown,Green.png,3,Negative,Congruent,0,0,0,0,,,,,,,,,,,,,,,,,,,,,0,29,29,29,,,,,,,,,,,,,,,,,,,,,,,,,,,,,,,,,,,,,,,,,,,,,,,,,,,,,,,,,,,,,,,,,,,,,,,,,,,,,1.68364197264115,0.8734009999998307,432.3136906999998,None,ScrollUp,정답입니다,432.3136906999998,None,432.3136906999998,None,432.3136906999998,None,432.3136906999998,None,433.0645963999996,None,433.0645963999996,433.5644397999995,,,,,,,,,,,,,,,,207,2022-05-03_11h20.48.929,FishGame,2022.1.1,59.99462448158363,
,31,넌 음울해,5,Green,B,2.25,2.233333333333333,ScrollUp,ScrollDown,Green.png,3,Negative,Congruent,0,0,0,0,,,,,,,,,,,,,,,,,,,,,0,30,30,30,,,,,,,,,,,,,,,,,,,,,,,,,,,,,,,,,,,,,,,,,,,,,,,,,,,,,,,,,,,,,,,,,,,,,,,,,,,,,1.8024691343307495,0.9213495000003604,434.2206041999998,None,ScrollUp,정답입니다,434.2206041999998,None,434.2206041999998,None,434.2206041999998,None,434.2206041999998,None,435.00701279999976,None,435.00701279999976,435.5142829999995,,,,,,,,,,,,,,,,207,2022-05-03_11h20.48.929,FishGame,2022.1.1,59.99462448158363,
,32,넌 냉소적이야,5,Orange,A,2.916666666666667,2.4,ScrollDown,ScrollUp,Orange.png,3,Negative,Incongruent,0,0,0,0,,,,,,,,,,,,,,,,,,,,,0,31,31,31,,,,,,,,,,,,,,,,,,,,,,,,,,,,,,,,,,,,,,,,,,,,,,,,,,,,,,,,,,,,,,,,,,,,,,,,,,,,,1.0570987462997437,1.1913078999996287,436.1688773999995,None,ScrollDown,정답입니다,436.1688773999995,None,436.1688773999995,None,436.1688773999995,None,436.1688773999995,None,437.2306136999996,None,437.2306136999996,437.7306244000001,,,,,,,,,,,,,,,,207,2022-05-03_11h20.48.929,FishGame,2022.1.1,59.99462448158363,
,33,나를 데려가줘,6,Green,B,0,0,ScrollDown,ScrollUp,Green.png,3,NonTarget,NonTarget,0,0,0,0,,,,,,,,,,,,,,,,,,,,,0,32,32,32,,,,,,,,,,,,,,,,,,,,,,,,,,,,,,,,,,,,,,,,,,,,,,,,,,,,,,,,,,,,,,,,,,,,,,,,,,,,,1,1.8284794000001057,438.3808379000002,None,ScrollDown,정답입니다,438.3808379000002,None,438.3808379000002,None,438.3808379000002,None,438.3808379000002,None,440.08218059999945,None,440.08218059999945,440.59700729999986,,,,,,,,,,,,,,,,207,2022-05-03_11h20.48.929,FishGame,2022.1.1,59.99462448158363,
,34,넌 쾌활해,1,Orange,A,5.541666666666666,5.733333333333333,ScrollDown,ScrollUp,Orange.png,3,Positive,Congruent,0,0,0,0,,,,,,,,,,,,,,,,,,,,,0,33,33,33,,,,,,,,,,,,,,,,,,,,,,,,,,,,,,,,,,,,,,,,,,,,,,,,,,,,,,,,,,,,,,,,,,,,,,,,,,,,,1.6820987711350122,1.1261027999998987,441.2589846000001,None,ScrollUp,오답입니다,441.2589846000001,None,441.2589846000001,None,441.2589846000001,None,441.2589846000001,None,442.2466523000003,None,442.2466523000003,442.7467071000001,,,,,,,,,,,,,,,,207,2022-05-03_11h20.48.929,FishGame,2022.1.1,59.99462448158363,
,35,나를 보내줘,6,Orange,A,0,0,ScrollUp,ScrollDown,Orange.png,3,NonTarget,NonTarget,0,0,0,0,,,,,,,,,,,,,,,,,,,,,0,34,34,34,,,,,,,,,,,,,,,,,,,,,,,,,,,,,,,,,,,,,,,,,,,,,,,,,,,,,,,,,,,,,,,,,,,,,,,,,,,,,1.9151234527428944,1.0212909000001673,443.39828510000007,None,ScrollUp,정답입니다,443.39828510000007,None,443.39828510000007,None,443.39828510000007,None,443.39828510000007,None,444.2930765000001,None,444.2930765000001,444.7964299999994,,,,,,,,,,,,,,,,207,2022-05-03_11h20.48.929,FishGame,2022.1.1,59.99462448158363,
,36,넌 명랑해,1,Green,B,5.739130434782609,5.666666666666667,ScrollUp,ScrollDown,Green.png,3,Positive,Incongruent,0,0,0,0,,,,,,,,,,,,,,,,,,,,,0,35,35,35,,,,,,,,,,,,,,,,,,,,,,,,,,,,,,,,,,,,,,,,,,,,,,,,,,,,,,,,,,,,,,,,,,,,,,,,,,,,,1.8719135870536168,1.228806000000077,445.45233480000024,None,ScrollUp,정답입니다,445.45233480000024,None,445.45233480000024,None,445.45233480000024,None,445.45233480000024,None,446.5477701,None,446.5477701,447.06277239999963,,,,,,,,,,,,,,,,207,2022-05-03_11h20.48.929,FishGame,2022.1.1,59.99462448158363,
,37,넌 멍해,4,Orange,A,2.833333333333333,3.4,ScrollDown,ScrollUp,Orange.png,3,Negative,Incongruent,0,0,0,0,,,,,,,,,,,,,,,,,,,,,0,36,36,36,,,,,,,,,,,,,,,,,,,,,,,,,,,,,,,,,,,,,,,,,,,,,,,,,,,,,,,,,,,,,,,,,,,,,,,,,,,,,1.0663580298423767,3.066458799999964,447.72446039999977,None,ScrollDown,정답입니다,447.72446039999977,None,447.72446039999977,None,447.72446039999977,None,447.72446039999977,None,450.6521464999996,None,450.6521464999996,451.16221570000016,,,,,,,,,,,,,,,,207,2022-05-03_11h20.48.929,FishGame,2022.1.1,59.99462448158363,
,38,나를 데려가줘,6,Green,B,0,0,ScrollDown,ScrollUp,Green.png,3,NonTarget,NonTarget,0,0,0,0,,,,,,,,,,,,,,,,,,,,,0,37,37,37,,,,,,,,,,,,,,,,,,,,,,,,,,,,,,,,,,,,,,,,,,,,,,,,,,,,,,,,,,,,,,,,,,,,,,,,,,,,,1.0509259402751923,1.259595000000445,451.8317971999995,None,ScrollDown,정답입니다,451.8317971999995,None,451.8317971999995,None,451.8317971999995,None,451.8317971999995,None,452.9455160999996,None,452.9455160999996,453.4452578999999,,,,,,,,,,,,,,,,207,2022-05-03_11h20.48.929,FishGame,2022.1.1,59.99462448158363,
,39,넌 현명해,2,Orange,A,6.541666666666666,4.533333333333333,ScrollDown,ScrollUp,Orange.png,3,Positive,Congruent,0,0,0,0,,,,,,,,,,,,,,,,,,,,,0,38,38,38,,,,,,,,,,,,,,,,,,,,,,,,,,,,,,,,,,,,,,,,,,,,,,,,,,,,,,,,,,,,,,,,,,,,,,,,,,,,,1.1913580348094304,1.027407900000071,454.10192279999956,None,ScrollDown,정답입니다,454.10192279999956,None,454.10192279999956,None,454.10192279999956,None,454.10192279999956,None,454.9919992999994,None,454.9919992999994,455.4949378000001,,,,,,,,,,,,,,,,207,2022-05-03_11h20.48.929,FishGame,2022.1.1,59.99462448158363,
,40,넌 수줍어,3,Green,B,3.541666666666666,4.366666666666666,ScrollUp,ScrollDown,Green.png,3,Neutral,Neutral,0,0,0,0,,,,,,,,,,,,,,,,,,,,,0,39,39,39,,,,,,,,,,,,,,,,,,,,,,,,,,,,,,,,,,,,,,,,,,,,,,,,,,,,,,,,,,,,,,,,,,,,,,,,,,,,,1.6358024651805558,1.019365299999663,456.14594659999966,None,ScrollUp,정답입니다,456.14594659999966,None,456.14594659999966,None,456.14594659999966,None,456.14594659999966,None,457.0371587999998,None,457.0371587999998,457.5447316,,,,,,,,,,,,,,,,207,2022-05-03_11h20.48.929,FishGame,2022.1.1,59.99462448158363,
,41,나를 데려가줘,6,Green,B,0,0,ScrollDown,ScrollUp,Green.png,3,NonTarget,NonTarget,0,0,0,0,,,,,,,,,,,,,,,,,,,,,0,40,40,40,,,,,,,,,,,,,,,,,,,,,,,,,,,,,,,,,,,,,,,,,,,,,,,,,,,,,,,,,,,,,,,,,,,,,,,,,,,,,1.0015431940555573,1.1929516000000149,458.2082980999994,None,ScrollDown,정답입니다,458.2082980999994,None,458.2082980999994,None,458.2082980999994,None,458.2082980999994,None,459.2612830999997,None,459.2612830999997,459.76117539999996,,,,,,,,,,,,,,,,207,2022-05-03_11h20.48.929,FishGame,2022.1.1,59.99462448158363,
,42,넌 성숙해,2,Green,B,5.833333333333333,4.533333333333333,ScrollUp,ScrollDown,Green.png,3,Positive,Incongruent,0,0,0,0,,,,,,,,,,,,,,,,,,,,,0,41,41,41,,,,,,,,,,,,,,,,,,,,,,,,,,,,,,,,,,,,,,,,,,,,,,,,,,,,,,,,,,,,,,,,,,,,,,,,,,,,,1.8827160596847534,1.0153313999999227,460.41102369999953,None,ScrollUp,정답입니다,460.41102369999953,None,460.41102369999953,None,460.41102369999953,None,460.41102369999953,None,461.3022363,None,461.3022363,461.81086309999955,,,,,,,,,,,,,,,,207,2022-05-03_11h20.48.929,FishGame,2022.1.1,59.99462448158363,
,1,넌 매력적이야,2,Green,B,6.125,4.666666666666667,ScrollUp,ScrollDown,Green.png,4,Positive,Incongruent,0,0,0,0,,,,,,,,,,,,,,,,,,,,,,,,,0,0,0,0,,,,,,,,,,,,,,,,,,,,,,,,,,,,,,,,499.42290260000027,500.9224819000001,500.95582730000024,501.9056687000002,501.95574810000016,502.9056816000002,502.9056816000002,None,,,,,,,,,,,,,,,,,,,,,,,,,,,,,,,,,,1.7623456716537476,1.077107199999773,504.0946772999996,None,ScrollUp,정답입니다,504.0946772999996,None,504.0946772999996,None,504.0946772999996,None,504.0946772999996,None,504.99564439999995,None,504.99564439999995,505.5051644999994,462.31069819999993,None,462.31069819999993,None,-0.008333334,-0.041666668,1,0,0,0.016232769999987795,None,492.3236003000002,None,,,207,2022-05-03_11h20.48.929,FishGame,2022.1.1,59.99462448158363,
,2,나를 보내줘,6,Orange,A,0,0,ScrollUp,ScrollDown,Orange.png,4,NonTarget,NonTarget,0,0,0,0,,,,,,,,,,,,,,,,,,,,,,,,,0,1,1,1,,,,,,,,,,,,,,,,,,,,,,,,,,,,,,,,,,,,,,,,,,,,,,,,,,,,,,,,,,,,,,,,,,,,,,,,,1.7793209999799728,1.0064070000007632,506.15558839999994,None,ScrollUp,정답입니다,506.15558839999994,None,506.15558839999994,None,506.15558839999994,None,506.15558839999994,None,507.0383557999994,None,507.0383557999994,507.5383506999997,,,,,,,,,,,,,,,,207,2022-05-03_11h20.48.929,FishGame,2022.1.1,59.99462448158363,
,3,넌 조심스러워,3,Orange,A,4.791666666666666,4.666666666666667,ScrollDown,ScrollUp,Orange.png,4,Neutral,Neutral,0,0,0,0,,,,,,,,,,,,,,,,,,,,,,,,,0,2,2,2,,,,,,,,,,,,,,,,,,,,,,,,,,,,,,,,,,,,,,,,,,,,,,,,,,,,,,,,,,,,,,,,,,,,,,,,,1.0432098706563313,0.8495124999999462,508.19192099999964,None,ScrollDown,정답입니다,508.19192099999964,None,508.19192099999964,None,508.19192099999964,None,508.19192099999964,None,508.9105346999995,None,508.9105346999995,509.4214159000003,,,,,,,,,,,,,,,,207,2022-05-03_11h20.48.929,FishGame,2022.1.1,59.99462448158363,
,4,넌 철학적이야,3,Green,B,4.5,4.266666666666667,ScrollUp,ScrollDown,Green.png,4,Neutral,Neutral,0,0,0,0,,,,,,,,,,,,,,,,,,,,,,,,,0,3,3,3,,,,,,,,,,,,,,,,,,,,,,,,,,,,,,,,,,,,,,,,,,,,,,,,,,,,,,,,,,,,,,,,,,,,,,,,,1.6898148159186044,0.821944700000131,510.08049440000013,None,ScrollUp,정답입니다,510.08049440000013,None,510.08049440000013,None,510.08049440000013,None,510.08049440000013,None,510.76377219999995,None,510.76377219999995,511.2712197999999,,,,,,,,,,,,,,,,207,2022-05-03_11h20.48.929,FishGame,2022.1.1,59.99462448158363,
,5,넌 쩨쩨해,5,Orange,A,2.375,2.133333333333333,ScrollDown,ScrollUp,Orange.png,4,Negative,Incongruent,0,0,0,0,,,,,,,,,,,,,,,,,,,,,,,,,0,4,4,4,,,,,,,,,,,,,,,,,,,,,,,,,,,,,,,,,,,,,,,,,,,,,,,,,,,,,,,,,,,,,,,,,,,,,,,,,1.1311728407939274,1.0091077999995832,511.92785619999995,None,ScrollDown,정답입니다,511.92785619999995,None,511.92785619999995,None,511.92785619999995,None,511.92785619999995,None,512.8046739000001,None,512.8046739000001,513.3043319999997,,,,,,,,,,,,,,,,207,2022-05-03_11h20.48.929,FishGame,2022.1.1,59.99462448158363,
,6,나를 데려가줘,6,Green,B,0,0,ScrollDown,ScrollUp,Green.png,4,NonTarget,NonTarget,0,0,0,0,,,,,,,,,,,,,,,,,,,,,,,,,0,5,5,5,,,,,,,,,,,,,,,,,,,,,,,,,,,,,,,,,,,,,,,,,,,,,,,,,,,,,,,,,,,,,,,,,,,,,,,,,1.0740740497907002,1.0661770000006072,513.9556265000001,None,ScrollDown,정답입니다,513.9556265000001,None,513.9556265000001,None,513.9556265000001,None,513.9556265000001,None,514.8925571,None,514.8925571,515.4039966,,,,,,,,,,,,,,,,207,2022-05-03_11h20.48.929,FishGame,2022.1.1,59.99462448158363,
,7,넌 고집불통이야,5,Green,B,2.875,2,ScrollUp,ScrollDown,Green.png,4,Negative,Congruent,0,0,0,0,,,,,,,,,,,,,,,,,,,,,,,,,0,6,6,6,,,,,,,,,,,,,,,,,,,,,,,,,,,,,,,,,,,,,,,,,,,,,,,,,,,,,,,,,,,,,,,,,,,,,,,,,2,1.1481316999997944,516.0695598000002,None,ScrollUp,정답입니다,516.0695598000002,None,516.0695598000002,None,516.0695598000002,None,516.0695598000002,None,517.0737811999998,None,517.0737811999998,517.5870505000003,,,,,,,,,,,,,,,,207,2022-05-03_11h20.48.929,FishGame,2022.1.1,59.99462448158363,
,8,넌 무심해,4,Orange,A,2.875,3.2,ScrollDown,ScrollUp,Orange.png,4,Negative,Incongruent,0,0,0,0,,,,,,,,,,,,,,,,,,,,,,,,,0,7,7,7,,,,,,,,,,,,,,,,,,,,,,,,,,,,,,,,,,,,,,,,,,,,,,,,,,,,,,,,,,,,,,,,,,,,,,,,,1.0895061641931534,1.004063600000336,518.2509699000002,None,ScrollDown,정답입니다,518.2509699000002,None,518.2509699000002,None,518.2509699000002,None,518.2509699000002,None,519.1137369999997,None,519.1137369999997,519.6202371999998,,,,,,,,,,,,,,,,207,2022-05-03_11h20.48.929,FishGame,2022.1.1,59.99462448158363,
,9,넌 정겨워,1,Orange,A,5.791666666666667,5.666666666666667,ScrollDown,ScrollUp,Orange.png,4,Positive,Congruent,0,0,0,0,,,,,,,,,,,,,,,,,,,,,,,,,0,8,8,8,,,,,,,,,,,,,,,,,,,,,,,,,,,,,,,,,,,,,,,,,,,,,,,,,,,,,,,,,,,,,,,,,,,,,,,,,1.1867283930381138,0.9579569999996238,520.2860363999998,None,ScrollDown,정답입니다,520.2860363999998,None,520.2860363999998,None,520.2860363999998,None,520.2860363999998,None,521.0988394999995,None,521.0988394999995,521.6032291000001,,,,,,,,,,,,,,,,207,2022-05-03_11h20.48.929,FishGame,2022.1.1,59.99462448158363,
,10,나를 데려가줘,6,Green,B,0,0,ScrollDown,ScrollUp,Green.png,4,NonTarget,NonTarget,0,0,0,0,,,,,,,,,,,,,,,,,,,,,,,,,0,9,9,9,,,,,,,,,,,,,,,,,,,,,,,,,,,,,,,,,,,,,,,,,,,,,,,,,,,,,,,,,,,,,,,,,,,,,,,,,1.2083333383003871,1.142501600000287,522.2489685,None,ScrollDown,정답입니다,522.2489685,None,522.2489685,None,522.2489685,None,522.2489685,None,523.2697514000001,None,523.2697514000001,523.7696061999995,,,,,,,,,,,,,,,,207,2022-05-03_11h20.48.929,FishGame,2022.1.1,59.99462448158363,
,11,넌 체제순응적이야,4,Green,B,3,3.6,ScrollUp,ScrollDown,Green.png,4,Negative,Congruent,0,0,0,0,,,,,,,,,,,,,,,,,,,,,,,,,0,10,10,10,,,,,,,,,,,,,,,,,,,,,,,,,,,,,,,,,,,,,,,,,,,,,,,,,,,,,,,,,,,,,,,,,,,,,,,,,1.765432099501292,1.0341079999998328,524.4323345000003,None,ScrollUp,정답입니다,524.4323345000003,None,524.4323345000003,None,524.4323345000003,None,524.4323345000003,None,525.3260232000002,None,525.3260232000002,525.8360554999999,,,,,,,,,,,,,,,,207,2022-05-03_11h20.48.929,FishGame,2022.1.1,59.99462448158363,
,12,나를 보내줘,6,Orange,A,0,0,ScrollUp,ScrollDown,Orange.png,4,NonTarget,NonTarget,0,0,0,0,,,,,,,,,,,,,,,,,,,,,,,,,0,11,11,11,,,,,,,,,,,,,,,,,,,,,,,,,,,,,,,,,,,,,,,,,,,,,,,,,,,,,,,,,,,,,,,,,,,,,,,,,1.6574074104428291,1.2116390000001047,526.4909505999995,None,ScrollUp,정답입니다,526.4909505999995,None,526.4909505999995,None,526.4909505999995,None,526.4909505999995,None,527.5690095,None,527.5690095,528.0691157000001,,,,,,,,,,,,,,,,207,2022-05-03_11h20.48.929,FishGame,2022.1.1,59.99462448158363,
,13,넌 박식해,2,Orange,A,5.625,3.933333333333333,ScrollDown,ScrollUp,Orange.png,4,Positive,Congruent,0,0,0,0,,,,,,,,,,,,,,,,,,,,,,,,,0,12,12,12,,,,,,,,,,,,,,,,,,,,,,,,,,,,,,,,,,,,,,,,,,,,,,,,,,,,,,,,,,,,,,,,,,,,,,,,,1.0771604776382446,1.1831809000004796,528.7271763999997,None,ScrollDown,정답입니다,528.7271763999997,None,528.7271763999997,None,528.7271763999997,None,528.7271763999997,None,529.7755172999996,None,529.7755172999996,530.2854343999998,,,,,,,,,,,,,,,,207,2022-05-03_11h20.48.929,FishGame,2022.1.1,59.99462448158363,
,14,나를 보내줘,6,Orange,A,0,0,ScrollUp,ScrollDown,Orange.png,4,NonTarget,NonTarget,0,0,0,0,,,,,,,,,,,,,,,,,,,,,,,,,0,13,13,13,,,,,,,,,,,,,,,,,,,,,,,,,,,,,,,,,,,,,,,,,,,,,,,,,,,,,,,,,,,,,,,,,,,,,,,,,2,2.8826929000006203,530.9352788999995,None,ScrollUp,정답입니다,530.9352788999995,None,530.9352788999995,None,530.9352788999995,None,530.9352788999995,None,533.6902656000002,None,533.6902656000002,534.2016100999999,,,,,,,,,,,,,,,,207,2022-05-03_11h20.48.929,FishGame,2022.1.1,59.99462448158363,
,15,넌 침착해,1,Green,B,5.458333333333333,5.566666666666666,ScrollUp,ScrollDown,Green.png,4,Positive,Incongruent,0,0,0,0,,,,,,,,,,,,,,,,,,,,,,,,,0,14,14,14,,,,,,,,,,,,,,,,,,,,,,,,,,,,,,,,,,,,,,,,,,,,,,,,,,,,,,,,,,,,,,,,,,,,,,,,,1.9212963084379833,1.2953654000002643,534.8585924999998,None,ScrollUp,정답입니다,534.8585924999998,None,534.8585924999998,None,534.8585924999998,None,534.8585924999998,None,536.0186292999997,None,536.0186292999997,536.5180365999995,,,,,,,,,,,,,,,,207,2022-05-03_11h20.48.929,FishGame,2022.1.1,59.99462448158363,
,16,나를 데려가줘,6,Green,B,0,0,ScrollDown,ScrollUp,Green.png,4,NonTarget,NonTarget,0,0,0,0,,,,,,,,,,,,,,,,,,,,,,,,,0,15,15,15,,,,,,,,,,,,,,,,,,,,,,,,,,,,,,,,,,,,,,,,,,,,,,,,,,,,,,,,,,,,,,,,,,,,,,,,,1.060185174147288,0.9840607000005548,537.1572199000002,None,ScrollDown,정답입니다,537.1572199000002,None,537.1572199000002,None,537.1572199000002,None,537.1572199000002,None,538.0252094999996,None,538.0252094999996,538.5343794999999,,,,,,,,,,,,,,,,207,2022-05-03_11h20.48.929,FishGame,2022.1.1,59.99462448158363,
,17,넌 행복해,1,Orange,A,6.416666666666666,6.166666666666667,ScrollDown,ScrollUp,Orange.png,4,Positive,Congruent,0,0,0,0,,,,,,,,,,,,,,,,,,,,,,,,,0,16,16,16,,,,,,,,,,,,,,,,,,,,,,,,,,,,,,,,,,,,,,,,,,,,,,,,,,,,,,,,,,,,,,,,,,,,,,,,,1.0493827263514202,0.9456933999999819,539.1993364,None,ScrollDown,정답입니다,539.1993364,None,539.1993364,None,539.1993364,None,539.1993364,None,540.0028273999997,None,540.0028273999997,540.5173735999997,,,,,,,,,,,,,,,,207,2022-05-03_11h20.48.929,FishGame,2022.1.1,59.99462448158363,
,18,넌 겸손해,2,Green,B,5.791666666666667,4.766666666666667,ScrollUp,ScrollDown,Green.png,4,Positive,Incongruent,0,0,0,0,,,,,,,,,,,,,,,,,,,,,,,,,0,17,17,17,,,,,,,,,,,,,,,,,,,,,,,,,,,,,,,,,,,,,,,,,,,,,,,,,,,,,,,,,,,,,,,,,,,,,,,,,1.654320982595285,0.8283165000002555,541.1742647000001,None,ScrollUp,정답입니다,541.1742647000001,None,541.1742647000001,None,541.1742647000001,None,541.1742647000001,None,541.8637790000002,None,541.8637790000002,542.3674524999997,,,,,,,,,,,,,,,,207,2022-05-03_11h20.48.929,FishGame,2022.1.1,59.99462448158363,
,19,나를 보내줘,6,Orange,A,0,0,ScrollUp,ScrollDown,Orange.png,4,NonTarget,NonTarget,0,0,0,0,,,,,,,,,,,,,,,,,,,,,,,,,0,18,18,18,,,,,,,,,,,,,,,,,,,,,,,,,,,,,,,,,,,,,,,,,,,,,,,,,,,,,,,,,,,,,,,,,,,,,,,,,1.614197532335917,1.0198836999998093,543.0123862,None,ScrollUp,정답입니다,543.0123862,None,543.0123862,None,543.0123862,None,543.0123862,None,543.9096389999995,None,543.9096389999995,544.4170180000001,,,,,,,,,,,,,,,,207,2022-05-03_11h20.48.929,FishGame,2022.1.1,59.99462448158363,
,20,넌 의심없어,3,Orange,A,4.166666666666667,4.6,ScrollDown,ScrollUp,Orange.png,4,Neutral,Neutral,0,0,0,0,,,,,,,,,,,,,,,,,,,,,,,,,0,19,19,19,,,,,,,,,,,,,,,,,,,,,,,,,,,,,,,,,,,,,,,,,,,,,,,,,,,,,,,,,,,,,,,,,,,,,,,,,1.2376543283462524,0.8987471000000369,545.0788437000001,None,ScrollDown,정답입니다,545.0788437000001,None,545.0788437000001,None,545.0788437000001,None,545.0788437000001,None,545.8396193999997,None,545.8396193999997,546.3500244999996,,,,,,,,,,,,,,,,207,2022-05-03_11h20.48.929,FishGame,2022.1.1,59.99462448158363,
,21,넌 시시해,4,Orange,A,2.666666666666667,2.966666666666667,ScrollDown,ScrollUp,Orange.png,4,Negative,Incongruent,0,0,0,0,,,,,,,,,,,,,,,,,,,,,,,,,0,20,20,20,,,,,,,,,,,,,,,,,,,,,,,,,,,,,,,,,,,,,,,,,,,,,,,,,,,,,,,,,,,,,,,,,,,,,,,,,1.200617293516795,0.9694279999994251,547.0002462000002,None,ScrollDown,정답입니다,547.0002462000002,None,547.0002462000002,None,547.0002462000002,None,547.0002462000002,None,547.8408775999997,None,547.8408775999997,548.3498184,,,,,,,,,,,,,,,,207,2022-05-03_11h20.48.929,FishGame,2022.1.1,59.99462448158363,
,22,나를 데려가줘,6,Green,B,0,0,ScrollDown,ScrollUp,Green.png,4,NonTarget,NonTarget,0,0,0,0,,,,,,,,,,,,,,,,,,,,,,,,,0,21,21,21,,,,,,,,,,,,,,,,,,,,,,,,,,,,,,,,,,,,,,,,,,,,,,,,,,,,,,,,,,,,,,,,,,,,,,,,,1.1342592686414719,1.1433273000002373,548.9956769999999,None,ScrollDown,정답입니다,548.9956769999999,None,548.9956769999999,None,548.9956769999999,None,548.9956769999999,None,550.0112479,None,550.0112479,550.5160741,,,,,,,,,,,,,,,,207,2022-05-03_11h20.48.929,FishGame,2022.1.1,59.99462448158363,
,23,넌 무정해,5,Orange,A,2.5,2.2,ScrollDown,ScrollUp,Orange.png,4,Negative,Incongruent,0,0,0,0,,,,,,,,,,,,,,,,,,,,,,,,,0,22,22,22,,,,,,,,,,,,,,,,,,,,,,,,,,,,,,,,,,,,,,,,,,,,,,,,,,,,,,,,,,,,,,,,,,,,,,,,,1.2083333383003871,0.9366251999999804,551.1712858000001,None,ScrollDown,정답입니다,551.1712858000001,None,551.1712858000001,None,551.1712858000001,None,551.1712858000001,None,551.9759239999994,None,551.9759239999994,552.4825381,,,,,,,,,,,,,,,,207,2022-05-03_11h20.48.929,FishGame,2022.1.1,59.99462448158363,
,24,넌 긍정적이야,1,Green,B,6.041666666666667,6.066666666666666,ScrollUp,ScrollDown,Green.png,4,Positive,Incongruent,0,0,0,0,,,,,,,,,,,,,,,,,,,,,,,,,0,23,23,23,,,,,,,,,,,,,,,,,,,,,,,,,,,,,,,,,,,,,,,,,,,,,,,,,,,,,,,,,,,,,,,,,,,,,,,,,1.6913580298423767,0.9010894000002736,553.1369256999997,None,ScrollUp,정답입니다,553.1369256999997,None,553.1369256999997,None,553.1369256999997,None,553.1369256999997,None,553.9069723000002,None,553.9069723000002,554.4156739999999,,,,,,,,,,,,,,,,207,2022-05-03_11h20.48.929,FishGame,2022.1.1,59.99462448158363,
,25,나를 보내줘,6,Orange,A,0,0,ScrollUp,ScrollDown,Orange.png,4,NonTarget,NonTarget,0,0,0,0,,,,,,,,,,,,,,,,,,,,,,,,,0,24,24,24,,,,,,,,,,,,,,,,,,,,,,,,,,,,,,,,,,,,,,,,,,,,,,,,,,,,,,,,,,,,,,,,,,,,,,,,,2,1.3948401000006925,555.0707666999997,None,ScrollUp,정답입니다,555.0707666999997,None,555.0707666999997,None,555.0707666999997,None,555.0707666999997,None,556.3319873999999,None,556.3319873999999,556.8321961000001,,,,,,,,,,,,,,,,207,2022-05-03_11h20.48.929,FishGame,2022.1.1,59.99462448158363,
,26,넌 시기심이 많아,5,Green,B,2.458333333333333,2.233333333333333,ScrollUp,ScrollDown,Green.png,4,Negative,Congruent,0,0,0,0,,,,,,,,,,,,,,,,,,,,,,,,,0,25,25,25,,,,,,,,,,,,,,,,,,,,,,,,,,,,,,,,,,,,,,,,,,,,,,,,,,,,,,,,,,,,,,,,,,,,,,,,,1.766975313425064,7.825175099999797,557.4804776000001,None,ScrollUp,정답입니다,557.4804776000001,None,557.4804776000001,None,557.4804776000001,None,557.4804776000001,None,565.1809302000001,None,565.1809302000001,565.6808371999996,,,,,,,,,,,,,,,,207,2022-05-03_11h20.48.929,FishGame,2022.1.1,59.99462448158363,
,27,넌 탁월해,2,Orange,A,5.708333333333334,4.5,ScrollDown,ScrollUp,Orange.png,4,Positive,Congruent,0,0,0,0,,,,,,,,,,,,,,,,,,,,,,,,,0,26,26,26,,,,,,,,,,,,,,,,,,,,,,,,,,,,,,,,,,,,,,,,,,,,,,,,,,,,,,,,,,,,,,,,,,,,,,,,,1.0509259402751923,0.8476110000001427,566.3422113999995,None,ScrollDown,정답입니다,566.3422113999995,None,566.3422113999995,None,566.3422113999995,None,566.3422113999995,None,567.0515361999996,None,567.0515361999996,567.5639757999998,,,,,,,,,,,,,,,,207,2022-05-03_11h20.48.929,FishGame,2022.1.1,59.99462448158363,
,28,나를 데려가줘,6,Green,B,0,0,ScrollDown,ScrollUp,Green.png,4,NonTarget,NonTarget,0,0,0,0,,,,,,,,,,,,,,,,,,,,,,,,,0,27,27,27,,,,,,,,,,,,,,,,,,,,,,,,,,,,,,,,,,,,,,,,,,,,,,,,,,,,,,,,,,,,,,,,,,,,,,,,,1.1111111094554265,1.7651163000000452,568.2386779999997,None,ScrollDown,정답입니다,568.2386779999997,None,568.2386779999997,None,568.2386779999997,None,568.2386779999997,None,569.8524569000001,None,569.8524569000001,570.3636121999998,,,,,,,,,,,,,,,,207,2022-05-03_11h20.48.929,FishGame,2022.1.1,59.99462448158363,
,29,넌 조용해,3,Green,B,4.333333333333333,4.166666666666667,ScrollUp,ScrollDown,Green.png,4,Neutral,Neutral,0,0,0,0,,,,,,,,,,,,,,,,,,,,,,,,,0,28,28,28,,,,,,,,,,,,,,,,,,,,,,,,,,,,,,,,,,,,,,,,,,,,,,,,,,,,,,,,,,,,,,,,,,,,,,,,,1.7901234477758408,0.8131646000001638,571.0205667999999,None,ScrollUp,정답입니다,571.0205667999999,None,571.0205667999999,None,571.0205667999999,None,571.0205667999999,None,571.6967478999995,None,571.6967478999995,572.1968019999995,,,,,,,,,,,,,,,,207,2022-05-03_11h20.48.929,FishGame,2022.1.1,59.99462448158363,
,30,넌 다정해,1,Orange,A,5.833333333333334,5.7,ScrollDown,ScrollUp,Orange.png,4,Positive,Congruent,0,0,0,0,,,,,,,,,,,,,,,,,,,,,,,,,0,29,29,29,,,,,,,,,,,,,,,,,,,,,,,,,,,,,,,,,,,,,,,,,,,,,,,,,,,,,,,,,,,,,,,,,,,,,,,,,1.0787036915620167,0.9062518999999156,572.8508947999999,None,ScrollDown,정답입니다,572.8508947999999,None,572.8508947999999,None,572.8508947999999,None,572.8508947999999,None,573.6297992999998,None,573.6297992999998,574.1298153999996,,,,,,,,,,,,,,,,207,2022-05-03_11h20.48.929,FishGame,2022.1.1,59.99462448158363,
,31,넌 능력있어,2,Green,B,6.166666666666666,4.6,ScrollUp,ScrollDown,Green.png,4,Positive,Incongruent,0,0,0,0,,,,,,,,,,,,,,,,,,,,,,,,,0,30,30,30,,,,,,,,,,,,,,,,,,,,,,,,,,,,,,,,,,,,,,,,,,,,,,,,,,,,,,,,,,,,,,,,,,,,,,,,,1.6388888930281005,0.8333289999991393,574.7780981999995,None,ScrollUp,정답입니다,574.7780981999995,None,574.7780981999995,None,574.7780981999995,None,574.7780981999995,None,575.4869497,None,575.4869497,575.9963170000001,,,,,,,,,,,,,,,,207,2022-05-03_11h20.48.929,FishGame,2022.1.1,59.99462448158363,
,32,넌 불쾌해,5,Orange,A,2.125,1.933333333333333,ScrollDown,ScrollUp,Orange.png,4,Negative,Incongruent,0,0,0,0,,,,,,,,,,,,,,,,,,,,,,,,,0,31,31,31,,,,,,,,,,,,,,,,,,,,,,,,,,,,,,,,,,,,,,,,,,,,,,,,,,,,,,,,,,,,,,,,,,,,,,,,,1.1651234477758408,0.9525065999996514,576.6592762999999,None,ScrollDown,정답입니다,576.6592762999999,None,576.6592762999999,None,576.6592762999999,None,576.6592762999999,None,577.4737353999999,None,577.4737353999999,577.9793429000001,,,,,,,,,,,,,,,,207,2022-05-03_11h20.48.929,FishGame,2022.1.1,59.99462448158363,
,33,나를 데려가줘,6,Green,B,0,0,ScrollDown,ScrollUp,Green.png,4,NonTarget,NonTarget,0,0,0,0,,,,,,,,,,,,,,,,,,,,,,,,,0,32,32,32,,,,,,,,,,,,,,,,,,,,,,,,,,,,,,,,,,,,,,,,,,,,,,,,,,,,,,,,,,,,,,,,,,,,,,,,,1,1.1278529999999591,578.6897559999998,None,ScrollDown,정답입니다,578.6897559999998,None,578.6897559999998,None,578.6897559999998,None,578.6897559999998,None,579.6289139999999,None,579.6289139999999,580.1291202000002,,,,,,,,,,,,,,,,207,2022-05-03_11h20.48.929,FishGame,2022.1.1,59.99462448158363,
,34,넌 유순해,3,Orange,A,4.458333333333333,5,ScrollDown,ScrollUp,Orange.png,4,Neutral,Neutral,0,0,0,0,,,,,,,,,,,,,,,,,,,,,,,,,0,33,33,33,,,,,,,,,,,,,,,,,,,,,,,,,,,,,,,,,,,,,,,,,,,,,,,,,,,,,,,,,,,,,,,,,,,,,,,,,1.0648148159186046,1.0083570999995572,580.7859842999997,None,ScrollDown,정답입니다,580.7859842999997,None,580.7859842999997,None,580.7859842999997,None,580.7859842999997,None,581.6624129000002,None,581.6624129000002,582.1622650999998,,,,,,,,,,,,,,,,207,2022-05-03_11h20.48.929,FishGame,2022.1.1,59.99462448158363,
,35,넌 근심스러워,4,Green,B,2.708333333333333,3.133333333333333,ScrollUp,ScrollDown,Green.png,4,Negative,Congruent,0,0,0,0,,,,,,,,,,,,,,,,,,,,,,,,,0,34,34,34,,,,,,,,,,,,,,,,,,,,,,,,,,,,,,,,,,,,,,,,,,,,,,,,,,,,,,,,,,,,,,,,,,,,,,,,,1.858024686574936,0.8603000000002794,582.8090556999996,None,ScrollUp,정답입니다,582.8090556999996,None,582.8090556999996,None,582.8090556999996,None,582.8090556999996,None,583.5456769000002,None,583.5456769000002,584.0451494999998,,,,,,,,,,,,,,,,207,2022-05-03_11h20.48.929,FishGame,2022.1.1,59.99462448158363,
,36,넌 세련되었어,2,Orange,A,5.5,4.6,ScrollDown,ScrollUp,Orange.png,4,Positive,Congruent,0,0,0,0,,,,,,,,,,,,,,,,,,,,,,,,,0,35,35,35,,,,,,,,,,,,,,,,,,,,,,,,,,,,,,,,,,,,,,,,,,,,,,,,,,,,,,,,,,,,,,,,,,,,,,,,,1.126543199022611,0.856299900000522,584.7163881999995,None,ScrollDown,정답입니다,584.7163881999995,None,584.7163881999995,None,584.7163881999995,None,584.7163881999995,None,585.4284822999998,None,585.4284822999998,585.9283731999994,,,,,,,,,,,,,,,,207,2022-05-03_11h20.48.929,FishGame,2022.1.1,59.99462448158363,
,37,나를 보내줘,6,Orange,A,0,0,ScrollUp,ScrollDown,Orange.png,4,NonTarget,NonTarget,0,0,0,0,,,,,,,,,,,,,,,,,,,,,,,,,0,36,36,36,,,,,,,,,,,,,,,,,,,,,,,,,,,,,,,,,,,,,,,,,,,,,,,,,,,,,,,,,,,,,,,,,,,,,,,,,1.2175925970077515,0.8063253000000259,586.5903349999999,None,ScrollDown,오답입니다,586.5903349999999,None,586.5903349999999,None,586.5903349999999,None,586.5903349999999,None,587.2628302000003,None,587.2628302000003,587.7782032999994,,,,,,,,,,,,,,,,207,2022-05-03_11h20.48.929,FishGame,2022.1.1,59.99462448158363,
,38,넌 확고해,3,Green,B,4.708333333333334,4.566666666666666,ScrollUp,ScrollDown,Green.png,4,Neutral,Neutral,0,0,0,0,,,,,,,,,,,,,,,,,,,,,,,,,0,37,37,37,,,,,,,,,,,,,,,,,,,,,,,,,,,,,,,,,,,,,,,,,,,,,,,,,,,,,,,,,,,,,,,,,,,,,,,,,1.9552469154198964,0.9093785000004573,588.4368847999995,None,ScrollUp,정답입니다,588.4368847999995,None,588.4368847999995,None,588.4368847999995,None,588.4368847999995,None,589.2148038999994,None,589.2148038999994,589.7278999999999,,,,,,,,,,,,,,,,207,2022-05-03_11h20.48.929,FishGame,2022.1.1,59.99462448158363,
,39,넌 이해심이 많아,1,Green,B,6.041666666666668,5.533333333333333,ScrollUp,ScrollDown,Green.png,4,Positive,Incongruent,0,0,0,0,,,,,,,,,,,,,,,,,,,,,,,,,0,38,38,38,,,,,,,,,,,,,,,,,,,,,,,,,,,,,,,,,,,,,,,,,,,,,,,,,,,,,,,,,,,,,,,,,,,,,,,,,1.8271604826052983,0.8222517000003791,590.3820366999998,None,ScrollUp,정답입니다,590.3820366999998,None,590.3820366999998,None,590.3820366999998,None,590.3820366999998,None,591.0776988999996,None,591.0776988999996,591.5776491999995,,,,,,,,,,,,,,,,207,2022-05-03_11h20.48.929,FishGame,2022.1.1,59.99462448158363,
,40,나를 보내줘,6,Orange,A,0,0,ScrollUp,ScrollDown,Orange.png,4,NonTarget,NonTarget,0,0,0,0,,,,,,,,,,,,,,,,,,,,,,,,,0,39,39,39,,,,,,,,,,,,,,,,,,,,,,,,,,,,,,,,,,,,,,,,,,,,,,,,,,,,,,,,,,,,,,,,,,,,,,,,,2,1.1995500000002721,592.2317647,None,ScrollUp,정답입니다,592.2317647,None,592.2317647,None,592.2317647,None,592.2317647,None,593.2990772000003,None,593.2990772000003,593.8105820999999,,,,,,,,,,,,,,,,207,2022-05-03_11h20.48.929,FishGame,2022.1.1,59.99462448158363,
,41,넌 거칠어,4,Orange,A,2.625,3.033333333333333,ScrollDown,ScrollUp,Orange.png,4,Negative,Incongruent,0,0,0,0,,,,,,,,,,,,,,,,,,,,,,,,,0,40,40,40,,,,,,,,,,,,,,,,,,,,,,,,,,,,,,,,,,,,,,,,,,,,,,,,,,,,,,,,,,,,,,,,,,,,,,,,,1,1.4517203000004884,594.4709414999998,None,ScrollDown,정답입니다,594.4709414999998,None,594.4709414999998,None,594.4709414999998,None,594.4709414999998,None,595.7841431999996,None,595.7841431999996,596.2936103000002,,,,,,,,,,,,,,,,207,2022-05-03_11h20.48.929,FishGame,2022.1.1,59.99462448158363,
,42,넌 변덕맞아,5,Green,B,2.75,2.166666666666667,ScrollUp,ScrollDown,Green.png,4,Negative,Congruent,0,0,0,0,,,,,,,,,,,,,,,,,,,,,,,,,0,41,41,41,,,,,,,,,,,,,,,,,,,,,,,,,,,,,,,,,,,,,,,,,,,,,,,,,,,,,,,,,,,,,,,,,,,,,,,,,2,0.9729909000006955,596.9581639999997,None,ScrollUp,정답입니다,596.9581639999997,None,596.9581639999997,None,596.9581639999997,None,596.9581639999997,None,597.7877895000001,None,597.7877895000001,598.2933898000001,,,,,,,,,,,,,,,,207,2022-05-03_11h20.48.929,FishGame,2022.1.1,59.99462448158363,
,43,나를 데려가줘,6,Green,B,0,0,ScrollDown,ScrollUp,Green.png,4,NonTarget,NonTarget,0,0,0,0,,,,,,,,,,,,,,,,,,,,,,,,,0,42,42,42,,,,,,,,,,,,,,,,,,,,,,,,,,,,,,,,,,,,,,,,,,,,,,,,,,,,,,,,,,,,,,,,,,,,,,,,,1,1.2064768999998705,598.9451429000001,None,ScrollDown,정답입니다,598.9451429000001,None,598.9451429000001,None,598.9451429000001,None,598.9451429000001,None,600.0267887999998,None,600.0267887999998,600.5264516999996,,,,,,,,,,,,,,,,207,2022-05-03_11h20.48.929,FishGame,2022.1.1,59.99462448158363,
,44,넌 외로워,4,Green,B,2.833333333333333,3.3,ScrollUp,ScrollDown,Green.png,4,Negative,Congruent,0,0,0,0,,,,,,,,,,,,,,,,,,,,,,,,,0,43,43,43,,,,,,,,,,,,,,,,,,,,,,,,,,,,,,,,,,,,,,,,,,,,,,,,,,,,,,,,,,,,,,,,,,,,,,,,,2,1.3518948000000819,601.1812142999997,None,ScrollUp,정답입니다,601.1812142999997,None,601.1812142999997,None,601.1812142999997,None,601.1812142999997,None,602.3996175000002,None,602.3996175000002,602.9094528999995,,,,,,,,,,,,,,,,207,2022-05-03_11h20.48.929,FishGame,2022.1.1,59.99462448158363,
,1,넌 불평스러워,5,Orange,A,2.25,2.066666666666667,ScrollDown,ScrollUp,Orange.png,5,Negative,Incongruent,0,0,0,0,,,,,,,,,,,,,,,,,,,,,,,,,,,,,0,0,0,0,,,,,,,,,,,,,,,,,,,,,,,,,,,,636.6720324999997,638.1716002000003,638.2049853999997,639.1548367999994,639.2048396999999,640.1547331000002,640.1547331000002,None,,,,,,,,,,,,,,,,,,,,,,,,,,,,,,,,,,1.1126543233791988,1.4998600999997507,641.3575624999994,None,ScrollDown,정답입니다,641.3575624999994,None,641.3575624999994,None,641.3575624999994,None,641.3575624999994,None,642.6641776999995,None,642.6641776999995,643.1709801999996,603.4094018999995,None,603.4094018999995,None,0.058333334,-0.062962964,1,0,0,0.0162327699990783,None,633.4221450999994,None,,,207,2022-05-03_11h20.48.929,FishGame,2022.1.1,59.99462448158363,
,2,나를 보내줘,6,Orange,A,0,0,ScrollUp,ScrollDown,Orange.png,5,NonTarget,NonTarget,0,0,0,0,,,,,,,,,,,,,,,,,,,,,,,,,,,,,0,1,1,1,,,,,,,,,,,,,,,,,,,,,,,,,,,,,,,,,,,,,,,,,,,,,,,,,,,,,,,,,,,,,,,,,,,,,1.7376543233791986,1.0868452000004254,643.8302131999999,None,ScrollUp,정답입니다,643.8302131999999,None,643.8302131999999,None,643.8302131999999,None,643.8302131999999,None,644.7808433,None,644.7808433,645.2873743,,,,,,,,,,,,,,,,207,2022-05-03_11h20.48.929,FishGame,2022.1.1,59.99462448158363,
,3,넌 다재다능해,2,Green,B,6.208333333333333,4.5,ScrollUp,ScrollDown,Green.png,5,Positive,Incongruent,0,0,0,0,,,,,,,,,,,,,,,,,,,,,,,,,,,,,0,2,2,2,,,,,,,,,,,,,,,,,,,,,,,,,,,,,,,,,,,,,,,,,,,,,,,,,,,,,,,,,,,,,,,,,,,,,2,0.9791811999994025,645.9360766,None,ScrollUp,정답입니다,645.9360766,None,645.9360766,None,645.9360766,None,645.9360766,None,646.7890351999995,None,646.7890351999995,647.3037591000002,,,,,,,,,,,,,,,,207,2022-05-03_11h20.48.929,FishGame,2022.1.1,59.99462448158363,
,4,넌 과감해,3,Orange,A,4.833333333333334,4.6,ScrollDown,ScrollUp,Orange.png,5,Neutral,Neutral,0,0,0,0,,,,,,,,,,,,,,,,,,,,,,,,,,,,,0,3,3,3,,,,,,,,,,,,,,,,,,,,,,,,,,,,,,,,,,,,,,,,,,,,,,,,,,,,,,,,,,,,,,,,,,,,,1.0648148159186046,0.7705136999993556,647.9619044000001,None,ScrollDown,정답입니다,647.9619044000001,None,647.9619044000001,None,647.9619044000001,None,647.9619044000001,None,648.5965215999995,None,648.5965215999995,649.1036447999995,,,,,,,,,,,,,,,,207,2022-05-03_11h20.48.929,FishGame,2022.1.1,59.99462448158363,
,5,넌 고분고분해,3,Green,B,3.75,4.033333333333333,ScrollUp,ScrollDown,Green.png,5,Neutral,Neutral,0,0,0,0,,,,,,,,,,,,,,,,,,,,,,,,,,,,,0,4,4,4,,,,,,,,,,,,,,,,,,,,,,,,,,,,,,,,,,,,,,,,,,,,,,,,,,,,,,,,,,,,,,,,,,,,,1.8472222139437993,0.750891199999387,649.7588780999995,None,ScrollUp,정답입니다,649.7588780999995,None,649.7588780999995,None,649.7588780999995,None,649.7588780999995,None,650.3777080999998,None,650.3777080999998,650.8867484000002,,,,,,,,,,,,,,,,207,2022-05-03_11h20.48.929,FishGame,2022.1.1,59.99462448158363,
,6,나를 보내줘,6,Orange,A,0,0,ScrollUp,ScrollDown,Orange.png,5,NonTarget,NonTarget,0,0,0,0,,,,,,,,,,,,,,,,,,,,,,,,,,,,,0,5,5,5,,,,,,,,,,,,,,,,,,,,,,,,,,,,,,,,,,,,,,,,,,,,,,,,,,,,,,,,,,,,,,,,,,,,,1.9814815024534862,0.9831002999999328,651.5454310999994,None,ScrollUp,정답입니다,651.5454310999994,None,651.5454310999994,None,651.5454310999994,None,651.5454310999994,None,652.3913973999997,None,652.3913973999997,652.9031709000001,,,,,,,,,,,,,,,,207,2022-05-03_11h20.48.929,FishGame,2022.1.1,59.99462448158363,
,7,넌 잘 잊어,4,Orange,A,3,3.7,ScrollDown,ScrollUp,Orange.png,5,Negative,Incongruent,0,0,0,0,,,,,,,,,,,,,,,,,,,,,,,,,,,,,0,6,6,6,,,,,,,,,,,,,,,,,,,,,,,,,,,,,,,,,,,,,,,,,,,,,,,,,,,,,,,,,,,,,,,,,,,,,1.1466049303611119,0.9326907000004212,653.5711267999995,None,ScrollDown,정답입니다,653.5711267999995,None,653.5711267999995,None,653.5711267999995,None,653.5711267999995,None,654.3580100999998,None,654.3580100999998,654.8695010000001,,,,,,,,,,,,,,,,207,2022-05-03_11h20.48.929,FishGame,2022.1.1,59.99462448158363,
,8,넌 탐구심이없어,4,Green,B,2.833333333333333,3.066666666666667,ScrollUp,ScrollDown,Green.png,5,Negative,Congruent,0,0,0,0,,,,,,,,,,,,,,,,,,,,,,,,,,,,,0,7,7,7,,,,,,,,,,,,,,,,,,,,,,,,,,,,,,,,,,,,,,,,,,,,,,,,,,,,,,,,,,,,,,,,,,,,,1.9228395223617554,0.9316662999999608,655.5266740999996,None,ScrollUp,정답입니다,655.5266740999996,None,655.5266740999996,None,655.5266740999996,None,655.5266740999996,None,656.3241734000003,None,656.3241734000003,656.8359706000001,,,,,,,,,,,,,,,,207,2022-05-03_11h20.48.929,FishGame,2022.1.1,59.99462448158363,
,9,나를 데려가줘,6,Green,B,0,0,ScrollDown,ScrollUp,Green.png,5,NonTarget,NonTarget,0,0,0,0,,,,,,,,,,,,,,,,,,,,,,,,,,,,,0,8,8,8,,,,,,,,,,,,,,,,,,,,,,,,,,,,,,,,,,,,,,,,,,,,,,,,,,,,,,,,,,,,,,,,,,,,,1.2546296318372092,1.0496859000004406,657.4918158999999,None,ScrollDown,정답입니다,657.4918158999999,None,657.4918158999999,None,657.4918158999999,None,657.4918158999999,None,658.4092718000002,None,658.4092718000002,658.9189131000003,,,,,,,,,,,,,,,,207,2022-05-03_11h20.48.929,FishGame,2022.1.1,59.99462448158363,
,10,넌 참되어,2,Orange,A,6.041666666666664,4.733333333333333,ScrollDown,ScrollUp,Orange.png,5,Positive,Congruent,0,0,0,0,,,,,,,,,,,,,,,,,,,,,,,,,,,,,0,9,9,9,,,,,,,,,,,,,,,,,,,,,,,,,,,,,,,,,,,,,,,,,,,,,,,,,,,,,,,,,,,,,,,,,,,,,2,0.9878787000006923,659.5792155999998,None,ScrollUp,오답입니다,659.5792155999998,None,659.5792155999998,None,659.5792155999998,None,659.5792155999998,None,660.4312070999995,None,660.4312070999995,660.9353777999995,,,,,,,,,,,,,,,,207,2022-05-03_11h20.48.929,FishGame,2022.1.1,59.99462448158363,
,11,넌 생기있어,1,Green,B,5.875,5.633333333333334,ScrollUp,ScrollDown,Green.png,5,Positive,Incongruent,0,0,0,0,,,,,,,,,,,,,,,,,,,,,,,,,,,,,0,10,10,10,,,,,,,,,,,,,,,,,,,,,,,,,,,,,,,,,,,,,,,,,,,,,,,,,,,,,,,,,,,,,,,,,,,,,2,2.9937034000004132,661.5895017000003,None,ScrollUp,정답입니다,661.5895017000003,None,661.5895017000003,None,661.5895017000003,None,661.5895017000003,None,664.4524467000001,None,664.4524467000001,664.9515819999997,,,,,,,,,,,,,,,,207,2022-05-03_11h20.48.929,FishGame,2022.1.1,59.99462448158363,
,12,넌 비사교적이야,4,Green,B,2.875,2.9,ScrollUp,ScrollDown,Green.png,5,Negative,Congruent,0,0,0,0,,,,,,,,,,,,,,,,,,,,,,,,,,,,,0,11,11,11,,,,,,,,,,,,,,,,,,,,,,,,,,,,,,,,,,,,,,,,,,,,,,,,,,,,,,,,,,,,,,,,,,,,,1.663580241302649,1.0103363000007448,665.6255756,None,ScrollUp,정답입니다,665.6255756,None,665.6255756,None,665.6255756,None,665.6255756,None,666.5013847999999,None,666.5013847999999,667.0012373999998,,,,,,,,,,,,,,,,207,2022-05-03_11h20.48.929,FishGame,2022.1.1,59.99462448158363,
,13,나를 데려가줘,6,Green,B,0,0,ScrollDown,ScrollUp,Green.png,5,NonTarget,NonTarget,0,0,0,0,,,,,,,,,,,,,,,,,,,,,,,,,,,,,0,12,12,12,,,,,,,,,,,,,,,,,,,,,,,,,,,,,,,,,,,,,,,,,,,,,,,,,,,,,,,,,,,,,,,,,,,,,1,1.3600005999996938,667.6484119999996,None,ScrollDown,정답입니다,667.6484119999996,None,667.6484119999996,None,667.6484119999996,None,667.6484119999996,None,668.8844631000002,None,668.8844631000002,669.3843842999995,,,,,,,,,,,,,,,,207,2022-05-03_11h20.48.929,FishGame,2022.1.1,59.99462448158363,
,14,넌 고독해,4,Orange,A,2.916666666666667,3.233333333333333,ScrollDown,ScrollUp,Orange.png,5,Negative,Incongruent,0,0,0,0,,,,,,,,,,,,,,,,,,,,,,,,,,,,,0,13,13,13,,,,,,,,,,,,,,,,,,,,,,,,,,,,,,,,,,,,,,,,,,,,,,,,,,,,,,,,,,,,,,,,,,,,,1.0756172637144725,1.3628363000007084,670.0435122999997,None,ScrollDown,정답입니다,670.0435122999997,None,670.0435122999997,None,670.0435122999997,None,670.0435122999997,None,671.2726041999995,None,671.2726041999995,671.7840811999995,,,,,,,,,,,,,,,,207,2022-05-03_11h20.48.929,FishGame,2022.1.1,59.99462448158363,
,15,넌 신경질적이야,5,Green,B,2.375,2.233333333333333,ScrollUp,ScrollDown,Green.png,5,Negative,Congruent,0,0,0,0,,,,,,,,,,,,,,,,,,,,,,,,,,,,,0,14,14,14,,,,,,,,,,,,,,,,,,,,,,,,,,,,,,,,,,,,,,,,,,,,,,,,,,,,,,,,,,,,,,,,,,,,,1.7978395173947017,1.5015279999997801,672.4463908999996,None,ScrollUp,정답입니다,672.4463908999996,None,672.4463908999996,None,672.4463908999996,None,672.4463908999996,None,673.8073900999998,None,673.8073900999998,674.3170485999999,,,,,,,,,,,,,,,,207,2022-05-03_11h20.48.929,FishGame,2022.1.1,59.99462448158363,
,16,넌 똑똑해,2,Green,B,5.666666666666667,3.966666666666667,ScrollUp,ScrollDown,Green.png,5,Positive,Incongruent,0,0,0,0,,,,,,,,,,,,,,,,,,,,,,,,,,,,,0,15,15,15,,,,,,,,,,,,,,,,,,,,,,,,,,,,,,,,,,,,,,,,,,,,,,,,,,,,,,,,,,,,,,,,,,,,,1.9182098805904388,0.8722662999998647,674.9701790999998,None,ScrollUp,정답입니다,674.9701790999998,None,674.9701790999998,None,674.9701790999998,None,674.9701790999998,None,675.7101948,None,675.7101948,676.2168806,,,,,,,,,,,,,,,,207,2022-05-03_11h20.48.929,FishGame,2022.1.1,59.99462448158363,
,17,나를 보내줘,6,Orange,A,0,0,ScrollUp,ScrollDown,Orange.png,5,NonTarget,NonTarget,0,0,0,0,,,,,,,,,,,,,,,,,,,,,,,,,,,,,0,16,16,16,,,,,,,,,,,,,,,,,,,,,,,,,,,,,,,,,,,,,,,,,,,,,,,,,,,,,,,,,,,,,,,,,,,,,2,1.1152423000003182,676.8712679999999,None,ScrollUp,정답입니다,676.8712679999999,None,676.8712679999999,None,676.8712679999999,None,676.8712679999999,None,677.8546919,None,677.8546919,678.3665984999998,,,,,,,,,,,,,,,,207,2022-05-03_11h20.48.929,FishGame,2022.1.1,59.99462448158363,
,18,넌 협조적이야,1,Orange,A,5.625,5.666666666666667,ScrollDown,ScrollUp,Orange.png,5,Positive,Congruent,0,0,0,0,,,,,,,,,,,,,,,,,,,,,,,,,,,,,0,17,17,17,,,,,,,,,,,,,,,,,,,,,,,,,,,,,,,,,,,,,,,,,,,,,,,,,,,,,,,,,,,,,,,,,,,,,1.1033950646718342,1.7433290999997553,679.0262725000002,None,ScrollDown,정답입니다,679.0262725000002,None,679.0262725000002,None,679.0262725000002,None,679.0262725000002,None,680.6329280999998,None,680.6329280999998,681.1327032999998,,,,,,,,,,,,,,,,207,2022-05-03_11h20.48.929,FishGame,2022.1.1,59.99462448158363,
,19,나를 데려가줘,6,Green,B,0,0,ScrollDown,ScrollUp,Green.png,5,NonTarget,NonTarget,0,0,0,0,,,,,,,,,,,,,,,,,,,,,,,,,,,,,0,18,18,18,,,,,,,,,,,,,,,,,,,,,,,,,,,,,,,,,,,,,,,,,,,,,,,,,,,,,,,,,,,,,,,,,,,,,1.1342592686414719,4.300886000000901,681.7850137999994,None,ScrollDown,정답입니다,681.7850137999994,None,681.7850137999994,None,681.7850137999994,None,681.7850137999994,None,685.9566758000001,None,685.9566758000001,686.4655538999996,,,,,,,,,,,,,,,,207,2022-05-03_11h20.48.929,FishGame,2022.1.1,59.99462448158363,
