name,TrialNum,Word,WordCategory,FishType,WordList,WordValence,WordReputation,CorrectResp,IncorrectResp,FishTypeFile,Round,WordType,Condition,LoopforOrange.thisRepN,LoopforOrange.thisTrialN,LoopforOrange.thisN,LoopforOrange.thisIndex,LoopForGreen.thisRepN,LoopForGreen.thisTrialN,LoopForGreen.thisN,LoopForGreen.thisIndex,GreenInstLoop.thisRepN,GreenInstLoop.thisTrialN,GreenInstLoop.thisN,GreenInstLoop.thisIndex,GreenPrac.thisRepN,GreenPrac.thisTrialN,GreenPrac.thisN,GreenPrac.thisIndex,trials_2.thisRepN,trials_2.thisTrialN,trials_2.thisN,trials_2.thisIndex,GreenRound1.thisRepN,GreenRound1.thisTrialN,GreenRound1.thisN,GreenRound1.thisIndex,GreenRound2.thisRepN,GreenRound2.thisTrialN,GreenRound2.thisN,GreenRound2.thisIndex,GreenRound3.thisRepN,GreenRound3.thisTrialN,GreenRound3.thisN,GreenRound3.thisIndex,GreenRound4.thisRepN,GreenRound4.thisTrialN,GreenRound4.thisN,GreenRound4.thisIndex,GreenRound5.thisRepN,GreenRound5.thisTrialN,GreenRound5.thisN,GreenRound5.thisIndex,text_2.started,text_2.stopped,text_3.started,text_3.stopped,key_resp.keys,key_resp.rt,key_resp.started,key_resp.stopped,PassI.started,PassI.stopped,PassInst.keys,PassInst.rt,PassInst.started,PassInst.stopped,mouse_2.x,mouse_2.y,mouse_2.leftButton,mouse_2.midButton,mouse_2.rightButton,mouse_2.started,mouse_2.stopped,image.started,image.stopped,text_5.started,text_5.stopped,text_6.started,text_6.stopped,text_7.started,text_7.stopped,text_8.started,text_8.stopped,slider_3.response,slider_3.rt,slider_3.started,slider_3.stopped,Response_3,Feedback_3,BackGround_3.started,BackGround_3.stopped,Fish_3.started,Fish_3.stopped,WordBox_3.started,WordBox_3.stopped,Words_3.started,Words_3.stopped,BackGround_Feedback_3.started,BackGround_Feedback_3.stopped,Feedbacks_3.started,Feedbacks_3.stopped,Continue_or_not_2.keys,Continue_or_not_2.rt,Continue_or_not_2.started,Continue_or_not_2.stopped,image_4.started,image_4.stopped,mouse_3.x,mouse_3.y,mouse_3.leftButton,mouse_3.midButton,mouse_3.rightButton,mouse_3.started,mouse_3.stopped,startmain.started,startmain.stopped,slider_4.response,slider_4.rt,slider_4.started,slider_4.stopped,Response_4,Feedback_4,BackGround_4.started,BackGround_4.stopped,Fish_4.started,Fish_4.stopped,WordBox_4.started,WordBox_4.stopped,Words_4.started,Words_4.stopped,BackGround_Feedback_4.started,BackGround_Feedback_4.stopped,Feedbacks_4.started,Feedbacks_4.stopped,text.started,text.stopped,break_interval.started,break_interval.stopped,mouse.x,mouse.y,mouse.leftButton,mouse.midButton,mouse.rightButton,mouse.started,mouse.stopped,stratnextround.started,stratnextround.stopped,endgame.started,endgame.stopped,participant,date,expName,psychopyVersion,frameRate,
,,,,,,,,,,,,,,,,,,,,,,,,,,,,,,,,,,,,,,,,,,,,,,,,,,,,,,19.99571040000592,None,19.99571040000592,None,space,3.8447520000045188,20.463380100001814,None,,,,,,,,,,,,,,,,,,,,,,,,,,,,,,,,,,,,,,,,,,,,,,,,,,,,,,,,,,,,,,,,,,,,,,,,,,,,,,,,,,,,,,,,,,208,2022-05-04_15h03.37.362,FishGame,2022.1.1,60.00484838850131,
물고기과제_instruction(참가자용)GreenVersion.mp4,,,,,,,,,,,,,,,,,,0,0,0,0,0,0,0,0,,,,,,,,,,,,,,,,,,,,,,,,,,,,,,,,,,,,,91.64460739999777,None,n,9.624557200004347,91.64460739999777,None,,,,,,,,,,,,,,,,,,,,,,,,,,,,,,,,,,,,,,,,,,,,,,,,,,,,,,,,,,,,,,,,,,,,,,,,,,,,,,,,,,,,208,2022-05-04_15h03.37.362,FishGame,2022.1.1,60.00484838850131,
,1,넌 교활해,5,Orange,B,2.333333333333333,2.133333333333333,ScrollUp,ScrollDown,Orange.png,practice,,,,,,,0,0,0,0,,,,,0,0,0,0,0,0,0,0,,,,,,,,,,,,,,,,,,,,,,,,,,,,,,,,,,,0.041666668,-0.23333333,1,0,0,0.5134035999944899,None,101.28625089999696,None,106.76934450000408,108.2689207999938,108.30213530000765,109.25210159999551,109.30210149999766,110.25184349999472,110.25184349999472,None,1.8518518557151158,1.3399914000037825,111.4598682000069,None,ScrollUp,정답입니다,111.4598682000069,None,111.4598682000069,None,111.4598682000069,None,111.4598682000069,None,112.60768899999675,None,112.60768899999675,113.11804509999638,,,,,,,,,,,,,,,,,,,,,,,,,,,,,,,,,,,,,,,,,,,,,,,,,208,2022-05-04_15h03.37.362,FishGame,2022.1.1,60.00484838850131,
,2,넌 슬기로워,2,Green,A,6.166666666666667,4.1,ScrollDown,ScrollUp,Green.png,practice,,,,,,,0,0,0,0,,,,,0,0,0,0,0,1,1,1,,,,,,,,,,,,,,,,,,,,,,,,,,,,,,,,,,,,,,,,,,,,,,,,,,,,1,1.2145846000057645,113.7819645999989,None,ScrollDown,정답입니다,113.7819645999989,None,113.7819645999989,None,113.7819645999989,None,113.7819645999989,None,114.85515560000204,None,114.85515560000204,115.36790769999789,,,,,,,,,,,,,,,,,,,,,,,,,,,,,,,,,,,,,,,,,,,,,,,,,208,2022-05-04_15h03.37.362,FishGame,2022.1.1,60.00484838850131,
,3,나를 보내줘,6,Green,A,0,0,ScrollUp,ScrollDown,Green.png,practice,,,,,,,0,0,0,0,,,,,0,0,0,0,0,2,2,2,,,,,,,,,,,,,,,,,,,,,,,,,,,,,,,,,,,,,,,,,,,,,,,,,,,,1.8101851791143417,1.1654821999982232,116.01474589999998,None,ScrollUp,정답입니다,116.01474589999998,None,116.01474589999998,None,116.01474589999998,None,116.01474589999998,None,117.0558272000053,None,117.0558272000053,117.56756039999891,,,,,,,,,,,,,,,,,,,,,,,,,,,,,,,,,,,,,,,,,,,,,,,,,208,2022-05-04_15h03.37.362,FishGame,2022.1.1,60.00484838850131,
,4,나를 데려가줘,6,Orange,B,0,0,ScrollDown,ScrollUp,Orange.png,practice,,,,,,,0,0,0,0,,,,,0,0,0,0,0,3,3,3,,,,,,,,,,,,,,,,,,,,,,,,,,,,,,,,,,,,,,,,,,,,,,,,,,,,1,1.3041809999995166,118.22471290000249,None,ScrollDown,정답입니다,118.22471290000249,None,118.22471290000249,None,118.22471290000249,None,118.22471290000249,None,119.39440570000443,None,119.39440570000443,119.90045600000303,,,,,,,,,,,,,,,,,,,,,,,,,,,,,,,,,,,,,,,,,,,,,,,,,208,2022-05-04_15h03.37.362,FishGame,2022.1.1,60.00484838850131,
,1,넌 교활해,5,Orange,B,2.333333333333333,2.133333333333333,ScrollUp,ScrollDown,Orange.png,practice,,,,,,,0,0,0,0,,,,,0,0,0,0,,,,,,,,,,,,,,,,,,,,,,,,,,,,,,,,,,,,,,,,,,,,,,,,,,,,,,,,,,,,,,,,,,,,,,,,,,n,4.235649200010812,120.4003922999982,None,120.4003922999982,None,,,,,,,,,,,,,,,,,,,,,,,,,,,,,,,,,,,,,,,,,,,208,2022-05-04_15h03.37.362,FishGame,2022.1.1,60.00484838850131,
,1,넌 따뜻해,1,Orange,B,6.083333333333333,5.6,ScrollUp,ScrollDown,Orange.png,1,Positive,Incongruent,,,,,0,0,0,0,,,,,,,,,,,,,0,0,0,0,,,,,,,,,,,,,,,,,,,,,,,,,,,,,,,,,,,,,,,,127.93295899999794,129.4325794000033,129.46589839999797,130.41593560000183,130.46596489999502,131.41578870000376,131.41578870000376,None,,,,,,,,,,,,,,,,,,,,,,,,,0.013888889,-0.11851852,1,0,0,0.3136869000009028,None,124.66659950000758,None,1.787037044763565,1.3909711000014795,132.63062080000236,None,ScrollUp,정답입니다,132.63062080000236,None,132.63062080000236,None,132.63062080000236,None,132.63062080000236,None,133.82163930000388,None,133.82163930000388,134.33196650000173,,,,,,,,,,,,,,,,208,2022-05-04_15h03.37.362,FishGame,2022.1.1,60.00484838850131,
,2,넌 기품있어,2,Orange,B,5.791666666666668,4.5,ScrollUp,ScrollDown,Orange.png,1,Positive,Incongruent,,,,,0,0,0,0,,,,,,,,,,,,,0,1,1,1,,,,,,,,,,,,,,,,,,,,,,,,,,,,,,,,,,,,,,,,,,,,,,,,,,,,,,,,,,,,,,,,,,,,,,,,,,,,,,,,,1.9490740597248077,1.1343314999976428,135.00181030000385,None,ScrollUp,정답입니다,135.00181030000385,None,135.00181030000385,None,135.00181030000385,None,135.00181030000385,None,135.98782179999398,None,135.98782179999398,136.49845260000438,,,,,,,,,,,,,,,,208,2022-05-04_15h03.37.362,FishGame,2022.1.1,60.00484838850131,
,3,나를 보내줘,6,Green,A,0,0,ScrollUp,ScrollDown,Green.png,1,NonTarget,NonTarget,,,,,0,0,0,0,,,,,,,,,,,,,0,2,2,2,,,,,,,,,,,,,,,,,,,,,,,,,,,,,,,,,,,,,,,,,,,,,,,,,,,,,,,,,,,,,,,,,,,,,,,,,,,,,,,,,1.6882716019948325,1.151389399994514,137.16336669999873,None,ScrollUp,정답입니다,137.16336669999873,None,137.16336669999873,None,137.16336669999873,None,137.16336669999873,None,138.17262250000203,None,138.17262250000203,138.68133590000798,,,,,,,,,,,,,,,,208,2022-05-04_15h03.37.362,FishGame,2022.1.1,60.00484838850131,
,4,넌 수동적이야,4,Green,A,2.833333333333333,2.933333333333333,ScrollDown,ScrollUp,Green.png,1,Negative,Incongruent,,,,,0,0,0,0,,,,,,,,,,,,,0,3,3,3,,,,,,,,,,,,,,,,,,,,,,,,,,,,,,,,,,,,,,,,,,,,,,,,,,,,,,,,,,,,,,,,,,,,,,,,,,,,,,,,,1.0293209950129192,1.2465557999967132,139.35323120000248,None,ScrollDown,정답입니다,139.35323120000248,None,139.35323120000248,None,139.35323120000248,None,139.35323120000248,None,140.4508887999982,None,140.4508887999982,140.9646223000018,,,,,,,,,,,,,,,,208,2022-05-04_15h03.37.362,FishGame,2022.1.1,60.00484838850131,
,5,넌 사심이 없어,3,Orange,B,4.916666666666666,4.333333333333333,ScrollUp,ScrollDown,Orange.png,1,Neutral,Neutral,,,,,0,0,0,0,,,,,,,,,,,,,0,4,4,4,,,,,,,,,,,,,,,,,,,,,,,,,,,,,,,,,,,,,,,,,,,,,,,,,,,,,,,,,,,,,,,,,,,,,,,,,,,,,,,,,2,1.1444035999884363,141.63423120000516,None,ScrollUp,정답입니다,141.63423120000516,None,141.63423120000516,None,141.63423120000516,None,141.63423120000516,None,142.6323046000034,None,142.6323046000034,143.14761070000532,,,,,,,,,,,,,,,,208,2022-05-04_15h03.37.362,FishGame,2022.1.1,60.00484838850131,
,6,넌 헤퍼,5,Green,A,2.458333333333334,2.233333333333333,ScrollDown,ScrollUp,Green.png,1,Negative,Incongruent,,,,,0,0,0,0,,,,,,,,,,,,,0,5,5,5,,,,,,,,,,,,,,,,,,,,,,,,,,,,,,,,,,,,,,,,,,,,,,,,,,,,,,,,,,,,,,,,,,,,,,,,,,,,,,,,,1,1.132072899999912,143.80441280000377,None,ScrollDown,정답입니다,143.80441280000377,None,143.80441280000377,None,143.80441280000377,None,143.80441280000377,None,144.8015718999959,None,144.8015718999959,145.3140970999957,,,,,,,,,,,,,,,,208,2022-05-04_15h03.37.362,FishGame,2022.1.1,60.00484838850131,
,7,넌 말쑥해,3,Green,A,4.833333333333334,4.333333333333333,ScrollDown,ScrollUp,Green.png,1,Neutral,Neutral,,,,,0,0,0,0,,,,,,,,,,,,,0,6,6,6,,,,,,,,,,,,,,,,,,,,,,,,,,,,,,,,,,,,,,,,,,,,,,,,,,,,,,,,,,,,,,,,,,,,,,,,,,,,,,,,,1,1.1005169999989448,145.9647546000051,None,ScrollDown,정답입니다,145.9647546000051,None,145.9647546000051,None,145.9647546000051,None,145.9647546000051,None,146.93698110000696,None,146.93698110000696,147.44712640000216,,,,,,,,,,,,,,,,208,2022-05-04_15h03.37.362,FishGame,2022.1.1,60.00484838850131,
,8,넌 투덜거려,5,Orange,B,2.541666666666667,2.266666666666667,ScrollUp,ScrollDown,Orange.png,1,Negative,Congruent,,,,,0,0,0,0,,,,,,,,,,,,,0,7,7,7,,,,,,,,,,,,,,,,,,,,,,,,,,,,,,,,,,,,,,,,,,,,,,,,,,,,,,,,,,,,,,,,,,,,,,,,,,,,,,,,,2,1.077196800004458,148.12140610000642,None,ScrollUp,정답입니다,148.12140610000642,None,148.12140610000642,None,148.12140610000642,None,148.12140610000642,None,149.04338040000584,None,149.04338040000584,149.54680130000634,,,,,,,,,,,,,,,,208,2022-05-04_15h03.37.362,FishGame,2022.1.1,60.00484838850131,
,9,넌 적극적이야,1,Green,A,5.708333333333333,5.533333333333333,ScrollDown,ScrollUp,Green.png,1,Positive,Congruent,,,,,0,0,0,0,,,,,,,,,,,,,0,8,8,8,,,,,,,,,,,,,,,,,,,,,,,,,,,,,,,,,,,,,,,,,,,,,,,,,,,,,,,,,,,,,,,,,,,,,,,,,,,,,,,,,1.0108024775981903,1.2067422999971313,150.20271159999538,None,ScrollDown,정답입니다,150.20271159999538,None,150.20271159999538,None,150.20271159999538,None,150.20271159999538,None,151.27395990000514,None,151.27395990000514,151.77973049999855,,,,,,,,,,,,,,,,208,2022-05-04_15h03.37.362,FishGame,2022.1.1,60.00484838850131,
,10,넌 재미없어,4,Orange,B,2.625,2.966666666666667,ScrollUp,ScrollDown,Orange.png,1,Negative,Congruent,,,,,0,0,0,0,,,,,,,,,,,,,0,9,9,9,,,,,,,,,,,,,,,,,,,,,,,,,,,,,,,,,,,,,,,,,,,,,,,,,,,,,,,,,,,,,,,,,,,,,,,,,,,,,,,,,2,1.0222839000052772,152.44755510000687,None,ScrollUp,정답입니다,152.44755510000687,None,152.44755510000687,None,152.44755510000687,None,152.44755510000687,None,153.32933229999617,None,153.32933229999617,153.82953889999771,,,,,,,,,,,,,,,,208,2022-05-04_15h03.37.362,FishGame,2022.1.1,60.00484838850131,
,11,넌 명석해,2,Green,A,5.875,4.033333333333333,ScrollDown,ScrollUp,Green.png,1,Positive,Congruent,,,,,0,0,0,0,,,,,,,,,,,,,0,10,10,10,,,,,,,,,,,,,,,,,,,,,,,,,,,,,,,,,,,,,,,,,,,,,,,,,,,,,,,,,,,,,,,,,,,,,,,,,,,,,,,,,1,1.0816406999947503,154.48763499999768,None,ScrollDown,정답입니다,154.48763499999768,None,154.48763499999768,None,154.48763499999768,None,154.48763499999768,None,155.43371260000276,None,155.43371260000276,155.9458333000075,,,,,,,,,,,,,,,,208,2022-05-04_15h03.37.362,FishGame,2022.1.1,60.00484838850131,
,12,나를 데려가줘,6,Orange,B,0,0,ScrollDown,ScrollUp,Orange.png,1,NonTarget,NonTarget,,,,,0,0,0,0,,,,,,,,,,,,,0,11,11,11,,,,,,,,,,,,,,,,,,,,,,,,,,,,,,,,,,,,,,,,,,,,,,,,,,,,,,,,,,,,,,,,,,,,,,,,,,,,,,,,,1.2469135870536168,1.3026036999945063,156.62030320000486,None,ScrollDown,정답입니다,156.62030320000486,None,156.62030320000486,None,156.62030320000486,None,156.62030320000486,None,157.7711479999998,None,157.7711479999998,158.27885909999895,,,,,,,,,,,,,,,,208,2022-05-04_15h03.37.362,FishGame,2022.1.1,60.00484838850131,
,13,넌 소심해,4,Green,A,3,3.1,ScrollDown,ScrollUp,Green.png,1,Negative,Incongruent,,,,,0,0,0,0,,,,,,,,,,,,,0,12,12,12,,,,,,,,,,,,,,,,,,,,,,,,,,,,,,,,,,,,,,,,,,,,,,,,,,,,,,,,,,,,,,,,,,,,,,,,,,,,,,,,,1,1.2763746999989962,158.93561699999555,None,ScrollDown,정답입니다,158.93561699999555,None,158.93561699999555,None,158.93561699999555,None,158.93561699999555,None,160.074615000005,None,160.074615000005,160.5787008000043,,,,,,,,,,,,,,,,208,2022-05-04_15h03.37.362,FishGame,2022.1.1,60.00484838850131,
,14,넌 합리적이야,2,Green,A,5.583333333333333,4.733333333333333,ScrollDown,ScrollUp,Green.png,1,Positive,Congruent,,,,,0,0,0,0,,,,,,,,,,,,,0,13,13,13,,,,,,,,,,,,,,,,,,,,,,,,,,,,,,,,,,,,,,,,,,,,,,,,,,,,,,,,,,,,,,,,,,,,,,,,,,,,,,,,,1,1.0967295000009472,161.2366827000078,None,ScrollDown,정답입니다,161.2366827000078,None,161.2366827000078,None,161.2366827000078,None,161.2366827000078,None,162.19841100000485,None,162.19841100000485,162.71177219999663,,,,,,,,,,,,,,,,208,2022-05-04_15h03.37.362,FishGame,2022.1.1,60.00484838850131,
,15,넌 무자비해,5,Orange,B,2.333333333333333,2.1,ScrollUp,ScrollDown,Orange.png,1,Negative,Congruent,,,,,0,0,0,0,,,,,,,,,,,,,0,14,14,14,,,,,,,,,,,,,,,,,,,,,,,,,,,,,,,,,,,,,,,,,,,,,,,,,,,,,,,,,,,,,,,,,,,,,,,,,,,,,,,,,2,1.0045033000060357,163.38050899999507,None,ScrollUp,정답입니다,163.38050899999507,None,163.38050899999507,None,163.38050899999507,None,163.38050899999507,None,164.23882640000375,None,164.23882640000375,164.74470080000174,,,,,,,,,,,,,,,,208,2022-05-04_15h03.37.362,FishGame,2022.1.1,60.00484838850131,
,16,나를 보내줘,6,Green,A,0,0,ScrollUp,ScrollDown,Green.png,1,NonTarget,NonTarget,,,,,0,0,0,0,,,,,,,,,,,,,0,15,15,15,,,,,,,,,,,,,,,,,,,,,,,,,,,,,,,,,,,,,,,,,,,,,,,,,,,,,,,,,,,,,,,,,,,,,,,,,,,,,,,,,1.9614197711149852,1.1417943999986164,165.39388810000673,None,ScrollUp,정답입니다,165.39388810000673,None,165.39388810000673,None,165.39388810000673,None,165.39388810000673,None,166.41126000000804,None,166.41126000000804,166.91121940000448,,,,,,,,,,,,,,,,208,2022-05-04_15h03.37.362,FishGame,2022.1.1,60.00484838850131,
,17,넌 현실적이야,3,Orange,B,4.608695652173913,4.766666666666667,ScrollUp,ScrollDown,Orange.png,1,Neutral,Neutral,,,,,0,0,0,0,,,,,,,,,,,,,0,16,16,16,,,,,,,,,,,,,,,,,,,,,,,,,,,,,,,,,,,,,,,,,,,,,,,,,,,,,,,,,,,,,,,,,,,,,,,,,,,,,,,,,2,1.040460099990014,167.58291110000573,None,ScrollUp,정답입니다,167.58291110000573,None,167.58291110000573,None,167.58291110000573,None,167.58291110000573,None,168.4776855999953,None,168.4776855999953,168.9775318000029,,,,,,,,,,,,,,,,208,2022-05-04_15h03.37.362,FishGame,2022.1.1,60.00484838850131,
,18,넌 의리있어,1,Orange,B,5.833333333333334,5.633333333333334,ScrollUp,ScrollDown,Orange.png,1,Positive,Incongruent,,,,,0,0,0,0,,,,,,,,,,,,,0,17,17,17,,,,,,,,,,,,,,,,,,,,,,,,,,,,,,,,,,,,,,,,,,,,,,,,,,,,,,,,,,,,,,,,,,,,,,,,,,,,,,,,,2,0.9566806000075303,169.639168099995,None,ScrollUp,정답입니다,169.639168099995,None,169.639168099995,None,169.639168099995,None,169.639168099995,None,170.46066120000614,None,170.46066120000614,170.96062539999548,,,,,,,,,,,,,,,,208,2022-05-04_15h03.37.362,FishGame,2022.1.1,60.00484838850131,
,19,넌 신경과민이야,5,Green,A,2.541666666666667,2.166666666666667,ScrollDown,ScrollUp,Green.png,1,Negative,Incongruent,,,,,0,0,0,0,,,,,,,,,,,,,0,18,18,18,,,,,,,,,,,,,,,,,,,,,,,,,,,,,,,,,,,,,,,,,,,,,,,,,,,,,,,,,,,,,,,,,,,,,,,,,,,,,,,,,1,0.9899586000101408,171.6248287000053,None,ScrollDown,정답입니다,171.6248287000053,None,171.6248287000053,None,171.6248287000053,None,171.6248287000053,None,172.47724419999577,None,172.47724419999577,172.9771108999994,,,,,,,,,,,,,,,,208,2022-05-04_15h03.37.362,FishGame,2022.1.1,60.00484838850131,
,20,넌 편안해,1,Green,A,5.916666666666666,5.866666666666666,ScrollDown,ScrollUp,Green.png,1,Positive,Congruent,,,,,0,0,0,0,,,,,,,,,,,,,0,19,19,19,,,,,,,,,,,,,,,,,,,,,,,,,,,,,,,,,,,,,,,,,,,,,,,,,,,,,,,,,,,,,,,,,,,,,,,,,,,,,,,,,1,1.029644800000824,173.63384969999606,None,ScrollDown,정답입니다,173.63384969999606,None,173.63384969999606,None,173.63384969999606,None,173.63384969999606,None,174.53003730000637,None,174.53003730000637,175.04341899999417,,,,,,,,,,,,,,,,208,2022-05-04_15h03.37.362,FishGame,2022.1.1,60.00484838850131,
,21,넌 품위있어,2,Orange,B,5.291666666666666,4.466666666666667,ScrollUp,ScrollDown,Orange.png,1,Positive,Incongruent,,,,,0,0,0,0,,,,,,,,,,,,,0,20,20,20,,,,,,,,,,,,,,,,,,,,,,,,,,,,,,,,,,,,,,,,,,,,,,,,,,,,,,,,,,,,,,,,,,,,,,,,,,,,,,,,,2,0.9553215999912936,175.7047875999997,None,ScrollUp,정답입니다,175.7047875999997,None,175.7047875999997,None,175.7047875999997,None,175.7047875999997,None,176.51969060000556,None,176.51969060000556,177.0265078999946,,,,,,,,,,,,,,,,208,2022-05-04_15h03.37.362,FishGame,2022.1.1,60.00484838850131,
,22,넌 빈틈없어,3,Green,A,4.833333333333333,3.966666666666667,ScrollDown,ScrollUp,Green.png,1,Neutral,Neutral,,,,,0,0,0,0,,,,,,,,,,,,,0,21,21,21,,,,,,,,,,,,,,,,,,,,,,,,,,,,,,,,,,,,,,,,,,,,,,,,,,,,,,,,,,,,,,,,,,,,,,,,,,,,,,,,,1,1.010539399998379,177.68502030000673,None,ScrollDown,정답입니다,177.68502030000673,None,177.68502030000673,None,177.68502030000673,None,177.68502030000673,None,178.56069779999962,None,178.56069779999962,179.07626770000206,,,,,,,,,,,,,,,,208,2022-05-04_15h03.37.362,FishGame,2022.1.1,60.00484838850131,
,23,넌 상상력없어,4,Orange,B,2.833333333333333,3.133333333333333,ScrollUp,ScrollDown,Orange.png,1,Negative,Congruent,,,,,0,0,0,0,,,,,,,,,,,,,0,22,22,22,,,,,,,,,,,,,,,,,,,,,,,,,,,,,,,,,,,,,,,,,,,,,,,,,,,,,,,,,,,,,,,,,,,,,,,,,,,,,,,,,2,1.0178161000076216,179.73947030000272,None,ScrollUp,정답입니다,179.73947030000272,None,179.73947030000272,None,179.73947030000272,None,179.73947030000272,None,180.6163649999944,None,180.6163649999944,181.12598609999986,,,,,,,,,,,,,,,,208,2022-05-04_15h03.37.362,FishGame,2022.1.1,60.00484838850131,
,24,넌 지혜로워,2,Orange,B,6.333333333333334,4.633333333333334,ScrollUp,ScrollDown,Orange.png,1,Positive,Incongruent,,,,,0,0,0,0,,,,,,,,,,,,,0,23,23,23,,,,,,,,,,,,,,,,,,,,,,,,,,,,,,,,,,,,,,,,,,,,,,,,,,,,,,,,,,,,,,,,,,,,,,,,,,,,,,,,,2,0.8952927999926032,181.7945316999976,None,ScrollUp,정답입니다,181.7945316999976,None,181.7945316999976,None,181.7945316999976,None,181.7945316999976,None,182.54265370000212,None,182.54265370000212,183.04243610000412,,,,,,,,,,,,,,,,208,2022-05-04_15h03.37.362,FishGame,2022.1.1,60.00484838850131,
,25,넌 시끄러워,4,Green,A,2.833333333333333,3.033333333333333,ScrollDown,ScrollUp,Green.png,1,Negative,Incongruent,,,,,0,0,0,0,,,,,,,,,,,,,0,24,24,24,,,,,,,,,,,,,,,,,,,,,,,,,,,,,,,,,,,,,,,,,,,,,,,,,,,,,,,,,,,,,,,,,,,,,,,,,,,,,,,,,1,1.0672259999992093,183.705661400003,None,ScrollDown,정답입니다,183.705661400003,None,183.705661400003,None,183.705661400003,None,183.705661400003,None,184.6327472999983,None,184.6327472999983,185.1421243000077,,,,,,,,,,,,,,,,208,2022-05-04_15h03.37.362,FishGame,2022.1.1,60.00484838850131,
,26,넌 만사태평이야,3,Orange,B,4,4.333333333333333,ScrollUp,ScrollDown,Orange.png,1,Neutral,Neutral,,,,,0,0,0,0,,,,,,,,,,,,,0,25,25,25,,,,,,,,,,,,,,,,,,,,,,,,,,,,,,,,,,,,,,,,,,,,,,,,,,,,,,,,,,,,,,,,,,,,,,,,,,,,,,,,,2,0.9771253999933833,185.81140629999572,None,ScrollUp,정답입니다,185.81140629999572,None,185.81140629999572,None,185.81140629999572,None,185.81140629999572,None,186.641955900006,None,186.641955900006,187.14194859999407,,,,,,,,,,,,,,,,208,2022-05-04_15h03.37.362,FishGame,2022.1.1,60.00484838850131,
,27,넌 붙임성있어,1,Green,A,5.708333333333333,5.633333333333334,ScrollDown,ScrollUp,Green.png,1,Positive,Congruent,,,,,0,0,0,0,,,,,,,,,,,,,0,26,26,26,,,,,,,,,,,,,,,,,,,,,,,,,,,,,,,,,,,,,,,,,,,,,,,,,,,,,,,,,,,,,,,,,,,,,,,,,,,,,,,,,1,1.018580000003567,187.80270420000306,None,ScrollDown,정답입니다,187.80270420000306,None,187.80270420000306,None,187.80270420000306,None,187.80270420000306,None,188.68258389999392,None,188.68258389999392,189.1916157999949,,,,,,,,,,,,,,,,208,2022-05-04_15h03.37.362,FishGame,2022.1.1,60.00484838850131,
,28,넌 영리해,2,Green,A,6,4.033333333333333,ScrollDown,ScrollUp,Green.png,1,Positive,Congruent,,,,,0,0,0,0,,,,,,,,,,,,,0,27,27,27,,,,,,,,,,,,,,,,,,,,,,,,,,,,,,,,,,,,,,,,,,,,,,,,,,,,,,,,,,,,,,,,,,,,,,,,,,,,,,,,,1.0030864079793294,1.0160658999957377,189.85547009999573,None,ScrollDown,정답입니다,189.85547009999573,None,189.85547009999573,None,189.85547009999573,None,189.85547009999573,None,190.73072120000143,None,190.73072120000143,191.24135320000642,,,,,,,,,,,,,,,,208,2022-05-04_15h03.37.362,FishGame,2022.1.1,60.00484838850131,
,29,넌 열심이야,1,Orange,B,6.041666666666667,5.833333333333333,ScrollUp,ScrollDown,Orange.png,1,Positive,Incongruent,,,,,0,0,0,0,,,,,,,,,,,,,0,28,28,28,,,,,,,,,,,,,,,,,,,,,,,,,,,,,,,,,,,,,,,,,,,,,,,,,,,,,,,,,,,,,,,,,,,,,,,,,,,,,,,,,2,0.9109555000031833,191.90348000000813,None,ScrollUp,정답입니다,191.90348000000813,None,191.90348000000813,None,191.90348000000813,None,191.90348000000813,None,192.67128979999688,None,192.67128979999688,193.17453010000463,,,,,,,,,,,,,,,,208,2022-05-04_15h03.37.362,FishGame,2022.1.1,60.00484838850131,
,30,넌 인기없어,4,Orange,B,3,3.3,ScrollUp,ScrollDown,Orange.png,1,Negative,Congruent,,,,,0,0,0,0,,,,,,,,,,,,,0,29,29,29,,,,,,,,,,,,,,,,,,,,,,,,,,,,,,,,,,,,,,,,,,,,,,,,,,,,,,,,,,,,,,,,,,,,,,,,,,,,,,,,,2,0.9610324999957811,193.83710099999735,None,ScrollUp,정답입니다,193.83710099999735,None,193.83710099999735,None,193.83710099999735,None,193.83710099999735,None,194.65805369999725,None,194.65805369999725,195.15745319999405,,,,,,,,,,,,,,,,208,2022-05-04_15h03.37.362,FishGame,2022.1.1,60.00484838850131,
,31,넌 익살스러워,3,Green,A,4.708333333333334,4.833333333333333,ScrollDown,ScrollUp,Green.png,1,Neutral,Neutral,,,,,0,0,0,0,,,,,,,,,,,,,0,30,30,30,,,,,,,,,,,,,,,,,,,,,,,,,,,,,,,,,,,,,,,,,,,,,,,,,,,,,,,,,,,,,,,,,,,,,,,,,,,,,,,,,1,1.0498293999989983,195.81797859999642,None,ScrollDown,정답입니다,195.81797859999642,None,195.81797859999642,None,195.81797859999642,None,195.81797859999642,None,196.72982599999523,None,196.72982599999523,197.2405121000047,,,,,,,,,,,,,,,,208,2022-05-04_15h03.37.362,FishGame,2022.1.1,60.00484838850131,
,32,넌 이기적이야,5,Orange,B,2.291666666666667,2.333333333333333,ScrollUp,ScrollDown,Orange.png,1,Negative,Congruent,,,,,0,0,0,0,,,,,,,,,,,,,0,31,31,31,,,,,,,,,,,,,,,,,,,,,,,,,,,,,,,,,,,,,,,,,,,,,,,,,,,,,,,,,,,,,,,,,,,,,,,,,,,,,,,,,1.8657407313585281,1.0349203000077978,197.8966012000019,None,ScrollUp,정답입니다,197.8966012000019,None,197.8966012000019,None,197.8966012000019,None,197.8966012000019,None,198.79754149999644,None,198.79754149999644,199.30698069999926,,,,,,,,,,,,,,,,208,2022-05-04_15h03.37.362,FishGame,2022.1.1,60.00484838850131,
,33,나를 데려가줘,6,Orange,B,0,0,ScrollDown,ScrollUp,Orange.png,1,NonTarget,NonTarget,,,,,0,0,0,0,,,,,,,,,,,,,0,32,32,32,,,,,,,,,,,,,,,,,,,,,,,,,,,,,,,,,,,,,,,,,,,,,,,,,,,,,,,,,,,,,,,,,,,,,,,,,,,,,,,,,1,1.2362009000062244,199.96485210000537,None,ScrollDown,정답입니다,199.96485210000537,None,199.96485210000537,None,199.96485210000537,None,199.96485210000537,None,201.06528029999754,None,201.06528029999754,201.57333980000112,,,,,,,,,,,,,,,,208,2022-05-04_15h03.37.362,FishGame,2022.1.1,60.00484838850131,
,34,넌 기회주의자야,5,Green,A,2.875,2.133333333333333,ScrollDown,ScrollUp,Green.png,1,Negative,Incongruent,,,,,0,0,0,0,,,,,,,,,,,,,0,33,33,33,,,,,,,,,,,,,,,,,,,,,,,,,,,,,,,,,,,,,,,,,,,,,,,,,,,,,,,,,,,,,,,,,,,,,,,,,,,,,,,,,1,1.1271863000001758,202.23547159999725,None,ScrollDown,정답입니다,202.23547159999725,None,202.23547159999725,None,202.23547159999725,None,202.23547159999725,None,203.2233116999996,None,203.2233116999996,203.72315360000357,,,,,,,,,,,,,,,,208,2022-05-04_15h03.37.362,FishGame,2022.1.1,60.00484838850131,
,1,넌 미성숙해,4,Green,A,3,3.2,ScrollDown,ScrollUp,Green.png,2,Negative,Incongruent,,,,,0,0,0,0,,,,,,,,,,,,,,,,,0,0,0,0,,,,,,,,,,,,,,,,,,,,,,,,,,,,,,,,,,,,237.55233030000818,239.05194809999375,239.0852973000001,240.03519989999768,240.08510179999575,241.0350407000078,241.0350407000078,None,,,,,,,,,,,,,,,,,,,,,,,,,,,,,,,,,,1,1.1245498999924166,242.22783689999778,None,ScrollDown,정답입니다,242.22783689999778,None,242.22783689999778,None,242.22783689999778,None,242.22783689999778,None,243.16937590000452,None,243.16937590000452,243.68458509999618,204.2230394000071,None,204.2230394000071,None,0.10555556,-0.09351852,1,0,0,0.01604739998583682,None,234.23591899999883,None,,,208,2022-05-04_15h03.37.362,FishGame,2022.1.1,60.00484838850131,
,2,넌 반사회적이야,5,Orange,B,2.416666666666667,2.033333333333333,ScrollUp,ScrollDown,Orange.png,2,Negative,Congruent,,,,,0,0,0,0,,,,,,,,,,,,,,,,,0,1,1,1,,,,,,,,,,,,,,,,,,,,,,,,,,,,,,,,,,,,,,,,,,,,,,,,,,,,,,,,,,,,,,,,,,,,,,,,,,,,,2,0.9936737000098219,244.34839569999895,None,ScrollUp,정답입니다,244.34839569999895,None,244.34839569999895,None,244.34839569999895,None,244.34839569999895,None,245.20095490000676,None,245.20095490000676,245.7010106999951,,,,,,,,,,,,,,,,208,2022-05-04_15h03.37.362,FishGame,2022.1.1,60.00484838850131,
,3,넌 유능해,2,Green,A,6.208333333333333,4.433333333333334,ScrollDown,ScrollUp,Green.png,2,Positive,Congruent,,,,,0,0,0,0,,,,,,,,,,,,,,,,,0,2,2,2,,,,,,,,,,,,,,,,,,,,,,,,,,,,,,,,,,,,,,,,,,,,,,,,,,,,,,,,,,,,,,,,,,,,,,,,,,,,,1,1.0232782999955816,246.3595803000062,None,ScrollDown,정답입니다,246.3595803000062,None,246.3595803000062,None,246.3595803000062,None,246.3595803000062,None,247.24489679999533,None,247.24489679999533,247.7507523999957,,,,,,,,,,,,,,,,208,2022-05-04_15h03.37.362,FishGame,2022.1.1,60.00484838850131,
,4,넌 능숙해,2,Orange,B,5.666666666666667,4.733333333333333,ScrollUp,ScrollDown,Orange.png,2,Positive,Incongruent,,,,,0,0,0,0,,,,,,,,,,,,,,,,,0,3,3,3,,,,,,,,,,,,,,,,,,,,,,,,,,,,,,,,,,,,,,,,,,,,,,,,,,,,,,,,,,,,,,,,,,,,,,,,,,,,,2,0.8900524000055157,248.40675560000818,None,ScrollUp,정답입니다,248.40675560000818,None,248.40675560000818,None,248.40675560000818,None,248.40675560000818,None,249.16729420000047,None,249.16729420000047,249.667297100008,,,,,,,,,,,,,,,,208,2022-05-04_15h03.37.362,FishGame,2022.1.1,60.00484838850131,
,5,넌 진부해,4,Orange,B,2.458333333333333,3.166666666666667,ScrollUp,ScrollDown,Orange.png,2,Negative,Congruent,,,,,0,0,0,0,,,,,,,,,,,,,,,,,0,4,4,4,,,,,,,,,,,,,,,,,,,,,,,,,,,,,,,,,,,,,,,,,,,,,,,,,,,,,,,,,,,,,,,,,,,,,,,,,,,,,2,0.9162940999958664,250.32998999999836,None,ScrollUp,정답입니다,250.32998999999836,None,250.32998999999836,None,250.32998999999836,None,250.32998999999836,None,251.10620680000284,None,251.10620680000284,251.616935500002,,,,,,,,,,,,,,,,208,2022-05-04_15h03.37.362,FishGame,2022.1.1,60.00484838850131,
,6,나를 보내줘,6,Green,A,0,0,ScrollUp,ScrollDown,Green.png,2,NonTarget,NonTarget,,,,,0,0,0,0,,,,,,,,,,,,,,,,,0,5,5,5,,,,,,,,,,,,,,,,,,,,,,,,,,,,,,,,,,,,,,,,,,,,,,,,,,,,,,,,,,,,,,,,,,,,,,,,,,,,,1.9182098805904388,1.095410499998252,252.2678608999995,None,ScrollUp,정답입니다,252.2678608999995,None,252.2678608999995,None,252.2678608999995,None,252.2678608999995,None,253.23376730000018,None,253.23376730000018,253.73359590000473,,,,,,,,,,,,,,,,208,2022-05-04_15h03.37.362,FishGame,2022.1.1,60.00484838850131,
,7,넌 엄격해,3,Green,A,4.166666666666666,4.1,ScrollDown,ScrollUp,Green.png,2,Neutral,Neutral,,,,,0,0,0,0,,,,,,,,,,,,,,,,,0,6,6,6,,,,,,,,,,,,,,,,,,,,,,,,,,,,,,,,,,,,,,,,,,,,,,,,,,,,,,,,,,,,,,,,,,,,,,,,,,,,,1,1.0302077999949688,254.39257730000827,None,ScrollDown,정답입니다,254.39257730000827,None,254.39257730000827,None,254.39257730000827,None,254.39257730000827,None,255.28828000000794,None,255.28828000000794,255.7997955000028,,,,,,,,,,,,,,,,208,2022-05-04_15h03.37.362,FishGame,2022.1.1,60.00484838850131,
,8,나를 보내줘,6,Green,A,0,0,ScrollUp,ScrollDown,Green.png,2,NonTarget,NonTarget,,,,,0,0,0,0,,,,,,,,,,,,,,,,,0,7,7,7,,,,,,,,,,,,,,,,,,,,,,,,,,,,,,,,,,,,,,,,,,,,,,,,,,,,,,,,,,,,,,,,,,,,,,,,,,,,,1.983024666706721,0.9888221999863163,256.4513850999938,None,ScrollUp,정답입니다,256.4513850999938,None,256.4513850999938,None,256.4513850999938,None,256.4513850999938,None,257.30966250000347,None,257.30966250000347,257.81624179999926,,,,,,,,,,,,,,,,208,2022-05-04_15h03.37.362,FishGame,2022.1.1,60.00484838850131,
,9,넌 대담해,3,Orange,B,4.875,4.866666666666666,ScrollUp,ScrollDown,Orange.png,2,Neutral,Neutral,,,,,0,0,0,0,,,,,,,,,,,,,,,,,0,8,8,8,,,,,,,,,,,,,,,,,,,,,,,,,,,,,,,,,,,,,,,,,,,,,,,,,,,,,,,,,,,,,,,,,,,,,,,,,,,,,2,1.0056821000034688,258.48118010000326,None,ScrollUp,정답입니다,258.48118010000326,None,258.48118010000326,None,258.48118010000326,None,258.48118010000326,None,259.3493657000072,None,259.3493657000072,259.84922679999727,,,,,,,,,,,,,,,,208,2022-05-04_15h03.37.362,FishGame,2022.1.1,60.00484838850131,
,10,넌 꾸준해,1,Green,A,5.916666666666668,5.8,ScrollDown,ScrollUp,Green.png,2,Positive,Congruent,,,,,0,0,0,0,,,,,,,,,,,,,,,,,0,9,9,9,,,,,,,,,,,,,,,,,,,,,,,,,,,,,,,,,,,,,,,,,,,,,,,,,,,,,,,,,,,,,,,,,,,,,,,,,,,,,1,0.9944369000004372,260.5072940999962,None,ScrollDown,정답입니다,260.5072940999962,None,260.5072940999962,None,260.5072940999962,None,260.5072940999962,None,261.365796099999,None,261.365796099999,261.8657123000012,,,,,,,,,,,,,,,,208,2022-05-04_15h03.37.362,FishGame,2022.1.1,60.00484838850131,
,11,나를 데려가줘,6,Orange,B,0,0,ScrollDown,ScrollUp,Orange.png,2,NonTarget,NonTarget,,,,,0,0,0,0,,,,,,,,,,,,,,,,,0,10,10,10,,,,,,,,,,,,,,,,,,,,,,,,,,,,,,,,,,,,,,,,,,,,,,,,,,,,,,,,,,,,,,,,,,,,,,,,,,,,,1.2222222139437993,1.90044179999677,262.52321899999515,None,ScrollDown,정답입니다,262.52321899999515,None,262.52321899999515,None,262.52321899999515,None,262.52321899999515,None,264.28847020000103,None,264.28847020000103,264.7986741000059,,,,,,,,,,,,,,,,208,2022-05-04_15h03.37.362,FishGame,2022.1.1,60.00484838850131,
,12,넌 독선적이야,5,Green,A,2.458333333333333,1.933333333333333,ScrollDown,ScrollUp,Green.png,2,Negative,Incongruent,,,,,0,0,0,0,,,,,,,,,,,,,,,,,0,11,11,11,,,,,,,,,,,,,,,,,,,,,,,,,,,,,,,,,,,,,,,,,,,,,,,,,,,,,,,,,,,,,,,,,,,,,,,,,,,,,1,1.0339602000021841,265.4599006000062,None,ScrollDown,정답입니다,265.4599006000062,None,265.4599006000062,None,265.4599006000062,None,265.4599006000062,None,266.355126800001,None,266.355126800001,266.86511460000474,,,,,,,,,,,,,,,,208,2022-05-04_15h03.37.362,FishGame,2022.1.1,60.00484838850131,
,13,나를 보내줘,6,Green,A,0,0,ScrollUp,ScrollDown,Green.png,2,NonTarget,NonTarget,,,,,0,0,0,0,,,,,,,,,,,,,,,,,0,12,12,12,,,,,,,,,,,,,,,,,,,,,,,,,,,,,,,,,,,,,,,,,,,,,,,,,,,,,,,,,,,,,,,,,,,,,,,,,,,,,1.8009259204069774,1.0434176999988267,267.5177888000035,None,ScrollUp,정답입니다,267.5177888000035,None,267.5177888000035,None,267.5177888000035,None,267.5177888000035,None,268.43162430000666,None,268.43162430000666,268.93146390000766,,,,,,,,,,,,,,,,208,2022-05-04_15h03.37.362,FishGame,2022.1.1,60.00484838850131,
,14,넌 책임감있어,1,Orange,B,6.347826086956522,6,ScrollUp,ScrollDown,Orange.png,2,Positive,Incongruent,,,,,0,0,0,0,,,,,,,,,,,,,,,,,0,13,13,13,,,,,,,,,,,,,,,,,,,,,,,,,,,,,,,,,,,,,,,,,,,,,,,,,,,,,,,,,,,,,,,,,,,,,,,,,,,,,1.879629631837209,1.057125699997414,269.5963272999943,None,ScrollUp,정답입니다,269.5963272999943,None,269.5963272999943,None,269.5963272999943,None,269.5963272999943,None,270.5148033000005,None,270.5148033000005,271.01446869999927,,,,,,,,,,,,,,,,208,2022-05-04_15h03.37.362,FishGame,2022.1.1,60.00484838850131,
,15,넌 문학적이야,3,Green,A,4.708333333333334,4.333333333333333,ScrollDown,ScrollUp,Green.png,2,Neutral,Neutral,,,,,0,0,0,0,,,,,,,,,,,,,,,,,0,14,14,14,,,,,,,,,,,,,,,,,,,,,,,,,,,,,,,,,,,,,,,,,,,,,,,,,,,,,,,,,,,,,,,,,,,,,,,,,,,,,1.0586419602235158,1.0166831999958958,271.6735156000068,None,ScrollDown,정답입니다,271.6735156000068,None,271.6735156000068,None,271.6735156000068,None,271.6735156000068,None,272.5546331000078,None,272.5546331000078,273.0641203999985,,,,,,,,,,,,,,,,208,2022-05-04_15h03.37.362,FishGame,2022.1.1,60.00484838850131,
,16,넌 재미있어,1,Orange,B,5.875,5.7,ScrollUp,ScrollDown,Orange.png,2,Positive,Incongruent,,,,,0,0,0,0,,,,,,,,,,,,,,,,,0,15,15,15,,,,,,,,,,,,,,,,,,,,,,,,,,,,,,,,,,,,,,,,,,,,,,,,,,,,,,,,,,,,,,,,,,,,,,,,,,,,,1.9089506218830745,1.1052980999957072,273.7224833000073,None,ScrollUp,정답입니다,273.7224833000073,None,273.7224833000073,None,273.7224833000073,None,273.7224833000073,None,274.69074370000453,None,274.69074370000453,275.19722460000776,,,,,,,,,,,,,,,,208,2022-05-04_15h03.37.362,FishGame,2022.1.1,60.00484838850131,
,17,나를 데려가줘,6,Orange,B,0,0,ScrollDown,ScrollUp,Orange.png,2,NonTarget,NonTarget,,,,,0,0,0,0,,,,,,,,,,,,,,,,,0,16,16,16,,,,,,,,,,,,,,,,,,,,,,,,,,,,,,,,,,,,,,,,,,,,,,,,,,,,,,,,,,,,,,,,,,,,,,,,,,,,,1,1.1668420000059996,275.85435419999703,None,ScrollDown,정답입니다,275.85435419999703,None,275.85435419999703,None,275.85435419999703,None,275.85435419999703,None,276.886805800008,None,276.886805800008,277.39708369999425,,,,,,,,,,,,,,,,208,2022-05-04_15h03.37.362,FishGame,2022.1.1,60.00484838850131,
,18,넌 협력적이야,1,Green,A,5.625,5.633333333333334,ScrollDown,ScrollUp,Green.png,2,Positive,Congruent,,,,,0,0,0,0,,,,,,,,,,,,,,,,,0,17,17,17,,,,,,,,,,,,,,,,,,,,,,,,,,,,,,,,,,,,,,,,,,,,,,,,,,,,,,,,,,,,,,,,,,,,,,,,,,,,,1.0308642089366913,1.0428645000065444,278.055105499996,None,ScrollDown,정답입니다,278.055105499996,None,278.055105499996,None,278.055105499996,None,278.055105499996,None,278.96356849999574,None,278.96356849999574,279.463402399997,,,,,,,,,,,,,,,,208,2022-05-04_15h03.37.362,FishGame,2022.1.1,60.00484838850131,
,19,넌 평범해,3,Orange,B,4.333333333333332,4.233333333333333,ScrollUp,ScrollDown,Orange.png,2,Neutral,Neutral,,,,,0,0,0,0,,,,,,,,,,,,,,,,,0,18,18,18,,,,,,,,,,,,,,,,,,,,,,,,,,,,,,,,,,,,,,,,,,,,,,,,,,,,,,,,,,,,,,,,,,,,,,,,,,,,,2,1.0520862999983365,280.1307522999996,None,ScrollUp,정답입니다,280.1307522999996,None,280.1307522999996,None,280.1307522999996,None,280.1307522999996,None,281.0360217999987,None,281.0360217999987,281.5465633999993,,,,,,,,,,,,,,,,208,2022-05-04_15h03.37.362,FishGame,2022.1.1,60.00484838850131,
,20,넌 오만해,5,Green,A,2.333333333333333,2,ScrollDown,ScrollUp,Green.png,2,Negative,Incongruent,,,,,0,0,0,0,,,,,,,,,,,,,,,,,0,19,19,19,,,,,,,,,,,,,,,,,,,,,,,,,,,,,,,,,,,,,,,,,,,,,,,,,,,,,,,,,,,,,,,,,,,,,,,,,,,,,1,1.1180714000074659,282.20456480000576,None,ScrollDown,정답입니다,282.20456480000576,None,282.20456480000576,None,282.20456480000576,None,282.20456480000576,None,283.1871046000015,None,283.1871046000015,283.69630350000807,,,,,,,,,,,,,,,,208,2022-05-04_15h03.37.362,FishGame,2022.1.1,60.00484838850131,
,21,넌 운이없어,4,Orange,B,3,3.466666666666667,ScrollUp,ScrollDown,Orange.png,2,Negative,Congruent,,,,,0,0,0,0,,,,,,,,,,,,,,,,,0,20,20,20,,,,,,,,,,,,,,,,,,,,,,,,,,,,,,,,,,,,,,,,,,,,,,,,,,,,,,,,,,,,,,,,,,,,,,,,,,,,,2,0.9157744999974966,284.35955330000434,None,ScrollUp,정답입니다,284.35955330000434,None,284.35955330000434,None,284.35955330000434,None,284.35955330000434,None,285.13478049999685,None,285.13478049999685,285.6461779999954,,,,,,,,,,,,,,,,208,2022-05-04_15h03.37.362,FishGame,2022.1.1,60.00484838850131,
,22,넌 창조적이야,2,Orange,B,6.125,4.633333333333334,ScrollUp,ScrollDown,Orange.png,2,Positive,Incongruent,,,,,0,0,0,0,,,,,,,,,,,,,,,,,0,21,21,21,,,,,,,,,,,,,,,,,,,,,,,,,,,,,,,,,,,,,,,,,,,,,,,,,,,,,,,,,,,,,,,,,,,,,,,,,,,,,2,0.9255938999995124,286.30384239999694,None,ScrollUp,정답입니다,286.30384239999694,None,286.30384239999694,None,286.30384239999694,None,286.30384239999694,None,287.0960269000061,None,287.0960269000061,287.5957694999961,,,,,,,,,,,,,,,,208,2022-05-04_15h03.37.362,FishGame,2022.1.1,60.00484838850131,
,23,나를 보내줘,6,Green,A,0,0,ScrollUp,ScrollDown,Green.png,2,NonTarget,NonTarget,,,,,0,0,0,0,,,,,,,,,,,,,,,,,0,22,22,22,,,,,,,,,,,,,,,,,,,,,,,,,,,,,,,,,,,,,,,,,,,,,,,,,,,,,,,,,,,,,,,,,,,,,,,,,,,,,1.8009259204069774,1.0197107999993023,288.2457909000077,None,ScrollUp,정답입니다,288.2457909000077,None,288.2457909000077,None,288.2457909000077,None,288.2457909000077,None,289.13763969999854,None,289.13763969999854,289.64553560000786,,,,,,,,,,,,,,,,208,2022-05-04_15h03.37.362,FishGame,2022.1.1,60.00484838850131,
,24,넌 통찰력있어,2,Green,A,6.5,4.8,ScrollDown,ScrollUp,Green.png,2,Positive,Congruent,,,,,0,0,0,0,,,,,,,,,,,,,,,,,0,23,23,23,,,,,,,,,,,,,,,,,,,,,,,,,,,,,,,,,,,,,,,,,,,,,,,,,,,,,,,,,,,,,,,,,,,,,,,,,,,,,1,0.9851831999985734,290.3033779999969,None,ScrollDown,정답입니다,290.3033779999969,None,290.3033779999969,None,290.3033779999969,None,290.3033779999969,None,291.1518425999966,None,291.1518425999966,291.66182090000075,,,,,,,,,,,,,,,,208,2022-05-04_15h03.37.362,FishGame,2022.1.1,60.00484838850131,
,25,넌 경솔해,5,Orange,B,2.458333333333333,2.266666666666667,ScrollUp,ScrollDown,Orange.png,2,Negative,Congruent,,,,,0,0,0,0,,,,,,,,,,,,,,,,,0,24,24,24,,,,,,,,,,,,,,,,,,,,,,,,,,,,,,,,,,,,,,,,,,,,,,,,,,,,,,,,,,,,,,,,,,,,,,,,,,,,,2,0.8805129999964265,292.32198459999927,None,ScrollUp,정답입니다,292.32198459999927,None,292.32198459999927,None,292.32198459999927,None,292.32198459999927,None,293.0648346999951,None,293.0648346999951,293.5782862000051,,,,,,,,,,,,,,,,208,2022-05-04_15h03.37.362,FishGame,2022.1.1,60.00484838850131,
,26,넌 초조해,4,Green,A,2.916666666666667,3.133333333333333,ScrollDown,ScrollUp,Green.png,2,Negative,Incongruent,,,,,0,0,0,0,,,,,,,,,,,,,,,,,0,25,25,25,,,,,,,,,,,,,,,,,,,,,,,,,,,,,,,,,,,,,,,,,,,,,,,,,,,,,,,,,,,,,,,,,,,,,,,,,,,,,1,0.9903630999906454,294.2317963999958,None,ScrollDown,정답입니다,294.2317963999958,None,294.2317963999958,None,294.2317963999958,None,294.2317963999958,None,295.09470679999504,None,295.09470679999504,295.5946916999965,,,,,,,,,,,,,,,,208,2022-05-04_15h03.37.362,FishGame,2022.1.1,60.00484838850131,
,27,넌 무관심해,4,Orange,B,2.833333333333333,2.9,ScrollUp,ScrollDown,Orange.png,2,Negative,Congruent,,,,,0,0,0,0,,,,,,,,,,,,,,,,,0,26,26,26,,,,,,,,,,,,,,,,,,,,,,,,,,,,,,,,,,,,,,,,,,,,,,,,,,,,,,,,,,,,,,,,,,,,,,,,,,,,,2,0.9451037000108045,296.2590259999997,None,ScrollUp,정답입니다,296.2590259999997,None,296.2590259999997,None,296.2590259999997,None,296.2590259999997,None,297.062957999995,None,297.062957999995,297.5777883999981,,,,,,,,,,,,,,,,208,2022-05-04_15h03.37.362,FishGame,2022.1.1,60.00484838850131,
,28,넌 감성적이야,3,Orange,B,4.125,4.166666666666667,ScrollUp,ScrollDown,Orange.png,2,Neutral,Neutral,,,,,0,0,0,0,,,,,,,,,,,,,,,,,0,27,27,27,,,,,,,,,,,,,,,,,,,,,,,,,,,,,,,,,,,,,,,,,,,,,,,,,,,,,,,,,,,,,,,,,,,,,,,,,,,,,2,0.8831434000021545,298.23520120000467,None,ScrollUp,정답입니다,298.23520120000467,None,298.23520120000467,None,298.23520120000467,None,298.23520120000467,None,298.98265780000656,None,298.98265780000656,299.4942848000064,,,,,,,,,,,,,,,,208,2022-05-04_15h03.37.362,FishGame,2022.1.1,60.00484838850131,
,29,넌 배려심있어,1,Green,A,6.083333333333333,5.5,ScrollDown,ScrollUp,Green.png,2,Positive,Congruent,,,,,0,0,0,0,,,,,,,,,,,,,,,,,0,28,28,28,,,,,,,,,,,,,,,,,,,,,,,,,,,,,,,,,,,,,,,,,,,,,,,,,,,,,,,,,,,,,,,,,,,,,,,,,,,,,1,1.505840799989528,300.15518470000825,None,ScrollDown,정답입니다,300.15518470000825,None,300.15518470000825,None,300.15518470000825,None,300.15518470000825,None,301.5273678999947,None,301.5273678999947,302.0272052000073,,,,,,,,,,,,,,,,208,2022-05-04_15h03.37.362,FishGame,2022.1.1,60.00484838850131,
,30,넌 숨김없어,3,Green,A,4.5,4.933333333333334,ScrollDown,ScrollUp,Green.png,2,Neutral,Neutral,,,,,0,0,0,0,,,,,,,,,,,,,,,,,0,29,29,29,,,,,,,,,,,,,,,,,,,,,,,,,,,,,,,,,,,,,,,,,,,,,,,,,,,,,,,,,,,,,,,,,,,,,,,,,,,,,1,0.9603547999868169,302.686646400005,None,ScrollDown,정답입니다,302.686646400005,None,302.686646400005,None,302.686646400005,None,302.686646400005,None,303.50643670000136,None,303.50643670000136,304.01026949999505,,,,,,,,,,,,,,,,208,2022-05-04_15h03.37.362,FishGame,2022.1.1,60.00484838850131,
,31,넌 훌륭해,2,Orange,B,5.916666666666667,4.033333333333333,ScrollUp,ScrollDown,Orange.png,2,Positive,Incongruent,,,,,0,0,0,0,,,,,,,,,,,,,,,,,0,30,30,30,,,,,,,,,,,,,,,,,,,,,,,,,,,,,,,,,,,,,,,,,,,,,,,,,,,,,,,,,,,,,,,,,,,,,,,,,,,,,2,0.9070121999975527,304.69342910000705,None,ScrollUp,정답입니다,304.69342910000705,None,304.69342910000705,None,304.69342910000705,None,304.69342910000705,None,305.44351430000097,None,305.44351430000097,305.9436515999987,,,,,,,,,,,,,,,,208,2022-05-04_15h03.37.362,FishGame,2022.1.1,60.00484838850131,
,32,넌 슬기로워,2,Green,A,6.166666666666667,4.1,ScrollDown,ScrollUp,Green.png,2,Positive,Congruent,,,,,0,0,0,0,,,,,,,,,,,,,,,,,0,31,31,31,,,,,,,,,,,,,,,,,,,,,,,,,,,,,,,,,,,,,,,,,,,,,,,,,,,,,,,,,,,,,,,,,,,,,,,,,,,,,1,0.9782319000078132,306.60085190000245,None,ScrollDown,정답입니다,306.60085190000245,None,306.60085190000245,None,306.60085190000245,None,306.60085190000245,None,307.445361200007,None,307.445361200007,307.9598122000025,,,,,,,,,,,,,,,,208,2022-05-04_15h03.37.362,FishGame,2022.1.1,60.00484838850131,
,33,넌 냉혹해,5,Green,A,2.583333333333333,2.1,ScrollDown,ScrollUp,Green.png,2,Negative,Incongruent,,,,,0,0,0,0,,,,,,,,,,,,,,,,,0,32,32,32,,,,,,,,,,,,,,,,,,,,,,,,,,,,,,,,,,,,,,,,,,,,,,,,,,,,,,,,,,,,,,,,,,,,,,,,,,,,,1,0.9899099000031129,308.6177447000082,None,ScrollDown,정답입니다,308.6177447000082,None,308.6177447000082,None,308.6177447000082,None,308.6177447000082,None,309.47663000000466,None,309.47663000000466,309.97622630000114,,,,,,,,,,,,,,,,208,2022-05-04_15h03.37.362,FishGame,2022.1.1,60.00484838850131,
,34,나를 데려가줘,6,Orange,B,0,0,ScrollDown,ScrollUp,Orange.png,2,NonTarget,NonTarget,,,,,0,0,0,0,,,,,,,,,,,,,,,,,0,33,33,33,,,,,,,,,,,,,,,,,,,,,,,,,,,,,,,,,,,,,,,,,,,,,,,,,,,,,,,,,,,,,,,,,,,,,,,,,,,,,1,1.1049415999877965,310.6337937000062,None,ScrollDown,정답입니다,310.6337937000062,None,310.6337937000062,None,310.6337937000062,None,310.6337937000062,None,311.60936159999983,None,311.60936159999983,312.10923170000024,,,,,,,,,,,,,,,,208,2022-05-04_15h03.37.362,FishGame,2022.1.1,60.00484838850131,
,35,넌 편파적이야,5,Orange,B,2.125,2,ScrollUp,ScrollDown,Orange.png,2,Negative,Congruent,,,,,0,0,0,0,,,,,,,,,,,,,,,,,0,34,34,34,,,,,,,,,,,,,,,,,,,,,,,,,,,,,,,,,,,,,,,,,,,,,,,,,,,,,,,,,,,,,,,,,,,,,,,,,,,,,2,0.9236756999889622,312.77873120000004,None,ScrollUp,정답입니다,312.77873120000004,None,312.77873120000004,None,312.77873120000004,None,312.77873120000004,None,313.55929810000816,None,313.55929810000816,314.0590211999952,,,,,,,,,,,,,,,,208,2022-05-04_15h03.37.362,FishGame,2022.1.1,60.00484838850131,
,36,넌 슬퍼,4,Green,A,2.583333333333333,3.066666666666667,ScrollDown,ScrollUp,Green.png,2,Negative,Incongruent,,,,,0,0,0,0,,,,,,,,,,,,,,,,,0,35,35,35,,,,,,,,,,,,,,,,,,,,,,,,,,,,,,,,,,,,,,,,,,,,,,,,,,,,,,,,,,,,,,,,,,,,,,,,,,,,,1,0.9686133000068367,314.71061460000055,None,ScrollDown,정답입니다,314.71061460000055,None,314.71061460000055,None,314.71061460000055,None,314.71061460000055,None,315.54959999999846,None,315.54959999999846,316.05882479999855,,,,,,,,,,,,,,,,208,2022-05-04_15h03.37.362,FishGame,2022.1.1,60.00484838850131,
,37,나를 데려가줘,6,Orange,B,0,0,ScrollDown,ScrollUp,Orange.png,2,NonTarget,NonTarget,,,,,0,0,0,0,,,,,,,,,,,,,,,,,0,36,36,36,,,,,,,,,,,,,,,,,,,,,,,,,,,,,,,,,,,,,,,,,,,,,,,,,,,,,,,,,,,,,,,,,,,,,,,,,,,,,1.1064814925193787,1.0476276999979746,316.71695489999547,None,ScrollDown,정답입니다,316.71695489999547,None,316.71695489999547,None,316.71695489999547,None,316.71695489999547,None,317.63025509999716,None,317.63025509999716,318.1417977999954,,,,,,,,,,,,,,,,208,2022-05-04_15h03.37.362,FishGame,2022.1.1,60.00484838850131,
,38,넌 친절해,1,Orange,B,6.041666666666667,5.533333333333333,ScrollUp,ScrollDown,Orange.png,2,Positive,Incongruent,,,,,0,0,0,0,,,,,,,,,,,,,,,,,0,37,37,37,,,,,,,,,,,,,,,,,,,,,,,,,,,,,,,,,,,,,,,,,,,,,,,,,,,,,,,,,,,,,,,,,,,,,,,,,,,,,1.9675925771395366,1.0011659000010695,318.81003619999683,None,ScrollUp,정답입니다,318.81003619999683,None,318.81003619999683,None,318.81003619999683,None,318.81003619999683,None,319.66433549999783,None,319.66433549999783,320.174849899995,,,,,,,,,,,,,,,,208,2022-05-04_15h03.37.362,FishGame,2022.1.1,60.00484838850131,
,1,넌 엉성해,4,Green,A,3,3.3,ScrollDown,ScrollUp,Green.png,3,Negative,Incongruent,,,,,0,0,0,0,,,,,,,,,,,,,,,,,,,,,0,0,0,0,,,,,,,,,,,,,,,,,,,,,,,,,,,,,,,,353.5541132000071,355.0537132000027,355.08721690000675,356.03708360000746,356.08705230000487,357.03701240000373,357.03701240000373,None,,,,,,,,,,,,,,,,,,,,,,,,,,,,,,,,,,1,1.1099347999988822,358.2360691000067,None,ScrollDown,정답입니다,358.2360691000067,None,358.2360691000067,None,358.2360691000067,None,358.2360691000067,None,359.15962710000167,None,359.15962710000167,359.6699082999985,320.67478200000187,None,320.67478200000187,None,0.12314815,-0.085185185,1,0,0,0.01621240000531543,None,350.670941400007,None,,,208,2022-05-04_15h03.37.362,FishGame,2022.1.1,60.00484838850131,
,2,나를 보내줘,6,Green,A,0,0,ScrollUp,ScrollDown,Green.png,3,NonTarget,NonTarget,,,,,0,0,0,0,,,,,,,,,,,,,,,,,,,,,0,1,1,1,,,,,,,,,,,,,,,,,,,,,,,,,,,,,,,,,,,,,,,,,,,,,,,,,,,,,,,,,,,,,,,,,,,,,,,,,1.9429012537002563,1.0589076000032946,360.3212904999964,None,ScrollUp,정답입니다,360.3212904999964,None,360.3212904999964,None,360.3212904999964,None,360.3212904999964,None,361.2532837000035,None,361.2532837000035,361.752966,,,,,,,,,,,,,,,,208,2022-05-04_15h03.37.362,FishGame,2022.1.1,60.00484838850131,
,3,넌 활발해,1,Orange,B,5.666666666666667,5.6,ScrollUp,ScrollDown,Orange.png,3,Positive,Incongruent,,,,,0,0,0,0,,,,,,,,,,,,,,,,,,,,,0,2,2,2,,,,,,,,,,,,,,,,,,,,,,,,,,,,,,,,,,,,,,,,,,,,,,,,,,,,,,,,,,,,,,,,,,,,,,,,,1.9814815024534862,0.8823932999948738,362.4086884999997,None,ScrollUp,정답입니다,362.4086884999997,None,362.4086884999997,None,362.4086884999997,None,362.4086884999997,None,363.15756449999753,None,363.15756449999753,363.66938020000816,,,,,,,,,,,,,,,,208,2022-05-04_15h03.37.362,FishGame,2022.1.1,60.00484838850131,
,4,넌 논리적이야,2,Green,A,5.666666666666666,4.633333333333334,ScrollDown,ScrollUp,Green.png,3,Positive,Congruent,,,,,0,0,0,0,,,,,,,,,,,,,,,,,,,,,0,3,3,3,,,,,,,,,,,,,,,,,,,,,,,,,,,,,,,,,,,,,,,,,,,,,,,,,,,,,,,,,,,,,,,,,,,,,,,,,1,1.0887760999903549,364.3280547000031,None,ScrollDown,정답입니다,364.3280547000031,None,364.3280547000031,None,364.3280547000031,None,364.3280547000031,None,365.28578419999394,None,365.28578419999394,365.785701300003,,,,,,,,,,,,,,,,208,2022-05-04_15h03.37.362,FishGame,2022.1.1,60.00484838850131,
,5,넌 과묵해,3,Green,A,3.875,4.4,ScrollDown,ScrollUp,Green.png,3,Neutral,Neutral,,,,,0,0,0,0,,,,,,,,,,,,,,,,,,,,,0,4,4,4,,,,,,,,,,,,,,,,,,,,,,,,,,,,,,,,,,,,,,,,,,,,,,,,,,,,,,,,,,,,,,,,,,,,,,,,,1,0.9115140999929281,366.4429861999961,None,ScrollDown,정답입니다,366.4429861999961,None,366.4429861999961,None,366.4429861999961,None,366.4429861999961,None,367.21583549999923,None,367.21583549999923,367.718867699994,,,,,,,,,,,,,,,,208,2022-05-04_15h03.37.362,FishGame,2022.1.1,60.00484838850131,
,6,나를 데려가줘,6,Orange,B,0,0,ScrollDown,ScrollUp,Orange.png,3,NonTarget,NonTarget,,,,,0,0,0,0,,,,,,,,,,,,,,,,,,,,,0,5,5,5,,,,,,,,,,,,,,,,,,,,,,,,,,,,,,,,,,,,,,,,,,,,,,,,,,,,,,,,,,,,,,,,,,,,,,,,,1.0200617114702861,1.355482300001313,368.374398400003,None,ScrollDown,정답입니다,368.374398400003,None,368.374398400003,None,368.374398400003,None,368.374398400003,None,369.6018570000015,None,369.6018570000015,370.1017729000014,,,,,,,,,,,,,,,,208,2022-05-04_15h03.37.362,FishGame,2022.1.1,60.00484838850131,
,7,넌 미숙해,4,Orange,B,3,3,ScrollUp,ScrollDown,Orange.png,3,Negative,Congruent,,,,,0,0,0,0,,,,,,,,,,,,,,,,,,,,,0,6,6,6,,,,,,,,,,,,,,,,,,,,,,,,,,,,,,,,,,,,,,,,,,,,,,,,,,,,,,,,,,,,,,,,,,,,,,,,,1.8503086417913437,1.0676748999976553,370.76008950000687,None,ScrollUp,정답입니다,370.76008950000687,None,370.76008950000687,None,370.76008950000687,None,370.76008950000687,None,371.6929434000049,None,371.6929434000049,372.201719100005,,,,,,,,,,,,,,,,208,2022-05-04_15h03.37.362,FishGame,2022.1.1,60.00484838850131,
,8,나를 보내줘,6,Green,A,0,0,ScrollUp,ScrollDown,Green.png,3,NonTarget,NonTarget,,,,,0,0,0,0,,,,,,,,,,,,,,,,,,,,,0,7,7,7,,,,,,,,,,,,,,,,,,,,,,,,,,,,,,,,,,,,,,,,,,,,,,,,,,,,,,,,,,,,,,,,,,,,,,,,,1.7067901194095612,1.1257779999868944,372.855327199999,None,ScrollUp,정답입니다,372.855327199999,None,372.855327199999,None,372.855327199999,None,372.855327199999,None,373.84693519999564,None,373.84693519999564,374.3512882000068,,,,,,,,,,,,,,,,208,2022-05-04_15h03.37.362,FishGame,2022.1.1,60.00484838850131,
,9,넌 자신만만해,3,Orange,B,4.833333333333334,4.333333333333333,ScrollUp,ScrollDown,Orange.png,3,Neutral,Neutral,,,,,0,0,0,0,,,,,,,,,,,,,,,,,,,,,0,8,8,8,,,,,,,,,,,,,,,,,,,,,,,,,,,,,,,,,,,,,,,,,,,,,,,,,,,,,,,,,,,,,,,,,,,,,,,,,1.9675925771395366,0.9515184999909252,375.00721409999824,None,ScrollUp,정답입니다,375.00721409999824,None,375.00721409999824,None,375.00721409999824,None,375.00721409999824,None,375.82340520000434,None,375.82340520000434,376.33428009999625,,,,,,,,,,,,,,,,208,2022-05-04_15h03.37.362,FishGame,2022.1.1,60.00484838850131,
,10,넌 탐욕스러워,5,Green,A,2.25,2.1,ScrollDown,ScrollUp,Green.png,3,Negative,Incongruent,,,,,0,0,0,0,,,,,,,,,,,,,,,,,,,,,0,9,9,9,,,,,,,,,,,,,,,,,,,,,,,,,,,,,,,,,,,,,,,,,,,,,,,,,,,,,,,,,,,,,,,,,,,,,,,,,1,1.0244181000016397,377.0006912999961,None,ScrollDown,정답입니다,377.0006912999961,None,377.0006912999961,None,377.0006912999961,None,377.0006912999961,None,377.8844175999984,None,377.8844175999984,378.3841609000083,,,,,,,,,,,,,,,,208,2022-05-04_15h03.37.362,FishGame,2022.1.1,60.00484838850131,
,11,넌 인기있어,2,Green,A,5.458333333333333,4.5,ScrollDown,ScrollUp,Green.png,3,Positive,Congruent,,,,,0,0,0,0,,,,,,,,,,,,,,,,,,,,,0,10,10,10,,,,,,,,,,,,,,,,,,,,,,,,,,,,,,,,,,,,,,,,,,,,,,,,,,,,,,,,,,,,,,,,,,,,,,,,,1,0.9717428000003565,379.03471100000024,None,ScrollDown,정답입니다,379.03471100000024,None,379.03471100000024,None,379.03471100000024,None,379.03471100000024,None,379.8777584000054,None,379.8777584000054,380.38400220000767,,,,,,,,,,,,,,,,208,2022-05-04_15h03.37.362,FishGame,2022.1.1,60.00484838850131,
,12,나를 데려가줘,6,Orange,B,0,0,ScrollDown,ScrollUp,Orange.png,3,NonTarget,NonTarget,,,,,0,0,0,0,,,,,,,,,,,,,,,,,,,,,0,11,11,11,,,,,,,,,,,,,,,,,,,,,,,,,,,,,,,,,,,,,,,,,,,,,,,,,,,,,,,,,,,,,,,,,,,,,,,,,1.0493827263514202,1.0959298999950988,381.0345750999986,None,ScrollDown,정답입니다,381.0345750999986,None,381.0345750999986,None,381.0345750999986,None,381.0345750999986,None,382.0005311999994,None,382.0005311999994,382.500217000008,,,,,,,,,,,,,,,,208,2022-05-04_15h03.37.362,FishGame,2022.1.1,60.00484838850131,
,13,넌 뛰어나,2,Orange,B,6.166666666666667,4,ScrollUp,ScrollDown,Orange.png,3,Positive,Incongruent,,,,,0,0,0,0,,,,,,,,,,,,,,,,,,,,,0,12,12,12,,,,,,,,,,,,,,,,,,,,,,,,,,,,,,,,,,,,,,,,,,,,,,,,,,,,,,,,,,,,,,,,,,,,,,,,,1.9660493632157643,0.9285546000028262,383.16289599999436,None,ScrollUp,정답입니다,383.16289599999436,None,383.16289599999436,None,383.16289599999436,None,383.16289599999436,None,383.9501404000039,None,383.9501404000039,384.44984430000477,,,,,,,,,,,,,,,,208,2022-05-04_15h03.37.362,FishGame,2022.1.1,60.00484838850131,
,14,넌 낙관적이야,1,Green,A,5.75,5.8,ScrollDown,ScrollUp,Green.png,3,Positive,Congruent,,,,,0,0,0,0,,,,,,,,,,,,,,,,,,,,,0,13,13,13,,,,,,,,,,,,,,,,,,,,,,,,,,,,,,,,,,,,,,,,,,,,,,,,,,,,,,,,,,,,,,,,,,,,,,,,,1.0570987462997437,0.9989330000098562,385.1078644999943,None,ScrollDown,정답입니다,385.1078644999943,None,385.1078644999943,None,385.1078644999943,None,385.1078644999943,None,385.97199780000665,None,385.97199780000665,386.483083500003,,,,,,,,,,,,,,,,208,2022-05-04_15h03.37.362,FishGame,2022.1.1,60.00484838850131,
,15,넌 산만해,4,Orange,B,2.695652173913043,3.033333333333333,ScrollUp,ScrollDown,Orange.png,3,Negative,Congruent,,,,,0,0,0,0,,,,,,,,,,,,,,,,,,,,,0,14,14,14,,,,,,,,,,,,,,,,,,,,,,,,,,,,,,,,,,,,,,,,,,,,,,,,,,,,,,,,,,,,,,,,,,,,,,,,,2,0.987924800007022,387.14442569999665,None,ScrollUp,정답입니다,387.14442569999665,None,387.14442569999665,None,387.14442569999665,None,387.14442569999665,None,387.9916484999994,None,387.9916484999994,388.4994982000062,,,,,,,,,,,,,,,,208,2022-05-04_15h03.37.362,FishGame,2022.1.1,60.00484838850131,
,16,나를 보내줘,6,Green,A,0,0,ScrollUp,ScrollDown,Green.png,3,NonTarget,NonTarget,,,,,0,0,0,0,,,,,,,,,,,,,,,,,,,,,0,15,15,15,,,,,,,,,,,,,,,,,,,,,,,,,,,,,,,,,,,,,,,,,,,,,,,,,,,,,,,,,,,,,,,,,,,,,,,,,2,1.0049061000026995,389.15002850000747,None,ScrollUp,정답입니다,389.15002850000747,None,389.15002850000747,None,389.15002850000747,None,389.15002850000747,None,390.02554440000677,None,390.02554440000677,390.53247030000784,,,,,,,,,,,,,,,,208,2022-05-04_15h03.37.362,FishGame,2022.1.1,60.00484838850131,
,17,넌 교활해,5,Orange,B,2.333333333333333,2.133333333333333,ScrollUp,ScrollDown,Orange.png,3,Negative,Congruent,,,,,0,0,0,0,,,,,,,,,,,,,,,,,,,,,0,16,16,16,,,,,,,,,,,,,,,,,,,,,,,,,,,,,,,,,,,,,,,,,,,,,,,,,,,,,,,,,,,,,,,,,,,,,,,,,2,1.001039299997501,391.19233210000675,None,ScrollUp,정답입니다,391.19233210000675,None,391.19233210000675,None,391.19233210000675,None,391.19233210000675,None,392.0551062000013,None,392.0551062000013,392.56558439999935,,,,,,,,,,,,,,,,208,2022-05-04_15h03.37.362,FishGame,2022.1.1,60.00484838850131,
,18,나를 보내줘,6,Green,A,0,0,ScrollUp,ScrollDown,Green.png,3,NonTarget,NonTarget,,,,,0,0,0,0,,,,,,,,,,,,,,,,,,,,,0,17,17,17,,,,,,,,,,,,,,,,,,,,,,,,,,,,,,,,,,,,,,,,,,,,,,,,,,,,,,,,,,,,,,,,,,,,,,,,,2,1.0479823999921791,393.21785570000065,None,ScrollUp,정답입니다,393.21785570000065,None,393.21785570000065,None,393.21785570000065,None,393.21785570000065,None,394.1359689999954,None,394.1359689999954,394.64862969999376,,,,,,,,,,,,,,,,208,2022-05-04_15h03.37.362,FishGame,2022.1.1,60.00484838850131,
,19,넌 불친절해,5,Orange,B,2.208333333333333,2.033333333333333,ScrollUp,ScrollDown,Orange.png,3,Negative,Congruent,,,,,0,0,0,0,,,,,,,,,,,,,,,,,,,,,0,18,18,18,,,,,,,,,,,,,,,,,,,,,,,,,,,,,,,,,,,,,,,,,,,,,,,,,,,,,,,,,,,,,,,,,,,,,,,,,2,1.41986409999663,395.309849199999,None,ScrollUp,정답입니다,395.309849199999,None,395.309849199999,None,395.309849199999,None,395.309849199999,None,396.59001860000717,None,396.59001860000717,397.0984039000032,,,,,,,,,,,,,,,,208,2022-05-04_15h03.37.362,FishGame,2022.1.1,60.00484838850131,
,20,넌 지적이야,2,Orange,B,5.75,4.366666666666666,ScrollUp,ScrollDown,Orange.png,3,Positive,Incongruent,,,,,0,0,0,0,,,,,,,,,,,,,,,,,,,,,0,19,19,19,,,,,,,,,,,,,,,,,,,,,,,,,,,,,,,,,,,,,,,,,,,,,,,,,,,,,,,,,,,,,,,,,,,,,,,,,2,0.8898485000099754,397.75756500000716,None,ScrollUp,정답입니다,397.75756500000716,None,397.75756500000716,None,397.75756500000716,None,397.75756500000716,None,398.5148959000071,None,398.5148959000071,399.01472350000404,,,,,,,,,,,,,,,,208,2022-05-04_15h03.37.362,FishGame,2022.1.1,60.00484838850131,
,21,넌 우유부단해,4,Green,A,2.666666666666667,3.166666666666667,ScrollDown,ScrollUp,Green.png,3,Negative,Incongruent,,,,,0,0,0,0,,,,,,,,,,,,,,,,,,,,,0,20,20,20,,,,,,,,,,,,,,,,,,,,,,,,,,,,,,,,,,,,,,,,,,,,,,,,,,,,,,,,,,,,,,,,,,,,,,,,,1,1.1005671000020811,399.67502429999877,None,ScrollDown,정답입니다,399.67502429999877,None,399.67502429999877,None,399.67502429999877,None,399.67502429999877,None,400.63804900000105,None,400.63804900000105,401.14777490000415,,,,,,,,,,,,,,,,208,2022-05-04_15h03.37.362,FishGame,2022.1.1,60.00484838850131,
,22,나를 데려가줘,6,Orange,B,0,0,ScrollDown,ScrollUp,Orange.png,3,NonTarget,NonTarget,,,,,0,0,0,0,,,,,,,,,,,,,,,,,,,,,0,21,21,21,,,,,,,,,,,,,,,,,,,,,,,,,,,,,,,,,,,,,,,,,,,,,,,,,,,,,,,,,,,,,,,,,,,,,,,,,1,1.0563073999946937,401.8041952000058,None,ScrollDown,정답입니다,401.8041952000058,None,401.8041952000058,None,401.8041952000058,None,401.8041952000058,None,402.72455290000653,None,402.72455290000653,403.2309494000074,,,,,,,,,,,,,,,,208,2022-05-04_15h03.37.362,FishGame,2022.1.1,60.00484838850131,
,23,넌 성실해,1,Orange,B,6.041666666666666,5.7,ScrollUp,ScrollDown,Orange.png,3,Positive,Incongruent,,,,,0,0,0,0,,,,,,,,,,,,,,,,,,,,,0,22,22,22,,,,,,,,,,,,,,,,,,,,,,,,,,,,,,,,,,,,,,,,,,,,,,,,,,,,,,,,,,,,,,,,,,,,,,,,,2,1.0024684000090929,403.8859064999997,None,ScrollUp,정답입니다,403.8859064999997,None,403.8859064999997,None,403.8859064999997,None,403.8859064999997,None,404.7549893999967,None,404.7549893999967,405.2639511000016,,,,,,,,,,,,,,,,208,2022-05-04_15h03.37.362,FishGame,2022.1.1,60.00484838850131,
,24,넌 현실주의적이야,3,Green,A,4.625,4.4,ScrollDown,ScrollUp,Green.png,3,Neutral,Neutral,,,,,0,0,0,0,,,,,,,,,,,,,,,,,,,,,0,23,23,23,,,,,,,,,,,,,,,,,,,,,,,,,,,,,,,,,,,,,,,,,,,,,,,,,,,,,,,,,,,,,,,,,,,,,,,,,1.1111111094554265,1.2431486999994377,405.9214265000046,None,ScrollDown,정답입니다,405.9214265000046,None,405.9214265000046,None,405.9214265000046,None,405.9214265000046,None,407.0257277000055,None,407.0257277000055,407.5303772000043,,,,,,,,,,,,,,,,208,2022-05-04_15h03.37.362,FishGame,2022.1.1,60.00484838850131,
,25,넌 진실돼,1,Green,A,6.625,5.566666666666666,ScrollDown,ScrollUp,Green.png,3,Positive,Congruent,,,,,0,0,0,0,,,,,,,,,,,,,,,,,,,,,0,24,24,24,,,,,,,,,,,,,,,,,,,,,,,,,,,,,,,,,,,,,,,,,,,,,,,,,,,,,,,,,,,,,,,,,,,,,,,,,1,0.9851783999911277,408.1895674999978,None,ScrollDown,정답입니다,408.1895674999978,None,408.1895674999978,None,408.1895674999978,None,408.1895674999978,None,409.0385716000019,None,409.0385716000019,409.54682350000076,,,,,,,,,,,,,,,,208,2022-05-04_15h03.37.362,FishGame,2022.1.1,60.00484838850131,
,26,넌 천진난만해,3,Orange,B,4.958333333333334,4.833333333333333,ScrollUp,ScrollDown,Orange.png,3,Neutral,Neutral,,,,,0,0,0,0,,,,,,,,,,,,,,,,,,,,,0,25,25,25,,,,,,,,,,,,,,,,,,,,,,,,,,,,,,,,,,,,,,,,,,,,,,,,,,,,,,,,,,,,,,,,,,,,,,,,,2,1.1723543999978574,410.21107499999925,None,ScrollUp,정답입니다,410.21107499999925,None,410.21107499999925,None,410.21107499999925,None,410.21107499999925,None,411.23967140000605,None,411.23967140000605,411.7465710999968,,,,,,,,,,,,,,,,208,2022-05-04_15h03.37.362,FishGame,2022.1.1,60.00484838850131,
,27,넌 교양없어,5,Green,A,2.416666666666667,2.2,ScrollDown,ScrollUp,Green.png,3,Negative,Incongruent,,,,,0,0,0,0,,,,,,,,,,,,,,,,,,,,,0,26,26,26,,,,,,,,,,,,,,,,,,,,,,,,,,,,,,,,,,,,,,,,,,,,,,,,,,,,,,,,,,,,,,,,,,,,,,,,,1,1.0070126000064192,412.4029428000067,None,ScrollDown,정답입니다,412.4029428000067,None,412.4029428000067,None,412.4029428000067,None,412.4029428000067,None,413.2740053000016,None,413.2740053000016,413.7796435000055,,,,,,,,,,,,,,,,208,2022-05-04_15h03.37.362,FishGame,2022.1.1,60.00484838850131,
,28,나를 보내줘,6,Green,A,0,0,ScrollUp,ScrollDown,Green.png,3,NonTarget,NonTarget,,,,,0,0,0,0,,,,,,,,,,,,,,,,,,,,,0,27,27,27,,,,,,,,,,,,,,,,,,,,,,,,,,,,,,,,,,,,,,,,,,,,,,,,,,,,,,,,,,,,,,,,,,,,,,,,,2,1.0958647999941604,414.4333447999961,None,ScrollUp,정답입니다,414.4333447999961,None,414.4333447999961,None,414.4333447999961,None,414.4333447999961,None,415.399854400006,None,415.399854400006,415.9125849999982,,,,,,,,,,,,,,,,208,2022-05-04_15h03.37.362,FishGame,2022.1.1,60.00484838850131,
,29,넌 엉뚱스러워,3,Green,A,4.166666666666667,4.133333333333334,ScrollDown,ScrollUp,Green.png,3,Neutral,Neutral,,,,,0,0,0,0,,,,,,,,,,,,,,,,,,,,,0,28,28,28,,,,,,,,,,,,,,,,,,,,,,,,,,,,,,,,,,,,,,,,,,,,,,,,,,,,,,,,,,,,,,,,,,,,,,,,,1,1.0666270000074292,416.5704942000011,None,ScrollDown,정답입니다,416.5704942000011,None,416.5704942000011,None,416.5704942000011,None,416.5704942000011,None,417.50245050000376,None,417.50245050000376,418.012421899999,,,,,,,,,,,,,,,,208,2022-05-04_15h03.37.362,FishGame,2022.1.1,60.00484838850131,
,30,넌 무지해,4,Orange,B,2.541666666666667,3.066666666666667,ScrollUp,ScrollDown,Orange.png,3,Negative,Congruent,,,,,0,0,0,0,,,,,,,,,,,,,,,,,,,,,0,29,29,29,,,,,,,,,,,,,,,,,,,,,,,,,,,,,,,,,,,,,,,,,,,,,,,,,,,,,,,,,,,,,,,,,,,,,,,,,2,0.8566098000010243,418.66717790000257,None,ScrollUp,정답입니다,418.66717790000257,None,418.66717790000257,None,418.66717790000257,None,418.66717790000257,None,419.3954655999987,None,419.3954655999987,419.8954107000027,,,,,,,,,,,,,,,,208,2022-05-04_15h03.37.362,FishGame,2022.1.1,60.00484838850131,
,31,넌 음울해,5,Orange,B,2.25,2.233333333333333,ScrollUp,ScrollDown,Orange.png,3,Negative,Congruent,,,,,0,0,0,0,,,,,,,,,,,,,,,,,,,,,0,30,30,30,,,,,,,,,,,,,,,,,,,,,,,,,,,,,,,,,,,,,,,,,,,,,,,,,,,,,,,,,,,,,,,,,,,,,,,,,2,0.9545577999961097,420.56505710000056,None,ScrollUp,정답입니다,420.56505710000056,None,420.56505710000056,None,420.56505710000056,None,420.56505710000056,None,421.3707837999973,None,421.3707837999973,421.87850950000575,,,,,,,,,,,,,,,,208,2022-05-04_15h03.37.362,FishGame,2022.1.1,60.00484838850131,
,32,넌 냉소적이야,5,Green,A,2.916666666666667,2.4,ScrollDown,ScrollUp,Green.png,3,Negative,Incongruent,,,,,0,0,0,0,,,,,,,,,,,,,,,,,,,,,0,31,31,31,,,,,,,,,,,,,,,,,,,,,,,,,,,,,,,,,,,,,,,,,,,,,,,,,,,,,,,,,,,,,,,,,,,,,,,,,1,1.032123099997989,422.52989000000525,None,ScrollDown,정답입니다,422.52989000000525,None,422.52989000000525,None,422.52989000000525,None,422.52989000000525,None,423.4338921000017,None,423.4338921000017,423.94492829999945,,,,,,,,,,,,,,,,208,2022-05-04_15h03.37.362,FishGame,2022.1.1,60.00484838850131,
,33,나를 데려가줘,6,Orange,B,0,0,ScrollDown,ScrollUp,Orange.png,3,NonTarget,NonTarget,,,,,0,0,0,0,,,,,,,,,,,,,,,,,,,,,0,32,32,32,,,,,,,,,,,,,,,,,,,,,,,,,,,,,,,,,,,,,,,,,,,,,,,,,,,,,,,,,,,,,,,,,,,,,,,,,1,1.1799354999966454,424.6021239999973,None,ScrollDown,정답입니다,424.6021239999973,None,424.6021239999973,None,424.6021239999973,None,424.6021239999973,None,425.64877280000655,None,425.64877280000655,426.16146459999436,,,,,,,,,,,,,,,,208,2022-05-04_15h03.37.362,FishGame,2022.1.1,60.00484838850131,
,34,넌 쾌활해,1,Green,A,5.541666666666666,5.733333333333333,ScrollDown,ScrollUp,Green.png,3,Positive,Congruent,,,,,0,0,0,0,,,,,,,,,,,,,,,,,,,,,0,33,33,33,,,,,,,,,,,,,,,,,,,,,,,,,,,,,,,,,,,,,,,,,,,,,,,,,,,,,,,,,,,,,,,,,,,,,,,,,1,1.1563303000002634,426.81723470000725,None,ScrollDown,정답입니다,426.81723470000725,None,426.81723470000725,None,426.81723470000725,None,426.81723470000725,None,427.84459150000475,None,427.84459150000475,428.3444664999988,,,,,,,,,,,,,,,,208,2022-05-04_15h03.37.362,FishGame,2022.1.1,60.00484838850131,
,35,나를 보내줘,6,Green,A,0,0,ScrollUp,ScrollDown,Green.png,3,NonTarget,NonTarget,,,,,0,0,0,0,,,,,,,,,,,,,,,,,,,,,0,34,34,34,,,,,,,,,,,,,,,,,,,,,,,,,,,,,,,,,,,,,,,,,,,,,,,,,,,,,,,,,,,,,,,,,,,,,,,,,2,0.9879725000064354,428.9968332999997,None,ScrollUp,정답입니다,428.9968332999997,None,428.9968332999997,None,428.9968332999997,None,428.9968332999997,None,429.8545962000062,None,429.8545962000062,430.36095089999435,,,,,,,,,,,,,,,,208,2022-05-04_15h03.37.362,FishGame,2022.1.1,60.00484838850131,
,36,넌 명랑해,1,Orange,B,5.739130434782609,5.666666666666667,ScrollUp,ScrollDown,Orange.png,3,Positive,Incongruent,,,,,0,0,0,0,,,,,,,,,,,,,,,,,,,,,0,35,35,35,,,,,,,,,,,,,,,,,,,,,,,,,,,,,,,,,,,,,,,,,,,,,,,,,,,,,,,,,,,,,,,,,,,,,,,,,2,0.9723889000015333,431.01989749999484,None,ScrollUp,정답입니다,431.01989749999484,None,431.01989749999484,None,431.01989749999484,None,431.01989749999484,None,431.85415240000293,None,431.85415240000293,432.36047689999396,,,,,,,,,,,,,,,,208,2022-05-04_15h03.37.362,FishGame,2022.1.1,60.00484838850131,
,37,넌 멍해,4,Green,A,2.833333333333333,3.4,ScrollDown,ScrollUp,Green.png,3,Negative,Incongruent,,,,,0,0,0,0,,,,,,,,,,,,,,,,,,,,,0,36,36,36,,,,,,,,,,,,,,,,,,,,,,,,,,,,,,,,,,,,,,,,,,,,,,,,,,,,,,,,,,,,,,,,,,,,,,,,,1,1.0394818000058876,433.0114983999956,None,ScrollDown,정답입니다,433.0114983999956,None,433.0114983999956,None,433.0114983999956,None,433.0114983999956,None,433.92716479999945,None,433.92716479999945,434.42701329999545,,,,,,,,,,,,,,,,208,2022-05-04_15h03.37.362,FishGame,2022.1.1,60.00484838850131,
,38,나를 데려가줘,6,Orange,B,0,0,ScrollDown,ScrollUp,Orange.png,3,NonTarget,NonTarget,,,,,0,0,0,0,,,,,,,,,,,,,,,,,,,,,0,37,37,37,,,,,,,,,,,,,,,,,,,,,,,,,,,,,,,,,,,,,,,,,,,,,,,,,,,,,,,,,,,,,,,,,,,,,,,,,1,1.1934693999937735,435.08255940000527,None,ScrollDown,정답입니다,435.08255940000527,None,435.08255940000527,None,435.08255940000527,None,435.08255940000527,None,436.14370020000206,None,436.14370020000206,436.6432599999971,,,,,,,,,,,,,,,,208,2022-05-04_15h03.37.362,FishGame,2022.1.1,60.00484838850131,
,39,넌 현명해,2,Green,A,6.541666666666666,4.533333333333333,ScrollDown,ScrollUp,Green.png,3,Positive,Congruent,,,,,0,0,0,0,,,,,,,,,,,,,,,,,,,,,0,38,38,38,,,,,,,,,,,,,,,,,,,,,,,,,,,,,,,,,,,,,,,,,,,,,,,,,,,,,,,,,,,,,,,,,,,,,,,,,1,1.035246899991762,437.2934397000063,None,ScrollDown,정답입니다,437.2934397000063,None,437.2934397000063,None,437.2934397000063,None,437.2934397000063,None,438.2001902000047,None,438.2001902000047,438.7096654000052,,,,,,,,,,,,,,,,208,2022-05-04_15h03.37.362,FishGame,2022.1.1,60.00484838850131,
,40,넌 수줍어,3,Orange,B,3.541666666666666,4.366666666666666,ScrollUp,ScrollDown,Orange.png,3,Neutral,Neutral,,,,,0,0,0,0,,,,,,,,,,,,,,,,,,,,,0,39,39,39,,,,,,,,,,,,,,,,,,,,,,,,,,,,,,,,,,,,,,,,,,,,,,,,,,,,,,,,,,,,,,,,,,,,,,,,,2,0.9352087000006577,439.3712189000071,None,ScrollUp,정답입니다,439.3712189000071,None,439.3712189000071,None,439.3712189000071,None,439.3712189000071,None,440.16588640000555,None,440.16588640000555,440.67621659999713,,,,,,,,,,,,,,,,208,2022-05-04_15h03.37.362,FishGame,2022.1.1,60.00484838850131,
,41,나를 데려가줘,6,Orange,B,0,0,ScrollDown,ScrollUp,Orange.png,3,NonTarget,NonTarget,,,,,0,0,0,0,,,,,,,,,,,,,,,,,,,,,0,40,40,40,,,,,,,,,,,,,,,,,,,,,,,,,,,,,,,,,,,,,,,,,,,,,,,,,,,,,,,,,,,,,,,,,,,,,,,,,1,1.0278439999965485,441.3343644999986,None,ScrollDown,정답입니다,441.3343644999986,None,441.3343644999986,None,441.3343644999986,None,441.3343644999986,None,442.22263240000757,None,442.22263240000757,442.7259264000022,,,,,,,,,,,,,,,,208,2022-05-04_15h03.37.362,FishGame,2022.1.1,60.00484838850131,
,42,넌 성숙해,2,Orange,B,5.833333333333333,4.533333333333333,ScrollUp,ScrollDown,Orange.png,3,Positive,Incongruent,,,,,0,0,0,0,,,,,,,,,,,,,,,,,,,,,0,41,41,41,,,,,,,,,,,,,,,,,,,,,,,,,,,,,,,,,,,,,,,,,,,,,,,,,,,,,,,,,,,,,,,,,,,,,,,,,2,0.9684598000021651,443.38260060000175,None,ScrollUp,정답입니다,443.38260060000175,None,443.38260060000175,None,443.38260060000175,None,443.38260060000175,None,444.2162873000052,None,444.2162873000052,444.7255487000075,,,,,,,,,,,,,,,,208,2022-05-04_15h03.37.362,FishGame,2022.1.1,60.00484838850131,
,1,넌 매력적이야,2,Orange,B,6.125,4.666666666666667,ScrollUp,ScrollDown,Orange.png,4,Positive,Incongruent,,,,,0,0,0,0,,,,,,,,,,,,,,,,,,,,,,,,,0,0,0,0,,,,,,,,,,,,,,,,,,,,,,,,,,,,476.754964199994,478.2546829000057,478.2880700999958,479.2378890999971,479.287956900007,480.23777760000667,480.23777760000667,None,,,,,,,,,,,,,,,,,,,,,,,,,,,,,,,,,,2,1.2027450000023236,481.4360452999972,None,ScrollUp,정답입니다,481.4360452999972,None,481.4360452999972,None,481.4360452999972,None,481.4360452999972,None,482.4567712999997,None,482.4567712999997,482.97066020000784,445.2254852000042,None,445.2254852000042,None,0.085185185,-0.11481482,1,0,0,0.016181100014364347,None,475.2384524000081,None,,,208,2022-05-04_15h03.37.362,FishGame,2022.1.1,60.00484838850131,
,2,나를 보내줘,6,Green,A,0,0,ScrollUp,ScrollDown,Green.png,4,NonTarget,NonTarget,,,,,0,0,0,0,,,,,,,,,,,,,,,,,,,,,,,,,0,1,1,1,,,,,,,,,,,,,,,,,,,,,,,,,,,,,,,,,,,,,,,,,,,,,,,,,,,,,,,,,,,,,,,,,,,,,2,1.1329807000001892,483.62135699999635,None,ScrollUp,정답입니다,483.62135699999635,None,483.62135699999635,None,483.62135699999635,None,483.62135699999635,None,484.6259127999947,None,484.6259127999947,485.13717980000365,,,,,,,,,,,,,,,,208,2022-05-04_15h03.37.362,FishGame,2022.1.1,60.00484838850131,
,3,넌 조심스러워,3,Green,A,4.791666666666666,4.666666666666667,ScrollDown,ScrollUp,Green.png,4,Neutral,Neutral,,,,,0,0,0,0,,,,,,,,,,,,,,,,,,,,,,,,,0,2,2,2,,,,,,,,,,,,,,,,,,,,,,,,,,,,,,,,,,,,,,,,,,,,,,,,,,,,,,,,,,,,,,,,,,,,,1,1.0560064999881433,485.7904363999987,None,ScrollDown,정답입니다,485.7904363999987,None,485.7904363999987,None,485.7904363999987,None,485.7904363999987,None,486.72022540000034,None,486.72022540000034,487.2202260000049,,,,,,,,,,,,,,,,208,2022-05-04_15h03.37.362,FishGame,2022.1.1,60.00484838850131,
,4,넌 철학적이야,3,Orange,B,4.5,4.266666666666667,ScrollUp,ScrollDown,Orange.png,4,Neutral,Neutral,,,,,0,0,0,0,,,,,,,,,,,,,,,,,,,,,,,,,0,3,3,3,,,,,,,,,,,,,,,,,,,,,,,,,,,,,,,,,,,,,,,,,,,,,,,,,,,,,,,,,,,,,,,,,,,,,2,1.0196106000075815,487.8836525999941,None,ScrollUp,정답입니다,487.8836525999941,None,487.8836525999941,None,487.8836525999941,None,487.8836525999941,None,488.76093639999453,None,488.76093639999453,489.27012220000324,,,,,,,,,,,,,,,,208,2022-05-04_15h03.37.362,FishGame,2022.1.1,60.00484838850131,
,5,넌 쩨쩨해,5,Green,A,2.375,2.133333333333333,ScrollDown,ScrollUp,Green.png,4,Negative,Incongruent,,,,,0,0,0,0,,,,,,,,,,,,,,,,,,,,,,,,,0,4,4,4,,,,,,,,,,,,,,,,,,,,,,,,,,,,,,,,,,,,,,,,,,,,,,,,,,,,,,,,,,,,,,,,,,,,,1,0.9689914000045974,489.9199645000044,None,ScrollDown,정답입니다,489.9199645000044,None,489.9199645000044,None,489.9199645000044,None,489.9199645000044,None,490.7609274999995,None,490.7609274999995,491.2696452999953,,,,,,,,,,,,,,,,208,2022-05-04_15h03.37.362,FishGame,2022.1.1,60.00484838850131,
,6,나를 데려가줘,6,Orange,B,0,0,ScrollDown,ScrollUp,Orange.png,4,NonTarget,NonTarget,,,,,0,0,0,0,,,,,,,,,,,,,,,,,,,,,,,,,0,5,5,5,,,,,,,,,,,,,,,,,,,,,,,,,,,,,,,,,,,,,,,,,,,,,,,,,,,,,,,,,,,,,,,,,,,,,1,1.0762230999971507,491.925550400003,None,ScrollDown,정답입니다,491.925550400003,None,491.925550400003,None,491.925550400003,None,491.925550400003,None,492.8694126000046,None,492.8694126000046,493.3694419999956,,,,,,,,,,,,,,,,208,2022-05-04_15h03.37.362,FishGame,2022.1.1,60.00484838850131,
,7,넌 고집불통이야,5,Orange,B,2.875,2,ScrollUp,ScrollDown,Orange.png,4,Negative,Congruent,,,,,0,0,0,0,,,,,,,,,,,,,,,,,,,,,,,,,0,6,6,6,,,,,,,,,,,,,,,,,,,,,,,,,,,,,,,,,,,,,,,,,,,,,,,,,,,,,,,,,,,,,,,,,,,,,2,0.9352464999974472,494.03067799999553,None,ScrollUp,정답입니다,494.03067799999553,None,494.03067799999553,None,494.03067799999553,None,494.03067799999553,None,494.8271539999987,None,494.8271539999987,495.33584379999957,,,,,,,,,,,,,,,,208,2022-05-04_15h03.37.362,FishGame,2022.1.1,60.00484838850131,
,8,넌 무심해,4,Green,A,2.875,3.2,ScrollDown,ScrollUp,Green.png,4,Negative,Incongruent,,,,,0,0,0,0,,,,,,,,,,,,,,,,,,,,,,,,,0,7,7,7,,,,,,,,,,,,,,,,,,,,,,,,,,,,,,,,,,,,,,,,,,,,,,,,,,,,,,,,,,,,,,,,,,,,,1,0.9817419000028167,495.98780240000633,None,ScrollDown,정답입니다,495.98780240000633,None,495.98780240000633,None,495.98780240000633,None,495.98780240000633,None,496.84186440000485,None,496.84186440000485,497.3522069000028,,,,,,,,,,,,,,,,208,2022-05-04_15h03.37.362,FishGame,2022.1.1,60.00484838850131,
,9,넌 정겨워,1,Green,A,5.791666666666667,5.666666666666667,ScrollDown,ScrollUp,Green.png,4,Positive,Congruent,,,,,0,0,0,0,,,,,,,,,,,,,,,,,,,,,,,,,0,8,8,8,,,,,,,,,,,,,,,,,,,,,,,,,,,,,,,,,,,,,,,,,,,,,,,,,,,,,,,,,,,,,,,,,,,,,1,0.9071879999974044,498.010861200004,None,ScrollDown,정답입니다,498.010861200004,None,498.010861200004,None,498.010861200004,None,498.010861200004,None,498.78572119999444,None,498.78572119999444,499.28526600000623,,,,,,,,,,,,,,,,208,2022-05-04_15h03.37.362,FishGame,2022.1.1,60.00484838850131,
,10,나를 데려가줘,6,Orange,B,0,0,ScrollDown,ScrollUp,Orange.png,4,NonTarget,NonTarget,,,,,0,0,0,0,,,,,,,,,,,,,,,,,,,,,,,,,0,9,9,9,,,,,,,,,,,,,,,,,,,,,,,,,,,,,,,,,,,,,,,,,,,,,,,,,,,,,,,,,,,,,,,,,,,,,1,1.1658887999947183,499.9405268999981,None,ScrollDown,정답입니다,499.9405268999981,None,499.9405268999981,None,499.9405268999981,None,499.9405268999981,None,500.97508659999585,None,500.97508659999585,501.48498920000566,,,,,,,,,,,,,,,,208,2022-05-04_15h03.37.362,FishGame,2022.1.1,60.00484838850131,
,11,넌 체제순응적이야,4,Orange,B,3,3.6,ScrollUp,ScrollDown,Orange.png,4,Negative,Congruent,,,,,0,0,0,0,,,,,,,,,,,,,,,,,,,,,,,,,0,10,10,10,,,,,,,,,,,,,,,,,,,,,,,,,,,,,,,,,,,,,,,,,,,,,,,,,,,,,,,,,,,,,,,,,,,,,2,1.0526371000014478,502.15122490000795,None,ScrollUp,정답입니다,502.15122490000795,None,502.15122490000795,None,502.15122490000795,None,502.15122490000795,None,503.0608785999939,None,503.0608785999939,503.56802679999964,,,,,,,,,,,,,,,,208,2022-05-04_15h03.37.362,FishGame,2022.1.1,60.00484838850131,
,12,나를 보내줘,6,Green,A,0,0,ScrollUp,ScrollDown,Green.png,4,NonTarget,NonTarget,,,,,0,0,0,0,,,,,,,,,,,,,,,,,,,,,,,,,0,11,11,11,,,,,,,,,,,,,,,,,,,,,,,,,,,,,,,,,,,,,,,,,,,,,,,,,,,,,,,,,,,,,,,,,,,,,1.9814815024534862,2.1692179999954533,504.2179550000001,None,ScrollUp,정답입니다,504.2179550000001,None,504.2179550000001,None,504.2179550000001,None,504.2179550000001,None,506.2592161000066,None,506.2592161000066,506.76760960000684,,,,,,,,,,,,,,,,208,2022-05-04_15h03.37.362,FishGame,2022.1.1,60.00484838850131,
,13,넌 박식해,2,Green,A,5.625,3.933333333333333,ScrollDown,ScrollUp,Green.png,4,Positive,Congruent,,,,,0,0,0,0,,,,,,,,,,,,,,,,,,,,,,,,,0,12,12,12,,,,,,,,,,,,,,,,,,,,,,,,,,,,,,,,,,,,,,,,,,,,,,,,,,,,,,,,,,,,,,,,,,,,,1,1.1143654999905266,507.42364510000334,None,ScrollDown,정답입니다,507.42364510000334,None,507.42364510000334,None,507.42364510000334,None,507.42364510000334,None,508.40424069999426,None,508.40424069999426,508.9175305999961,,,,,,,,,,,,,,,,208,2022-05-04_15h03.37.362,FishGame,2022.1.1,60.00484838850131,
,14,나를 보내줘,6,Green,A,0,0,ScrollUp,ScrollDown,Green.png,4,NonTarget,NonTarget,,,,,0,0,0,0,,,,,,,,,,,,,,,,,,,,,,,,,0,13,13,13,,,,,,,,,,,,,,,,,,,,,,,,,,,,,,,,,,,,,,,,,,,,,,,,,,,,,,,,,,,,,,,,,,,,,2,1.0377156000031391,509.5657418000046,None,ScrollUp,정답입니다,509.5657418000046,None,509.5657418000046,None,509.5657418000046,None,509.5657418000046,None,510.47775560000446,None,510.47775560000446,510.98381459999655,,,,,,,,,,,,,,,,208,2022-05-04_15h03.37.362,FishGame,2022.1.1,60.00484838850131,
,15,넌 침착해,1,Orange,B,5.458333333333333,5.566666666666666,ScrollUp,ScrollDown,Orange.png,4,Positive,Incongruent,,,,,0,0,0,0,,,,,,,,,,,,,,,,,,,,,,,,,0,14,14,14,,,,,,,,,,,,,,,,,,,,,,,,,,,,,,,,,,,,,,,,,,,,,,,,,,,,,,,,,,,,,,,,,,,,,1.9814815024534862,1.0441704999975627,511.6480203999963,None,ScrollUp,정답입니다,511.6480203999963,None,511.6480203999963,None,511.6480203999963,None,511.6480203999963,None,512.5502300999942,None,512.5502300999942,513.050190599999,,,,,,,,,,,,,,,,208,2022-05-04_15h03.37.362,FishGame,2022.1.1,60.00484838850131,
,16,나를 데려가줘,6,Orange,B,0,0,ScrollDown,ScrollUp,Orange.png,4,NonTarget,NonTarget,,,,,0,0,0,0,,,,,,,,,,,,,,,,,,,,,,,,,0,15,15,15,,,,,,,,,,,,,,,,,,,,,,,,,,,,,,,,,,,,,,,,,,,,,,,,,,,,,,,,,,,,,,,,,,,,,1,1.050833799992688,513.7073403999966,None,ScrollDown,정답입니다,513.7073403999966,None,513.7073403999966,None,513.7073403999966,None,513.7073403999966,None,514.6236070000014,None,514.6236070000014,515.1332228999963,,,,,,,,,,,,,,,,208,2022-05-04_15h03.37.362,FishGame,2022.1.1,60.00484838850131,
,17,넌 행복해,1,Green,A,6.416666666666666,6.166666666666667,ScrollDown,ScrollUp,Green.png,4,Positive,Congruent,,,,,0,0,0,0,,,,,,,,,,,,,,,,,,,,,,,,,0,16,16,16,,,,,,,,,,,,,,,,,,,,,,,,,,,,,,,,,,,,,,,,,,,,,,,,,,,,,,,,,,,,,,,,,,,,,1.0817901194095612,1.0956212999881245,515.7894876000064,None,ScrollDown,정답입니다,515.7894876000064,None,515.7894876000064,None,515.7894876000064,None,515.7894876000064,None,516.7497769000038,None,516.7497769000038,517.2496895999939,,,,,,,,,,,,,,,,208,2022-05-04_15h03.37.362,FishGame,2022.1.1,60.00484838850131,
,18,넌 겸손해,2,Orange,B,5.791666666666667,4.766666666666667,ScrollUp,ScrollDown,Orange.png,4,Positive,Incongruent,,,,,0,0,0,0,,,,,,,,,,,,,,,,,,,,,,,,,0,17,17,17,,,,,,,,,,,,,,,,,,,,,,,,,,,,,,,,,,,,,,,,,,,,,,,,,,,,,,,,,,,,,,,,,,,,,2,0.9851924000104191,517.9093752000044,None,ScrollUp,정답입니다,517.9093752000044,None,517.9093752000044,None,517.9093752000044,None,517.9093752000044,None,518.7559295999963,None,518.7559295999963,519.2662412000063,,,,,,,,,,,,,,,,208,2022-05-04_15h03.37.362,FishGame,2022.1.1,60.00484838850131,
,19,나를 보내줘,6,Green,A,0,0,ScrollUp,ScrollDown,Green.png,4,NonTarget,NonTarget,,,,,0,0,0,0,,,,,,,,,,,,,,,,,,,,,,,,,0,18,18,18,,,,,,,,,,,,,,,,,,,,,,,,,,,,,,,,,,,,,,,,,,,,,,,,,,,,,,,,,,,,,,,,,,,,,2,1.159222199989017,519.9168320000026,None,ScrollUp,정답입니다,519.9168320000026,None,519.9168320000026,None,519.9168320000026,None,519.9168320000026,None,520.949254799998,None,520.949254799998,521.4491114999983,,,,,,,,,,,,,,,,208,2022-05-04_15h03.37.362,FishGame,2022.1.1,60.00484838850131,
,20,넌 의심없어,3,Green,A,4.166666666666667,4.6,ScrollDown,ScrollUp,Green.png,4,Neutral,Neutral,,,,,0,0,0,0,,,,,,,,,,,,,,,,,,,,,,,,,0,19,19,19,,,,,,,,,,,,,,,,,,,,,,,,,,,,,,,,,,,,,,,,,,,,,,,,,,,,,,,,,,,,,,,,,,,,,1,1.1456234999932349,522.103491300004,None,ScrollDown,정답입니다,522.103491300004,None,522.103491300004,None,522.103491300004,None,522.103491300004,None,523.118230299995,None,523.118230299995,523.6321907999954,,,,,,,,,,,,,,,,208,2022-05-04_15h03.37.362,FishGame,2022.1.1,60.00484838850131,
,21,넌 시시해,4,Green,A,2.666666666666667,2.966666666666667,ScrollDown,ScrollUp,Green.png,4,Negative,Incongruent,,,,,0,0,0,0,,,,,,,,,,,,,,,,,,,,,,,,,0,20,20,20,,,,,,,,,,,,,,,,,,,,,,,,,,,,,,,,,,,,,,,,,,,,,,,,,,,,,,,,,,,,,,,,,,,,,1,0.961564700002782,524.2805381000071,None,ScrollDown,정답입니다,524.2805381000071,None,524.2805381000071,None,524.2805381000071,None,524.2805381000071,None,525.118742599996,None,525.118742599996,525.6319145000016,,,,,,,,,,,,,,,,208,2022-05-04_15h03.37.362,FishGame,2022.1.1,60.00484838850131,
,22,나를 데려가줘,6,Orange,B,0,0,ScrollDown,ScrollUp,Orange.png,4,NonTarget,NonTarget,,,,,0,0,0,0,,,,,,,,,,,,,,,,,,,,,,,,,0,21,21,21,,,,,,,,,,,,,,,,,,,,,,,,,,,,,,,,,,,,,,,,,,,,,,,,,,,,,,,,,,,,,,,,,,,,,1,1.06846090000181,526.2826936000056,None,ScrollDown,정답입니다,526.2826936000056,None,526.2826936000056,None,526.2826936000056,None,526.2826936000056,None,527.2216823000053,None,527.2216823000053,527.7316825000016,,,,,,,,,,,,,,,,208,2022-05-04_15h03.37.362,FishGame,2022.1.1,60.00484838850131,
,23,넌 무정해,5,Green,A,2.5,2.2,ScrollDown,ScrollUp,Green.png,4,Negative,Incongruent,,,,,0,0,0,0,,,,,,,,,,,,,,,,,,,,,,,,,0,22,22,22,,,,,,,,,,,,,,,,,,,,,,,,,,,,,,,,,,,,,,,,,,,,,,,,,,,,,,,,,,,,,,,,,,,,,1.0046296219031017,0.965177499994752,528.385560499999,None,ScrollDown,정답입니다,528.385560499999,None,528.385560499999,None,528.385560499999,None,528.385560499999,None,529.2200002000027,None,529.2200002000027,529.7315629999939,,,,,,,,,,,,,,,,208,2022-05-04_15h03.37.362,FishGame,2022.1.1,60.00484838850131,
,24,넌 긍정적이야,1,Orange,B,6.041666666666667,6.066666666666666,ScrollUp,ScrollDown,Orange.png,4,Positive,Incongruent,,,,,0,0,0,0,,,,,,,,,,,,,,,,,,,,,,,,,0,23,23,23,,,,,,,,,,,,,,,,,,,,,,,,,,,,,,,,,,,,,,,,,,,,,,,,,,,,,,,,,,,,,,,,,,,,,2,0.871226100003696,530.3978719000006,None,ScrollUp,정답입니다,530.3978719000006,None,530.3978719000006,None,530.3978719000006,None,530.3978719000006,None,531.1313456000062,None,531.1313456000062,531.6311749000015,,,,,,,,,,,,,,,,208,2022-05-04_15h03.37.362,FishGame,2022.1.1,60.00484838850131,
,25,나를 보내줘,6,Green,A,0,0,ScrollUp,ScrollDown,Green.png,4,NonTarget,NonTarget,,,,,0,0,0,0,,,,,,,,,,,,,,,,,,,,,,,,,0,24,24,24,,,,,,,,,,,,,,,,,,,,,,,,,,,,,,,,,,,,,,,,,,,,,,,,,,,,,,,,,,,,,,,,,,,,,2,1.647416500010877,532.2814305000065,None,ScrollUp,정답입니다,532.2814305000065,None,532.2814305000065,None,532.2814305000065,None,532.2814305000065,None,533.8011270999996,None,533.8011270999996,534.3142262000038,,,,,,,,,,,,,,,,208,2022-05-04_15h03.37.362,FishGame,2022.1.1,60.00484838850131,
,26,넌 시기심이 많아,5,Orange,B,2.458333333333333,2.233333333333333,ScrollUp,ScrollDown,Orange.png,4,Negative,Congruent,,,,,0,0,0,0,,,,,,,,,,,,,,,,,,,,,,,,,0,25,25,25,,,,,,,,,,,,,,,,,,,,,,,,,,,,,,,,,,,,,,,,,,,,,,,,,,,,,,,,,,,,,,,,,,,,,2,0.9974411999864969,534.9816458999994,None,ScrollUp,정답입니다,534.9816458999994,None,534.9816458999994,None,534.9816458999994,None,534.9816458999994,None,535.8360068000038,None,535.8360068000038,536.347253400003,,,,,,,,,,,,,,,,208,2022-05-04_15h03.37.362,FishGame,2022.1.1,60.00484838850131,
,27,넌 탁월해,2,Green,A,5.708333333333334,4.5,ScrollDown,ScrollUp,Green.png,4,Positive,Congruent,,,,,0,0,0,0,,,,,,,,,,,,,,,,,,,,,,,,,0,26,26,26,,,,,,,,,,,,,,,,,,,,,,,,,,,,,,,,,,,,,,,,,,,,,,,,,,,,,,,,,,,,,,,,,,,,,1,1.151540599996224,537.0105875000008,None,ScrollDown,정답입니다,537.0105875000008,None,537.0105875000008,None,537.0105875000008,None,537.0105875000008,None,538.0216149000044,None,538.0216149000044,538.5302866999991,,,,,,,,,,,,,,,,208,2022-05-04_15h03.37.362,FishGame,2022.1.1,60.00484838850131,
,28,나를 데려가줘,6,Orange,B,0,0,ScrollDown,ScrollUp,Orange.png,4,NonTarget,NonTarget,,,,,0,0,0,0,,,,,,,,,,,,,,,,,,,,,,,,,0,27,27,27,,,,,,,,,,,,,,,,,,,,,,,,,,,,,,,,,,,,,,,,,,,,,,,,,,,,,,,,,,,,,,,,,,,,,1,1.0172818999999436,539.1854924000072,None,ScrollDown,정답입니다,539.1854924000072,None,539.1854924000072,None,539.1854924000072,None,539.1854924000072,None,540.0697475000052,None,540.0697475000052,540.5799861999985,,,,,,,,,,,,,,,,208,2022-05-04_15h03.37.362,FishGame,2022.1.1,60.00484838850131,
,29,넌 조용해,3,Orange,B,4.333333333333333,4.166666666666667,ScrollUp,ScrollDown,Orange.png,4,Neutral,Neutral,,,,,0,0,0,0,,,,,,,,,,,,,,,,,,,,,,,,,0,28,28,28,,,,,,,,,,,,,,,,,,,,,,,,,,,,,,,,,,,,,,,,,,,,,,,,,,,,,,,,,,,,,,,,,,,,,2,0.9872642999980599,541.2424117000046,None,ScrollUp,정답입니다,541.2424117000046,None,541.2424117000046,None,541.2424117000046,None,541.2424117000046,None,542.0881386999972,None,542.0881386999972,542.596412800005,,,,,,,,,,,,,,,,208,2022-05-04_15h03.37.362,FishGame,2022.1.1,60.00484838850131,
,30,넌 다정해,1,Green,A,5.833333333333334,5.7,ScrollDown,ScrollUp,Green.png,4,Positive,Congruent,,,,,0,0,0,0,,,,,,,,,,,,,,,,,,,,,,,,,0,29,29,29,,,,,,,,,,,,,,,,,,,,,,,,,,,,,,,,,,,,,,,,,,,,,,,,,,,,,,,,,,,,,,,,,,,,,1,1.0462971000088146,543.248761099996,None,ScrollDown,정답입니다,543.248761099996,None,543.248761099996,None,543.248761099996,None,543.248761099996,None,544.1674194999941,None,544.1674194999941,544.6795067000057,,,,,,,,,,,,,,,,208,2022-05-04_15h03.37.362,FishGame,2022.1.1,60.00484838850131,
,31,넌 능력있어,2,Orange,B,6.166666666666666,4.6,ScrollUp,ScrollDown,Orange.png,4,Positive,Incongruent,,,,,0,0,0,0,,,,,,,,,,,,,,,,,,,,,,,,,0,30,30,30,,,,,,,,,,,,,,,,,,,,,,,,,,,,,,,,,,,,,,,,,,,,,,,,,,,,,,,,,,,,,,,,,,,,,2,0.9649539999954868,545.3360861999972,None,ScrollUp,정답입니다,545.3360861999972,None,545.3360861999972,None,545.3360861999972,None,545.3360861999972,None,546.1677246000036,None,546.1677246000036,546.6792810000043,,,,,,,,,,,,,,,,208,2022-05-04_15h03.37.362,FishGame,2022.1.1,60.00484838850131,
,32,넌 불쾌해,5,Green,A,2.125,1.933333333333333,ScrollDown,ScrollUp,Green.png,4,Negative,Incongruent,,,,,0,0,0,0,,,,,,,,,,,,,,,,,,,,,,,,,0,31,31,31,,,,,,,,,,,,,,,,,,,,,,,,,,,,,,,,,,,,,,,,,,,,,,,,,,,,,,,,,,,,,,,,,,,,,1,1.0495092999917688,547.3341554000071,None,ScrollDown,정답입니다,547.3341554000071,None,547.3341554000071,None,547.3341554000071,None,547.3341554000071,None,548.250609900002,None,548.250609900002,548.7623485999939,,,,,,,,,,,,,,,,208,2022-05-04_15h03.37.362,FishGame,2022.1.1,60.00484838850131,
,33,나를 데려가줘,6,Orange,B,0,0,ScrollDown,ScrollUp,Orange.png,4,NonTarget,NonTarget,,,,,0,0,0,0,,,,,,,,,,,,,,,,,,,,,,,,,0,32,32,32,,,,,,,,,,,,,,,,,,,,,,,,,,,,,,,,,,,,,,,,,,,,,,,,,,,,,,,,,,,,,,,,,,,,,1,1.086864600001718,549.4200209999981,None,ScrollDown,정답입니다,549.4200209999981,None,549.4200209999981,None,549.4200209999981,None,549.4200209999981,None,550.3719036999973,None,550.3719036999973,550.8786302999943,,,,,,,,,,,,,,,,208,2022-05-04_15h03.37.362,FishGame,2022.1.1,60.00484838850131,
,34,넌 유순해,3,Green,A,4.458333333333333,5,ScrollDown,ScrollUp,Green.png,4,Neutral,Neutral,,,,,0,0,0,0,,,,,,,,,,,,,,,,,,,,,,,,,0,33,33,33,,,,,,,,,,,,,,,,,,,,,,,,,,,,,,,,,,,,,,,,,,,,,,,,,,,,,,,,,,,,,,,,,,,,,1.0354938507080078,1.2597336000035284,551.5272112999955,None,ScrollDown,정답입니다,551.5272112999955,None,551.5272112999955,None,551.5272112999955,None,551.5272112999955,None,552.6617814000056,None,552.6617814000056,553.1619569000031,,,,,,,,,,,,,,,,208,2022-05-04_15h03.37.362,FishGame,2022.1.1,60.00484838850131,
,35,넌 근심스러워,4,Orange,B,2.708333333333333,3.133333333333333,ScrollUp,ScrollDown,Orange.png,4,Negative,Congruent,,,,,0,0,0,0,,,,,,,,,,,,,,,,,,,,,,,,,0,34,34,34,,,,,,,,,,,,,,,,,,,,,,,,,,,,,,,,,,,,,,,,,,,,,,,,,,,,,,,,,,,,,,,,,,,,,2,1.0001639999973122,553.814818400002,None,ScrollUp,정답입니다,553.814818400002,None,553.814818400002,None,553.814818400002,None,553.814818400002,None,554.685258700003,None,554.685258700003,555.194797300006,,,,,,,,,,,,,,,,208,2022-05-04_15h03.37.362,FishGame,2022.1.1,60.00484838850131,
,36,넌 세련되었어,2,Green,A,5.5,4.6,ScrollDown,ScrollUp,Green.png,4,Positive,Congruent,,,,,0,0,0,0,,,,,,,,,,,,,,,,,,,,,,,,,0,35,35,35,,,,,,,,,,,,,,,,,,,,,,,,,,,,,,,,,,,,,,,,,,,,,,,,,,,,,,,,,,,,,,,,,,,,,1.0154321193695068,0.9370183999999426,555.8808872000081,None,ScrollDown,정답입니다,555.8808872000081,None,555.8808872000081,None,555.8808872000081,None,555.8808872000081,None,556.6542391999974,None,556.6542391999974,557.1612037000014,,,,,,,,,,,,,,,,208,2022-05-04_15h03.37.362,FishGame,2022.1.1,60.00484838850131,
,37,나를 보내줘,6,Green,A,0,0,ScrollUp,ScrollDown,Green.png,4,NonTarget,NonTarget,,,,,0,0,0,0,,,,,,,,,,,,,,,,,,,,,,,,,0,36,36,36,,,,,,,,,,,,,,,,,,,,,,,,,,,,,,,,,,,,,,,,,,,,,,,,,,,,,,,,,,,,,,,,,,,,,2,1.0346161000052234,557.8129887999967,None,ScrollUp,정답입니다,557.8129887999967,None,557.8129887999967,None,557.8129887999967,None,557.8129887999967,None,558.7173671000055,None,558.7173671000055,559.2277124999964,,,,,,,,,,,,,,,,208,2022-05-04_15h03.37.362,FishGame,2022.1.1,60.00484838850131,
,38,넌 확고해,3,Orange,B,4.708333333333334,4.566666666666666,ScrollUp,ScrollDown,Orange.png,4,Neutral,Neutral,,,,,0,0,0,0,,,,,,,,,,,,,,,,,,,,,,,,,0,37,37,37,,,,,,,,,,,,,,,,,,,,,,,,,,,,,,,,,,,,,,,,,,,,,,,,,,,,,,,,,,,,,,,,,,,,,2,1.1778837999881944,559.8885286000004,None,ScrollUp,정답입니다,559.8885286000004,None,559.8885286000004,None,559.8885286000004,None,559.8885286000004,None,560.9273048000032,None,560.9273048000032,561.4274317999952,,,,,,,,,,,,,,,,208,2022-05-04_15h03.37.362,FishGame,2022.1.1,60.00484838850131,
,39,넌 이해심이 많아,1,Orange,B,6.041666666666668,5.533333333333333,ScrollUp,ScrollDown,Orange.png,4,Positive,Incongruent,,,,,0,0,0,0,,,,,,,,,,,,,,,,,,,,,,,,,0,38,38,38,,,,,,,,,,,,,,,,,,,,,,,,,,,,,,,,,,,,,,,,,,,,,,,,,,,,,,,,,,,,,,,,,,,,,2,1.0785439000028418,562.0818169999984,None,ScrollUp,정답입니다,562.0818169999984,None,562.0818169999984,None,562.0818169999984,None,562.0818169999984,None,563.0274781000044,None,563.0274781000044,563.5271293999976,,,,,,,,,,,,,,,,208,2022-05-04_15h03.37.362,FishGame,2022.1.1,60.00484838850131,
,40,나를 보내줘,6,Green,A,0,0,ScrollUp,ScrollDown,Green.png,4,NonTarget,NonTarget,,,,,0,0,0,0,,,,,,,,,,,,,,,,,,,,,,,,,0,39,39,39,,,,,,,,,,,,,,,,,,,,,,,,,,,,,,,,,,,,,,,,,,,,,,,,,,,,,,,,,,,,,,,,,,,,,2,1.1373335999960545,564.1766033000022,None,ScrollUp,정답입니다,564.1766033000022,None,564.1766033000022,None,564.1766033000022,None,564.1766033000022,None,565.1876344000048,None,565.1876344000048,565.693428700004,,,,,,,,,,,,,,,,208,2022-05-04_15h03.37.362,FishGame,2022.1.1,60.00484838850131,
,41,넌 거칠어,4,Green,A,2.625,3.033333333333333,ScrollDown,ScrollUp,Green.png,4,Negative,Incongruent,,,,,0,0,0,0,,,,,,,,,,,,,,,,,,,,,,,,,0,40,40,40,,,,,,,,,,,,,,,,,,,,,,,,,,,,,,,,,,,,,,,,,,,,,,,,,,,,,,,,,,,,,,,,,,,,,1,1.1165589000011096,566.3513749999984,None,ScrollDown,정답입니다,566.3513749999984,None,566.3513749999984,None,566.3513749999984,None,566.3513749999984,None,567.3335888000001,None,567.3335888000001,567.8430928000016,,,,,,,,,,,,,,,,208,2022-05-04_15h03.37.362,FishGame,2022.1.1,60.00484838850131,
,42,넌 변덕맞아,5,Orange,B,2.75,2.166666666666667,ScrollUp,ScrollDown,Orange.png,4,Negative,Congruent,,,,,0,0,0,0,,,,,,,,,,,,,,,,,,,,,,,,,0,41,41,41,,,,,,,,,,,,,,,,,,,,,,,,,,,,,,,,,,,,,,,,,,,,,,,,,,,,,,,,,,,,,,,,,,,,,2,1.0056746999907773,568.5109492000047,None,ScrollUp,정답입니다,568.5109492000047,None,568.5109492000047,None,568.5109492000047,None,568.5109492000047,None,569.369131600004,None,569.369131600004,569.8762699000072,,,,,,,,,,,,,,,,208,2022-05-04_15h03.37.362,FishGame,2022.1.1,60.00484838850131,
,43,나를 데려가줘,6,Orange,B,0,0,ScrollDown,ScrollUp,Orange.png,4,NonTarget,NonTarget,,,,,0,0,0,0,,,,,,,,,,,,,,,,,,,,,,,,,0,42,42,42,,,,,,,,,,,,,,,,,,,,,,,,,,,,,,,,,,,,,,,,,,,,,,,,,,,,,,,,,,,,,,,,,,,,,1,1.1926763000083156,570.5310602999962,None,ScrollDown,정답입니다,570.5310602999962,None,570.5310602999962,None,570.5310602999962,None,570.5310602999962,None,571.5891332000028,None,571.5891332000028,572.0925850000058,,,,,,,,,,,,,,,,208,2022-05-04_15h03.37.362,FishGame,2022.1.1,60.00484838850131,
,44,넌 외로워,4,Orange,B,2.833333333333333,3.3,ScrollUp,ScrollDown,Orange.png,4,Negative,Congruent,,,,,0,0,0,0,,,,,,,,,,,,,,,,,,,,,,,,,0,43,43,43,,,,,,,,,,,,,,,,,,,,,,,,,,,,,,,,,,,,,,,,,,,,,,,,,,,,,,,,,,,,,,,,,,,,,2,1.128292599998531,572.7572649000067,None,ScrollUp,정답입니다,572.7572649000067,None,572.7572649000067,None,572.7572649000067,None,572.7572649000067,None,573.7446375,None,573.7446375,574.2591197000002,,,,,,,,,,,,,,,,208,2022-05-04_15h03.37.362,FishGame,2022.1.1,60.00484838850131,
,1,넌 불평스러워,5,Green,A,2.25,2.066666666666667,ScrollDown,ScrollUp,Green.png,5,Negative,Incongruent,,,,,0,0,0,0,,,,,,,,,,,,,,,,,,,,,,,,,,,,,0,0,0,0,,,,,,,,,,,,,,,,,,,,,,,,606.2551074000075,607.7547914000024,607.7881628000032,608.7380030000058,608.7880514999997,609.7379596999963,609.7379596999963,None,,,,,,,,,,,,,,,,,,,,,,,,,,,,,,,,,,1,1.1488679999893066,610.9281111000018,None,ScrollDown,정답입니다,610.9281111000018,None,610.9281111000018,None,610.9281111000018,None,610.9281111000018,None,611.8980751000054,None,611.8980751000054,612.4040827999997,574.7589557000028,None,574.7589557000028,None,0.097222224,-0.09166667,1,0,0,0.0162315000052331,None,604.755107200006,None,,,208,2022-05-04_15h03.37.362,FishGame,2022.1.1,60.00484838850131,
,2,나를 보내줘,6,Green,A,0,0,ScrollUp,ScrollDown,Green.png,5,NonTarget,NonTarget,,,,,0,0,0,0,,,,,,,,,,,,,,,,,,,,,,,,,,,,,0,1,1,1,,,,,,,,,,,,,,,,,,,,,,,,,,,,,,,,,,,,,,,,,,,,,,,,,,,,,,,,,,,,,,,,,2,1.1726321000023745,613.0507559999969,None,ScrollUp,정답입니다,613.0507559999969,None,613.0507559999969,None,613.0507559999969,None,613.0507559999969,None,614.1039655000059,None,614.1039655000059,614.6038120000012,,,,,,,,,,,,,,,,208,2022-05-04_15h03.37.362,FishGame,2022.1.1,60.00484838850131,
,3,넌 다재다능해,2,Orange,B,6.208333333333333,4.5,ScrollUp,ScrollDown,Orange.png,5,Positive,Incongruent,,,,,0,0,0,0,,,,,,,,,,,,,,,,,,,,,,,,,,,,,0,2,2,2,,,,,,,,,,,,,,,,,,,,,,,,,,,,,,,,,,,,,,,,,,,,,,,,,,,,,,,,,,,,,,,,,2,1.0273764000012306,615.261966799997,None,ScrollUp,정답입니다,615.261966799997,None,615.261966799997,None,615.261966799997,None,615.261966799997,None,616.1545879000041,None,616.1545879000041,616.6535558000032,,,,,,,,,,,,,,,,208,2022-05-04_15h03.37.362,FishGame,2022.1.1,60.00484838850131,
,4,넌 과감해,3,Green,A,4.833333333333334,4.6,ScrollDown,ScrollUp,Green.png,5,Neutral,Neutral,,,,,0,0,0,0,,,,,,,,,,,,,,,,,,,,,,,,,,,,,0,3,3,3,,,,,,,,,,,,,,,,,,,,,,,,,,,,,,,,,,,,,,,,,,,,,,,,,,,,,,,,,,,,,,,,,1,1.1357119000022067,617.3021740999975,None,ScrollDown,정답입니다,617.3021740999975,None,617.3021740999975,None,617.3021740999975,None,617.3021740999975,None,618.3122807000036,None,618.3122807000036,618.8199835999985,,,,,,,,,,,,,,,,208,2022-05-04_15h03.37.362,FishGame,2022.1.1,60.00484838850131,
,5,넌 고분고분해,3,Orange,B,3.75,4.033333333333333,ScrollUp,ScrollDown,Orange.png,5,Neutral,Neutral,,,,,0,0,0,0,,,,,,,,,,,,,,,,,,,,,,,,,,,,,0,4,4,4,,,,,,,,,,,,,,,,,,,,,,,,,,,,,,,,,,,,,,,,,,,,,,,,,,,,,,,,,,,,,,,,,2,0.9299893999996129,619.4822323999979,None,ScrollUp,정답입니다,619.4822323999979,None,619.4822323999979,None,619.4822323999979,None,619.4822323999979,None,620.2764905000076,None,620.2764905000076,620.7865890999965,,,,,,,,,,,,,,,,208,2022-05-04_15h03.37.362,FishGame,2022.1.1,60.00484838850131,
,6,나를 보내줘,6,Green,A,0,0,ScrollUp,ScrollDown,Green.png,5,NonTarget,NonTarget,,,,,0,0,0,0,,,,,,,,,,,,,,,,,,,,,,,,,,,,,0,5,5,5,,,,,,,,,,,,,,,,,,,,,,,,,,,,,,,,,,,,,,,,,,,,,,,,,,,,,,,,,,,,,,,,,2,1.1763608999899589,621.4339226000011,None,ScrollUp,정답입니다,621.4339226000011,None,621.4339226000011,None,621.4339226000011,None,621.4339226000011,None,622.486098399997,None,622.486098399997,622.9862758999952,,,,,,,,,,,,,,,,208,2022-05-04_15h03.37.362,FishGame,2022.1.1,60.00484838850131,
,7,넌 잘 잊어,4,Green,A,3,3.7,ScrollDown,ScrollUp,Green.png,5,Negative,Incongruent,,,,,0,0,0,0,,,,,,,,,,,,,,,,,,,,,,,,,,,,,0,6,6,6,,,,,,,,,,,,,,,,,,,,,,,,,,,,,,,,,,,,,,,,,,,,,,,,,,,,,,,,,,,,,,,,,1,1.0760360000131186,623.6443222999951,None,ScrollDown,정답입니다,623.6443222999951,None,623.6443222999951,None,623.6443222999951,None,623.6443222999951,None,624.5878546000022,None,624.5878546000022,625.1024954000022,,,,,,,,,,,,,,,,208,2022-05-04_15h03.37.362,FishGame,2022.1.1,60.00484838850131,
,8,넌 탐구심이없어,4,Orange,B,2.833333333333333,3.066666666666667,ScrollUp,ScrollDown,Orange.png,5,Negative,Congruent,,,,,0,0,0,0,,,,,,,,,,,,,,,,,,,,,,,,,,,,,0,7,7,7,,,,,,,,,,,,,,,,,,,,,,,,,,,,,,,,,,,,,,,,,,,,,,,,,,,,,,,,,,,,,,,,,2,1.1005679999943823,625.7670190000063,None,ScrollUp,정답입니다,625.7670190000063,None,625.7670190000063,None,625.7670190000063,None,625.7670190000063,None,626.7246193000028,None,626.7246193000028,627.2355234999995,,,,,,,,,,,,,,,,208,2022-05-04_15h03.37.362,FishGame,2022.1.1,60.00484838850131,
,9,나를 데려가줘,6,Orange,B,0,0,ScrollDown,ScrollUp,Orange.png,5,NonTarget,NonTarget,,,,,0,0,0,0,,,,,,,,,,,,,,,,,,,,,,,,,,,,,0,8,8,8,,,,,,,,,,,,,,,,,,,,,,,,,,,,,,,,,,,,,,,,,,,,,,,,,,,,,,,,,,,,,,,,,1,1.1423410000134027,627.8860663999949,None,ScrollDown,정답입니다,627.8860663999949,None,627.8860663999949,None,627.8860663999949,None,627.8860663999949,None,628.9022266999964,None,628.9022266999964,629.4019948000059,,,,,,,,,,,,,,,,208,2022-05-04_15h03.37.362,FishGame,2022.1.1,60.00484838850131,
,10,넌 참되어,2,Green,A,6.041666666666664,4.733333333333333,ScrollDown,ScrollUp,Green.png,5,Positive,Congruent,,,,,0,0,0,0,,,,,,,,,,,,,,,,,,,,,,,,,,,,,0,9,9,9,,,,,,,,,,,,,,,,,,,,,,,,,,,,,,,,,,,,,,,,,,,,,,,,,,,,,,,,,,,,,,,,,1,1.457090000010794,630.0536999000033,None,ScrollDown,정답입니다,630.0536999000033,None,630.0536999000033,None,630.0536999000033,None,630.0536999000033,None,631.3851487000065,None,631.3851487000065,631.8852467999968,,,,,,,,,,,,,,,,208,2022-05-04_15h03.37.362,FishGame,2022.1.1,60.00484838850131,
,11,넌 생기있어,1,Orange,B,5.875,5.633333333333334,ScrollUp,ScrollDown,Orange.png,5,Positive,Incongruent,,,,,0,0,0,0,,,,,,,,,,,,,,,,,,,,,,,,,,,,,0,10,10,10,,,,,,,,,,,,,,,,,,,,,,,,,,,,,,,,,,,,,,,,,,,,,,,,,,,,,,,,,,,,,,,,,2,1.0667145000043092,632.5410186999943,None,ScrollUp,정답입니다,632.5410186999943,None,632.5410186999943,None,632.5410186999943,None,632.5410186999943,None,633.4743041000038,None,633.4743041000038,633.9847216000053,,,,,,,,,,,,,,,,208,2022-05-04_15h03.37.362,FishGame,2022.1.1,60.00484838850131,
,12,넌 비사교적이야,4,Orange,B,2.875,2.9,ScrollUp,ScrollDown,Orange.png,5,Negative,Congruent,,,,,0,0,0,0,,,,,,,,,,,,,,,,,,,,,,,,,,,,,0,11,11,11,,,,,,,,,,,,,,,,,,,,,,,,,,,,,,,,,,,,,,,,,,,,,,,,,,,,,,,,,,,,,,,,,2,0.9613155000115512,634.6370744000014,None,ScrollUp,정답입니다,634.6370744000014,None,634.6370744000014,None,634.6370744000014,None,634.6370744000014,None,635.4682704000006,None,635.4682704000006,635.967840199999,,,,,,,,,,,,,,,,208,2022-05-04_15h03.37.362,FishGame,2022.1.1,60.00484838850131,
,13,나를 데려가줘,6,Orange,B,0,0,ScrollDown,ScrollUp,Orange.png,5,NonTarget,NonTarget,,,,,0,0,0,0,,,,,,,,,,,,,,,,,,,,,,,,,,,,,0,12,12,12,,,,,,,,,,,,,,,,,,,,,,,,,,,,,,,,,,,,,,,,,,,,,,,,,,,,,,,,,,,,,,,,,1,1.1142548000061652,636.6233722000034,None,ScrollDown,정답입니다,636.6233722000034,None,636.6233722000034,None,636.6233722000034,None,636.6233722000034,None,637.605035200002,None,637.605035200002,638.117616699994,,,,,,,,,,,,,,,,208,2022-05-04_15h03.37.362,FishGame,2022.1.1,60.00484838850131,
,14,넌 고독해,4,Green,A,2.916666666666667,3.233333333333333,ScrollDown,ScrollUp,Green.png,5,Negative,Incongruent,,,,,0,0,0,0,,,,,,,,,,,,,,,,,,,,,,,,,,,,,0,13,13,13,,,,,,,,,,,,,,,,,,,,,,,,,,,,,,,,,,,,,,,,,,,,,,,,,,,,,,,,,,,,,,,,,1,1.0875467999867396,638.7678473999986,None,ScrollDown,정답입니다,638.7678473999986,None,638.7678473999986,None,638.7678473999986,None,638.7678473999986,None,639.7365948999941,None,639.7365948999941,640.2509798999963,,,,,,,,,,,,,,,,208,2022-05-04_15h03.37.362,FishGame,2022.1.1,60.00484838850131,
,15,넌 신경질적이야,5,Orange,B,2.375,2.233333333333333,ScrollUp,ScrollDown,Orange.png,5,Negative,Congruent,,,,,0,0,0,0,,,,,,,,,,,,,,,,,,,,,,,,,,,,,0,14,14,14,,,,,,,,,,,,,,,,,,,,,,,,,,,,,,,,,,,,,,,,,,,,,,,,,,,,,,,,,,,,,,,,,2,0.9654127000103472,640.9053185999946,None,ScrollUp,정답입니다,640.9053185999946,None,640.9053185999946,None,640.9053185999946,None,640.9053185999946,None,641.7394637999969,None,641.7394637999969,642.2502794000029,,,,,,,,,,,,,,,,208,2022-05-04_15h03.37.362,FishGame,2022.1.1,60.00484838850131,
,16,넌 똑똑해,2,Orange,B,5.666666666666667,3.966666666666667,ScrollUp,ScrollDown,Orange.png,5,Positive,Incongruent,,,,,0,0,0,0,,,,,,,,,,,,,,,,,,,,,,,,,,,,,0,15,15,15,,,,,,,,,,,,,,,,,,,,,,,,,,,,,,,,,,,,,,,,,,,,,,,,,,,,,,,,,,,,,,,,,2,1.0213646000047447,642.9104078999953,None,ScrollUp,정답입니다,642.9104078999953,None,642.9104078999953,None,642.9104078999953,None,642.9104078999953,None,643.7937583000021,None,643.7937583000021,644.3000596000056,,,,,,,,,,,,,,,,208,2022-05-04_15h03.37.362,FishGame,2022.1.1,60.00484838850131,
,17,나를 보내줘,6,Green,A,0,0,ScrollUp,ScrollDown,Green.png,5,NonTarget,NonTarget,,,,,0,0,0,0,,,,,,,,,,,,,,,,,,,,,,,,,,,,,0,16,16,16,,,,,,,,,,,,,,,,,,,,,,,,,,,,,,,,,,,,,,,,,,,,,,,,,,,,,,,,,,,,,,,,,2,1.1107461000065086,644.9440618000081,None,ScrollUp,정답입니다,644.9440618000081,None,644.9440618000081,None,644.9440618000081,None,644.9440618000081,None,645.9332220000069,None,645.9332220000069,646.4331612999958,,,,,,,,,,,,,,,,208,2022-05-04_15h03.37.362,FishGame,2022.1.1,60.00484838850131,
,18,넌 협조적이야,1,Green,A,5.625,5.666666666666667,ScrollDown,ScrollUp,Green.png,5,Positive,Congruent,,,,,0,0,0,0,,,,,,,,,,,,,,,,,,,,,,,,,,,,,0,17,17,17,,,,,,,,,,,,,,,,,,,,,,,,,,,,,,,,,,,,,,,,,,,,,,,,,,,,,,,,,,,,,,,,,1,1.0991165000014007,647.0831992000021,None,ScrollDown,정답입니다,647.0831992000021,None,647.0831992000021,None,647.0831992000021,None,647.0831992000021,None,648.056024599995,None,648.056024599995,648.5662652000028,,,,,,,,,,,,,,,,208,2022-05-04_15h03.37.362,FishGame,2022.1.1,60.00484838850131,
,19,나를 데려가줘,6,Orange,B,0,0,ScrollDown,ScrollUp,Orange.png,5,NonTarget,NonTarget,,,,,0,0,0,0,,,,,,,,,,,,,,,,,,,,,,,,,,,,,0,18,18,18,,,,,,,,,,,,,,,,,,,,,,,,,,,,,,,,,,,,,,,,,,,,,,,,,,,,,,,,,,,,,,,,,1,1.1039686000003712,649.2215374999942,None,ScrollDown,정답입니다,649.2215374999942,None,649.2215374999942,None,649.2215374999942,None,649.2215374999942,None,650.1920621000027,None,650.1920621000027,650.6993721000035,,,,,,,,,,,,,,,,208,2022-05-04_15h03.37.362,FishGame,2022.1.1,60.00484838850131,
,20,넌 몰인정해,5,Orange,B,2.541666666666667,2.066666666666667,ScrollUp,ScrollDown,Orange.png,5,Negative,Congruent,,,,,0,0,0,0,,,,,,,,,,,,,,,,,,,,,,,,,,,,,0,19,19,19,,,,,,,,,,,,,,,,,,,,,,,,,,,,,,,,,,,,,,,,,,,,,,,,,,,,,,,,,,,,,,,,,2,1.033485899999505,651.3583421000076,None,ScrollUp,정답입니다,651.3583421000076,None,651.3583421000076,None,651.3583421000076,None,651.3583421000076,None,652.2574580000073,None,652.2574580000073,652.7656529999949,,,,,,,,,,,,,,,,208,2022-05-04_15h03.37.362,FishGame,2022.1.1,60.00484838850131,
,21,나를 데려가줘,6,Orange,B,0,0,ScrollDown,ScrollUp,Orange.png,5,NonTarget,NonTarget,,,,,0,0,0,0,,,,,,,,,,,,,,,,,,,,,,,,,,,,,0,20,20,20,,,,,,,,,,,,,,,,,,,,,,,,,,,,,,,,,,,,,,,,,,,,,,,,,,,,,,,,,,,,,,,,,1,1.1437566999957198,653.4199458999938,None,ScrollDown,정답입니다,653.4199458999938,None,653.4199458999938,None,653.4199458999938,None,653.4199458999938,None,654.4323000000004,None,654.4323000000004,654.9320157000038,,,,,,,,,,,,,,,,208,2022-05-04_15h03.37.362,FishGame,2022.1.1,60.00484838850131,
,22,넌 순진해,3,Orange,B,4.125,4.166666666666667,ScrollUp,ScrollDown,Orange.png,5,Neutral,Neutral,,,,,0,0,0,0,,,,,,,,,,,,,,,,,,,,,,,,,,,,,0,21,21,21,,,,,,,,,,,,,,,,,,,,,,,,,,,,,,,,,,,,,,,,,,,,,,,,,,,,,,,,,,,,,,,,,2,1.0402153999893926,655.582501500001,None,ScrollUp,정답입니다,655.582501500001,None,655.582501500001,None,655.582501500001,None,655.582501500001,None,656.4985304000002,None,656.4985304000002,656.9984725999966,,,,,,,,,,,,,,,,208,2022-05-04_15h03.37.362,FishGame,2022.1.1,60.00484838850131,
,23,넌 신뢰할만해,1,Green,A,6.625,5.533333333333333,ScrollDown,ScrollUp,Green.png,5,Positive,Congruent,,,,,0,0,0,0,,,,,,,,,,,,,,,,,,,,,,,,,,,,,0,22,22,22,,,,,,,,,,,,,,,,,,,,,,,,,,,,,,,,,,,,,,,,,,,,,,,,,,,,,,,,,,,,,,,,,1,1.0430381999904057,657.6556971999962,None,ScrollDown,정답입니다,657.6556971999962,None,657.6556971999962,None,657.6556971999962,None,657.6556971999962,None,658.5614402000065,None,658.5614402000065,659.0648746000079,,,,,,,,,,,,,,,,208,2022-05-04_15h03.37.362,FishGame,2022.1.1,60.00484838850131,
,24,나를 보내줘,6,Green,A,0,0,ScrollUp,ScrollDown,Green.png,5,NonTarget,NonTarget,,,,,0,0,0,0,,,,,,,,,,,,,,,,,,,,,,,,,,,,,0,23,23,23,,,,,,,,,,,,,,,,,,,,,,,,,,,,,,,,,,,,,,,,,,,,,,,,,,,,,,,,,,,,,,,,,2,1.0808208999951603,659.7121298999991,None,ScrollUp,정답입니다,659.7121298999991,None,659.7121298999991,None,659.7121298999991,None,659.7121298999991,None,660.6682743999991,None,660.6682743999991,661.1812873000017,,,,,,,,,,,,,,,,208,2022-05-04_15h03.37.362,FishGame,2022.1.1,60.00484838850131,
,25,넌 인색해,5,Green,A,2.625,2.233333333333333,ScrollDown,ScrollUp,Green.png,5,Negative,Incongruent,,,,,0,0,0,0,,,,,,,,,,,,,,,,,,,,,,,,,,,,,0,24,24,24,,,,,,,,,,,,,,,,,,,,,,,,,,,,,,,,,,,,,,,,,,,,,,,,,,,,,,,,,,,,,,,,,1,1.0320061999955215,661.8580484999984,None,ScrollDown,정답입니다,661.8580484999984,None,661.8580484999984,None,661.8580484999984,None,661.8580484999984,None,662.7364704000065,None,662.7364704000065,663.2478074999963,,,,,,,,,,,,,,,,208,2022-05-04_15h03.37.362,FishGame,2022.1.1,60.00484838850131,
,26,넌 유쾌해,1,Orange,B,5.833333333333333,5.766666666666667,ScrollUp,ScrollDown,Orange.png,5,Positive,Incongruent,,,,,0,0,0,0,,,,,,,,,,,,,,,,,,,,,,,,,,,,,0,25,25,25,,,,,,,,,,,,,,,,,,,,,,,,,,,,,,,,,,,,,,,,,,,,,,,,,,,,,,,,,,,,,,,,,2,1.0203068000118947,663.8979895999946,None,ScrollUp,정답입니다,663.8979895999946,None,663.8979895999946,None,663.8979895999946,None,663.8979895999946,None,664.7887310000078,None,664.7887310000078,665.2974064000009,,,,,,,,,,,,,,,,208,2022-05-04_15h03.37.362,FishGame,2022.1.1,60.00484838850131,
