name,TrialNum,Word,WordCategory,FishType,WordList,WordValence,WordReputation,CorrectResp,IncorrectResp,FishTypeFile,Round,WordType,Condition,LoopforOrange.thisRepN,LoopforOrange.thisTrialN,LoopforOrange.thisN,LoopforOrange.thisIndex,OrangeInstLoop.thisRepN,OrangeInstLoop.thisTrialN,OrangeInstLoop.thisN,OrangeInstLoop.thisIndex,OrangePrac.thisRepN,OrangePrac.thisTrialN,OrangePrac.thisN,OrangePrac.thisIndex,temp1.thisRepN,temp1.thisTrialN,temp1.thisN,temp1.thisIndex,OrangeRound1.thisRepN,OrangeRound1.thisTrialN,OrangeRound1.thisN,OrangeRound1.thisIndex,OrangeRound2.thisRepN,OrangeRound2.thisTrialN,OrangeRound2.thisN,OrangeRound2.thisIndex,OrangeRound3.thisRepN,OrangeRound3.thisTrialN,OrangeRound3.thisN,OrangeRound3.thisIndex,OrangeRound4.thisRepN,OrangeRound4.thisTrialN,OrangeRound4.thisN,OrangeRound4.thisIndex,OrangeRound5.thisRepN,OrangeRound5.thisTrialN,OrangeRound5.thisN,OrangeRound5.thisIndex,LoopForGreen.thisRepN,LoopForGreen.thisTrialN,LoopForGreen.thisN,LoopForGreen.thisIndex,text_2.started,text_2.stopped,text_3.started,text_3.stopped,key_resp.keys,key_resp.rt,key_resp.started,key_resp.stopped,PassI_2.started,PassI_2.stopped,PassInst_2.keys,PassInst_2.rt,PassInst_2.started,PassInst_2.stopped,mouse_2.x,mouse_2.y,mouse_2.leftButton,mouse_2.midButton,mouse_2.rightButton,mouse_2.started,mouse_2.stopped,image.started,image.stopped,text_5.started,text_5.stopped,text_6.started,text_6.stopped,text_7.started,text_7.stopped,text_8.started,text_8.stopped,slider_2.response,slider_2.rt,slider_2.started,slider_2.stopped,Response_2,Feedback_2,BackGround_2.started,BackGround_2.stopped,Fish_2.started,Fish_2.stopped,WordBox_2.started,WordBox_2.stopped,Words_2.started,Words_2.stopped,BackGround_Feedback_2.started,BackGround_Feedback_2.stopped,Feedbacks_2.started,Feedbacks_2.stopped,Continue_or_not.keys,Continue_or_not.rt,Continue_or_not.started,Continue_or_not.stopped,image_3.started,image_3.stopped,mouse_3.x,mouse_3.y,mouse_3.leftButton,mouse_3.midButton,mouse_3.rightButton,mouse_3.started,mouse_3.stopped,startmain.started,startmain.stopped,slider.response,slider.rt,slider.started,slider.stopped,Response,Feedback,BackGround.started,BackGround.stopped,Fish.started,Fish.stopped,WordBox.started,WordBox.stopped,Words.started,Words.stopped,BackGround_Feedback.started,BackGround_Feedback.stopped,Feedbacks.started,Feedbacks.stopped,text.started,text.stopped,break_interval.started,break_interval.stopped,mouse.x,mouse.y,mouse.leftButton,mouse.midButton,mouse.rightButton,mouse.started,mouse.stopped,stratnextround.started,stratnextround.stopped,endgame.started,endgame.stopped,participant,date,expName,psychopyVersion,frameRate,
,,,,,,,,,,,,,,,,,,,,,,,,,,,,,,,,,,,,,,,,,,,,,,,,,,,,,,27.899750199999744,None,27.899750199999744,None,space,2.2526495000001887,28.372479600000133,None,,,,,,,,,,,,,,,,,,,,,,,,,,,,,,,,,,,,,,,,,,,,,,,,,,,,,,,,,,,,,,,,,,,,,,,,,,,,,,,,,,,,,,,,,,209,2022-05-04_15h12.35.086,FishGame,2022.1.1,60.09604549988996,
물고기과제_instruction(참가자용)OrangeVersion.mp4,,,,,,,,,,,,,,0,0,0,0,0,0,0,0,,,,,,,,,,,,,,,,,,,,,,,,,,,,,,,,,,,,,,,,,97.80349930000011,None,n,3.7016281000001072,97.80349930000011,None,,,,,,,,,,,,,,,,,,,,,,,,,,,,,,,,,,,,,,,,,,,,,,,,,,,,,,,,,,,,,,,,,,,,,,,,,,,,,,,,,,,,209,2022-05-04_15h12.35.086,FishGame,2022.1.1,60.09604549988996,
,1,넌 교활해,5,Green,B,2.333333333333333,2.133333333333333,ScrollUp,ScrollDown,Green.png,practice,,,0,0,0,0,,,,,0,0,0,0,0,0,0,0,,,,,,,,,,,,,,,,,,,,,,,,,,,,,,,,,,,,,,,0.06111111,-0.21111111,1,0,0,0.5122601199996097,None,101.52257800000007,None,105.63734399999976,107.1367022999998,107.17006360000005,108.11963909999986,108.1697449999997,109.11918560000004,109.11918560000004,None,2,2.8479191999999784,110.41065509999999,None,ScrollUp,정답입니다,110.41065509999999,None,110.41065509999999,None,110.41065509999999,None,110.41065509999999,None,113.00627759999998,None,113.00627759999998,113.51739390000012,,,,,,,,,,,,,,,,,,,,,,,,,,,,,,,,,,,,,,,,,,,,,,,,,209,2022-05-04_15h12.35.086,FishGame,2022.1.1,60.09604549988996,
,2,넌 슬기로워,2,Orange,A,6.166666666666667,4.1,ScrollDown,ScrollUp,Orange.png,practice,,,0,0,0,0,,,,,0,0,0,0,0,1,1,1,,,,,,,,,,,,,,,,,,,,,,,,,,,,,,,,,,,,,,,,,,,,,,,,,,,,,,,,1,1.1245834999999715,114.18232439999974,None,ScrollDown,정답입니다,114.18232439999974,None,114.18232439999974,None,114.18232439999974,None,114.18232439999974,None,115.16644749999978,None,115.16644749999978,115.66623359999994,,,,,,,,,,,,,,,,,,,,,,,,,,,,,,,,,,,,,,,,,,,,,,,,,209,2022-05-04_15h12.35.086,FishGame,2022.1.1,60.09604549988996,
,3,나를 보내줘,6,Orange,A,0,0,ScrollUp,ScrollDown,Orange.png,practice,,,0,0,0,0,,,,,0,0,0,0,0,2,2,2,,,,,,,,,,,,,,,,,,,,,,,,,,,,,,,,,,,,,,,,,,,,,,,,,,,,,,,,1.8364197413126628,1.175763399999596,116.33008629999995,None,ScrollUp,정답입니다,116.33008629999995,None,116.33008629999995,None,116.33008629999995,None,116.33008629999995,None,117.36800689999973,None,117.36800689999973,117.88234319999992,,,,,,,,,,,,,,,,,,,,,,,,,,,,,,,,,,,,,,,,,,,,,,,,,209,2022-05-04_15h12.35.086,FishGame,2022.1.1,60.09604549988996,
,4,나를 데려가줘,6,Green,B,0,0,ScrollDown,ScrollUp,Green.png,practice,,,0,0,0,0,,,,,0,0,0,0,0,3,3,3,,,,,,,,,,,,,,,,,,,,,,,,,,,,,,,,,,,,,,,,,,,,,,,,,,,,,,,,1.1913580348094304,1.2639908000001014,118.52973819999988,None,ScrollDown,정답입니다,118.52973819999988,None,118.52973819999988,None,118.52973819999988,None,118.52973819999988,None,119.67296660000011,None,119.67296660000011,120.18173939999997,,,,,,,,,,,,,,,,,,,,,,,,,,,,,,,,,,,,,,,,,,,,,,,,,209,2022-05-04_15h12.35.086,FishGame,2022.1.1,60.09604549988996,
,1,넌 교활해,5,Green,B,2.333333333333333,2.133333333333333,ScrollUp,ScrollDown,Green.png,practice,,,0,0,0,0,,,,,0,0,0,0,,,,,,,,,,,,,,,,,,,,,,,,,,,,,,,,,,,,,,,,,,,,,,,,,,,,,,,,,,,,,,,,,,,,,,,,,,,,,,n,10.417156400000295,120.68129939999972,None,120.68129939999972,None,,,,,,,,,,,,,,,,,,,,,,,,,,,,,,,,,,,,,,,,,,,209,2022-05-04_15h12.35.086,FishGame,2022.1.1,60.09604549988996,
,1,넌 따뜻해,1,Green,B,6.083333333333333,5.6,ScrollUp,ScrollDown,Green.png,1,Positive,Incongruent,0,0,0,0,,,,,,,,,,,,,0,0,0,0,,,,,,,,,,,,,,,,,,,,,,,,,,,,,,,,,,,,,,,,,,,,133.84124999999995,135.34120299999995,135.3741114999998,136.32349290000002,136.3737673999999,137.32278210000004,137.32278210000004,None,,,,,,,,,,,,,,,,,,,,,,,,,0.049074072,-0.15648147,1,0,0,0.3136148200005664,None,131.12559409999994,None,1.8009259204069774,1.3509672000000137,138.5778421,None,ScrollUp,정답입니다,138.5778421,None,138.5778421,None,138.5778421,None,138.5778421,None,139.68725199999972,None,139.68725199999972,140.1885957999998,,,,,,,,,,,,,,,,209,2022-05-04_15h12.35.086,FishGame,2022.1.1,60.09604549988996,
,2,넌 기품있어,2,Green,B,5.791666666666668,4.5,ScrollUp,ScrollDown,Green.png,1,Positive,Incongruent,0,0,0,0,,,,,,,,,,,,,0,1,1,1,,,,,,,,,,,,,,,,,,,,,,,,,,,,,,,,,,,,,,,,,,,,,,,,,,,,,,,,,,,,,,,,,,,,,,,,,,,,,,,,,,,,,1.6574074104428291,0.9818247000002884,140.85080879999987,None,ScrollUp,정답입니다,140.85080879999987,None,140.85080879999987,None,140.85080879999987,None,140.85080879999987,None,141.69299869999986,None,141.69299869999986,142.20427759999984,,,,,,,,,,,,,,,,209,2022-05-04_15h12.35.086,FishGame,2022.1.1,60.09604549988996,
,3,나를 보내줘,6,Orange,A,0,0,ScrollUp,ScrollDown,Orange.png,1,NonTarget,NonTarget,0,0,0,0,,,,,,,,,,,,,0,2,2,2,,,,,,,,,,,,,,,,,,,,,,,,,,,,,,,,,,,,,,,,,,,,,,,,,,,,,,,,,,,,,,,,,,,,,,,,,,,,,,,,,,,,,1,0.9524558000002799,142.86887819999993,None,ScrollDown,오답입니다,142.86887819999993,None,142.86887819999993,None,142.86887819999993,None,142.86887819999993,None,143.68437240000003,None,143.68437240000003,144.1867729999999,,,,,,,,,,,,,,,,209,2022-05-04_15h12.35.086,FishGame,2022.1.1,60.09604549988996,
,4,넌 수동적이야,4,Orange,A,2.833333333333333,2.933333333333333,ScrollDown,ScrollUp,Orange.png,1,Negative,Incongruent,0,0,0,0,,,,,,,,,,,,,0,3,3,3,,,,,,,,,,,,,,,,,,,,,,,,,,,,,,,,,,,,,,,,,,,,,,,,,,,,,,,,,,,,,,,,,,,,,,,,,,,,,,,,,,,,,1.016975333293279,1.390053699999953,144.85616709999977,None,ScrollDown,정답입니다,144.85616709999977,None,144.85616709999977,None,144.85616709999977,None,144.85616709999977,None,146.102218,None,146.102218,146.60190379999995,,,,,,,,,,,,,,,,209,2022-05-04_15h12.35.086,FishGame,2022.1.1,60.09604549988996,
,5,넌 사심이 없어,3,Green,B,4.916666666666666,4.333333333333333,ScrollUp,ScrollDown,Green.png,1,Neutral,Neutral,0,0,0,0,,,,,,,,,,,,,0,4,4,4,,,,,,,,,,,,,,,,,,,,,,,,,,,,,,,,,,,,,,,,,,,,,,,,,,,,,,,,,,,,,,,,,,,,,,,,,,,,,,,,,,,,,1.7947530895471573,0.9596473000001424,147.26652419999982,None,ScrollUp,정답입니다,147.26652419999982,None,147.26652419999982,None,147.26652419999982,None,147.26652419999982,None,148.0855492999999,None,148.0855492999999,148.5848007999998,,,,,,,,,,,,,,,,209,2022-05-04_15h12.35.086,FishGame,2022.1.1,60.09604549988996,
,6,넌 헤퍼,5,Orange,A,2.458333333333334,2.233333333333333,ScrollDown,ScrollUp,Orange.png,1,Negative,Incongruent,0,0,0,0,,,,,,,,,,,,,0,5,5,5,,,,,,,,,,,,,,,,,,,,,,,,,,,,,,,,,,,,,,,,,,,,,,,,,,,,,,,,,,,,,,,,,,,,,,,,,,,,,,,,,,,,,1.0694444576899211,1.0487413000000743,149.27039680000007,None,ScrollDown,정답입니다,149.27039680000007,None,149.27039680000007,None,149.27039680000007,None,149.27039680000007,None,150.1573112000001,None,150.1573112000001,150.66714649999994,,,,,,,,,,,,,,,,209,2022-05-04_15h12.35.086,FishGame,2022.1.1,60.09604549988996,
,7,넌 말쑥해,3,Orange,A,4.833333333333334,4.333333333333333,ScrollDown,ScrollUp,Orange.png,1,Neutral,Neutral,0,0,0,0,,,,,,,,,,,,,0,6,6,6,,,,,,,,,,,,,,,,,,,,,,,,,,,,,,,,,,,,,,,,,,,,,,,,,,,,,,,,,,,,,,,,,,,,,,,,,,,,,,,,,,,,,1.2283950696388881,1.1933317000002717,151.33019669999976,None,ScrollDown,정답입니다,151.33019669999976,None,151.33019669999976,None,151.33019669999976,None,151.33019669999976,None,152.3833897999998,None,152.3833897999998,152.88241459999972,,,,,,,,,,,,,,,,209,2022-05-04_15h12.35.086,FishGame,2022.1.1,60.09604549988996,
,8,넌 투덜거려,5,Green,B,2.541666666666667,2.266666666666667,ScrollUp,ScrollDown,Green.png,1,Negative,Congruent,0,0,0,0,,,,,,,,,,,,,0,7,7,7,,,,,,,,,,,,,,,,,,,,,,,,,,,,,,,,,,,,,,,,,,,,,,,,,,,,,,,,,,,,,,,,,,,,,,,,,,,,,,,,,,,,,1.983024666706721,1.0450825000002624,153.55085819999977,None,ScrollUp,정답입니다,153.55085819999977,None,153.55085819999977,None,153.55085819999977,None,153.55085819999977,None,154.45118000000002,None,154.45118000000002,154.96527620000006,,,,,,,,,,,,,,,,209,2022-05-04_15h12.35.086,FishGame,2022.1.1,60.09604549988996,
,9,넌 적극적이야,1,Orange,A,5.708333333333333,5.533333333333333,ScrollDown,ScrollUp,Orange.png,1,Positive,Congruent,0,0,0,0,,,,,,,,,,,,,0,8,8,8,,,,,,,,,,,,,,,,,,,,,,,,,,,,,,,,,,,,,,,,,,,,,,,,,,,,,,,,,,,,,,,,,,,,,,,,,,,,,,,,,,,,,1.0509259402751923,0.926165299999866,155.64721169999984,None,ScrollDown,정답입니다,155.64721169999984,None,155.64721169999984,None,155.64721169999984,None,155.64721169999984,None,156.42118279999977,None,156.42118279999977,156.9309675999998,,,,,,,,,,,,,,,,209,2022-05-04_15h12.35.086,FishGame,2022.1.1,60.09604549988996,
,10,넌 재미없어,4,Green,B,2.625,2.966666666666667,ScrollUp,ScrollDown,Green.png,1,Negative,Congruent,0,0,0,0,,,,,,,,,,,,,0,9,9,9,,,,,,,,,,,,,,,,,,,,,,,,,,,,,,,,,,,,,,,,,,,,,,,,,,,,,,,,,,,,,,,,,,,,,,,,,,,,,,,,,,,,,1.9675925771395366,0.9780298999999104,157.59396179999976,None,ScrollUp,정답입니다,157.59396179999976,None,157.59396179999976,None,157.59396179999976,None,157.59396179999976,None,158.43243369999982,None,158.43243369999982,158.94662749999998,,,,,,,,,,,,,,,,209,2022-05-04_15h12.35.086,FishGame,2022.1.1,60.09604549988996,
,11,넌 명석해,2,Orange,A,5.875,4.033333333333333,ScrollDown,ScrollUp,Orange.png,1,Positive,Congruent,0,0,0,0,,,,,,,,,,,,,0,10,10,10,,,,,,,,,,,,,,,,,,,,,,,,,,,,,,,,,,,,,,,,,,,,,,,,,,,,,,,,,,,,,,,,,,,,,,,,,,,,,,,,,,,,,1.1064814925193787,0.8526406000000861,159.6087966,None,ScrollDown,정답입니다,159.6087966,None,159.6087966,None,159.6087966,None,159.6087966,None,160.32096539999975,None,160.32096539999975,160.82902590000003,,,,,,,,,,,,,,,,209,2022-05-04_15h12.35.086,FishGame,2022.1.1,60.09604549988996,
,12,나를 데려가줘,6,Green,B,0,0,ScrollDown,ScrollUp,Green.png,1,NonTarget,NonTarget,0,0,0,0,,,,,,,,,,,,,0,11,11,11,,,,,,,,,,,,,,,,,,,,,,,,,,,,,,,,,,,,,,,,,,,,,,,,,,,,,,,,,,,,,,,,,,,,,,,,,,,,,,,,,,,,,1.2638888905445733,2.0963527999997495,161.48774009999988,None,ScrollDown,정답입니다,161.48774009999988,None,161.48774009999988,None,161.48774009999988,None,161.48774009999988,None,163.44843519999995,None,163.44843519999995,163.96088269999973,,,,,,,,,,,,,,,,209,2022-05-04_15h12.35.086,FishGame,2022.1.1,60.09604549988996,
,13,넌 소심해,4,Orange,A,3,3.1,ScrollDown,ScrollUp,Orange.png,1,Negative,Incongruent,0,0,0,0,,,,,,,,,,,,,0,12,12,12,,,,,,,,,,,,,,,,,,,,,,,,,,,,,,,,,,,,,,,,,,,,,,,,,,,,,,,,,,,,,,,,,,,,,,,,,,,,,,,,,,,,,1.28086419403553,2.0148463000000447,164.62094960000013,None,ScrollDown,정답입니다,164.62094960000013,None,164.62094960000013,None,164.62094960000013,None,164.62094960000013,None,166.49802039999986,None,166.49802039999986,167.01000019999992,,,,,,,,,,,,,,,,209,2022-05-04_15h12.35.086,FishGame,2022.1.1,60.09604549988996,
,14,넌 합리적이야,2,Orange,A,5.583333333333333,4.733333333333333,ScrollDown,ScrollUp,Orange.png,1,Positive,Congruent,0,0,0,0,,,,,,,,,,,,,0,13,13,13,,,,,,,,,,,,,,,,,,,,,,,,,,,,,,,,,,,,,,,,,,,,,,,,,,,,,,,,,,,,,,,,,,,,,,,,,,,,,,,,,,,,,1.28086419403553,1.0323730000000069,167.67870489999996,None,ScrollDown,정답입니다,167.67870489999996,None,167.67870489999996,None,167.67870489999996,None,167.67870489999996,None,168.56784149999976,None,168.56784149999976,169.07574969999996,,,,,,,,,,,,,,,,209,2022-05-04_15h12.35.086,FishGame,2022.1.1,60.09604549988996,
,15,넌 무자비해,5,Green,B,2.333333333333333,2.1,ScrollUp,ScrollDown,Green.png,1,Negative,Congruent,0,0,0,0,,,,,,,,,,,,,0,14,14,14,,,,,,,,,,,,,,,,,,,,,,,,,,,,,,,,,,,,,,,,,,,,,,,,,,,,,,,,,,,,,,,,,,,,,,,,,,,,,,,,,,,,,1.825617293516795,0.9694569000002957,169.7322568999998,None,ScrollUp,정답입니다,169.7322568999998,None,169.7322568999998,None,169.7322568999998,None,169.7322568999998,None,170.5685484999999,None,170.5685484999999,171.07495770000014,,,,,,,,,,,,,,,,209,2022-05-04_15h12.35.086,FishGame,2022.1.1,60.09604549988996,
,16,나를 보내줘,6,Orange,A,0,0,ScrollUp,ScrollDown,Orange.png,1,NonTarget,NonTarget,0,0,0,0,,,,,,,,,,,,,0,15,15,15,,,,,,,,,,,,,,,,,,,,,,,,,,,,,,,,,,,,,,,,,,,,,,,,,,,,,,,,,,,,,,,,,,,,,,,,,,,,,,,,,,,,,1.9629629850387573,1.205840999999964,171.73145879999993,None,ScrollUp,정답입니다,171.73145879999993,None,171.73145879999993,None,171.73145879999993,None,171.73145879999993,None,172.80734559999973,None,172.80734559999973,173.3071732999997,,,,,,,,,,,,,,,,209,2022-05-04_15h12.35.086,FishGame,2022.1.1,60.09604549988996,
,17,넌 현실적이야,3,Green,B,4.608695652173913,4.766666666666667,ScrollUp,ScrollDown,Green.png,1,Neutral,Neutral,0,0,0,0,,,,,,,,,,,,,0,16,16,16,,,,,,,,,,,,,,,,,,,,,,,,,,,,,,,,,,,,,,,,,,,,,,,,,,,,,,,,,,,,,,,,,,,,,,,,,,,,,,,,,,,,,1.9521604875723522,1.041291900000033,173.96137629999976,None,ScrollUp,정답입니다,173.96137629999976,None,173.96137629999976,None,173.96137629999976,None,173.96137629999976,None,174.87234940000008,None,174.87234940000008,175.3725658999997,,,,,,,,,,,,,,,,209,2022-05-04_15h12.35.086,FishGame,2022.1.1,60.09604549988996,
,18,넌 의리있어,1,Green,B,5.833333333333334,5.633333333333334,ScrollUp,ScrollDown,Green.png,1,Positive,Incongruent,0,0,0,0,,,,,,,,,,,,,0,17,17,17,,,,,,,,,,,,,,,,,,,,,,,,,,,,,,,,,,,,,,,,,,,,,,,,,,,,,,,,,,,,,,,,,,,,,,,,,,,,,,,,,,,,,1.6728395000100136,0.9166493000002447,176.02523519999977,None,ScrollUp,정답입니다,176.02523519999977,None,176.02523519999977,None,176.02523519999977,None,176.02523519999977,None,176.8117828999998,None,176.8117828999998,177.32155909999983,,,,,,,,,,,,,,,,209,2022-05-04_15h12.35.086,FishGame,2022.1.1,60.09604549988996,
,19,넌 신경과민이야,5,Orange,A,2.541666666666667,2.166666666666667,ScrollDown,ScrollUp,Orange.png,1,Negative,Incongruent,0,0,0,0,,,,,,,,,,,,,0,18,18,18,,,,,,,,,,,,,,,,,,,,,,,,,,,,,,,,,,,,,,,,,,,,,,,,,,,,,,,,,,,,,,,,,,,,,,,,,,,,,,,,,,,,,1.0061728358268738,0.7876408000001902,177.98581439999998,None,ScrollDown,정답입니다,177.98581439999998,None,177.98581439999998,None,177.98581439999998,None,177.98581439999998,None,178.63047210000013,None,178.63047210000013,179.13780439999982,,,,,,,,,,,,,,,,209,2022-05-04_15h12.35.086,FishGame,2022.1.1,60.09604549988996,
,20,넌 편안해,1,Orange,A,5.916666666666666,5.866666666666666,ScrollDown,ScrollUp,Orange.png,1,Positive,Congruent,0,0,0,0,,,,,,,,,,,,,0,19,19,19,,,,,,,,,,,,,,,,,,,,,,,,,,,,,,,,,,,,,,,,,,,,,,,,,,,,,,,,,,,,,,,,,,,,,,,,,,,,,,,,,,,,,1.0756172637144725,0.9161080999997466,179.7986877999997,None,ScrollDown,정답입니다,179.7986877999997,None,179.7986877999997,None,179.7986877999997,None,179.7986877999997,None,180.57691539999996,None,180.57691539999996,181.08690130000014,,,,,,,,,,,,,,,,209,2022-05-04_15h12.35.086,FishGame,2022.1.1,60.09604549988996,
,21,넌 품위있어,2,Green,B,5.291666666666666,4.466666666666667,ScrollUp,ScrollDown,Green.png,1,Positive,Incongruent,0,0,0,0,,,,,,,,,,,,,0,20,20,20,,,,,,,,,,,,,,,,,,,,,,,,,,,,,,,,,,,,,,,,,,,,,,,,,,,,,,,,,,,,,,,,,,,,,,,,,,,,,,,,,,,,,1.766975313425064,0.819287699999677,181.73807679999982,None,ScrollUp,정답입니다,181.73807679999982,None,181.73807679999982,None,181.73807679999982,None,181.73807679999982,None,182.42786230000002,None,182.42786230000002,182.93567429999985,,,,,,,,,,,,,,,,209,2022-05-04_15h12.35.086,FishGame,2022.1.1,60.09604549988996,
,22,넌 빈틈없어,3,Orange,A,4.833333333333333,3.966666666666667,ScrollDown,ScrollUp,Orange.png,1,Neutral,Neutral,0,0,0,0,,,,,,,,,,,,,0,21,21,21,,,,,,,,,,,,,,,,,,,,,,,,,,,,,,,,,,,,,,,,,,,,,,,,,,,,,,,,,,,,,,,,,,,,,,,,,,,,,,,,,,,,,1,1.2820158999998057,183.59533060000012,None,ScrollDown,정답입니다,183.59533060000012,None,183.59533060000012,None,183.59533060000012,None,183.59533060000012,None,184.7409975999999,None,184.7409975999999,185.2520215999998,,,,,,,,,,,,,,,,209,2022-05-04_15h12.35.086,FishGame,2022.1.1,60.09604549988996,
,23,넌 상상력없어,4,Green,B,2.833333333333333,3.133333333333333,ScrollUp,ScrollDown,Green.png,1,Negative,Congruent,0,0,0,0,,,,,,,,,,,,,0,22,22,22,,,,,,,,,,,,,,,,,,,,,,,,,,,,,,,,,,,,,,,,,,,,,,,,,,,,,,,,,,,,,,,,,,,,,,,,,,,,,,,,,,,,,1.6481481517354646,0.9537392000002001,185.9055503999998,None,ScrollUp,정답입니다,185.9055503999998,None,185.9055503999998,None,185.9055503999998,None,185.9055503999998,None,186.72547039999972,None,186.72547039999972,187.23385699999972,,,,,,,,,,,,,,,,209,2022-05-04_15h12.35.086,FishGame,2022.1.1,60.09604549988996,
,24,넌 지혜로워,2,Green,B,6.333333333333334,4.633333333333334,ScrollUp,ScrollDown,Green.png,1,Positive,Incongruent,0,0,0,0,,,,,,,,,,,,,0,23,23,23,,,,,,,,,,,,,,,,,,,,,,,,,,,,,,,,,,,,,,,,,,,,,,,,,,,,,,,,,,,,,,,,,,,,,,,,,,,,,,,,,,,,,1.8101851791143417,0.9756749000002856,187.89073340000004,None,ScrollUp,정답입니다,187.89073340000004,None,187.89073340000004,None,187.89073340000004,None,187.89073340000004,None,188.7278166000001,None,188.7278166000001,189.23286869999993,,,,,,,,,,,,,,,,209,2022-05-04_15h12.35.086,FishGame,2022.1.1,60.09604549988996,
,25,넌 시끄러워,4,Orange,A,2.833333333333333,3.033333333333333,ScrollDown,ScrollUp,Orange.png,1,Negative,Incongruent,0,0,0,0,,,,,,,,,,,,,0,24,24,24,,,,,,,,,,,,,,,,,,,,,,,,,,,,,,,,,,,,,,,,,,,,,,,,,,,,,,,,,,,,,,,,,,,,,,,,,,,,,,,,,,,,,1.2824074079593024,0.9577199000000292,189.89593680000007,None,ScrollDown,정답입니다,189.89593680000007,None,189.89593680000007,None,189.89593680000007,None,189.89593680000007,None,190.71052869999994,None,190.71052869999994,191.21532100000013,,,,,,,,,,,,,,,,209,2022-05-04_15h12.35.086,FishGame,2022.1.1,60.09604549988996,
,26,넌 만사태평이야,3,Green,B,4,4.333333333333333,ScrollUp,ScrollDown,Green.png,1,Neutral,Neutral,0,0,0,0,,,,,,,,,,,,,0,25,25,25,,,,,,,,,,,,,,,,,,,,,,,,,,,,,,,,,,,,,,,,,,,,,,,,,,,,,,,,,,,,,,,,,,,,,,,,,,,,,,,,,,,,,1.919753094514211,0.892435000000205,191.8752440999997,None,ScrollUp,정답입니다,191.8752440999997,None,191.8752440999997,None,191.8752440999997,None,191.8752440999997,None,192.63155319999987,None,192.63155319999987,193.13114760000008,,,,,,,,,,,,,,,,209,2022-05-04_15h12.35.086,FishGame,2022.1.1,60.09604549988996,
,27,넌 붙임성있어,1,Orange,A,5.708333333333333,5.633333333333334,ScrollDown,ScrollUp,Orange.png,1,Positive,Congruent,0,0,0,0,,,,,,,,,,,,,0,26,26,26,,,,,,,,,,,,,,,,,,,,,,,,,,,,,,,,,,,,,,,,,,,,,,,,,,,,,,,,,,,,,,,,,,,,,,,,,,,,,,,,,,,,,1.10030863682429,1.0016404999996666,193.8120487000001,None,ScrollDown,정답입니다,193.8120487000001,None,193.8120487000001,None,193.8120487000001,None,193.8120487000001,None,194.66810309999983,None,194.66810309999983,195.18030700000008,,,,,,,,,,,,,,,,209,2022-05-04_15h12.35.086,FishGame,2022.1.1,60.09604549988996,
,28,넌 영리해,2,Orange,A,6,4.033333333333333,ScrollDown,ScrollUp,Orange.png,1,Positive,Congruent,0,0,0,0,,,,,,,,,,,,,0,27,27,27,,,,,,,,,,,,,,,,,,,,,,,,,,,,,,,,,,,,,,,,,,,,,,,,,,,,,,,,,,,,,,,,,,,,,,,,,,,,,,,,,,,,,1,0.9275675000003503,195.83755870000005,None,ScrollDown,정답입니다,195.83755870000005,None,195.83755870000005,None,195.83755870000005,None,195.83755870000005,None,196.6293040999999,None,196.6293040999999,197.1296757,,,,,,,,,,,,,,,,209,2022-05-04_15h12.35.086,FishGame,2022.1.1,60.09604549988996,
,29,넌 열심이야,1,Green,B,6.041666666666667,5.833333333333333,ScrollUp,ScrollDown,Green.png,1,Positive,Incongruent,0,0,0,0,,,,,,,,,,,,,0,28,28,28,,,,,,,,,,,,,,,,,,,,,,,,,,,,,,,,,,,,,,,,,,,,,,,,,,,,,,,,,,,,,,,,,,,,,,,,,,,,,,,,,,,,,1.7268518507480621,0.9030508999999256,197.7882313,None,ScrollUp,정답입니다,197.7882313,None,197.7882313,None,197.7882313,None,197.7882313,None,198.56239210000012,None,198.56239210000012,199.06192950000013,,,,,,,,,,,,,,,,209,2022-05-04_15h12.35.086,FishGame,2022.1.1,60.09604549988996,
,30,넌 인기없어,4,Green,B,3,3.3,ScrollUp,ScrollDown,Green.png,1,Negative,Congruent,0,0,0,0,,,,,,,,,,,,,0,29,29,29,,,,,,,,,,,,,,,,,,,,,,,,,,,,,,,,,,,,,,,,,,,,,,,,,,,,,,,,,,,,,,,,,,,,,,,,,,,,,,,,,,,,,1.8333333383003871,0.8635690999999497,199.7148701000001,None,ScrollUp,정답입니다,199.7148701000001,None,199.7148701000001,None,199.7148701000001,None,199.7148701000001,None,200.44851019999987,None,200.44851019999987,200.96130270000003,,,,,,,,,,,,,,,,209,2022-05-04_15h12.35.086,FishGame,2022.1.1,60.09604549988996,
,31,넌 익살스러워,3,Orange,A,4.708333333333334,4.833333333333333,ScrollDown,ScrollUp,Orange.png,1,Neutral,Neutral,0,0,0,0,,,,,,,,,,,,,0,30,30,30,,,,,,,,,,,,,,,,,,,,,,,,,,,,,,,,,,,,,,,,,,,,,,,,,,,,,,,,,,,,,,,,,,,,,,,,,,,,,,,,,,,,,1,0.9407093999998324,201.6237587999999,None,ScrollDown,정답입니다,201.6237587999999,None,201.6237587999999,None,201.6237587999999,None,201.6237587999999,None,202.4273978000001,None,202.4273978000001,202.92700079999986,,,,,,,,,,,,,,,,209,2022-05-04_15h12.35.086,FishGame,2022.1.1,60.09604549988996,
,32,넌 이기적이야,5,Green,B,2.291666666666667,2.333333333333333,ScrollUp,ScrollDown,Green.png,1,Negative,Congruent,0,0,0,0,,,,,,,,,,,,,0,31,31,31,,,,,,,,,,,,,,,,,,,,,,,,,,,,,,,,,,,,,,,,,,,,,,,,,,,,,,,,,,,,,,,,,,,,,,,,,,,,,,,,,,,,,1.7947530895471573,0.8515370000000075,203.57290280000007,None,ScrollUp,정답입니다,203.57290280000007,None,203.57290280000007,None,203.57290280000007,None,203.57290280000007,None,204.29971320000004,None,204.29971320000004,204.80958839999994,,,,,,,,,,,,,,,,209,2022-05-04_15h12.35.086,FishGame,2022.1.1,60.09604549988996,
,33,나를 데려가줘,6,Green,B,0,0,ScrollDown,ScrollUp,Green.png,1,NonTarget,NonTarget,0,0,0,0,,,,,,,,,,,,,0,32,32,32,,,,,,,,,,,,,,,,,,,,,,,,,,,,,,,,,,,,,,,,,,,,,,,,,,,,,,,,,,,,,,,,,,,,,,,,,,,,,,,,,,,,,1,1.24789920000012,205.4551431,None,ScrollDown,정답입니다,205.4551431,None,205.4551431,None,205.4551431,None,205.4551431,None,206.5802263999999,None,206.5802263999999,207.09178799999972,,,,,,,,,,,,,,,,209,2022-05-04_15h12.35.086,FishGame,2022.1.1,60.09604549988996,
,34,넌 기회주의자야,5,Orange,A,2.875,2.133333333333333,ScrollDown,ScrollUp,Orange.png,1,Negative,Incongruent,0,0,0,0,,,,,,,,,,,,,0,33,33,33,,,,,,,,,,,,,,,,,,,,,,,,,,,,,,,,,,,,,,,,,,,,,,,,,,,,,,,,,,,,,,,,,,,,,,,,,,,,,,,,,,,,,1.0354938507080078,0.9166347999998834,207.7568968999999,None,ScrollDown,정답입니다,207.7568968999999,None,207.7568968999999,None,207.7568968999999,None,207.7568968999999,None,208.53102669999998,None,208.53102669999998,209.04091149999977,,,,,,,,,,,,,,,,209,2022-05-04_15h12.35.086,FishGame,2022.1.1,60.09604549988996,
,1,넌 미성숙해,4,Orange,A,3,3.2,ScrollDown,ScrollUp,Orange.png,2,Negative,Incongruent,0,0,0,0,,,,,,,,,,,,,,,,,0,0,0,0,,,,,,,,,,,,,,,,,,,,,,,,,,,,,,,,,,,,,,,,241.29266009999992,242.79313760000014,242.8267163999999,243.77554669999972,243.82555999999977,244.7748429999997,244.79178150000007,None,,,,,,,,,,,,,,,,,,,,,,,,,,,,,,,,,,1.1697530895471573,1.0986173999999664,245.97892520000005,None,ScrollDown,정답입니다,245.97892520000005,None,245.97892520000005,None,245.97892520000005,None,245.97892520000005,None,246.8998563,None,246.8998563,247.40664530000004,209.5408497999997,None,209.5408497999997,None,0.17037037,-0.09074074,1,0,0,0.015957720000187692,None,239.5438455999997,None,,,209,2022-05-04_15h12.35.086,FishGame,2022.1.1,60.09604549988996,
,2,넌 반사회적이야,5,Green,B,2.416666666666667,2.033333333333333,ScrollUp,ScrollDown,Green.png,2,Negative,Congruent,0,0,0,0,,,,,,,,,,,,,,,,,0,1,1,1,,,,,,,,,,,,,,,,,,,,,,,,,,,,,,,,,,,,,,,,,,,,,,,,,,,,,,,,,,,,,,,,,,,,,,,,,,,,,,,,,1.7901234477758408,0.9193889000002855,248.07737689999976,None,ScrollUp,정답입니다,248.07737689999976,None,248.07737689999976,None,248.07737689999976,None,248.07737689999976,None,248.8623646000001,None,248.8623646000001,249.37255499999992,,,,,,,,,,,,,,,,209,2022-05-04_15h12.35.086,FishGame,2022.1.1,60.09604549988996,
,3,넌 유능해,2,Orange,A,6.208333333333333,4.433333333333334,ScrollDown,ScrollUp,Orange.png,2,Positive,Congruent,0,0,0,0,,,,,,,,,,,,,,,,,0,2,2,2,,,,,,,,,,,,,,,,,,,,,,,,,,,,,,,,,,,,,,,,,,,,,,,,,,,,,,,,,,,,,,,,,,,,,,,,,,,,,,,,,1,0.8507504999997764,250.0409592000001,None,ScrollDown,정답입니다,250.0409592000001,None,250.0409592000001,None,250.0409592000001,None,250.0409592000001,None,250.75503249999974,None,250.75503249999974,251.25525100000004,,,,,,,,,,,,,,,,209,2022-05-04_15h12.35.086,FishGame,2022.1.1,60.09604549988996,
,4,넌 능숙해,2,Green,B,5.666666666666667,4.733333333333333,ScrollUp,ScrollDown,Green.png,2,Positive,Incongruent,0,0,0,0,,,,,,,,,,,,,,,,,0,3,3,3,,,,,,,,,,,,,,,,,,,,,,,,,,,,,,,,,,,,,,,,,,,,,,,,,,,,,,,,,,,,,,,,,,,,,,,,,,,,,,,,,1.8518518557151158,1.1101198999999724,251.90411369999993,None,ScrollUp,정답입니다,251.90411369999993,None,251.90411369999993,None,251.90411369999993,None,251.90411369999993,None,252.8899452999999,None,252.8899452999999,253.4039147999997,,,,,,,,,,,,,,,,209,2022-05-04_15h12.35.086,FishGame,2022.1.1,60.09604549988996,
,5,넌 진부해,4,Green,B,2.458333333333333,3.166666666666667,ScrollUp,ScrollDown,Green.png,2,Negative,Congruent,0,0,0,0,,,,,,,,,,,,,,,,,0,4,4,4,,,,,,,,,,,,,,,,,,,,,,,,,,,,,,,,,,,,,,,,,,,,,,,,,,,,,,,,,,,,,,,,,,,,,,,,,,,,,,,,,1.8950617214043934,0.8519522999999936,254.05581840000013,None,ScrollUp,정답입니다,254.05581840000013,None,254.05581840000013,None,254.05581840000013,None,254.05581840000013,None,254.77686919999996,None,254.77686919999996,255.28672670000014,,,,,,,,,,,,,,,,209,2022-05-04_15h12.35.086,FishGame,2022.1.1,60.09604549988996,
,6,나를 보내줘,6,Orange,A,0,0,ScrollUp,ScrollDown,Orange.png,2,NonTarget,NonTarget,0,0,0,0,,,,,,,,,,,,,,,,,0,5,5,5,,,,,,,,,,,,,,,,,,,,,,,,,,,,,,,,,,,,,,,,,,,,,,,,,,,,,,,,,,,,,,,,,,,,,,,,,,,,,,,,,1.7561728407939274,1.031288399999994,255.943401,None,ScrollUp,정답입니다,255.943401,None,255.943401,None,255.943401,None,255.943401,None,256.8406580000001,None,256.8406580000001,257.35257869999987,,,,,,,,,,,,,,,,209,2022-05-04_15h12.35.086,FishGame,2022.1.1,60.09604549988996,
,7,넌 엄격해,3,Orange,A,4.166666666666666,4.1,ScrollDown,ScrollUp,Orange.png,2,Neutral,Neutral,0,0,0,0,,,,,,,,,,,,,,,,,0,6,6,6,,,,,,,,,,,,,,,,,,,,,,,,,,,,,,,,,,,,,,,,,,,,,,,,,,,,,,,,,,,,,,,,,,,,,,,,,,,,,,,,,1,0.949437300000227,258.01351369999975,None,ScrollDown,정답입니다,258.01351369999975,None,258.01351369999975,None,258.01351369999975,None,258.01351369999975,None,258.8228783999998,None,258.8228783999998,259.3348495,,,,,,,,,,,,,,,,209,2022-05-04_15h12.35.086,FishGame,2022.1.1,60.09604549988996,
,8,나를 보내줘,6,Orange,A,0,0,ScrollUp,ScrollDown,Orange.png,2,NonTarget,NonTarget,0,0,0,0,,,,,,,,,,,,,,,,,0,7,7,7,,,,,,,,,,,,,,,,,,,,,,,,,,,,,,,,,,,,,,,,,,,,,,,,,,,,,,,,,,,,,,,,,,,,,,,,,,,,,,,,,1.7006172885497413,0.9269380999999157,259.99034299999994,None,ScrollUp,정답입니다,259.99034299999994,None,259.99034299999994,None,259.99034299999994,None,259.99034299999994,None,260.78361459999996,None,260.78361459999996,261.28400899999997,,,,,,,,,,,,,,,,209,2022-05-04_15h12.35.086,FishGame,2022.1.1,60.09604549988996,
,9,넌 대담해,3,Green,B,4.875,4.866666666666666,ScrollUp,ScrollDown,Green.png,2,Neutral,Neutral,0,0,0,0,,,,,,,,,,,,,,,,,0,8,8,8,,,,,,,,,,,,,,,,,,,,,,,,,,,,,,,,,,,,,,,,,,,,,,,,,,,,,,,,,,,,,,,,,,,,,,,,,,,,,,,,,1.6882716019948325,1.0618516000004092,261.9388036999999,None,ScrollUp,정답입니다,261.9388036999999,None,261.9388036999999,None,261.9388036999999,None,261.9388036999999,None,262.8689171000001,None,262.8689171000001,263.383155,,,,,,,,,,,,,,,,209,2022-05-04_15h12.35.086,FishGame,2022.1.1,60.09604549988996,
,10,넌 꾸준해,1,Orange,A,5.916666666666668,5.8,ScrollDown,ScrollUp,Orange.png,2,Positive,Congruent,0,0,0,0,,,,,,,,,,,,,,,,,0,9,9,9,,,,,,,,,,,,,,,,,,,,,,,,,,,,,,,,,,,,,,,,,,,,,,,,,,,,,,,,,,,,,,,,,,,,,,,,,,,,,,,,,1.095679019888242,0.9549443000000792,264.0424294999998,None,ScrollDown,정답입니다,264.0424294999998,None,264.0424294999998,None,264.0424294999998,None,264.0424294999998,None,264.8651276999999,None,264.8651276999999,265.3652460999997,,,,,,,,,,,,,,,,209,2022-05-04_15h12.35.086,FishGame,2022.1.1,60.09604549988996,
,11,나를 데려가줘,6,Green,B,0,0,ScrollDown,ScrollUp,Green.png,2,NonTarget,NonTarget,0,0,0,0,,,,,,,,,,,,,,,,,0,10,10,10,,,,,,,,,,,,,,,,,,,,,,,,,,,,,,,,,,,,,,,,,,,,,,,,,,,,,,,,,,,,,,,,,,,,,,,,,,,,,,,,,1.7345678955316544,0.6926168999998481,266.0141291,None,ScrollUp,오답입니다,266.0141291,None,266.0141291,None,266.0141291,None,266.0141291,None,266.58239909999975,None,266.58239909999975,267.0985356000001,,,,,,,,,,,,,,,,209,2022-05-04_15h12.35.086,FishGame,2022.1.1,60.09604549988996,
,12,넌 독선적이야,5,Orange,A,2.458333333333333,1.933333333333333,ScrollDown,ScrollUp,Orange.png,2,Negative,Incongruent,0,0,0,0,,,,,,,,,,,,,,,,,0,11,11,11,,,,,,,,,,,,,,,,,,,,,,,,,,,,,,,,,,,,,,,,,,,,,,,,,,,,,,,,,,,,,,,,,,,,,,,,,,,,,,,,,1.0293209950129192,0.8665017999996962,267.75847410000006,None,ScrollDown,정답입니다,267.75847410000006,None,267.75847410000006,None,267.75847410000006,None,267.75847410000006,None,268.4872774999999,None,268.4872774999999,268.99700989999974,,,,,,,,,,,,,,,,209,2022-05-04_15h12.35.086,FishGame,2022.1.1,60.09604549988996,
,13,나를 보내줘,6,Orange,A,0,0,ScrollUp,ScrollDown,Orange.png,2,NonTarget,NonTarget,0,0,0,0,,,,,,,,,,,,,,,,,0,12,12,12,,,,,,,,,,,,,,,,,,,,,,,,,,,,,,,,,,,,,,,,,,,,,,,,,,,,,,,,,,,,,,,,,,,,,,,,,,,,,,,,,1.549382715175549,1.0181902999997874,269.6471499999998,None,NoResponse,무응답입니다,269.6471499999998,None,269.6471499999998,None,269.6471499999998,None,269.6471499999998,None,270.5410294999997,None,270.5410294999997,271.0461786000001,,,,,,,,,,,,,,,,209,2022-05-04_15h12.35.086,FishGame,2022.1.1,60.09604549988996,
,14,넌 책임감있어,1,Green,B,6.347826086956522,6,ScrollUp,ScrollDown,Green.png,2,Positive,Incongruent,0,0,0,0,,,,,,,,,,,,,,,,,0,13,13,13,,,,,,,,,,,,,,,,,,,,,,,,,,,,,,,,,,,,,,,,,,,,,,,,,,,,,,,,,,,,,,,,,,,,,,,,,,,,,,,,,2,1.338110400000005,271.7254442999997,None,ScrollUp,정답입니다,271.7254442999997,None,271.7254442999997,None,271.7254442999997,None,271.7254442999997,None,272.90574579999975,None,272.90574579999975,273.41190000000006,,,,,,,,,,,,,,,,209,2022-05-04_15h12.35.086,FishGame,2022.1.1,60.09604549988996,
,15,넌 문학적이야,3,Orange,A,4.708333333333334,4.333333333333333,ScrollDown,ScrollUp,Orange.png,2,Neutral,Neutral,0,0,0,0,,,,,,,,,,,,,,,,,0,14,14,14,,,,,,,,,,,,,,,,,,,,,,,,,,,,,,,,,,,,,,,,,,,,,,,,,,,,,,,,,,,,,,,,,,,,,,,,,,,,,,,,,1.1682098756233852,1.658597600000121,274.0710122999999,None,ScrollDown,정답입니다,274.0710122999999,None,274.0710122999999,None,274.0710122999999,None,274.0710122999999,None,275.5938136,None,275.5938136,276.0939343,,,,,,,,,,,,,,,,209,2022-05-04_15h12.35.086,FishGame,2022.1.1,60.09604549988996,
,16,넌 재미있어,1,Green,B,5.875,5.7,ScrollUp,ScrollDown,Green.png,2,Positive,Incongruent,0,0,0,0,,,,,,,,,,,,,,,,,0,15,15,15,,,,,,,,,,,,,,,,,,,,,,,,,,,,,,,,,,,,,,,,,,,,,,,,,,,,,,,,,,,,,,,,,,,,,,,,,,,,,,,,,1.807098776102066,0.9465162999999848,276.7684045000001,None,ScrollUp,정답입니다,276.7684045000001,None,276.7684045000001,None,276.7684045000001,None,276.7684045000001,None,277.5766579000001,None,277.5766579000001,278.0761597999999,,,,,,,,,,,,,,,,209,2022-05-04_15h12.35.086,FishGame,2022.1.1,60.09604549988996,
,17,나를 데려가줘,6,Green,B,0,0,ScrollDown,ScrollUp,Green.png,2,NonTarget,NonTarget,0,0,0,0,,,,,,,,,,,,,,,,,0,16,16,16,,,,,,,,,,,,,,,,,,,,,,,,,,,,,,,,,,,,,,,,,,,,,,,,,,,,,,,,,,,,,,,,,,,,,,,,,,,,,,,,,1.32253085821867,1.8573670999999194,278.7258926999998,None,ScrollDown,정답입니다,278.7258926999998,None,278.7258926999998,None,278.7258926999998,None,278.7258926999998,None,280.453575,None,280.453575,280.9580729999998,,,,,,,,,,,,,,,,209,2022-05-04_15h12.35.086,FishGame,2022.1.1,60.09604549988996,
,18,넌 협력적이야,1,Orange,A,5.625,5.633333333333334,ScrollDown,ScrollUp,Orange.png,2,Positive,Congruent,0,0,0,0,,,,,,,,,,,,,,,,,0,17,17,17,,,,,,,,,,,,,,,,,,,,,,,,,,,,,,,,,,,,,,,,,,,,,,,,,,,,,,,,,,,,,,,,,,,,,,,,,,,,,,,,,1.0123456915219624,1.2003342999996676,281.61598129999993,None,ScrollDown,정답입니다,281.61598129999993,None,281.61598129999993,None,281.61598129999993,None,281.61598129999993,None,282.67995599999995,None,282.67995599999995,283.1908897999997,,,,,,,,,,,,,,,,209,2022-05-04_15h12.35.086,FishGame,2022.1.1,60.09604549988996,
,19,넌 평범해,3,Green,B,4.333333333333332,4.233333333333333,ScrollUp,ScrollDown,Green.png,2,Neutral,Neutral,0,0,0,0,,,,,,,,,,,,,,,,,0,18,18,18,,,,,,,,,,,,,,,,,,,,,,,,,,,,,,,,,,,,,,,,,,,,,,,,,,,,,,,,,,,,,,,,,,,,,,,,,,,,,,,,,1.9027777661879857,0.9717513999999028,283.8401586,None,ScrollUp,정답입니다,283.8401586,None,283.8401586,None,283.8401586,None,283.8401586,None,284.6900305999998,None,284.6900305999998,285.18987370000013,,,,,,,,,,,,,,,,209,2022-05-04_15h12.35.086,FishGame,2022.1.1,60.09604549988996,
,20,넌 오만해,5,Orange,A,2.333333333333333,2,ScrollDown,ScrollUp,Orange.png,2,Negative,Incongruent,0,0,0,0,,,,,,,,,,,,,,,,,0,19,19,19,,,,,,,,,,,,,,,,,,,,,,,,,,,,,,,,,,,,,,,,,,,,,,,,,,,,,,,,,,,,,,,,,,,,,,,,,,,,,,,,,1.1250000099341075,0.8812575000001743,285.84489559999975,None,ScrollDown,정답입니다,285.84489559999975,None,285.84489559999975,None,285.84489559999975,None,285.84489559999975,None,286.5939039,None,286.5939039,287.1053526999999,,,,,,,,,,,,,,,,209,2022-05-04_15h12.35.086,FishGame,2022.1.1,60.09604549988996,
,21,넌 운이없어,4,Green,B,3,3.466666666666667,ScrollUp,ScrollDown,Green.png,2,Negative,Congruent,0,0,0,0,,,,,,,,,,,,,,,,,0,20,20,20,,,,,,,,,,,,,,,,,,,,,,,,,,,,,,,,,,,,,,,,,,,,,,,,,,,,,,,,,,,,,,,,,,,,,,,,,,,,,,,,,1.8287036965290706,0.8439484999998967,287.7563832000001,None,ScrollUp,정답입니다,287.7563832000001,None,287.7563832000001,None,287.7563832000001,None,287.7563832000001,None,288.4719706000001,None,288.4719706000001,288.97197659999983,,,,,,,,,,,,,,,,209,2022-05-04_15h12.35.086,FishGame,2022.1.1,60.09604549988996,
,22,넌 창조적이야,2,Green,B,6.125,4.633333333333334,ScrollUp,ScrollDown,Green.png,2,Positive,Incongruent,0,0,0,0,,,,,,,,,,,,,,,,,0,21,21,21,,,,,,,,,,,,,,,,,,,,,,,,,,,,,,,,,,,,,,,,,,,,,,,,,,,,,,,,,,,,,,,,,,,,,,,,,,,,,,,,,2,0.9668001000000004,289.6491665999997,None,ScrollUp,정답입니다,289.6491665999997,None,289.6491665999997,None,289.6491665999997,None,289.6491665999997,None,290.47330329999977,None,290.47330329999977,290.9872310999999,,,,,,,,,,,,,,,,209,2022-05-04_15h12.35.086,FishGame,2022.1.1,60.09604549988996,
,23,나를 보내줘,6,Orange,A,0,0,ScrollUp,ScrollDown,Orange.png,2,NonTarget,NonTarget,0,0,0,0,,,,,,,,,,,,,,,,,0,22,22,22,,,,,,,,,,,,,,,,,,,,,,,,,,,,,,,,,,,,,,,,,,,,,,,,,,,,,,,,,,,,,,,,,,,,,,,,,,,,,,,,,1.859567900498708,1.053762800000186,291.6471403999999,None,ScrollUp,정답입니다,291.6471403999999,None,291.6471403999999,None,291.6471403999999,None,291.6471403999999,None,292.56995529999995,None,292.56995529999995,293.06962650000014,,,,,,,,,,,,,,,,209,2022-05-04_15h12.35.086,FishGame,2022.1.1,60.09604549988996,
,24,넌 통찰력있어,2,Orange,A,6.5,4.8,ScrollDown,ScrollUp,Orange.png,2,Positive,Congruent,0,0,0,0,,,,,,,,,,,,,,,,,0,23,23,23,,,,,,,,,,,,,,,,,,,,,,,,,,,,,,,,,,,,,,,,,,,,,,,,,,,,,,,,,,,,,,,,,,,,,,,,,,,,,,,,,1,0.8409166000001278,293.7364769999999,None,ScrollDown,정답입니다,293.7364769999999,None,293.7364769999999,None,293.7364769999999,None,293.7364769999999,None,294.4304033999997,None,294.4304033999997,294.9355050999998,,,,,,,,,,,,,,,,209,2022-05-04_15h12.35.086,FishGame,2022.1.1,60.09604549988996,
,25,넌 경솔해,5,Green,B,2.458333333333333,2.266666666666667,ScrollUp,ScrollDown,Green.png,2,Negative,Congruent,0,0,0,0,,,,,,,,,,,,,,,,,0,24,24,24,,,,,,,,,,,,,,,,,,,,,,,,,,,,,,,,,,,,,,,,,,,,,,,,,,,,,,,,,,,,,,,,,,,,,,,,,,,,,,,,,1.8209876517454784,0.8101633000001129,295.5897302999997,None,ScrollUp,정답입니다,295.5897302999997,None,295.5897302999997,None,295.5897302999997,None,295.5897302999997,None,296.26779450000004,None,296.26779450000004,296.7680038999997,,,,,,,,,,,,,,,,209,2022-05-04_15h12.35.086,FishGame,2022.1.1,60.09604549988996,
,26,넌 초조해,4,Orange,A,2.916666666666667,3.133333333333333,ScrollDown,ScrollUp,Orange.png,2,Negative,Incongruent,0,0,0,0,,,,,,,,,,,,,,,,,0,25,25,25,,,,,,,,,,,,,,,,,,,,,,,,,,,,,,,,,,,,,,,,,,,,,,,,,,,,,,,,,,,,,,,,,,,,,,,,,,,,,,,,,1,0.901491999999962,297.4299096999998,None,ScrollDown,정답입니다,297.4299096999998,None,297.4299096999998,None,297.4299096999998,None,297.4299096999998,None,298.1900743000001,None,298.1900743000001,298.70018789999995,,,,,,,,,,,,,,,,209,2022-05-04_15h12.35.086,FishGame,2022.1.1,60.09604549988996,
,27,넌 무관심해,4,Green,B,2.833333333333333,2.9,ScrollUp,ScrollDown,Green.png,2,Negative,Congruent,0,0,0,0,,,,,,,,,,,,,,,,,0,26,26,26,,,,,,,,,,,,,,,,,,,,,,,,,,,,,,,,,,,,,,,,,,,,,,,,,,,,,,,,,,,,,,,,,,,,,,,,,,,,,,,,,2,0.859626500000104,299.3522745,None,ScrollUp,정답입니다,299.3522745,None,299.3522745,None,299.3522745,None,299.3522745,None,300.0832393999999,None,300.0832393999999,300.58271539999987,,,,,,,,,,,,,,,,209,2022-05-04_15h12.35.086,FishGame,2022.1.1,60.09604549988996,
,28,넌 감성적이야,3,Green,B,4.125,4.166666666666667,ScrollUp,ScrollDown,Green.png,2,Neutral,Neutral,0,0,0,0,,,,,,,,,,,,,,,,,0,27,27,27,,,,,,,,,,,,,,,,,,,,,,,,,,,,,,,,,,,,,,,,,,,,,,,,,,,,,,,,,,,,,,,,,,,,,,,,,,,,,,,,,1.9891975224018097,0.8082773999999517,301.25874440000007,None,ScrollUp,정답입니다,301.25874440000007,None,301.25874440000007,None,301.25874440000007,None,301.25874440000007,None,301.9320431000001,None,301.9320431000001,302.43230140000014,,,,,,,,,,,,,,,,209,2022-05-04_15h12.35.086,FishGame,2022.1.1,60.09604549988996,
,29,넌 배려심있어,1,Orange,A,6.083333333333333,5.5,ScrollDown,ScrollUp,Orange.png,2,Positive,Congruent,0,0,0,0,,,,,,,,,,,,,,,,,0,28,28,28,,,,,,,,,,,,,,,,,,,,,,,,,,,,,,,,,,,,,,,,,,,,,,,,,,,,,,,,,,,,,,,,,,,,,,,,,,,,,,,,,2,0.8785171999998056,303.08782659999997,None,ScrollUp,오답입니다,303.08782659999997,None,303.08782659999997,None,303.08782659999997,None,303.08782659999997,None,303.8349939,None,303.8349939,304.3477779,,,,,,,,,,,,,,,,209,2022-05-04_15h12.35.086,FishGame,2022.1.1,60.09604549988996,
,30,넌 숨김없어,3,Orange,A,4.5,4.933333333333334,ScrollDown,ScrollUp,Orange.png,2,Neutral,Neutral,0,0,0,0,,,,,,,,,,,,,,,,,0,29,29,29,,,,,,,,,,,,,,,,,,,,,,,,,,,,,,,,,,,,,,,,,,,,,,,,,,,,,,,,,,,,,,,,,,,,,,,,,,,,,,,,,1,0.9304794999998194,305.00909980000006,None,ScrollDown,정답입니다,305.00909980000006,None,305.00909980000006,None,305.00909980000006,None,305.00909980000006,None,305.8041066999999,None,305.8041066999999,306.3136454999999,,,,,,,,,,,,,,,,209,2022-05-04_15h12.35.086,FishGame,2022.1.1,60.09604549988996,
,31,넌 훌륭해,2,Green,B,5.916666666666667,4.033333333333333,ScrollUp,ScrollDown,Green.png,2,Positive,Incongruent,0,0,0,0,,,,,,,,,,,,,,,,,0,30,30,30,,,,,,,,,,,,,,,,,,,,,,,,,,,,,,,,,,,,,,,,,,,,,,,,,,,,,,,,,,,,,,,,,,,,,,,,,,,,,,,,,2,0.9042511000002378,306.9672083999999,None,ScrollUp,정답입니다,306.9672083999999,None,306.9672083999999,None,306.9672083999999,None,306.9672083999999,None,307.7447367,None,307.7447367,308.2460602000001,,,,,,,,,,,,,,,,209,2022-05-04_15h12.35.086,FishGame,2022.1.1,60.09604549988996,
,32,넌 슬기로워,2,Orange,A,6.166666666666667,4.1,ScrollDown,ScrollUp,Orange.png,2,Positive,Congruent,0,0,0,0,,,,,,,,,,,,,,,,,0,31,31,31,,,,,,,,,,,,,,,,,,,,,,,,,,,,,,,,,,,,,,,,,,,,,,,,,,,,,,,,,,,,,,,,,,,,,,,,,,,,,,,,,1.0108024775981903,0.7659316000003855,308.9017364000001,None,ScrollDown,정답입니다,308.9017364000001,None,308.9017364000001,None,308.9017364000001,None,308.9017364000001,None,309.53359469999987,None,309.53359469999987,310.04524249999986,,,,,,,,,,,,,,,,209,2022-05-04_15h12.35.086,FishGame,2022.1.1,60.09604549988996,
,33,넌 냉혹해,5,Orange,A,2.583333333333333,2.1,ScrollDown,ScrollUp,Orange.png,2,Negative,Incongruent,0,0,0,0,,,,,,,,,,,,,,,,,0,32,32,32,,,,,,,,,,,,,,,,,,,,,,,,,,,,,,,,,,,,,,,,,,,,,,,,,,,,,,,,,,,,,,,,,,,,,,,,,,,,,,,,,1,0.8512547000000268,310.70307779999985,None,ScrollDown,정답입니다,310.70307779999985,None,310.70307779999985,None,310.70307779999985,None,310.70307779999985,None,311.41658819999975,None,311.41658819999975,311.92779789999986,,,,,,,,,,,,,,,,209,2022-05-04_15h12.35.086,FishGame,2022.1.1,60.09604549988996,
,34,나를 데려가줘,6,Green,B,0,0,ScrollDown,ScrollUp,Green.png,2,NonTarget,NonTarget,0,0,0,0,,,,,,,,,,,,,,,,,0,33,33,33,,,,,,,,,,,,,,,,,,,,,,,,,,,,,,,,,,,,,,,,,,,,,,,,,,,,,,,,,,,,,,,,,,,,,,,,,,,,,,,,,1,1.1230939000001854,312.57662489999984,None,ScrollDown,정답입니다,312.57662489999984,None,312.57662489999984,None,312.57662489999984,None,312.57662489999984,None,313.5714846000001,None,313.5714846000001,314.07679310000003,,,,,,,,,,,,,,,,209,2022-05-04_15h12.35.086,FishGame,2022.1.1,60.09604549988996,
,35,넌 편파적이야,5,Green,B,2.125,2,ScrollUp,ScrollDown,Green.png,2,Negative,Congruent,0,0,0,0,,,,,,,,,,,,,,,,,0,34,34,34,,,,,,,,,,,,,,,,,,,,,,,,,,,,,,,,,,,,,,,,,,,,,,,,,,,,,,,,,,,,,,,,,,,,,,,,,,,,,,,,,1.9305555423100789,0.9884522000002107,314.7304868000001,None,ScrollUp,정답입니다,314.7304868000001,None,314.7304868000001,None,314.7304868000001,None,314.7304868000001,None,315.5925222999999,None,315.5925222999999,316.0928442999998,,,,,,,,,,,,,,,,209,2022-05-04_15h12.35.086,FishGame,2022.1.1,60.09604549988996,
,36,넌 슬퍼,4,Orange,A,2.583333333333333,3.066666666666667,ScrollDown,ScrollUp,Orange.png,2,Negative,Incongruent,0,0,0,0,,,,,,,,,,,,,,,,,0,35,35,35,,,,,,,,,,,,,,,,,,,,,,,,,,,,,,,,,,,,,,,,,,,,,,,,,,,,,,,,,,,,,,,,,,,,,,,,,,,,,,,,,1,0.7605475999998816,316.74872819999973,None,ScrollDown,정답입니다,316.74872819999973,None,316.74872819999973,None,316.74872819999973,None,316.74872819999973,None,317.3804826999999,None,317.3804826999999,317.8919049000001,,,,,,,,,,,,,,,,209,2022-05-04_15h12.35.086,FishGame,2022.1.1,60.09604549988996,
,37,나를 데려가줘,6,Green,B,0,0,ScrollDown,ScrollUp,Green.png,2,NonTarget,NonTarget,0,0,0,0,,,,,,,,,,,,,,,,,0,36,36,36,,,,,,,,,,,,,,,,,,,,,,,,,,,,,,,,,,,,,,,,,,,,,,,,,,,,,,,,,,,,,,,,,,,,,,,,,,,,,,,,,1,1.064861800000017,318.54560749999973,None,ScrollDown,정답입니다,318.54560749999973,None,318.54560749999973,None,318.54560749999973,None,318.54560749999973,None,319.4806367000001,None,319.4806367000001,319.9906855999998,,,,,,,,,,,,,,,,209,2022-05-04_15h12.35.086,FishGame,2022.1.1,60.09604549988996,
,38,넌 친절해,1,Green,B,6.041666666666667,5.533333333333333,ScrollUp,ScrollDown,Green.png,2,Positive,Incongruent,0,0,0,0,,,,,,,,,,,,,,,,,0,37,37,37,,,,,,,,,,,,,,,,,,,,,,,,,,,,,,,,,,,,,,,,,,,,,,,,,,,,,,,,,,,,,,,,,,,,,,,,,,,,,,,,,2,1.0168429000000287,320.6443055999998,None,ScrollUp,정답입니다,320.6443055999998,None,320.6443055999998,None,320.6443055999998,None,320.6443055999998,None,321.5281537000001,None,321.5281537000001,322.0397032999999,,,,,,,,,,,,,,,,209,2022-05-04_15h12.35.086,FishGame,2022.1.1,60.09604549988996,
,1,넌 엉성해,4,Orange,A,3,3.3,ScrollDown,ScrollUp,Orange.png,3,Negative,Incongruent,0,0,0,0,,,,,,,,,,,,,,,,,,,,,0,0,0,0,,,,,,,,,,,,,,,,,,,,,,,,,,,,,,,,,,,,354.1249190999997,355.62500150000005,355.65795279999975,356.6077519999999,356.6580325,357.60751690000006,357.60751690000006,None,,,,,,,,,,,,,,,,,,,,,,,,,,,,,,,,,,1.200617293516795,1.4142154000001028,358.8067701,None,ScrollDown,정답입니다,358.8067701,None,358.8067701,None,358.8067701,None,358.8067701,None,360.03059669999993,None,360.03059669999993,360.53886779999993,322.53984790000004,None,322.53984790000004,None,0.1,-0.08240741,1,0,0,0.016156320000391133,None,352.5423449,None,,,209,2022-05-04_15h12.35.086,FishGame,2022.1.1,60.09604549988996,
,2,나를 보내줘,6,Orange,A,0,0,ScrollUp,ScrollDown,Orange.png,3,NonTarget,NonTarget,0,0,0,0,,,,,,,,,,,,,,,,,,,,,0,1,1,1,,,,,,,,,,,,,,,,,,,,,,,,,,,,,,,,,,,,,,,,,,,,,,,,,,,,,,,,,,,,,,,,,,,,,,,,,,,,,1.8487654278675716,0.9138152000000446,361.1911234999998,None,ScrollUp,정답입니다,361.1911234999998,None,361.1911234999998,None,361.1911234999998,None,361.1911234999998,None,361.98552119999977,None,361.98552119999977,362.4881897999999,,,,,,,,,,,,,,,,209,2022-05-04_15h12.35.086,FishGame,2022.1.1,60.09604549988996,
,3,넌 활발해,1,Green,B,5.666666666666667,5.6,ScrollUp,ScrollDown,Green.png,3,Positive,Incongruent,0,0,0,0,,,,,,,,,,,,,,,,,,,,,0,2,2,2,,,,,,,,,,,,,,,,,,,,,,,,,,,,,,,,,,,,,,,,,,,,,,,,,,,,,,,,,,,,,,,,,,,,,,,,,,,,,2,1.1281427999997504,363.14387450000004,None,ScrollUp,정답입니다,363.14387450000004,None,363.14387450000004,None,363.14387450000004,None,363.14387450000004,None,364.1392049000001,None,364.1392049000001,364.65417909999996,,,,,,,,,,,,,,,,209,2022-05-04_15h12.35.086,FishGame,2022.1.1,60.09604549988996,
,4,넌 논리적이야,2,Orange,A,5.666666666666666,4.633333333333334,ScrollDown,ScrollUp,Orange.png,3,Positive,Congruent,0,0,0,0,,,,,,,,,,,,,,,,,,,,,0,3,3,3,,,,,,,,,,,,,,,,,,,,,,,,,,,,,,,,,,,,,,,,,,,,,,,,,,,,,,,,,,,,,,,,,,,,,,,,,,,,,1,0.8498214000001099,365.3123227000001,None,ScrollDown,정답입니다,365.3123227000001,None,365.3123227000001,None,365.3123227000001,None,365.3123227000001,None,366.02587919999996,None,366.02587919999996,366.53622499999983,,,,,,,,,,,,,,,,209,2022-05-04_15h12.35.086,FishGame,2022.1.1,60.09604549988996,
,5,넌 과묵해,3,Orange,A,3.875,4.4,ScrollDown,ScrollUp,Orange.png,3,Neutral,Neutral,0,0,0,0,,,,,,,,,,,,,,,,,,,,,0,4,4,4,,,,,,,,,,,,,,,,,,,,,,,,,,,,,,,,,,,,,,,,,,,,,,,,,,,,,,,,,,,,,,,,,,,,,,,,,,,,,1,0.8660255999998299,367.1923171999997,None,ScrollDown,정답입니다,367.1923171999997,None,367.1923171999997,None,367.1923171999997,None,367.1923171999997,None,367.9242602999998,None,367.9242602999998,368.4353670999999,,,,,,,,,,,,,,,,209,2022-05-04_15h12.35.086,FishGame,2022.1.1,60.09604549988996,
,6,나를 데려가줘,6,Green,B,0,0,ScrollDown,ScrollUp,Green.png,3,NonTarget,NonTarget,0,0,0,0,,,,,,,,,,,,,,,,,,,,,0,5,5,5,,,,,,,,,,,,,,,,,,,,,,,,,,,,,,,,,,,,,,,,,,,,,,,,,,,,,,,,,,,,,,,,,,,,,,,,,,,,,1,1.2156946000000062,369.10902499999975,None,ScrollDown,정답입니다,369.10902499999975,None,369.10902499999975,None,369.10902499999975,None,369.10902499999975,None,370.1849661000001,None,370.1849661000001,370.68424259999983,,,,,,,,,,,,,,,,209,2022-05-04_15h12.35.086,FishGame,2022.1.1,60.09604549988996,
,7,넌 미숙해,4,Green,B,3,3,ScrollUp,ScrollDown,Green.png,3,Negative,Congruent,0,0,0,0,,,,,,,,,,,,,,,,,,,,,0,6,6,6,,,,,,,,,,,,,,,,,,,,,,,,,,,,,,,,,,,,,,,,,,,,,,,,,,,,,,,,,,,,,,,,,,,,,,,,,,,,,1.9367283980051677,1.015222999999878,371.33147789999975,None,ScrollUp,정답입니다,371.33147789999975,None,371.33147789999975,None,371.33147789999975,None,371.33147789999975,None,372.22150310000006,None,372.22150310000006,372.7330942999997,,,,,,,,,,,,,,,,209,2022-05-04_15h12.35.086,FishGame,2022.1.1,60.09604549988996,
,8,나를 보내줘,6,Orange,A,0,0,ScrollUp,ScrollDown,Orange.png,3,NonTarget,NonTarget,0,0,0,0,,,,,,,,,,,,,,,,,,,,,0,7,7,7,,,,,,,,,,,,,,,,,,,,,,,,,,,,,,,,,,,,,,,,,,,,,,,,,,,,,,,,,,,,,,,,,,,,,,,,,,,,,1.9429012537002563,1.4883780000000115,373.38738680000006,None,ScrollUp,정답입니다,373.38738680000006,None,373.38738680000006,None,373.38738680000006,None,373.38738680000006,None,374.7433630999999,None,374.7433630999999,375.2494065000001,,,,,,,,,,,,,,,,209,2022-05-04_15h12.35.086,FishGame,2022.1.1,60.09604549988996,
,9,넌 자신만만해,3,Green,B,4.833333333333334,4.333333333333333,ScrollUp,ScrollDown,Green.png,3,Neutral,Neutral,0,0,0,0,,,,,,,,,,,,,,,,,,,,,0,8,8,8,,,,,,,,,,,,,,,,,,,,,,,,,,,,,,,,,,,,,,,,,,,,,,,,,,,,,,,,,,,,,,,,,,,,,,,,,,,,,2,1.0538083999999799,375.92408780000005,None,ScrollUp,정답입니다,375.92408780000005,None,375.92408780000005,None,375.92408780000005,None,375.92408780000005,None,376.8367088,None,376.8367088,377.3482261999998,,,,,,,,,,,,,,,,209,2022-05-04_15h12.35.086,FishGame,2022.1.1,60.09604549988996,
,10,넌 탐욕스러워,5,Orange,A,2.25,2.1,ScrollDown,ScrollUp,Orange.png,3,Negative,Incongruent,0,0,0,0,,,,,,,,,,,,,,,,,,,,,0,9,9,9,,,,,,,,,,,,,,,,,,,,,,,,,,,,,,,,,,,,,,,,,,,,,,,,,,,,,,,,,,,,,,,,,,,,,,,,,,,,,1,0.964013100000102,378.01230769999984,None,ScrollDown,정답입니다,378.01230769999984,None,378.01230769999984,None,378.01230769999984,None,378.01230769999984,None,378.83544570000004,None,378.83544570000004,379.3472692999999,,,,,,,,,,,,,,,,209,2022-05-04_15h12.35.086,FishGame,2022.1.1,60.09604549988996,
,11,넌 인기있어,2,Orange,A,5.458333333333333,4.5,ScrollDown,ScrollUp,Orange.png,3,Positive,Congruent,0,0,0,0,,,,,,,,,,,,,,,,,,,,,0,10,10,10,,,,,,,,,,,,,,,,,,,,,,,,,,,,,,,,,,,,,,,,,,,,,,,,,,,,,,,,,,,,,,,,,,,,,,,,,,,,,1.0709876716136932,0.8366556000000855,379.9998502999997,None,ScrollDown,정답입니다,379.9998502999997,None,379.9998502999997,None,379.9998502999997,None,379.9998502999997,None,380.70426670000006,None,380.70426670000006,381.2130990999999,,,,,,,,,,,,,,,,209,2022-05-04_15h12.35.086,FishGame,2022.1.1,60.09604549988996,
,12,나를 데려가줘,6,Green,B,0,0,ScrollDown,ScrollUp,Green.png,3,NonTarget,NonTarget,0,0,0,0,,,,,,,,,,,,,,,,,,,,,0,11,11,11,,,,,,,,,,,,,,,,,,,,,,,,,,,,,,,,,,,,,,,,,,,,,,,,,,,,,,,,,,,,,,,,,,,,,,,,,,,,,1.0524691541989644,1.2258980999999949,381.8613664999998,None,ScrollDown,정답입니다,381.8613664999998,None,381.8613664999998,None,381.8613664999998,None,381.8613664999998,None,382.96226509999997,None,382.96226509999997,383.4619222000001,,,,,,,,,,,,,,,,209,2022-05-04_15h12.35.086,FishGame,2022.1.1,60.09604549988996,
,13,넌 뛰어나,2,Green,B,6.166666666666667,4,ScrollUp,ScrollDown,Green.png,3,Positive,Incongruent,0,0,0,0,,,,,,,,,,,,,,,,,,,,,0,12,12,12,,,,,,,,,,,,,,,,,,,,,,,,,,,,,,,,,,,,,,,,,,,,,,,,,,,,,,,,,,,,,,,,,,,,,,,,,,,,,2,1.0346776000001228,384.1380242,None,ScrollUp,정답입니다,384.1380242,None,384.1380242,None,384.1380242,None,384.1380242,None,385.0260000999997,None,385.0260000999997,385.527693,,,,,,,,,,,,,,,,209,2022-05-04_15h12.35.086,FishGame,2022.1.1,60.09604549988996,
,14,넌 낙관적이야,1,Orange,A,5.75,5.8,ScrollDown,ScrollUp,Orange.png,3,Positive,Congruent,0,0,0,0,,,,,,,,,,,,,,,,,,,,,0,13,13,13,,,,,,,,,,,,,,,,,,,,,,,,,,,,,,,,,,,,,,,,,,,,,,,,,,,,,,,,,,,,,,,,,,,,,,,,,,,,,1,0.7096729999998388,386.18485969999983,None,ScrollDown,정답입니다,386.18485969999983,None,386.18485969999983,None,386.18485969999983,None,386.18485969999983,None,386.7563894,None,386.7563894,387.26018859999976,,,,,,,,,,,,,,,,209,2022-05-04_15h12.35.086,FishGame,2022.1.1,60.09604549988996,
,15,넌 산만해,4,Green,B,2.695652173913043,3.033333333333333,ScrollUp,ScrollDown,Green.png,3,Negative,Congruent,0,0,0,0,,,,,,,,,,,,,,,,,,,,,0,14,14,14,,,,,,,,,,,,,,,,,,,,,,,,,,,,,,,,,,,,,,,,,,,,,,,,,,,,,,,,,,,,,,,,,,,,,,,,,,,,,2,0.9576042000003326,387.91151089999994,None,ScrollUp,정답입니다,387.91151089999994,None,387.91151089999994,None,387.91151089999994,None,387.91151089999994,None,388.7431636000001,None,388.7431636000001,389.2424547999999,,,,,,,,,,,,,,,,209,2022-05-04_15h12.35.086,FishGame,2022.1.1,60.09604549988996,
,16,나를 보내줘,6,Orange,A,0,0,ScrollUp,ScrollDown,Orange.png,3,NonTarget,NonTarget,0,0,0,0,,,,,,,,,,,,,,,,,,,,,0,15,15,15,,,,,,,,,,,,,,,,,,,,,,,,,,,,,,,,,,,,,,,,,,,,,,,,,,,,,,,,,,,,,,,,,,,,,,,,,,,,,1.9274691144625347,1.0217761999997492,389.8948296999997,None,ScrollUp,정답입니다,389.8948296999997,None,389.8948296999997,None,389.8948296999997,None,389.8948296999997,None,390.78579089999994,None,390.78579089999994,391.2918915,,,,,,,,,,,,,,,,209,2022-05-04_15h12.35.086,FishGame,2022.1.1,60.09604549988996,
,17,넌 교활해,5,Green,B,2.333333333333333,2.133333333333333,ScrollUp,ScrollDown,Green.png,3,Negative,Congruent,0,0,0,0,,,,,,,,,,,,,,,,,,,,,0,16,16,16,,,,,,,,,,,,,,,,,,,,,,,,,,,,,,,,,,,,,,,,,,,,,,,,,,,,,,,,,,,,,,,,,,,,,,,,,,,,,2,0.9656949999998687,391.9421861000001,None,ScrollUp,정답입니다,391.9421861000001,None,391.9421861000001,None,391.9421861000001,None,391.9421861000001,None,392.7794312000001,None,392.7794312000001,393.2906382000001,,,,,,,,,,,,,,,,209,2022-05-04_15h12.35.086,FishGame,2022.1.1,60.09604549988996,
,18,나를 보내줘,6,Orange,A,0,0,ScrollUp,ScrollDown,Orange.png,3,NonTarget,NonTarget,0,0,0,0,,,,,,,,,,,,,,,,,,,,,0,17,17,17,,,,,,,,,,,,,,,,,,,,,,,,,,,,,,,,,,,,,,,,,,,,,,,,,,,,,,,,,,,,,,,,,,,,,,,,,,,,,2,0.9848515000003317,393.9431015,None,ScrollUp,정답입니다,393.9431015,None,393.9431015,None,393.9431015,None,393.9431015,None,394.80522930000006,None,394.80522930000006,395.30635230000007,,,,,,,,,,,,,,,,209,2022-05-04_15h12.35.086,FishGame,2022.1.1,60.09604549988996,
,19,넌 불친절해,5,Green,B,2.208333333333333,2.033333333333333,ScrollUp,ScrollDown,Green.png,3,Negative,Congruent,0,0,0,0,,,,,,,,,,,,,,,,,,,,,0,18,18,18,,,,,,,,,,,,,,,,,,,,,,,,,,,,,,,,,,,,,,,,,,,,,,,,,,,,,,,,,,,,,,,,,,,,,,,,,,,,,2,1.0579892999999174,395.9580142,None,ScrollUp,정답입니다,395.9580142,None,395.9580142,None,395.9580142,None,395.9580142,None,396.88916059999974,None,396.88916059999974,397.3889369999997,,,,,,,,,,,,,,,,209,2022-05-04_15h12.35.086,FishGame,2022.1.1,60.09604549988996,
,20,넌 지적이야,2,Green,B,5.75,4.366666666666666,ScrollUp,ScrollDown,Green.png,3,Positive,Incongruent,0,0,0,0,,,,,,,,,,,,,,,,,,,,,0,19,19,19,,,,,,,,,,,,,,,,,,,,,,,,,,,,,,,,,,,,,,,,,,,,,,,,,,,,,,,,,,,,,,,,,,,,,,,,,,,,,2,0.916384300000118,398.04611109999996,None,ScrollUp,정답입니다,398.04611109999996,None,398.04611109999996,None,398.04611109999996,None,398.04611109999996,None,398.8289937999998,None,398.8289937999998,399.3381744999997,,,,,,,,,,,,,,,,209,2022-05-04_15h12.35.086,FishGame,2022.1.1,60.09604549988996,
,21,넌 우유부단해,4,Orange,A,2.666666666666667,3.166666666666667,ScrollDown,ScrollUp,Orange.png,3,Negative,Incongruent,0,0,0,0,,,,,,,,,,,,,,,,,,,,,0,20,20,20,,,,,,,,,,,,,,,,,,,,,,,,,,,,,,,,,,,,,,,,,,,,,,,,,,,,,,,,,,,,,,,,,,,,,,,,,,,,,1,0.8653709000000163,400.0011249999998,None,ScrollDown,정답입니다,400.0011249999998,None,400.0011249999998,None,400.0011249999998,None,400.0011249999998,None,400.7259807999999,None,400.7259807999999,401.23746819999997,,,,,,,,,,,,,,,,209,2022-05-04_15h12.35.086,FishGame,2022.1.1,60.09604549988996,
,22,나를 데려가줘,6,Green,B,0,0,ScrollDown,ScrollUp,Green.png,3,NonTarget,NonTarget,0,0,0,0,,,,,,,,,,,,,,,,,,,,,0,21,21,21,,,,,,,,,,,,,,,,,,,,,,,,,,,,,,,,,,,,,,,,,,,,,,,,,,,,,,,,,,,,,,,,,,,,,,,,,,,,,1.0570987462997437,1.1086608000000524,401.8864804,None,ScrollDown,정답입니다,401.8864804,None,401.8864804,None,401.8864804,None,401.8864804,None,402.86974929999997,None,402.86974929999997,403.37011789999997,,,,,,,,,,,,,,,,209,2022-05-04_15h12.35.086,FishGame,2022.1.1,60.09604549988996,
,23,넌 성실해,1,Green,B,6.041666666666666,5.7,ScrollUp,ScrollDown,Green.png,3,Positive,Incongruent,0,0,0,0,,,,,,,,,,,,,,,,,,,,,0,22,22,22,,,,,,,,,,,,,,,,,,,,,,,,,,,,,,,,,,,,,,,,,,,,,,,,,,,,,,,,,,,,,,,,,,,,,,,,,,,,,2,1.083956599999965,404.03763019999997,None,ScrollUp,정답입니다,404.03763019999997,None,404.03763019999997,None,404.03763019999997,None,404.03763019999997,None,404.9854759,None,404.9854759,405.4858911000001,,,,,,,,,,,,,,,,209,2022-05-04_15h12.35.086,FishGame,2022.1.1,60.09604549988996,
,24,넌 현실주의적이야,3,Orange,A,4.625,4.4,ScrollDown,ScrollUp,Orange.png,3,Neutral,Neutral,0,0,0,0,,,,,,,,,,,,,,,,,,,,,0,23,23,23,,,,,,,,,,,,,,,,,,,,,,,,,,,,,,,,,,,,,,,,,,,,,,,,,,,,,,,,,,,,,,,,,,,,,,,,,,,,,1,1.3382191999999122,406.1434724999999,None,ScrollDown,정답입니다,406.1434724999999,None,406.1434724999999,None,406.1434724999999,None,406.1434724999999,None,407.3439749999998,None,407.3439749999998,407.8511868999999,,,,,,,,,,,,,,,,209,2022-05-04_15h12.35.086,FishGame,2022.1.1,60.09604549988996,
,25,넌 진실돼,1,Orange,A,6.625,5.566666666666666,ScrollDown,ScrollUp,Orange.png,3,Positive,Congruent,0,0,0,0,,,,,,,,,,,,,,,,,,,,,0,24,24,24,,,,,,,,,,,,,,,,,,,,,,,,,,,,,,,,,,,,,,,,,,,,,,,,,,,,,,,,,,,,,,,,,,,,,,,,,,,,,1,0.881107300000167,408.5068258000001,None,ScrollDown,정답입니다,408.5068258000001,None,408.5068258000001,None,408.5068258000001,None,408.5068258000001,None,409.25515959999984,None,409.25515959999984,409.76677740000014,,,,,,,,,,,,,,,,209,2022-05-04_15h12.35.086,FishGame,2022.1.1,60.09604549988996,
,26,넌 천진난만해,3,Green,B,4.958333333333334,4.833333333333333,ScrollUp,ScrollDown,Green.png,3,Neutral,Neutral,0,0,0,0,,,,,,,,,,,,,,,,,,,,,0,25,25,25,,,,,,,,,,,,,,,,,,,,,,,,,,,,,,,,,,,,,,,,,,,,,,,,,,,,,,,,,,,,,,,,,,,,,,,,,,,,,2,1.000879199999872,410.4237823999997,None,ScrollUp,정답입니다,410.4237823999997,None,410.4237823999997,None,410.4237823999997,None,410.4237823999997,None,411.2878541,None,411.2878541,411.7993035999998,,,,,,,,,,,,,,,,209,2022-05-04_15h12.35.086,FishGame,2022.1.1,60.09604549988996,
,27,넌 교양없어,5,Orange,A,2.416666666666667,2.2,ScrollDown,ScrollUp,Orange.png,3,Negative,Incongruent,0,0,0,0,,,,,,,,,,,,,,,,,,,,,0,26,26,26,,,,,,,,,,,,,,,,,,,,,,,,,,,,,,,,,,,,,,,,,,,,,,,,,,,,,,,,,,,,,,,,,,,,,,,,,,,,,1,0.9638644999999997,412.47847009999987,None,ScrollDown,정답입니다,412.47847009999987,None,412.47847009999987,None,412.47847009999987,None,412.47847009999987,None,413.29335059999994,None,413.29335059999994,413.7983245999999,,,,,,,,,,,,,,,,209,2022-05-04_15h12.35.086,FishGame,2022.1.1,60.09604549988996,
,28,나를 보내줘,6,Orange,A,0,0,ScrollUp,ScrollDown,Orange.png,3,NonTarget,NonTarget,0,0,0,0,,,,,,,,,,,,,,,,,,,,,0,27,27,27,,,,,,,,,,,,,,,,,,,,,,,,,,,,,,,,,,,,,,,,,,,,,,,,,,,,,,,,,,,,,,,,,,,,,,,,,,,,,2,1.0056386000001112,414.4506594999998,None,ScrollUp,정답입니다,414.4506594999998,None,414.4506594999998,None,414.4506594999998,None,414.4506594999998,None,415.3312007999998,None,415.3312007999998,415.83098530000007,,,,,,,,,,,,,,,,209,2022-05-04_15h12.35.086,FishGame,2022.1.1,60.09604549988996,
,29,넌 엉뚱스러워,3,Orange,A,4.166666666666667,4.133333333333334,ScrollDown,ScrollUp,Orange.png,3,Neutral,Neutral,0,0,0,0,,,,,,,,,,,,,,,,,,,,,0,28,28,28,,,,,,,,,,,,,,,,,,,,,,,,,,,,,,,,,,,,,,,,,,,,,,,,,,,,,,,,,,,,,,,,,,,,,,,,,,,,,1,1.0493559999999889,416.48981700000013,None,ScrollDown,정답입니다,416.48981700000013,None,416.48981700000013,None,416.48981700000013,None,416.48981700000013,None,417.4025809999998,None,417.4025809999998,417.9131803999999,,,,,,,,,,,,,,,,209,2022-05-04_15h12.35.086,FishGame,2022.1.1,60.09604549988996,
,30,넌 무지해,4,Green,B,2.541666666666667,3.066666666666667,ScrollUp,ScrollDown,Green.png,3,Negative,Congruent,0,0,0,0,,,,,,,,,,,,,,,,,,,,,0,29,29,29,,,,,,,,,,,,,,,,,,,,,,,,,,,,,,,,,,,,,,,,,,,,,,,,,,,,,,,,,,,,,,,,,,,,,,,,,,,,,1.9907407363255818,0.9561249999997017,418.56573070000013,None,ScrollUp,정답입니다,418.56573070000013,None,418.56573070000013,None,418.56573070000013,None,418.56573070000013,None,419.38923829999976,None,419.38923829999976,419.8961782000001,,,,,,,,,,,,,,,,209,2022-05-04_15h12.35.086,FishGame,2022.1.1,60.09604549988996,
,31,넌 음울해,5,Green,B,2.25,2.233333333333333,ScrollUp,ScrollDown,Green.png,3,Negative,Congruent,0,0,0,0,,,,,,,,,,,,,,,,,,,,,0,30,30,30,,,,,,,,,,,,,,,,,,,,,,,,,,,,,,,,,,,,,,,,,,,,,,,,,,,,,,,,,,,,,,,,,,,,,,,,,,,,,2,0.929832400000123,420.5514423999998,None,ScrollUp,정답입니다,420.5514423999998,None,420.5514423999998,None,420.5514423999998,None,420.5514423999998,None,421.3488830000001,None,421.3488830000001,421.86133010000003,,,,,,,,,,,,,,,,209,2022-05-04_15h12.35.086,FishGame,2022.1.1,60.09604549988996,
,32,넌 냉소적이야,5,Orange,A,2.916666666666667,2.4,ScrollDown,ScrollUp,Orange.png,3,Negative,Incongruent,0,0,0,0,,,,,,,,,,,,,,,,,,,,,0,31,31,31,,,,,,,,,,,,,,,,,,,,,,,,,,,,,,,,,,,,,,,,,,,,,,,,,,,,,,,,,,,,,,,,,,,,,,,,,,,,,1,1.1181127999998353,422.5121484000001,None,ScrollDown,정답입니다,422.5121484000001,None,422.5121484000001,None,422.5121484000001,None,422.5121484000001,None,423.5003136,None,423.5003136,424.0103746,,,,,,,,,,,,,,,,209,2022-05-04_15h12.35.086,FishGame,2022.1.1,60.09604549988996,
,33,나를 데려가줘,6,Green,B,0,0,ScrollDown,ScrollUp,Green.png,3,NonTarget,NonTarget,0,0,0,0,,,,,,,,,,,,,,,,,,,,,0,32,32,32,,,,,,,,,,,,,,,,,,,,,,,,,,,,,,,,,,,,,,,,,,,,,,,,,,,,,,,,,,,,,,,,,,,,,,,,,,,,,1,1.0444848999995884,424.6815644999997,None,ScrollDown,정답입니다,424.6815644999997,None,424.6815644999997,None,424.6815644999997,None,424.6815644999997,None,425.60077349999983,None,425.60077349999983,426.10937209999975,,,,,,,,,,,,,,,,209,2022-05-04_15h12.35.086,FishGame,2022.1.1,60.09604549988996,
,34,넌 쾌활해,1,Orange,A,5.541666666666666,5.733333333333333,ScrollDown,ScrollUp,Orange.png,3,Positive,Congruent,0,0,0,0,,,,,,,,,,,,,,,,,,,,,0,33,33,33,,,,,,,,,,,,,,,,,,,,,,,,,,,,,,,,,,,,,,,,,,,,,,,,,,,,,,,,,,,,,,,,,,,,,,,,,,,,,1.0108024775981903,0.8169496000004983,426.7639890999999,None,ScrollDown,정답입니다,426.7639890999999,None,426.7639890999999,None,426.7639890999999,None,426.7639890999999,None,427.4476445,None,427.4476445,427.9587577000002,,,,,,,,,,,,,,,,209,2022-05-04_15h12.35.086,FishGame,2022.1.1,60.09604549988996,
,35,나를 보내줘,6,Orange,A,0,0,ScrollUp,ScrollDown,Orange.png,3,NonTarget,NonTarget,0,0,0,0,,,,,,,,,,,,,,,,,,,,,0,34,34,34,,,,,,,,,,,,,,,,,,,,,,,,,,,,,,,,,,,,,,,,,,,,,,,,,,,,,,,,,,,,,,,,,,,,,,,,,,,,,2,1.1487389000003532,428.64363520000006,None,ScrollUp,정답입니다,428.64363520000006,None,428.64363520000006,None,428.64363520000006,None,428.64363520000006,None,429.64865069999996,None,429.64865069999996,430.1576038000003,,,,,,,,,,,,,,,,209,2022-05-04_15h12.35.086,FishGame,2022.1.1,60.09604549988996,
,36,넌 명랑해,1,Green,B,5.739130434782609,5.666666666666667,ScrollUp,ScrollDown,Green.png,3,Positive,Incongruent,0,0,0,0,,,,,,,,,,,,,,,,,,,,,0,35,35,35,,,,,,,,,,,,,,,,,,,,,,,,,,,,,,,,,,,,,,,,,,,,,,,,,,,,,,,,,,,,,,,,,,,,,,,,,,,,,2,1.2235207000003356,430.80675150000025,None,ScrollUp,정답입니다,430.80675150000025,None,430.80675150000025,None,430.80675150000025,None,430.80675150000025,None,431.90680989999964,None,431.90680989999964,432.40676170000006,,,,,,,,,,,,,,,,209,2022-05-04_15h12.35.086,FishGame,2022.1.1,60.09604549988996,
,37,넌 멍해,4,Orange,A,2.833333333333333,3.4,ScrollDown,ScrollUp,Orange.png,3,Negative,Incongruent,0,0,0,0,,,,,,,,,,,,,,,,,,,,,0,36,36,36,,,,,,,,,,,,,,,,,,,,,,,,,,,,,,,,,,,,,,,,,,,,,,,,,,,,,,,,,,,,,,,,,,,,,,,,,,,,,1,0.9604895000002216,433.0597104999997,None,ScrollDown,정답입니다,433.0597104999997,None,433.0597104999997,None,433.0597104999997,None,433.0597104999997,None,433.89018860000033,None,433.89018860000033,434.4059341000002,,,,,,,,,,,,,,,,209,2022-05-04_15h12.35.086,FishGame,2022.1.1,60.09604549988996,
,38,나를 데려가줘,6,Green,B,0,0,ScrollDown,ScrollUp,Green.png,3,NonTarget,NonTarget,0,0,0,0,,,,,,,,,,,,,,,,,,,,,0,37,37,37,,,,,,,,,,,,,,,,,,,,,,,,,,,,,,,,,,,,,,,,,,,,,,,,,,,,,,,,,,,,,,,,,,,,,,,,,,,,,1,1.015770999999404,435.05401359999996,None,ScrollDown,정답입니다,435.05401359999996,None,435.05401359999996,None,435.05401359999996,None,435.05401359999996,None,435.94885609999983,None,435.94885609999983,436.45483369999965,,,,,,,,,,,,,,,,209,2022-05-04_15h12.35.086,FishGame,2022.1.1,60.09604549988996,
,39,넌 현명해,2,Orange,A,6.541666666666666,4.533333333333333,ScrollDown,ScrollUp,Orange.png,3,Positive,Congruent,0,0,0,0,,,,,,,,,,,,,,,,,,,,,0,38,38,38,,,,,,,,,,,,,,,,,,,,,,,,,,,,,,,,,,,,,,,,,,,,,,,,,,,,,,,,,,,,,,,,,,,,,,,,,,,,,1,0.8483708999992814,437.1063721999999,None,ScrollDown,정답입니다,437.1063721999999,None,437.1063721999999,None,437.1063721999999,None,437.1063721999999,None,437.8278316999995,None,437.8278316999995,438.33733250000023,,,,,,,,,,,,,,,,209,2022-05-04_15h12.35.086,FishGame,2022.1.1,60.09604549988996,
,40,넌 수줍어,3,Green,B,3.541666666666666,4.366666666666666,ScrollUp,ScrollDown,Green.png,3,Neutral,Neutral,0,0,0,0,,,,,,,,,,,,,,,,,,,,,0,39,39,39,,,,,,,,,,,,,,,,,,,,,,,,,,,,,,,,,,,,,,,,,,,,,,,,,,,,,,,,,,,,,,,,,,,,,,,,,,,,,2,1.1073317999998835,439.0185517,None,ScrollUp,정답입니다,439.0185517,None,439.0185517,None,439.0185517,None,439.0185517,None,439.97698169999967,None,439.97698169999967,440.4862836000002,,,,,,,,,,,,,,,,209,2022-05-04_15h12.35.086,FishGame,2022.1.1,60.09604549988996,
,41,나를 데려가줘,6,Green,B,0,0,ScrollDown,ScrollUp,Green.png,3,NonTarget,NonTarget,0,0,0,0,,,,,,,,,,,,,,,,,,,,,0,40,40,40,,,,,,,,,,,,,,,,,,,,,,,,,,,,,,,,,,,,,,,,,,,,,,,,,,,,,,,,,,,,,,,,,,,,,,,,,,,,,1.0987654229005177,0.9267188000003443,441.13171820000025,None,ScrollDown,정답입니다,441.13171820000025,None,441.13171820000025,None,441.13171820000025,None,441.13171820000025,None,441.93157640000027,None,441.93157640000027,442.43546100000003,,,,,,,,,,,,,,,,209,2022-05-04_15h12.35.086,FishGame,2022.1.1,60.09604549988996,
,42,넌 성숙해,2,Green,B,5.833333333333333,4.533333333333333,ScrollUp,ScrollDown,Green.png,3,Positive,Incongruent,0,0,0,0,,,,,,,,,,,,,,,,,,,,,0,41,41,41,,,,,,,,,,,,,,,,,,,,,,,,,,,,,,,,,,,,,,,,,,,,,,,,,,,,,,,,,,,,,,,,,,,,,,,,,,,,,2,1.233350600000449,443.0802599999997,None,ScrollUp,정답입니다,443.0802599999997,None,443.0802599999997,None,443.0802599999997,None,443.0802599999997,None,444.1893799999998,None,444.1893799999998,444.70118980000007,,,,,,,,,,,,,,,,209,2022-05-04_15h12.35.086,FishGame,2022.1.1,60.09604549988996,
,1,넌 매력적이야,2,Green,B,6.125,4.666666666666667,ScrollUp,ScrollDown,Green.png,4,Positive,Incongruent,0,0,0,0,,,,,,,,,,,,,,,,,,,,,,,,,0,0,0,0,,,,,,,,,,,,,,,,,,,,,,,,,,,,,,,,476.5202191999997,478.0361869999997,478.0524587,479.0033387000003,479.0531044999998,480.0182751000002,480.00208589999966,None,,,,,,,,,,,,,,,,,,,,,,,,,,,,,,,,,,1.8966049353281658,1.0375748999995267,481.21074450000015,None,ScrollUp,정답입니다,481.21074450000015,None,481.21074450000015,None,481.21074450000015,None,481.21074450000015,None,482.0755545000002,None,482.0755545000002,482.5840268000002,445.2009602999997,None,445.2009602999997,None,0.098148145,-0.05277778,1,0,0,0.015799820000211184,None,475.2041522999998,None,,,209,2022-05-04_15h12.35.086,FishGame,2022.1.1,60.09604549988996,
,2,나를 보내줘,6,Orange,A,0,0,ScrollUp,ScrollDown,Orange.png,4,NonTarget,NonTarget,0,0,0,0,,,,,,,,,,,,,,,,,,,,,,,,,0,1,1,1,,,,,,,,,,,,,,,,,,,,,,,,,,,,,,,,,,,,,,,,,,,,,,,,,,,,,,,,,,,,,,,,,,,,,,,,,2,1.170172499999353,483.24190029999954,None,ScrollUp,정답입니다,483.24190029999954,None,483.24190029999954,None,483.24190029999954,None,483.24190029999954,None,484.2755854999996,None,484.2755854999996,484.7828149999996,,,,,,,,,,,,,,,,209,2022-05-04_15h12.35.086,FishGame,2022.1.1,60.09604549988996,
,3,넌 조심스러워,3,Orange,A,4.791666666666666,4.666666666666667,ScrollDown,ScrollUp,Orange.png,4,Neutral,Neutral,0,0,0,0,,,,,,,,,,,,,,,,,,,,,,,,,0,2,2,2,,,,,,,,,,,,,,,,,,,,,,,,,,,,,,,,,,,,,,,,,,,,,,,,,,,,,,,,,,,,,,,,,,,,,,,,,1,0.7809520999999222,485.4368800000002,None,ScrollDown,정답입니다,485.4368800000002,None,485.4368800000002,None,485.4368800000002,None,485.4368800000002,None,486.0862879999995,None,486.0862879999995,486.5986505999999,,,,,,,,,,,,,,,,209,2022-05-04_15h12.35.086,FishGame,2022.1.1,60.09604549988996,
,4,넌 철학적이야,3,Green,B,4.5,4.266666666666667,ScrollUp,ScrollDown,Green.png,4,Neutral,Neutral,0,0,0,0,,,,,,,,,,,,,,,,,,,,,,,,,0,3,3,3,,,,,,,,,,,,,,,,,,,,,,,,,,,,,,,,,,,,,,,,,,,,,,,,,,,,,,,,,,,,,,,,,,,,,,,,,2,0.9486350000006496,487.25365749999946,None,ScrollUp,정답입니다,487.25365749999946,None,487.25365749999946,None,487.25365749999946,None,487.25365749999946,None,488.07002589999956,None,488.07002589999956,488.58138880000024,,,,,,,,,,,,,,,,209,2022-05-04_15h12.35.086,FishGame,2022.1.1,60.09604549988996,
,5,넌 쩨쩨해,5,Orange,A,2.375,2.133333333333333,ScrollDown,ScrollUp,Orange.png,4,Negative,Incongruent,0,0,0,0,,,,,,,,,,,,,,,,,,,,,,,,,0,4,4,4,,,,,,,,,,,,,,,,,,,,,,,,,,,,,,,,,,,,,,,,,,,,,,,,,,,,,,,,,,,,,,,,,,,,,,,,,1,0.9008709999998246,489.2365160999998,None,ScrollDown,정답입니다,489.2365160999998,None,489.2365160999998,None,489.2365160999998,None,489.2365160999998,None,490.0025608999995,None,490.0025608999995,490.51357910000024,,,,,,,,,,,,,,,,209,2022-05-04_15h12.35.086,FishGame,2022.1.1,60.09604549988996,
,6,나를 데려가줘,6,Green,B,0,0,ScrollDown,ScrollUp,Green.png,4,NonTarget,NonTarget,0,0,0,0,,,,,,,,,,,,,,,,,,,,,,,,,0,5,5,5,,,,,,,,,,,,,,,,,,,,,,,,,,,,,,,,,,,,,,,,,,,,,,,,,,,,,,,,,,,,,,,,,,,,,,,,,1.0308642089366913,1.1387465999996493,491.16839439999967,None,ScrollDown,정답입니다,491.16839439999967,None,491.16839439999967,None,491.16839439999967,None,491.16839439999967,None,492.17283829999997,None,492.17283829999997,492.6792403999998,,,,,,,,,,,,,,,,209,2022-05-04_15h12.35.086,FishGame,2022.1.1,60.09604549988996,
,7,넌 고집불통이야,5,Green,B,2.875,2,ScrollUp,ScrollDown,Green.png,4,Negative,Congruent,0,0,0,0,,,,,,,,,,,,,,,,,,,,,,,,,0,6,6,6,,,,,,,,,,,,,,,,,,,,,,,,,,,,,,,,,,,,,,,,,,,,,,,,,,,,,,,,,,,,,,,,,,,,,,,,,2,1.021415899999738,493.3344965999995,None,ScrollUp,정답입니다,493.3344965999995,None,493.3344965999995,None,493.3344965999995,None,493.3344965999995,None,494.2218170999995,None,494.2218170999995,494.7282642,,,,,,,,,,,,,,,,209,2022-05-04_15h12.35.086,FishGame,2022.1.1,60.09604549988996,
,8,넌 무심해,4,Orange,A,2.875,3.2,ScrollDown,ScrollUp,Orange.png,4,Negative,Incongruent,0,0,0,0,,,,,,,,,,,,,,,,,,,,,,,,,0,7,7,7,,,,,,,,,,,,,,,,,,,,,,,,,,,,,,,,,,,,,,,,,,,,,,,,,,,,,,,,,,,,,,,,,,,,,,,,,1,0.8204132000000754,495.3796328999997,None,ScrollDown,정답입니다,495.3796328999997,None,495.3796328999997,None,495.3796328999997,None,495.3796328999997,None,496.0706173999997,None,496.0706173999997,496.5775381000003,,,,,,,,,,,,,,,,209,2022-05-04_15h12.35.086,FishGame,2022.1.1,60.09604549988996,
,9,넌 정겨워,1,Orange,A,5.791666666666667,5.666666666666667,ScrollDown,ScrollUp,Orange.png,4,Positive,Congruent,0,0,0,0,,,,,,,,,,,,,,,,,,,,,,,,,0,8,8,8,,,,,,,,,,,,,,,,,,,,,,,,,,,,,,,,,,,,,,,,,,,,,,,,,,,,,,,,,,,,,,,,,,,,,,,,,1,1.3496412999993481,497.2352103000003,None,ScrollDown,정답입니다,497.2352103000003,None,497.2352103000003,None,497.2352103000003,None,497.2352103000003,None,498.4494917000002,None,498.4494917000002,498.9596265,,,,,,,,,,,,,,,,209,2022-05-04_15h12.35.086,FishGame,2022.1.1,60.09604549988996,
,10,나를 데려가줘,6,Green,B,0,0,ScrollDown,ScrollUp,Green.png,4,NonTarget,NonTarget,0,0,0,0,,,,,,,,,,,,,,,,,,,,,,,,,0,9,9,9,,,,,,,,,,,,,,,,,,,,,,,,,,,,,,,,,,,,,,,,,,,,,,,,,,,,,,,,,,,,,,,,,,,,,,,,,1,1.0233917000005022,499.6067432,None,ScrollDown,정답입니다,499.6067432,None,499.6067432,None,499.6067432,None,499.6067432,None,500.50928399999975,None,500.50928399999975,501.00897890000033,,,,,,,,,,,,,,,,209,2022-05-04_15h12.35.086,FishGame,2022.1.1,60.09604549988996,
,11,넌 체제순응적이야,4,Green,B,3,3.6,ScrollUp,ScrollDown,Green.png,4,Negative,Congruent,0,0,0,0,,,,,,,,,,,,,,,,,,,,,,,,,0,10,10,10,,,,,,,,,,,,,,,,,,,,,,,,,,,,,,,,,,,,,,,,,,,,,,,,,,,,,,,,,,,,,,,,,,,,,,,,,2,1.027280299999802,501.6826519999995,None,ScrollUp,정답입니다,501.6826519999995,None,501.6826519999995,None,501.6826519999995,None,501.6826519999995,None,502.5606023,None,502.5606023,503.07474399999955,,,,,,,,,,,,,,,,209,2022-05-04_15h12.35.086,FishGame,2022.1.1,60.09604549988996,
,12,나를 보내줘,6,Orange,A,0,0,ScrollUp,ScrollDown,Orange.png,4,NonTarget,NonTarget,0,0,0,0,,,,,,,,,,,,,,,,,,,,,,,,,0,11,11,11,,,,,,,,,,,,,,,,,,,,,,,,,,,,,,,,,,,,,,,,,,,,,,,,,,,,,,,,,,,,,,,,,,,,,,,,,1.9675925771395366,1.399086699999316,503.72707619999983,None,ScrollUp,정답입니다,503.72707619999983,None,503.72707619999983,None,503.72707619999983,None,503.72707619999983,None,504.9952608000003,None,504.9952608000003,505.5068738,,,,,,,,,,,,,,,,209,2022-05-04_15h12.35.086,FishGame,2022.1.1,60.09604549988996,
,13,넌 박식해,2,Orange,A,5.625,3.933333333333333,ScrollDown,ScrollUp,Orange.png,4,Positive,Congruent,0,0,0,0,,,,,,,,,,,,,,,,,,,,,,,,,0,12,12,12,,,,,,,,,,,,,,,,,,,,,,,,,,,,,,,,,,,,,,,,,,,,,,,,,,,,,,,,,,,,,,,,,,,,,,,,,1.180555562178294,0.8497909999996409,506.1727874999997,None,ScrollDown,정답입니다,506.1727874999997,None,506.1727874999997,None,506.1727874999997,None,506.1727874999997,None,506.87943540000015,None,506.87943540000015,507.39007889999993,,,,,,,,,,,,,,,,209,2022-05-04_15h12.35.086,FishGame,2022.1.1,60.09604549988996,
,14,나를 보내줘,6,Orange,A,0,0,ScrollUp,ScrollDown,Orange.png,4,NonTarget,NonTarget,0,0,0,0,,,,,,,,,,,,,,,,,,,,,,,,,0,13,13,13,,,,,,,,,,,,,,,,,,,,,,,,,,,,,,,,,,,,,,,,,,,,,,,,,,,,,,,,,,,,,,,,,,,,,,,,,2,1.1832013999992341,508.0744930999999,None,ScrollUp,정답입니다,508.0744930999999,None,508.0744930999999,None,508.0744930999999,None,508.0744930999999,None,509.10629400000016,None,509.10629400000016,509.62161620000006,,,,,,,,,,,,,,,,209,2022-05-04_15h12.35.086,FishGame,2022.1.1,60.09604549988996,
,15,넌 침착해,1,Green,B,5.458333333333333,5.566666666666666,ScrollUp,ScrollDown,Green.png,4,Positive,Incongruent,0,0,0,0,,,,,,,,,,,,,,,,,,,,,,,,,0,14,14,14,,,,,,,,,,,,,,,,,,,,,,,,,,,,,,,,,,,,,,,,,,,,,,,,,,,,,,,,,,,,,,,,,,,,,,,,,1,0.8396090999995067,510.2818355999998,None,ScrollDown,오답입니다,510.2818355999998,None,510.2818355999998,None,510.2818355999998,None,510.2818355999998,None,510.98332870000013,None,510.98332870000013,511.4878313999998,,,,,,,,,,,,,,,,209,2022-05-04_15h12.35.086,FishGame,2022.1.1,60.09604549988996,
,16,나를 데려가줘,6,Green,B,0,0,ScrollDown,ScrollUp,Green.png,4,NonTarget,NonTarget,0,0,0,0,,,,,,,,,,,,,,,,,,,,,,,,,0,15,15,15,,,,,,,,,,,,,,,,,,,,,,,,,,,,,,,,,,,,,,,,,,,,,,,,,,,,,,,,,,,,,,,,,,,,,,,,,1,1.037999099999979,512.1347710999999,None,ScrollDown,정답입니다,512.1347710999999,None,512.1347710999999,None,512.1347710999999,None,512.1347710999999,None,513.0481683999997,None,513.0481683999997,513.5533456000003,,,,,,,,,,,,,,,,209,2022-05-04_15h12.35.086,FishGame,2022.1.1,60.09604549988996,
,17,넌 행복해,1,Orange,A,6.416666666666666,6.166666666666667,ScrollDown,ScrollUp,Orange.png,4,Positive,Congruent,0,0,0,0,,,,,,,,,,,,,,,,,,,,,,,,,0,16,16,16,,,,,,,,,,,,,,,,,,,,,,,,,,,,,,,,,,,,,,,,,,,,,,,,,,,,,,,,,,,,,,,,,,,,,,,,,1,0.9218981000003623,514.2154105,None,ScrollDown,정답입니다,514.2154105,None,514.2154105,None,514.2154105,None,514.2154105,None,515.0025932999997,None,515.0025932999997,515.5025600999998,,,,,,,,,,,,,,,,209,2022-05-04_15h12.35.086,FishGame,2022.1.1,60.09604549988996,
,18,넌 겸손해,2,Green,B,5.791666666666667,4.766666666666667,ScrollUp,ScrollDown,Green.png,4,Positive,Incongruent,0,0,0,0,,,,,,,,,,,,,,,,,,,,,,,,,0,17,17,17,,,,,,,,,,,,,,,,,,,,,,,,,,,,,,,,,,,,,,,,,,,,,,,,,,,,,,,,,,,,,,,,,,,,,,,,,2,0.9599591000005603,516.1561017000004,None,ScrollUp,정답입니다,516.1561017000004,None,516.1561017000004,None,516.1561017000004,None,516.1561017000004,None,516.9851577999998,None,516.9851577999998,517.4850096999999,,,,,,,,,,,,,,,,209,2022-05-04_15h12.35.086,FishGame,2022.1.1,60.09604549988996,
,19,나를 보내줘,6,Orange,A,0,0,ScrollUp,ScrollDown,Orange.png,4,NonTarget,NonTarget,0,0,0,0,,,,,,,,,,,,,,,,,,,,,,,,,0,18,18,18,,,,,,,,,,,,,,,,,,,,,,,,,,,,,,,,,,,,,,,,,,,,,,,,,,,,,,,,,,,,,,,,,,,,,,,,,2,1.2205450999999812,518.1573657999998,None,ScrollUp,정답입니다,518.1573657999998,None,518.1573657999998,None,518.1573657999998,None,518.1573657999998,None,519.2387292000003,None,519.2387292000003,519.7503674999998,,,,,,,,,,,,,,,,209,2022-05-04_15h12.35.086,FishGame,2022.1.1,60.09604549988996,
,20,넌 의심없어,3,Orange,A,4.166666666666667,4.6,ScrollDown,ScrollUp,Orange.png,4,Neutral,Neutral,0,0,0,0,,,,,,,,,,,,,,,,,,,,,,,,,0,19,19,19,,,,,,,,,,,,,,,,,,,,,,,,,,,,,,,,,,,,,,,,,,,,,,,,,,,,,,,,,,,,,,,,,,,,,,,,,1.0030864079793294,1.065219099999922,520.4012124999999,None,ScrollDown,정답입니다,520.4012124999999,None,520.4012124999999,None,520.4012124999999,None,520.4012124999999,None,521.3377290999997,None,521.3377290999997,521.8495978000001,,,,,,,,,,,,,,,,209,2022-05-04_15h12.35.086,FishGame,2022.1.1,60.09604549988996,
,21,넌 시시해,4,Orange,A,2.666666666666667,2.966666666666667,ScrollDown,ScrollUp,Orange.png,4,Negative,Incongruent,0,0,0,0,,,,,,,,,,,,,,,,,,,,,,,,,0,20,20,20,,,,,,,,,,,,,,,,,,,,,,,,,,,,,,,,,,,,,,,,,,,,,,,,,,,,,,,,,,,,,,,,,,,,,,,,,1,0.8555171000007249,522.5004976999999,None,ScrollDown,정답입니다,522.5004976999999,None,522.5004976999999,None,522.5004976999999,None,522.5004976999999,None,523.2248569000003,None,523.2248569000003,523.7317860000003,,,,,,,,,,,,,,,,209,2022-05-04_15h12.35.086,FishGame,2022.1.1,60.09604549988996,
,22,나를 데려가줘,6,Green,B,0,0,ScrollDown,ScrollUp,Green.png,4,NonTarget,NonTarget,0,0,0,0,,,,,,,,,,,,,,,,,,,,,,,,,0,21,21,21,,,,,,,,,,,,,,,,,,,,,,,,,,,,,,,,,,,,,,,,,,,,,,,,,,,,,,,,,,,,,,,,,,,,,,,,,2,0.8343827000007877,524.3866165999998,None,ScrollUp,오답입니다,524.3866165999998,None,524.3866165999998,None,524.3866165999998,None,524.3866165999998,None,525.0883721,None,525.0883721,525.5978082000001,,,,,,,,,,,,,,,,209,2022-05-04_15h12.35.086,FishGame,2022.1.1,60.09604549988996,
,23,넌 무정해,5,Orange,A,2.5,2.2,ScrollDown,ScrollUp,Orange.png,4,Negative,Incongruent,0,0,0,0,,,,,,,,,,,,,,,,,,,,,,,,,0,22,22,22,,,,,,,,,,,,,,,,,,,,,,,,,,,,,,,,,,,,,,,,,,,,,,,,,,,,,,,,,,,,,,,,,,,,,,,,,1,0.9326826000005894,526.2738577,None,ScrollDown,정답입니다,526.2738577,None,526.2738577,None,526.2738577,None,526.2738577,None,527.0543901000001,None,527.0543901000001,527.5638493999995,,,,,,,,,,,,,,,,209,2022-05-04_15h12.35.086,FishGame,2022.1.1,60.09604549988996,
,24,넌 긍정적이야,1,Green,B,6.041666666666667,6.066666666666666,ScrollUp,ScrollDown,Green.png,4,Positive,Incongruent,0,0,0,0,,,,,,,,,,,,,,,,,,,,,,,,,0,23,23,23,,,,,,,,,,,,,,,,,,,,,,,,,,,,,,,,,,,,,,,,,,,,,,,,,,,,,,,,,,,,,,,,,,,,,,,,,2,0.8369670000001861,528.2214875,None,ScrollUp,정답입니다,528.2214875,None,528.2214875,None,528.2214875,None,528.2214875,None,528.9206757000002,None,528.9206757000002,529.4295548,,,,,,,,,,,,,,,,209,2022-05-04_15h12.35.086,FishGame,2022.1.1,60.09604549988996,
,25,나를 보내줘,6,Orange,A,0,0,ScrollUp,ScrollDown,Orange.png,4,NonTarget,NonTarget,0,0,0,0,,,,,,,,,,,,,,,,,,,,,,,,,0,24,24,24,,,,,,,,,,,,,,,,,,,,,,,,,,,,,,,,,,,,,,,,,,,,,,,,,,,,,,,,,,,,,,,,,,,,,,,,,2,0.9772757999999158,530.0808544000001,None,ScrollUp,정답입니다,530.0808544000001,None,530.0808544000001,None,530.0808544000001,None,530.0808544000001,None,530.9313523999999,None,530.9313523999999,531.4449684000001,,,,,,,,,,,,,,,,209,2022-05-04_15h12.35.086,FishGame,2022.1.1,60.09604549988996,
,26,넌 시기심이 많아,5,Green,B,2.458333333333333,2.233333333333333,ScrollUp,ScrollDown,Green.png,4,Negative,Congruent,0,0,0,0,,,,,,,,,,,,,,,,,,,,,,,,,0,25,25,25,,,,,,,,,,,,,,,,,,,,,,,,,,,,,,,,,,,,,,,,,,,,,,,,,,,,,,,,,,,,,,,,,,,,,,,,,1,0.9887613000000783,532.1006969999999,None,ScrollDown,오답입니다,532.1006969999999,None,532.1006969999999,None,532.1006969999999,None,532.1006969999999,None,532.9569836999999,None,532.9569836999999,533.4608498999996,,,,,,,,,,,,,,,,209,2022-05-04_15h12.35.086,FishGame,2022.1.1,60.09604549988996,
,27,넌 탁월해,2,Orange,A,5.708333333333334,4.5,ScrollDown,ScrollUp,Orange.png,4,Positive,Congruent,0,0,0,0,,,,,,,,,,,,,,,,,,,,,,,,,0,26,26,26,,,,,,,,,,,,,,,,,,,,,,,,,,,,,,,,,,,,,,,,,,,,,,,,,,,,,,,,,,,,,,,,,,,,,,,,,1,1.2149137999995219,534.1255792000002,None,ScrollDown,정답입니다,534.1255792000002,None,534.1255792000002,None,534.1255792000002,None,534.1255792000002,None,535.2018646999995,None,535.2018646999995,535.7098962,,,,,,,,,,,,,,,,209,2022-05-04_15h12.35.086,FishGame,2022.1.1,60.09604549988996,
,28,나를 데려가줘,6,Green,B,0,0,ScrollDown,ScrollUp,Green.png,4,NonTarget,NonTarget,0,0,0,0,,,,,,,,,,,,,,,,,,,,,,,,,0,27,27,27,,,,,,,,,,,,,,,,,,,,,,,,,,,,,,,,,,,,,,,,,,,,,,,,,,,,,,,,,,,,,,,,,,,,,,,,,1,1.035344000000805,536.3570852000003,None,ScrollDown,정답입니다,536.3570852000003,None,536.3570852000003,None,536.3570852000003,None,536.3570852000003,None,537.2653153000001,None,537.2653153000001,537.7756674000002,,,,,,,,,,,,,,,,209,2022-05-04_15h12.35.086,FishGame,2022.1.1,60.09604549988996,
,29,넌 조용해,3,Green,B,4.333333333333333,4.166666666666667,ScrollUp,ScrollDown,Green.png,4,Neutral,Neutral,0,0,0,0,,,,,,,,,,,,,,,,,,,,,,,,,0,28,28,28,,,,,,,,,,,,,,,,,,,,,,,,,,,,,,,,,,,,,,,,,,,,,,,,,,,,,,,,,,,,,,,,,,,,,,,,,2,1.1704261000004408,538.4287475000001,None,ScrollUp,정답입니다,538.4287475000001,None,538.4287475000001,None,538.4287475000001,None,538.4287475000001,None,539.4667122999999,None,539.4667122999999,539.9747572999995,,,,,,,,,,,,,,,,209,2022-05-04_15h12.35.086,FishGame,2022.1.1,60.09604549988996,
,30,넌 다정해,1,Orange,A,5.833333333333334,5.7,ScrollDown,ScrollUp,Orange.png,4,Positive,Congruent,0,0,0,0,,,,,,,,,,,,,,,,,,,,,,,,,0,29,29,29,,,,,,,,,,,,,,,,,,,,,,,,,,,,,,,,,,,,,,,,,,,,,,,,,,,,,,,,,,,,,,,,,,,,,,,,,1.0972222338120143,0.7821664000002784,540.6290802000003,None,ScrollDown,정답입니다,540.6290802000003,None,540.6290802000003,None,540.6290802000003,None,540.6290802000003,None,541.2814397000002,None,541.2814397000002,541.7905325000002,,,,,,,,,,,,,,,,209,2022-05-04_15h12.35.086,FishGame,2022.1.1,60.09604549988996,
,31,넌 능력있어,2,Green,B,6.166666666666666,4.6,ScrollUp,ScrollDown,Green.png,4,Positive,Incongruent,0,0,0,0,,,,,,,,,,,,,,,,,,,,,,,,,0,30,30,30,,,,,,,,,,,,,,,,,,,,,,,,,,,,,,,,,,,,,,,,,,,,,,,,,,,,,,,,,,,,,,,,,,,,,,,,,1.9969135920206706,0.8868643999994674,542.4419961000003,None,ScrollUp,정답입니다,542.4419961000003,None,542.4419961000003,None,542.4419961000003,None,542.4419961000003,None,543.2048193,None,543.2048193,543.7067710000001,,,,,,,,,,,,,,,,209,2022-05-04_15h12.35.086,FishGame,2022.1.1,60.09604549988996,
,32,넌 불쾌해,5,Orange,A,2.125,1.933333333333333,ScrollDown,ScrollUp,Orange.png,4,Negative,Incongruent,0,0,0,0,,,,,,,,,,,,,,,,,,,,,,,,,0,31,31,31,,,,,,,,,,,,,,,,,,,,,,,,,,,,,,,,,,,,,,,,,,,,,,,,,,,,,,,,,,,,,,,,,,,,,,,,,1,0.9331200999995417,544.3645208999997,None,ScrollDown,정답입니다,544.3645208999997,None,544.3645208999997,None,544.3645208999997,None,544.3645208999997,None,545.1606430000002,None,545.1606430000002,545.6719772999995,,,,,,,,,,,,,,,,209,2022-05-04_15h12.35.086,FishGame,2022.1.1,60.09604549988996,
,33,나를 데려가줘,6,Green,B,0,0,ScrollDown,ScrollUp,Green.png,4,NonTarget,NonTarget,0,0,0,0,,,,,,,,,,,,,,,,,,,,,,,,,0,32,32,32,,,,,,,,,,,,,,,,,,,,,,,,,,,,,,,,,,,,,,,,,,,,,,,,,,,,,,,,,,,,,,,,,,,,,,,,,1,1.042587600000843,546.3168575999998,None,ScrollDown,정답입니다,546.3168575999998,None,546.3168575999998,None,546.3168575999998,None,546.3168575999998,None,547.2380174999998,None,547.2380174999998,547.7377237000001,,,,,,,,,,,,,,,,209,2022-05-04_15h12.35.086,FishGame,2022.1.1,60.09604549988996,
,34,넌 유순해,3,Orange,A,4.458333333333333,5,ScrollDown,ScrollUp,Orange.png,4,Neutral,Neutral,0,0,0,0,,,,,,,,,,,,,,,,,,,,,,,,,0,33,33,33,,,,,,,,,,,,,,,,,,,,,,,,,,,,,,,,,,,,,,,,,,,,,,,,,,,,,,,,,,,,,,,,,,,,,,,,,1,1.043074400000478,548.3943865000001,None,ScrollDown,정답입니다,548.3943865000001,None,548.3943865000001,None,548.3943865000001,None,548.3943865000001,None,549.3034221999997,None,549.3034221999997,549.8035306000002,,,,,,,,,,,,,,,,209,2022-05-04_15h12.35.086,FishGame,2022.1.1,60.09604549988996,
,35,넌 근심스러워,4,Green,B,2.708333333333333,3.133333333333333,ScrollUp,ScrollDown,Green.png,4,Negative,Congruent,0,0,0,0,,,,,,,,,,,,,,,,,,,,,,,,,0,34,34,34,,,,,,,,,,,,,,,,,,,,,,,,,,,,,,,,,,,,,,,,,,,,,,,,,,,,,,,,,,,,,,,,,,,,,,,,,2,0.9047492999998212,550.4621950999999,None,ScrollUp,정답입니다,550.4621950999999,None,550.4621950999999,None,550.4621950999999,None,550.4621950999999,None,551.2362563999995,None,551.2362563999995,551.7363868000002,,,,,,,,,,,,,,,,209,2022-05-04_15h12.35.086,FishGame,2022.1.1,60.09604549988996,
,36,넌 세련되었어,2,Orange,A,5.5,4.6,ScrollDown,ScrollUp,Orange.png,4,Positive,Congruent,0,0,0,0,,,,,,,,,,,,,,,,,,,,,,,,,0,35,35,35,,,,,,,,,,,,,,,,,,,,,,,,,,,,,,,,,,,,,,,,,,,,,,,,,,,,,,,,,,,,,,,,,,,,,,,,,1,0.9004886000002443,552.4040179000003,None,ScrollDown,정답입니다,552.4040179000003,None,552.4040179000003,None,552.4040179000003,None,552.4040179000003,None,553.1577897999996,None,553.1577897999996,553.6681142999996,,,,,,,,,,,,,,,,209,2022-05-04_15h12.35.086,FishGame,2022.1.1,60.09604549988996,
,37,나를 보내줘,6,Orange,A,0,0,ScrollUp,ScrollDown,Orange.png,4,NonTarget,NonTarget,0,0,0,0,,,,,,,,,,,,,,,,,,,,,,,,,0,36,36,36,,,,,,,,,,,,,,,,,,,,,,,,,,,,,,,,,,,,,,,,,,,,,,,,,,,,,,,,,,,,,,,,,,,,,,,,,2,1.046426199999587,554.3339995999995,None,ScrollUp,정답입니다,554.3339995999995,None,554.3339995999995,None,554.3339995999995,None,554.3339995999995,None,555.2450321999995,None,555.2450321999995,555.7511543999999,,,,,,,,,,,,,,,,209,2022-05-04_15h12.35.086,FishGame,2022.1.1,60.09604549988996,
,38,넌 확고해,3,Green,B,4.708333333333334,4.566666666666666,ScrollUp,ScrollDown,Green.png,4,Neutral,Neutral,0,0,0,0,,,,,,,,,,,,,,,,,,,,,,,,,0,37,37,37,,,,,,,,,,,,,,,,,,,,,,,,,,,,,,,,,,,,,,,,,,,,,,,,,,,,,,,,,,,,,,,,,,,,,,,,,2,3.193283099999462,556.4036267000001,None,ScrollUp,정답입니다,556.4036267000001,None,556.4036267000001,None,556.4036267000001,None,556.4036267000001,None,559.4657581000001,None,559.4657581000001,559.9652917000003,,,,,,,,,,,,,,,,209,2022-05-04_15h12.35.086,FishGame,2022.1.1,60.09604549988996,
,39,넌 이해심이 많아,1,Green,B,6.041666666666668,5.533333333333333,ScrollUp,ScrollDown,Green.png,4,Positive,Incongruent,0,0,0,0,,,,,,,,,,,,,,,,,,,,,,,,,0,38,38,38,,,,,,,,,,,,,,,,,,,,,,,,,,,,,,,,,,,,,,,,,,,,,,,,,,,,,,,,,,,,,,,,,,,,,,,,,2,0.9039918000007674,560.6165493999997,None,ScrollUp,정답입니다,560.6165493999997,None,560.6165493999997,None,560.6165493999997,None,560.6165493999997,None,561.3966780000001,None,561.3966780000001,561.8978946999996,,,,,,,,,,,,,,,,209,2022-05-04_15h12.35.086,FishGame,2022.1.1,60.09604549988996,
,40,나를 보내줘,6,Orange,A,0,0,ScrollUp,ScrollDown,Orange.png,4,NonTarget,NonTarget,0,0,0,0,,,,,,,,,,,,,,,,,,,,,,,,,0,39,39,39,,,,,,,,,,,,,,,,,,,,,,,,,,,,,,,,,,,,,,,,,,,,,,,,,,,,,,,,,,,,,,,,,,,,,,,,,2,1.4553377000002001,562.5553233,None,ScrollUp,정답입니다,562.5553233,None,562.5553233,None,562.5553233,None,562.5553233,None,563.8805560000001,None,563.8805560000001,564.3804514000003,,,,,,,,,,,,,,,,209,2022-05-04_15h12.35.086,FishGame,2022.1.1,60.09604549988996,
,41,넌 거칠어,4,Orange,A,2.625,3.033333333333333,ScrollDown,ScrollUp,Orange.png,4,Negative,Incongruent,0,0,0,0,,,,,,,,,,,,,,,,,,,,,,,,,0,40,40,40,,,,,,,,,,,,,,,,,,,,,,,,,,,,,,,,,,,,,,,,,,,,,,,,,,,,,,,,,,,,,,,,,,,,,,,,,1.1111111094554265,0.8987422999998671,565.0380785999996,None,ScrollDown,정답입니다,565.0380785999996,None,565.0380785999996,None,565.0380785999996,None,565.0380785999996,None,565.8022791000003,None,565.8022791000003,566.3126402999997,,,,,,,,,,,,,,,,209,2022-05-04_15h12.35.086,FishGame,2022.1.1,60.09604549988996,
,42,넌 변덕맞아,5,Green,B,2.75,2.166666666666667,ScrollUp,ScrollDown,Green.png,4,Negative,Congruent,0,0,0,0,,,,,,,,,,,,,,,,,,,,,,,,,0,41,41,41,,,,,,,,,,,,,,,,,,,,,,,,,,,,,,,,,,,,,,,,,,,,,,,,,,,,,,,,,,,,,,,,,,,,,,,,,2,1.197299600000406,567.0220153,None,ScrollUp,정답입니다,567.0220153,None,567.0220153,None,567.0220153,None,567.0220153,None,568.0490719,None,568.0490719,568.5619964999996,,,,,,,,,,,,,,,,209,2022-05-04_15h12.35.086,FishGame,2022.1.1,60.09604549988996,
,43,나를 데려가줘,6,Green,B,0,0,ScrollDown,ScrollUp,Green.png,4,NonTarget,NonTarget,0,0,0,0,,,,,,,,,,,,,,,,,,,,,,,,,0,42,42,42,,,,,,,,,,,,,,,,,,,,,,,,,,,,,,,,,,,,,,,,,,,,,,,,,,,,,,,,,,,,,,,,,,,,,,,,,1,0.8809646999998222,569.2361545000003,None,ScrollDown,정답입니다,569.2361545000003,None,569.2361545000003,None,569.2361545000003,None,569.2361545000003,None,569.9662900000003,None,569.9662900000003,570.4776495999995,,,,,,,,,,,,,,,,209,2022-05-04_15h12.35.086,FishGame,2022.1.1,60.09604549988996,
,44,넌 외로워,4,Green,B,2.833333333333333,3.3,ScrollUp,ScrollDown,Green.png,4,Negative,Congruent,0,0,0,0,,,,,,,,,,,,,,,,,,,,,,,,,0,43,43,43,,,,,,,,,,,,,,,,,,,,,,,,,,,,,,,,,,,,,,,,,,,,,,,,,,,,,,,,,,,,,,,,,,,,,,,,,2,1.0252565000000686,571.1449197000002,None,ScrollUp,정답입니다,571.1449197000002,None,571.1449197000002,None,571.1449197000002,None,571.1449197000002,None,572.0419531999996,None,572.0419531999996,572.5435555000004,,,,,,,,,,,,,,,,209,2022-05-04_15h12.35.086,FishGame,2022.1.1,60.09604549988996,
,1,넌 불평스러워,5,Orange,A,2.25,2.066666666666667,ScrollDown,ScrollUp,Orange.png,5,Negative,Incongruent,0,0,0,0,,,,,,,,,,,,,,,,,,,,,,,,,,,,,0,0,0,0,,,,,,,,,,,,,,,,,,,,,,,,,,,,605.7283046000002,607.2280350999999,607.2619072999996,608.2269047999998,608.2607285000004,609.2104260999995,609.2104260999995,None,,,,,,,,,,,,,,,,,,,,,,,,,,,,,,,,,,1.0077160497506459,1.1652328000000125,610.4058477999997,None,ScrollDown,정답입니다,610.4058477999997,None,610.4058477999997,None,610.4058477999997,None,610.4058477999997,None,611.3951932999998,None,611.3951932999998,611.9088291999997,573.0428959999999,None,573.0428959999999,None,0.17870371,-0.072222225,1,0,0,0.01615451999987272,None,603.0460335999996,None,,,209,2022-05-04_15h12.35.086,FishGame,2022.1.1,60.09604549988996,
,2,나를 보내줘,6,Orange,A,0,0,ScrollUp,ScrollDown,Orange.png,5,NonTarget,NonTarget,0,0,0,0,,,,,,,,,,,,,,,,,,,,,,,,,,,,,0,1,1,1,,,,,,,,,,,,,,,,,,,,,,,,,,,,,,,,,,,,,,,,,,,,,,,,,,,,,,,,,,,,,,,,,,,,,1.9614197711149852,0.9813270000004195,612.5616227999999,None,ScrollUp,정답입니다,612.5616227999999,None,612.5616227999999,None,612.5616227999999,None,612.5616227999999,None,613.4134678,None,613.4134678,613.9244208999999,,,,,,,,,,,,,,,,209,2022-05-04_15h12.35.086,FishGame,2022.1.1,60.09604549988996,
,3,넌 다재다능해,2,Green,B,6.208333333333333,4.5,ScrollUp,ScrollDown,Green.png,5,Positive,Incongruent,0,0,0,0,,,,,,,,,,,,,,,,,,,,,,,,,,,,,0,2,2,2,,,,,,,,,,,,,,,,,,,,,,,,,,,,,,,,,,,,,,,,,,,,,,,,,,,,,,,,,,,,,,,,,,,,,2,0.8308826000002227,614.5706227000001,None,ScrollUp,정답입니다,614.5706227000001,None,614.5706227000001,None,614.5706227000001,None,614.5706227000001,None,615.2779516999999,None,615.2779516999999,615.7900329000004,,,,,,,,,,,,,,,,209,2022-05-04_15h12.35.086,FishGame,2022.1.1,60.09604549988996,
,4,넌 과감해,3,Orange,A,4.833333333333334,4.6,ScrollDown,ScrollUp,Orange.png,5,Neutral,Neutral,0,0,0,0,,,,,,,,,,,,,,,,,,,,,,,,,,,,,0,3,3,3,,,,,,,,,,,,,,,,,,,,,,,,,,,,,,,,,,,,,,,,,,,,,,,,,,,,,,,,,,,,,,,,,,,,,1,0.790055399999801,616.4416706000002,None,ScrollDown,정답입니다,616.4416706000002,None,616.4416706000002,None,616.4416706000002,None,616.4416706000002,None,617.1068238999997,None,617.1068238999997,617.6063594999996,,,,,,,,,,,,,,,,209,2022-05-04_15h12.35.086,FishGame,2022.1.1,60.09604549988996,
,5,넌 고분고분해,3,Green,B,3.75,4.033333333333333,ScrollUp,ScrollDown,Green.png,5,Neutral,Neutral,0,0,0,0,,,,,,,,,,,,,,,,,,,,,,,,,,,,,0,4,4,4,,,,,,,,,,,,,,,,,,,,,,,,,,,,,,,,,,,,,,,,,,,,,,,,,,,,,,,,,,,,,,,,,,,,,2,0.8646978999995554,618.2652946999997,None,ScrollUp,정답입니다,618.2652946999997,None,618.2652946999997,None,618.2652946999997,None,618.2652946999997,None,618.9942422000004,None,618.9942422000004,619.5055954999998,,,,,,,,,,,,,,,,209,2022-05-04_15h12.35.086,FishGame,2022.1.1,60.09604549988996,
,6,나를 보내줘,6,Orange,A,0,0,ScrollUp,ScrollDown,Orange.png,5,NonTarget,NonTarget,0,0,0,0,,,,,,,,,,,,,,,,,,,,,,,,,,,,,0,5,5,5,,,,,,,,,,,,,,,,,,,,,,,,,,,,,,,,,,,,,,,,,,,,,,,,,,,,,,,,,,,,,,,,,,,,,1.9351851840813954,0.892511299999569,620.1577346000004,None,ScrollUp,정답입니다,620.1577346000004,None,620.1577346000004,None,620.1577346000004,None,620.1577346000004,None,620.9217073999998,None,620.9217073999998,621.4212625999999,,,,,,,,,,,,,,,,209,2022-05-04_15h12.35.086,FishGame,2022.1.1,60.09604549988996,
,7,넌 잘 잊어,4,Orange,A,3,3.7,ScrollDown,ScrollUp,Orange.png,5,Negative,Incongruent,0,0,0,0,,,,,,,,,,,,,,,,,,,,,,,,,,,,,0,6,6,6,,,,,,,,,,,,,,,,,,,,,,,,,,,,,,,,,,,,,,,,,,,,,,,,,,,,,,,,,,,,,,,,,,,,,1,1.001182300000437,622.0867660000004,None,ScrollDown,정답입니다,622.0867660000004,None,622.0867660000004,None,622.0867660000004,None,622.0867660000004,None,622.9435347999997,None,622.9435347999997,623.4532663999998,,,,,,,,,,,,,,,,209,2022-05-04_15h12.35.086,FishGame,2022.1.1,60.09604549988996,
,8,넌 탐구심이없어,4,Green,B,2.833333333333333,3.066666666666667,ScrollUp,ScrollDown,Green.png,5,Negative,Congruent,0,0,0,0,,,,,,,,,,,,,,,,,,,,,,,,,,,,,0,7,7,7,,,,,,,,,,,,,,,,,,,,,,,,,,,,,,,,,,,,,,,,,,,,,,,,,,,,,,,,,,,,,,,,,,,,,1.9891975224018097,0.8743504000003668,624.1128374999998,None,ScrollUp,정답입니다,624.1128374999998,None,624.1128374999998,None,624.1128374999998,None,624.1128374999998,None,624.8526468999999,None,624.8526468999999,625.3529132000003,,,,,,,,,,,,,,,,209,2022-05-04_15h12.35.086,FishGame,2022.1.1,60.09604549988996,
,9,나를 데려가줘,6,Green,B,0,0,ScrollDown,ScrollUp,Green.png,5,NonTarget,NonTarget,0,0,0,0,,,,,,,,,,,,,,,,,,,,,,,,,,,,,0,8,8,8,,,,,,,,,,,,,,,,,,,,,,,,,,,,,,,,,,,,,,,,,,,,,,,,,,,,,,,,,,,,,,,,,,,,,1,1.0708354999997027,625.9991205999995,None,ScrollDown,정답입니다,625.9991205999995,None,625.9991205999995,None,625.9991205999995,None,625.9991205999995,None,626.9514744999997,None,626.9514744999997,627.4515676999999,,,,,,,,,,,,,,,,209,2022-05-04_15h12.35.086,FishGame,2022.1.1,60.09604549988996,
,10,넌 참되어,2,Orange,A,6.041666666666664,4.733333333333333,ScrollDown,ScrollUp,Orange.png,5,Positive,Congruent,0,0,0,0,,,,,,,,,,,,,,,,,,,,,,,,,,,,,0,9,9,9,,,,,,,,,,,,,,,,,,,,,,,,,,,,,,,,,,,,,,,,,,,,,,,,,,,,,,,,,,,,,,,,,,,,,1,0.8953553000001193,628.1098274999995,None,ScrollDown,정답입니다,628.1098274999995,None,628.1098274999995,None,628.1098274999995,None,628.1098274999995,None,628.8700441000001,None,628.8700441000001,629.3837320000002,,,,,,,,,,,,,,,,209,2022-05-04_15h12.35.086,FishGame,2022.1.1,60.09604549988996,
,11,넌 생기있어,1,Green,B,5.875,5.633333333333334,ScrollUp,ScrollDown,Green.png,5,Positive,Incongruent,0,0,0,0,,,,,,,,,,,,,,,,,,,,,,,,,,,,,0,10,10,10,,,,,,,,,,,,,,,,,,,,,,,,,,,,,,,,,,,,,,,,,,,,,,,,,,,,,,,,,,,,,,,,,,,,,2,0.9325705000001108,630.0393173000002,None,ScrollUp,정답입니다,630.0393173000002,None,630.0393173000002,None,630.0393173000002,None,630.0393173000002,None,630.8377253999997,None,630.8377253999997,631.3499682000001,,,,,,,,,,,,,,,,209,2022-05-04_15h12.35.086,FishGame,2022.1.1,60.09604549988996,
,12,넌 비사교적이야,4,Green,B,2.875,2.9,ScrollUp,ScrollDown,Green.png,5,Negative,Congruent,0,0,0,0,,,,,,,,,,,,,,,,,,,,,,,,,,,,,0,11,11,11,,,,,,,,,,,,,,,,,,,,,,,,,,,,,,,,,,,,,,,,,,,,,,,,,,,,,,,,,,,,,,,,,,,,,2,0.9447523999997429,632.0118904999999,None,ScrollUp,정답입니다,632.0118904999999,None,632.0118904999999,None,632.0118904999999,None,632.0118904999999,None,632.8181943,None,632.8181943,633.3321563,,,,,,,,,,,,,,,,209,2022-05-04_15h12.35.086,FishGame,2022.1.1,60.09604549988996,
,13,나를 데려가줘,6,Green,B,0,0,ScrollDown,ScrollUp,Green.png,5,NonTarget,NonTarget,0,0,0,0,,,,,,,,,,,,,,,,,,,,,,,,,,,,,0,12,12,12,,,,,,,,,,,,,,,,,,,,,,,,,,,,,,,,,,,,,,,,,,,,,,,,,,,,,,,,,,,,,,,,,,,,,1.080246905485789,1.0332048000000214,633.9886805999995,None,ScrollDown,정답입니다,633.9886805999995,None,633.9886805999995,None,633.9886805999995,None,633.9886805999995,None,634.8925945999999,None,634.8925945999999,635.3983188000002,,,,,,,,,,,,,,,,209,2022-05-04_15h12.35.086,FishGame,2022.1.1,60.09604549988996,
,14,넌 고독해,4,Orange,A,2.916666666666667,3.233333333333333,ScrollDown,ScrollUp,Orange.png,5,Negative,Incongruent,0,0,0,0,,,,,,,,,,,,,,,,,,,,,,,,,,,,,0,13,13,13,,,,,,,,,,,,,,,,,,,,,,,,,,,,,,,,,,,,,,,,,,,,,,,,,,,,,,,,,,,,,,,,,,,,,1,0.9641224999995757,636.0678333999995,None,ScrollDown,정답입니다,636.0678333999995,None,636.0678333999995,None,636.0678333999995,None,636.0678333999995,None,636.8857301999997,None,636.8857301999997,637.3968968999998,,,,,,,,,,,,,,,,209,2022-05-04_15h12.35.086,FishGame,2022.1.1,60.09604549988996,
,15,넌 신경질적이야,5,Green,B,2.375,2.233333333333333,ScrollUp,ScrollDown,Green.png,5,Negative,Congruent,0,0,0,0,,,,,,,,,,,,,,,,,,,,,,,,,,,,,0,14,14,14,,,,,,,,,,,,,,,,,,,,,,,,,,,,,,,,,,,,,,,,,,,,,,,,,,,,,,,,,,,,,,,,,,,,,2,0.982790500000192,638.0673982999997,None,ScrollUp,정답입니다,638.0673982999997,None,638.0673982999997,None,638.0673982999997,None,638.0673982999997,None,638.9019299000001,None,638.9019299000001,639.4125690999999,,,,,,,,,,,,,,,,209,2022-05-04_15h12.35.086,FishGame,2022.1.1,60.09604549988996,
,16,넌 똑똑해,2,Green,B,5.666666666666667,3.966666666666667,ScrollUp,ScrollDown,Green.png,5,Positive,Incongruent,0,0,0,0,,,,,,,,,,,,,,,,,,,,,,,,,,,,,0,15,15,15,,,,,,,,,,,,,,,,,,,,,,,,,,,,,,,,,,,,,,,,,,,,,,,,,,,,,,,,,,,,,,,,,,,,,2,1.0267358999999487,640.0718679000001,None,ScrollUp,정답입니다,640.0718679000001,None,640.0718679000001,None,640.0718679000001,None,640.0718679000001,None,640.9621638999997,None,640.9621638999997,641.4617491999998,,,,,,,,,,,,,,,,209,2022-05-04_15h12.35.086,FishGame,2022.1.1,60.09604549988996,
,17,나를 보내줘,6,Orange,A,0,0,ScrollUp,ScrollDown,Orange.png,5,NonTarget,NonTarget,0,0,0,0,,,,,,,,,,,,,,,,,,,,,,,,,,,,,0,16,16,16,,,,,,,,,,,,,,,,,,,,,,,,,,,,,,,,,,,,,,,,,,,,,,,,,,,,,,,,,,,,,,,,,,,,,2,1.493915900000502,642.1309800999998,None,ScrollUp,정답입니다,642.1309800999998,None,642.1309800999998,None,642.1309800999998,None,642.1309800999998,None,643.4775460999999,None,643.4775460999999,643.9772260999998,,,,,,,,,,,,,,,,209,2022-05-04_15h12.35.086,FishGame,2022.1.1,60.09604549988996,
,18,넌 협조적이야,1,Orange,A,5.625,5.666666666666667,ScrollDown,ScrollUp,Orange.png,5,Positive,Congruent,0,0,0,0,,,,,,,,,,,,,,,,,,,,,,,,,,,,,0,17,17,17,,,,,,,,,,,,,,,,,,,,,,,,,,,,,,,,,,,,,,,,,,,,,,,,,,,,,,,,,,,,,,,,,,,,,1.160493830839793,0.8238831999997274,644.6546661000002,None,ScrollDown,정답입니다,644.6546661000002,None,644.6546661000002,None,644.6546661000002,None,644.6546661000002,None,645.3273313999998,None,645.3273313999998,645.8264032999996,,,,,,,,,,,,,,,,209,2022-05-04_15h12.35.086,FishGame,2022.1.1,60.09604549988996,
,19,나를 데려가줘,6,Green,B,0,0,ScrollDown,ScrollUp,Green.png,5,NonTarget,NonTarget,0,0,0,0,,,,,,,,,,,,,,,,,,,,,,,,,,,,,0,18,18,18,,,,,,,,,,,,,,,,,,,,,,,,,,,,,,,,,,,,,,,,,,,,,,,,,,,,,,,,,,,,,,,,,,,,,1.0740740497907002,1.793264499999168,646.5117039999996,None,ScrollDown,정답입니다,646.5117039999996,None,646.5117039999996,None,646.5117039999996,None,646.5117039999996,None,648.1605134000001,None,648.1605134000001,648.6754036000002,,,,,,,,,,,,,,,,209,2022-05-04_15h12.35.086,FishGame,2022.1.1,60.09604549988996,
,20,넌 몰인정해,5,Green,B,2.541666666666667,2.066666666666667,ScrollUp,ScrollDown,Green.png,5,Negative,Congruent,0,0,0,0,,,,,,,,,,,,,,,,,,,,,,,,,,,,,0,19,19,19,,,,,,,,,,,,,,,,,,,,,,,,,,,,,,,,,,,,,,,,,,,,,,,,,,,,,,,,,,,,,,,,,,,,,2,1.154492499999833,649.3412698000002,None,ScrollUp,정답입니다,649.3412698000002,None,649.3412698000002,None,649.3412698000002,None,649.3412698000002,None,650.3577832000001,None,650.3577832000001,650.8579195000002,,,,,,,,,,,,,,,,209,2022-05-04_15h12.35.086,FishGame,2022.1.1,60.09604549988996,
,21,나를 데려가줘,6,Green,B,0,0,ScrollDown,ScrollUp,Green.png,5,NonTarget,NonTarget,0,0,0,0,,,,,,,,,,,,,,,,,,,,,,,,,,,,,0,20,20,20,,,,,,,,,,,,,,,,,,,,,,,,,,,,,,,,,,,,,,,,,,,,,,,,,,,,,,,,,,,,,,,,,,,,,1.0246913532416027,0.9861059000004389,651.5089339999995,None,ScrollDown,정답입니다,651.5089339999995,None,651.5089339999995,None,651.5089339999995,None,651.5089339999995,None,652.3654522999996,None,652.3654522999996,652.8736435000001,,,,,,,,,,,,,,,,209,2022-05-04_15h12.35.086,FishGame,2022.1.1,60.09604549988996,
,22,넌 순진해,3,Green,B,4.125,4.166666666666667,ScrollUp,ScrollDown,Green.png,5,Neutral,Neutral,0,0,0,0,,,,,,,,,,,,,,,,,,,,,,,,,,,,,0,21,21,21,,,,,,,,,,,,,,,,,,,,,,,,,,,,,,,,,,,,,,,,,,,,,,,,,,,,,,,,,,,,,,,,,,,,,2,1.3123034000000189,653.5272685,None,ScrollUp,정답입니다,653.5272685,None,653.5272685,None,653.5272685,None,653.5272685,None,654.708087,None,654.708087,655.2227094999998,,,,,,,,,,,,,,,,209,2022-05-04_15h12.35.086,FishGame,2022.1.1,60.09604549988996,
,23,넌 신뢰할만해,1,Orange,A,6.625,5.533333333333333,ScrollDown,ScrollUp,Orange.png,5,Positive,Congruent,0,0,0,0,,,,,,,,,,,,,,,,,,,,,,,,,,,,,0,22,22,22,,,,,,,,,,,,,,,,,,,,,,,,,,,,,,,,,,,,,,,,,,,,,,,,,,,,,,,,,,,,,,,,,,,,,1,0.9784511999996539,655.9301790999998,None,ScrollDown,정답입니다,655.9301790999998,None,655.9301790999998,None,655.9301790999998,None,655.9301790999998,None,656.7436998000003,None,656.7436998000003,657.2555446999995,,,,,,,,,,,,,,,,209,2022-05-04_15h12.35.086,FishGame,2022.1.1,60.09604549988996,
,24,나를 보내줘,6,Orange,A,0,0,ScrollUp,ScrollDown,Orange.png,5,NonTarget,NonTarget,0,0,0,0,,,,,,,,,,,,,,,,,,,,,,,,,,,,,0,23,23,23,,,,,,,,,,,,,,,,,,,,,,,,,,,,,,,,,,,,,,,,,,,,,,,,,,,,,,,,,,,,,,,,,,,,,2,1.1126298999997744,657.9401712999997,None,ScrollUp,정답입니다,657.9401712999997,None,657.9401712999997,None,657.9401712999997,None,657.9401712999997,None,658.9043963000004,None,658.9043963000004,659.4036765000001,,,,,,,,,,,,,,,,209,2022-05-04_15h12.35.086,FishGame,2022.1.1,60.09604549988996,
,25,넌 인색해,5,Orange,A,2.625,2.233333333333333,ScrollDown,ScrollUp,Orange.png,5,Negative,Incongruent,0,0,0,0,,,,,,,,,,,,,,,,,,,,,,,,,,,,,0,24,24,24,,,,,,,,,,,,,,,,,,,,,,,,,,,,,,,,,,,,,,,,,,,,,,,,,,,,,,,,,,,,,,,,,,,,,1,1.274068200000329,660.0702990999998,None,ScrollDown,정답입니다,660.0702990999998,None,660.0702990999998,None,660.0702990999998,None,660.0702990999998,None,661.1999342999998,None,661.1999342999998,661.7028121000003,,,,,,,,,,,,,,,,209,2022-05-04_15h12.35.086,FishGame,2022.1.1,60.09604549988996,
,26,넌 유쾌해,1,Green,B,5.833333333333333,5.766666666666667,ScrollUp,ScrollDown,Green.png,5,Positive,Incongruent,0,0,0,0,,,,,,,,,,,,,,,,,,,,,,,,,,,,,0,25,25,25,,,,,,,,,,,,,,,,,,,,,,,,,,,,,,,,,,,,,,,,,,,,,,,,,,,,,,,,,,,,,,,,,,,,,1.9567901293436687,0.8815650999995341,662.3605822,None,ScrollUp,정답입니다,662.3605822,None,662.3605822,None,662.3605822,None,662.3605822,None,663.107121,None,663.107121,663.6190022999999,,,,,,,,,,,,,,,,209,2022-05-04_15h12.35.086,FishGame,2022.1.1,60.09604549988996,
