name,TrialNum,Word,WordCategory,FishType,WordList,WordValence,WordReputation,CorrectResp,IncorrectResp,FishTypeFile,Round,WordType,Condition,LoopforOrange.thisRepN,LoopforOrange.thisTrialN,LoopforOrange.thisN,LoopforOrange.thisIndex,LoopForGreen.thisRepN,LoopForGreen.thisTrialN,LoopForGreen.thisN,LoopForGreen.thisIndex,GreenInstLoop.thisRepN,GreenInstLoop.thisTrialN,GreenInstLoop.thisN,GreenInstLoop.thisIndex,GreenPrac.thisRepN,GreenPrac.thisTrialN,GreenPrac.thisN,GreenPrac.thisIndex,trials_2.thisRepN,trials_2.thisTrialN,trials_2.thisN,trials_2.thisIndex,GreenRound1.thisRepN,GreenRound1.thisTrialN,GreenRound1.thisN,GreenRound1.thisIndex,GreenRound2.thisRepN,GreenRound2.thisTrialN,GreenRound2.thisN,GreenRound2.thisIndex,GreenRound3.thisRepN,GreenRound3.thisTrialN,GreenRound3.thisN,GreenRound3.thisIndex,GreenRound4.thisRepN,GreenRound4.thisTrialN,GreenRound4.thisN,GreenRound4.thisIndex,GreenRound5.thisRepN,GreenRound5.thisTrialN,GreenRound5.thisN,GreenRound5.thisIndex,text_2.started,text_2.stopped,text_3.started,text_3.stopped,key_resp.keys,key_resp.rt,key_resp.started,key_resp.stopped,PassI.started,PassI.stopped,PassInst.keys,PassInst.rt,PassInst.started,PassInst.stopped,mouse_2.x,mouse_2.y,mouse_2.leftButton,mouse_2.midButton,mouse_2.rightButton,mouse_2.started,mouse_2.stopped,image.started,image.stopped,text_5.started,text_5.stopped,text_6.started,text_6.stopped,text_7.started,text_7.stopped,text_8.started,text_8.stopped,slider_3.response,slider_3.rt,slider_3.started,slider_3.stopped,Response_3,Feedback_3,BackGround_3.started,BackGround_3.stopped,Fish_3.started,Fish_3.stopped,WordBox_3.started,WordBox_3.stopped,Words_3.started,Words_3.stopped,BackGround_Feedback_3.started,BackGround_Feedback_3.stopped,Feedbacks_3.started,Feedbacks_3.stopped,Continue_or_not_2.keys,Continue_or_not_2.rt,Continue_or_not_2.started,Continue_or_not_2.stopped,image_4.started,image_4.stopped,mouse_3.x,mouse_3.y,mouse_3.leftButton,mouse_3.midButton,mouse_3.rightButton,mouse_3.started,mouse_3.stopped,startmain.started,startmain.stopped,slider_4.response,slider_4.rt,slider_4.started,slider_4.stopped,Response_4,Feedback_4,BackGround_4.started,BackGround_4.stopped,Fish_4.started,Fish_4.stopped,WordBox_4.started,WordBox_4.stopped,Words_4.started,Words_4.stopped,BackGround_Feedback_4.started,BackGround_Feedback_4.stopped,Feedbacks_4.started,Feedbacks_4.stopped,text.started,text.stopped,break_interval.started,break_interval.stopped,mouse.x,mouse.y,mouse.leftButton,mouse.midButton,mouse.rightButton,mouse.started,mouse.stopped,stratnextround.started,stratnextround.stopped,endgame.started,endgame.stopped,participant,date,expName,psychopyVersion,frameRate,
,,,,,,,,,,,,,,,,,,,,,,,,,,,,,,,,,,,,,,,,,,,,,,,,,,,,,,19.60722330000135,None,19.60722330000135,None,space,2.357612699997844,20.089165199999115,None,,,,,,,,,,,,,,,,,,,,,,,,,,,,,,,,,,,,,,,,,,,,,,,,,,,,,,,,,,,,,,,,,,,,,,,,,,,,,,,,,,,,,,,,,,210,2022-05-04_16h42.11.297,FishGame,2022.1.1,59.952829112567514,
물고기과제_instruction(참가자용)GreenVersion.mp4,,,,,,,,,,,,,,,,,,0,0,0,0,0,0,0,0,,,,,,,,,,,,,,,,,,,,,,,,,,,,,,,,,,,,,89.06993220000004,None,n,3.9164896000002045,89.06993220000004,None,,,,,,,,,,,,,,,,,,,,,,,,,,,,,,,,,,,,,,,,,,,,,,,,,,,,,,,,,,,,,,,,,,,,,,,,,,,,,,,,,,,,210,2022-05-04_16h42.11.297,FishGame,2022.1.1,59.952829112567514,
,1,넌 교활해,5,Orange,B,2.333333333333333,2.133333333333333,ScrollUp,ScrollDown,Orange.png,practice,,,,,,,0,0,0,0,,,,,0,0,0,0,0,0,0,0,,,,,,,,,,,,,,,,,,,,,,,,,,,,,,,,,,,0.035185184,-0.2638889,1,0,0,0.5133409700065386,None,93.02769990000525,None,95.83011930000794,97.32909959999961,97.36247410000942,98.31238740000117,98.36236739999731,99.31218770000851,99.31218770000851,None,1.594135800997416,1.5808438999956707,100.49834510000073,None,ScrollUp,정답입니다,100.49834510000073,None,100.49834510000073,None,100.49834510000073,None,100.49834510000073,None,101.89481179999711,None,101.89481179999711,102.39510920000612,,,,,,,,,,,,,,,,,,,,,,,,,,,,,,,,,,,,,,,,,,,,,,,,,210,2022-05-04_16h42.11.297,FishGame,2022.1.1,59.952829112567514,
,2,넌 슬기로워,2,Green,A,6.166666666666667,4.1,ScrollDown,ScrollUp,Green.png,practice,,,,,,,0,0,0,0,,,,,0,0,0,0,0,1,1,1,,,,,,,,,,,,,,,,,,,,,,,,,,,,,,,,,,,,,,,,,,,,,,,,,,,,1.2422839452823002,1.594655100008822,103.0501598999981,None,ScrollDown,정답입니다,103.0501598999981,None,103.0501598999981,None,103.0501598999981,None,103.0501598999981,None,104.51404000000912,None,104.51404000000912,105.02811549999751,,,,,,,,,,,,,,,,,,,,,,,,,,,,,,,,,,,,,,,,,,,,,,,,,210,2022-05-04_16h42.11.297,FishGame,2022.1.1,59.952829112567514,
,3,나를 보내줘,6,Green,A,0,0,ScrollUp,ScrollDown,Green.png,practice,,,,,,,0,0,0,0,,,,,0,0,0,0,0,2,2,2,,,,,,,,,,,,,,,,,,,,,,,,,,,,,,,,,,,,,,,,,,,,,,,,,,,,1.455246914178133,1.1227910000015981,105.68114460000652,None,NoResponse,무응답입니다,105.68114460000652,None,105.68114460000652,None,105.68114460000652,None,105.68114460000652,None,106.68060289999994,None,106.68060289999994,107.19460689999687,,,,,,,,,,,,,,,,,,,,,,,,,,,,,,,,,,,,,,,,,,,,,,,,,210,2022-05-04_16h42.11.297,FishGame,2022.1.1,59.952829112567514,
,4,나를 데려가줘,6,Orange,B,0,0,ScrollDown,ScrollUp,Orange.png,practice,,,,,,,0,0,0,0,,,,,0,0,0,0,0,3,3,3,,,,,,,,,,,,,,,,,,,,,,,,,,,,,,,,,,,,,,,,,,,,,,,,,,,,1.2654321044683456,1.1727615999989212,107.85389399999985,None,ScrollDown,정답입니다,107.85389399999985,None,107.85389399999985,None,107.85389399999985,None,107.85389399999985,None,108.89395270000387,None,108.89395270000387,109.3942076000094,,,,,,,,,,,,,,,,,,,,,,,,,,,,,,,,,,,,,,,,,,,,,,,,,210,2022-05-04_16h42.11.297,FishGame,2022.1.1,59.952829112567514,
,1,넌 교활해,5,Orange,B,2.333333333333333,2.133333333333333,ScrollUp,ScrollDown,Orange.png,practice,,,,,,,0,0,0,0,,,,,0,0,0,0,,,,,,,,,,,,,,,,,,,,,,,,,,,,,,,,,,,,,,,,,,,,,,,,,,,,,,,,,,,,,,,,,,,,,,,,,,n,4.451821899987408,109.89428310000221,None,109.89428310000221,None,,,,,,,,,,,,,,,,,,,,,,,,,,,,,,,,,,,,,,,,,,,210,2022-05-04_16h42.11.297,FishGame,2022.1.1,59.952829112567514,
,1,넌 따뜻해,1,Orange,B,6.083333333333333,5.6,ScrollUp,ScrollDown,Orange.png,1,Positive,Incongruent,,,,,0,0,0,0,,,,,,,,,,,,,0,0,0,0,,,,,,,,,,,,,,,,,,,,,,,,,,,,,,,,,,,,,,,,115.32720159999735,116.82660030000261,116.85998360000667,117.80983680000645,117.85979899999802,118.80970739999611,118.80970739999611,None,,,,,,,,,,,,,,,,,,,,,,,,,0.049074072,-0.13981481,1,0,0,0.31409526999050286,None,114.37699230000726,None,1.8503086417913437,1.6790631999901962,120.00697400000354,None,ScrollUp,정답입니다,120.00697400000354,None,120.00697400000354,None,120.00697400000354,None,120.00697400000354,None,121.49199809999845,None,121.49199809999845,121.99261780000234,,,,,,,,,,,,,,,,210,2022-05-04_16h42.11.297,FishGame,2022.1.1,59.952829112567514,
,2,넌 기품있어,2,Orange,B,5.791666666666668,4.5,ScrollUp,ScrollDown,Orange.png,1,Positive,Incongruent,,,,,0,0,0,0,,,,,,,,,,,,,0,1,1,1,,,,,,,,,,,,,,,,,,,,,,,,,,,,,,,,,,,,,,,,,,,,,,,,,,,,,,,,,,,,,,,,,,,,,,,,,,,,,,,,,1.5385802456488213,1.1181121000117855,122.66937909999979,None,NoResponse,무응답입니다,122.66937909999979,None,122.66937909999979,None,122.66937909999979,None,122.66937909999979,None,123.6389513000031,None,123.6389513000031,124.1423463000101,,,,,,,,,,,,,,,,210,2022-05-04_16h42.11.297,FishGame,2022.1.1,59.952829112567514,
,3,나를 보내줘,6,Green,A,0,0,ScrollUp,ScrollDown,Green.png,1,NonTarget,NonTarget,,,,,0,0,0,0,,,,,,,,,,,,,0,2,2,2,,,,,,,,,,,,,,,,,,,,,,,,,,,,,,,,,,,,,,,,,,,,,,,,,,,,,,,,,,,,,,,,,,,,,,,,,,,,,,,,,1.7145061641931534,1.210373099995195,124.81065729999682,None,ScrollUp,정답입니다,124.81065729999682,None,124.81065729999682,None,124.81065729999682,None,124.81065729999682,None,125.87763480001013,None,125.87763480001013,126.39202850000584,,,,,,,,,,,,,,,,210,2022-05-04_16h42.11.297,FishGame,2022.1.1,59.952829112567514,
,4,넌 수동적이야,4,Green,A,2.833333333333333,2.933333333333333,ScrollDown,ScrollUp,Green.png,1,Negative,Incongruent,,,,,0,0,0,0,,,,,,,,,,,,,0,3,3,3,,,,,,,,,,,,,,,,,,,,,,,,,,,,,,,,,,,,,,,,,,,,,,,,,,,,,,,,,,,,,,,,,,,,,,,,,,,,,,,,,1.2947530820965767,1.2158194999938132,127.06083940000099,None,ScrollDown,정답입니다,127.06083940000099,None,127.06083940000099,None,127.06083940000099,None,127.06083940000099,None,128.13037270000495,None,128.13037270000495,128.64183170000615,,,,,,,,,,,,,,,,210,2022-05-04_16h42.11.297,FishGame,2022.1.1,59.952829112567514,
,5,넌 사심이 없어,3,Orange,B,4.916666666666666,4.333333333333333,ScrollUp,ScrollDown,Orange.png,1,Neutral,Neutral,,,,,0,0,0,0,,,,,,,,,,,,,0,4,4,4,,,,,,,,,,,,,,,,,,,,,,,,,,,,,,,,,,,,,,,,,,,,,,,,,,,,,,,,,,,,,,,,,,,,,,,,,,,,,,,,,1.5740740758677325,1.0944581999938237,129.30995819999953,None,ScrollUp,정답입니다,129.30995819999953,None,129.30995819999953,None,129.30995819999953,None,129.30995819999953,None,130.2586153000011,None,130.2586153000011,130.75852679999662,,,,,,,,,,,,,,,,210,2022-05-04_16h42.11.297,FishGame,2022.1.1,59.952829112567514,
,6,넌 헤퍼,5,Green,A,2.458333333333334,2.233333333333333,ScrollDown,ScrollUp,Green.png,1,Negative,Incongruent,,,,,0,0,0,0,,,,,,,,,,,,,0,5,5,5,,,,,,,,,,,,,,,,,,,,,,,,,,,,,,,,,,,,,,,,,,,,,,,,,,,,,,,,,,,,,,,,,,,,,,,,,,,,,,,,,1.2546296318372092,1.7995506000006571,131.41340040000796,None,ScrollDown,정답입니다,131.41340040000796,None,131.41340040000796,None,131.41340040000796,None,131.41340040000796,None,133.08228450000752,None,133.08228450000752,133.59110109999892,,,,,,,,,,,,,,,,210,2022-05-04_16h42.11.297,FishGame,2022.1.1,59.952829112567514,
,7,넌 말쑥해,3,Green,A,4.833333333333334,4.333333333333333,ScrollDown,ScrollUp,Green.png,1,Neutral,Neutral,,,,,0,0,0,0,,,,,,,,,,,,,0,6,6,6,,,,,,,,,,,,,,,,,,,,,,,,,,,,,,,,,,,,,,,,,,,,,,,,,,,,,,,,,,,,,,,,,,,,,,,,,,,,,,,,,1.1327160547176998,1.1617101000010734,134.25008060000255,None,ScrollDown,정답입니다,134.25008060000255,None,134.25008060000255,None,134.25008060000255,None,134.25008060000255,None,135.27636400000483,None,135.27636400000483,135.79092680000758,,,,,,,,,,,,,,,,210,2022-05-04_16h42.11.297,FishGame,2022.1.1,59.952829112567514,
,8,넌 투덜거려,5,Orange,B,2.541666666666667,2.266666666666667,ScrollUp,ScrollDown,Orange.png,1,Negative,Congruent,,,,,0,0,0,0,,,,,,,,,,,,,0,7,7,7,,,,,,,,,,,,,,,,,,,,,,,,,,,,,,,,,,,,,,,,,,,,,,,,,,,,,,,,,,,,,,,,,,,,,,,,,,,,,,,,,1.819444437821706,1.1172730999969644,136.46274440000707,None,ScrollUp,정답입니다,136.46274440000707,None,136.46274440000707,None,136.46274440000707,None,136.46274440000707,None,137.4310775000049,None,137.4310775000049,137.94063379999716,,,,,,,,,,,,,,,,210,2022-05-04_16h42.11.297,FishGame,2022.1.1,59.952829112567514,
,9,넌 적극적이야,1,Green,A,5.708333333333333,5.533333333333333,ScrollDown,ScrollUp,Green.png,1,Positive,Congruent,,,,,0,0,0,0,,,,,,,,,,,,,0,8,8,8,,,,,,,,,,,,,,,,,,,,,,,,,,,,,,,,,,,,,,,,,,,,,,,,,,,,,,,,,,,,,,,,,,,,,,,,,,,,,,,,,1.2839506218830743,1.1261901999969268,138.5989147000073,None,ScrollDown,정답입니다,138.5989147000073,None,138.5989147000073,None,138.5989147000073,None,138.5989147000073,None,139.59170020000602,None,139.59170020000602,140.1070747000049,,,,,,,,,,,,,,,,210,2022-05-04_16h42.11.297,FishGame,2022.1.1,59.952829112567514,
,10,넌 재미없어,4,Orange,B,2.625,2.966666666666667,ScrollUp,ScrollDown,Orange.png,1,Negative,Congruent,,,,,0,0,0,0,,,,,,,,,,,,,0,9,9,9,,,,,,,,,,,,,,,,,,,,,,,,,,,,,,,,,,,,,,,,,,,,,,,,,,,,,,,,,,,,,,,,,,,,,,,,,,,,,,,,,1.5740740758677325,1.0951306999922963,140.77023409999674,None,ScrollUp,정답입니다,140.77023409999674,None,140.77023409999674,None,140.77023409999674,None,140.77023409999674,None,141.7253711000085,None,141.7253711000085,142.23996820001048,,,,,,,,,,,,,,,,210,2022-05-04_16h42.11.297,FishGame,2022.1.1,59.952829112567514,
,11,넌 명석해,2,Green,A,5.875,4.033333333333333,ScrollDown,ScrollUp,Green.png,1,Positive,Congruent,,,,,0,0,0,0,,,,,,,,,,,,,0,10,10,10,,,,,,,,,,,,,,,,,,,,,,,,,,,,,,,,,,,,,,,,,,,,,,,,,,,,,,,,,,,,,,,,,,,,,,,,,,,,,,,,,1.325617286066214,0.9496848999988288,142.90131570000085,None,ScrollDown,정답입니다,142.90131570000085,None,142.90131570000085,None,142.90131570000085,None,142.90131570000085,None,143.7115816000005,None,143.7115816000005,144.22304399999848,,,,,,,,,,,,,,,,210,2022-05-04_16h42.11.297,FishGame,2022.1.1,59.952829112567514,
,12,나를 데려가줘,6,Orange,B,0,0,ScrollDown,ScrollUp,Orange.png,1,NonTarget,NonTarget,,,,,0,0,0,0,,,,,,,,,,,,,0,11,11,11,,,,,,,,,,,,,,,,,,,,,,,,,,,,,,,,,,,,,,,,,,,,,,,,,,,,,,,,,,,,,,,,,,,,,,,,,,,,,,,,,1.28086419403553,1.045862400002079,144.88826439999684,None,ScrollDown,정답입니다,144.88826439999684,None,144.88826439999684,None,144.88826439999684,None,144.88826439999684,None,145.79092470000614,None,145.79092470000614,146.30628830000933,,,,,,,,,,,,,,,,210,2022-05-04_16h42.11.297,FishGame,2022.1.1,59.952829112567514,
,13,넌 소심해,4,Green,A,3,3.1,ScrollDown,ScrollUp,Green.png,1,Negative,Incongruent,,,,,0,0,0,0,,,,,,,,,,,,,0,12,12,12,,,,,,,,,,,,,,,,,,,,,,,,,,,,,,,,,,,,,,,,,,,,,,,,,,,,,,,,,,,,,,,,,,,,,,,,,,,,,,,,,1.248456800977389,1.9896692000038456,146.97941909999645,None,ScrollDown,정답입니다,146.97941909999645,None,146.97941909999645,None,146.97941909999645,None,146.97941909999645,None,148.82284990001062,None,148.82284990001062,149.3224540000083,,,,,,,,,,,,,,,,210,2022-05-04_16h42.11.297,FishGame,2022.1.1,59.952829112567514,
,14,넌 합리적이야,2,Green,A,5.583333333333333,4.733333333333333,ScrollDown,ScrollUp,Green.png,1,Positive,Congruent,,,,,0,0,0,0,,,,,,,,,,,,,0,13,13,13,,,,,,,,,,,,,,,,,,,,,,,,,,,,,,,,,,,,,,,,,,,,,,,,,,,,,,,,,,,,,,,,,,,,,,,,,,,,,,,,,1.2746913631757102,0.976815500005614,149.99070260000008,None,ScrollDown,정답입니다,149.99070260000008,None,149.99070260000008,None,149.99070260000008,None,149.99070260000008,None,150.81856040000275,None,150.81856040000275,151.3222448000015,,,,,,,,,,,,,,,,210,2022-05-04_16h42.11.297,FishGame,2022.1.1,59.952829112567514,
,15,넌 무자비해,5,Orange,B,2.333333333333333,2.1,ScrollUp,ScrollDown,Orange.png,1,Negative,Congruent,,,,,0,0,0,0,,,,,,,,,,,,,0,14,14,14,,,,,,,,,,,,,,,,,,,,,,,,,,,,,,,,,,,,,,,,,,,,,,,,,,,,,,,,,,,,,,,,,,,,,,,,,,,,,,,,,1.5802469129363694,0.8823420999979135,151.99674000000232,None,ScrollUp,정답입니다,151.99674000000232,None,151.99674000000232,None,151.99674000000232,None,151.99674000000232,None,152.72774280000885,None,152.72774280000885,153.23861410000245,,,,,,,,,,,,,,,,210,2022-05-04_16h42.11.297,FishGame,2022.1.1,59.952829112567514,
,16,나를 보내줘,6,Green,A,0,0,ScrollUp,ScrollDown,Green.png,1,NonTarget,NonTarget,,,,,0,0,0,0,,,,,,,,,,,,,0,15,15,15,,,,,,,,,,,,,,,,,,,,,,,,,,,,,,,,,,,,,,,,,,,,,,,,,,,,,,,,,,,,,,,,,,,,,,,,,,,,,,,,,1.5910493855675063,1.2843374999938533,153.88983810000354,None,ScrollUp,정답입니다,153.88983810000354,None,153.88983810000354,None,153.88983810000354,None,153.88983810000354,None,155.04622889999882,None,155.04622889999882,155.55500560000655,,,,,,,,,,,,,,,,210,2022-05-04_16h42.11.297,FishGame,2022.1.1,59.952829112567514,
,17,넌 현실적이야,3,Orange,B,4.608695652173913,4.766666666666667,ScrollUp,ScrollDown,Orange.png,1,Neutral,Neutral,,,,,0,0,0,0,,,,,,,,,,,,,0,16,16,16,,,,,,,,,,,,,,,,,,,,,,,,,,,,,,,,,,,,,,,,,,,,,,,,,,,,,,,,,,,,,,,,,,,,,,,,,,,,,,,,,1.5987654303510985,1.0532788000127766,156.22200999999768,None,ScrollUp,정답입니다,156.22200999999768,None,156.22200999999768,None,156.22200999999768,None,156.22200999999768,None,157.13034600000537,None,157.13034600000537,157.63812560000224,,,,,,,,,,,,,,,,210,2022-05-04_16h42.11.297,FishGame,2022.1.1,59.952829112567514,
,18,넌 의리있어,1,Orange,B,5.833333333333334,5.633333333333334,ScrollUp,ScrollDown,Orange.png,1,Positive,Incongruent,,,,,0,0,0,0,,,,,,,,,,,,,0,17,17,17,,,,,,,,,,,,,,,,,,,,,,,,,,,,,,,,,,,,,,,,,,,,,,,,,,,,,,,,,,,,,,,,,,,,,,,,,,,,,,,,,1.7685185273488362,1.113529700000072,158.3016637999972,None,ScrollUp,정답입니다,158.3016637999972,None,158.3016637999972,None,158.3016637999972,None,158.3016637999972,None,159.2770717000094,None,159.2770717000094,159.78783270000713,,,,,,,,,,,,,,,,210,2022-05-04_16h42.11.297,FishGame,2022.1.1,59.952829112567514,
,19,넌 신경과민이야,5,Green,A,2.541666666666667,2.166666666666667,ScrollDown,ScrollUp,Green.png,1,Negative,Incongruent,,,,,0,0,0,0,,,,,,,,,,,,,0,18,18,18,,,,,,,,,,,,,,,,,,,,,,,,,,,,,,,,,,,,,,,,,,,,,,,,,,,,,,,,,,,,,,,,,,,,,,,,,,,,,,,,,1.325617286066214,0.9406216000061249,160.45379569999932,None,ScrollDown,정답입니다,160.45379569999932,None,160.45379569999932,None,160.45379569999932,None,160.45379569999932,None,161.24960370000917,None,161.24960370000917,161.75419479999982,,,,,,,,,,,,,,,,210,2022-05-04_16h42.11.297,FishGame,2022.1.1,59.952829112567514,
,20,넌 편안해,1,Green,A,5.916666666666666,5.866666666666666,ScrollDown,ScrollUp,Green.png,1,Positive,Congruent,,,,,0,0,0,0,,,,,,,,,,,,,0,19,19,19,,,,,,,,,,,,,,,,,,,,,,,,,,,,,,,,,,,,,,,,,,,,,,,,,,,,,,,,,,,,,,,,,,,,,,,,,,,,,,,,,1.0154321193695068,0.9172887000022456,162.41376209999726,None,ScrollDown,정답입니다,162.41376209999726,None,162.41376209999726,None,162.41376209999726,None,162.41376209999726,None,163.19446009999956,None,163.19446009999956,163.70402060000924,,,,,,,,,,,,,,,,210,2022-05-04_16h42.11.297,FishGame,2022.1.1,59.952829112567514,
,21,넌 품위있어,2,Orange,B,5.291666666666666,4.466666666666667,ScrollUp,ScrollDown,Orange.png,1,Positive,Incongruent,,,,,0,0,0,0,,,,,,,,,,,,,0,20,20,20,,,,,,,,,,,,,,,,,,,,,,,,,,,,,,,,,,,,,,,,,,,,,,,,,,,,,,,,,,,,,,,,,,,,,,,,,,,,,,,,,1.873456800977389,1.0841287999937776,164.36769850000564,None,ScrollUp,정답입니다,164.36769850000564,None,164.36769850000564,None,164.36769850000564,None,164.36769850000564,None,165.31095569999889,None,165.31095569999889,165.82032759999856,,,,,,,,,,,,,,,,210,2022-05-04_16h42.11.297,FishGame,2022.1.1,59.952829112567514,
,22,넌 빈틈없어,3,Green,A,4.833333333333333,3.966666666666667,ScrollDown,ScrollUp,Green.png,1,Neutral,Neutral,,,,,0,0,0,0,,,,,,,,,,,,,0,21,21,21,,,,,,,,,,,,,,,,,,,,,,,,,,,,,,,,,,,,,,,,,,,,,,,,,,,,,,,,,,,,,,,,,,,,,,,,,,,,,,,,,1.3611111069718995,0.9014079999906244,166.4789133000013,None,ScrollDown,정답입니다,166.4789133000013,None,166.4789133000013,None,166.4789133000013,None,166.4789133000013,None,167.24526320000587,None,167.24526320000587,167.75340750000032,,,,,,,,,,,,,,,,210,2022-05-04_16h42.11.297,FishGame,2022.1.1,59.952829112567514,
,23,넌 상상력없어,4,Orange,B,2.833333333333333,3.133333333333333,ScrollUp,ScrollDown,Orange.png,1,Negative,Congruent,,,,,0,0,0,0,,,,,,,,,,,,,0,22,22,22,,,,,,,,,,,,,,,,,,,,,,,,,,,,,,,,,,,,,,,,,,,,,,,,,,,,,,,,,,,,,,,,,,,,,,,,,,,,,,,,,1.6373456791043282,0.8949407000036445,168.41755009999906,None,ScrollUp,정답입니다,168.41755009999906,None,168.41755009999906,None,168.41755009999906,None,168.41755009999906,None,169.17024249999668,None,169.17024249999668,169.66986270000052,,,,,,,,,,,,,,,,210,2022-05-04_16h42.11.297,FishGame,2022.1.1,59.952829112567514,
,24,넌 지혜로워,2,Orange,B,6.333333333333334,4.633333333333334,ScrollUp,ScrollDown,Orange.png,1,Positive,Incongruent,,,,,0,0,0,0,,,,,,,,,,,,,0,23,23,23,,,,,,,,,,,,,,,,,,,,,,,,,,,,,,,,,,,,,,,,,,,,,,,,,,,,,,,,,,,,,,,,,,,,,,,,,,,,,,,,,1.5416666672875485,0.9279093999939505,170.3397985000047,None,NoResponse,무응답입니다,170.3397985000047,None,170.3397985000047,None,170.3397985000047,None,170.3397985000047,None,171.1242809999967,None,171.1242809999967,171.63627960000304,,,,,,,,,,,,,,,,210,2022-05-04_16h42.11.297,FishGame,2022.1.1,59.952829112567514,
,25,넌 시끄러워,4,Green,A,2.833333333333333,3.033333333333333,ScrollDown,ScrollUp,Green.png,1,Negative,Incongruent,,,,,0,0,0,0,,,,,,,,,,,,,0,24,24,24,,,,,,,,,,,,,,,,,,,,,,,,,,,,,,,,,,,,,,,,,,,,,,,,,,,,,,,,,,,,,,,,,,,,,,,,,,,,,,,,,1.2453703731298447,1.7946960999979638,172.29739279999922,None,ScrollDown,정답입니다,172.29739279999922,None,172.29739279999922,None,172.29739279999922,None,172.29739279999922,None,173.95601090000127,None,173.95601090000127,174.46924590000708,,,,,,,,,,,,,,,,210,2022-05-04_16h42.11.297,FishGame,2022.1.1,59.952829112567514,
,26,넌 만사태평이야,3,Orange,B,4,4.333333333333333,ScrollUp,ScrollDown,Orange.png,1,Neutral,Neutral,,,,,0,0,0,0,,,,,,,,,,,,,0,25,25,25,,,,,,,,,,,,,,,,,,,,,,,,,,,,,,,,,,,,,,,,,,,,,,,,,,,,,,,,,,,,,,,,,,,,,,,,,,,,,,,,,1.785493830839793,0.9630303000012645,175.1384318000055,None,ScrollUp,정답입니다,175.1384318000055,None,175.1384318000055,None,175.1384318000055,None,175.1384318000055,None,175.95624359999783,None,175.95624359999783,176.46898659999715,,,,,,,,,,,,,,,,210,2022-05-04_16h42.11.297,FishGame,2022.1.1,59.952829112567514,
,27,넌 붙임성있어,1,Green,A,5.708333333333333,5.633333333333334,ScrollDown,ScrollUp,Green.png,1,Positive,Congruent,,,,,0,0,0,0,,,,,,,,,,,,,0,26,26,26,,,,,,,,,,,,,,,,,,,,,,,,,,,,,,,,,,,,,,,,,,,,,,,,,,,,,,,,,,,,,,,,,,,,,,,,,,,,,,,,,1.233024686574936,1.0049084999918705,177.13188380000065,None,ScrollDown,정답입니다,177.13188380000065,None,177.13188380000065,None,177.13188380000065,None,177.13188380000065,None,177.99841949999973,None,177.99841949999973,178.50209680000262,,,,,,,,,,,,,,,,210,2022-05-04_16h42.11.297,FishGame,2022.1.1,59.952829112567514,
,28,넌 영리해,2,Green,A,6,4.033333333333333,ScrollDown,ScrollUp,Green.png,1,Positive,Congruent,,,,,0,0,0,0,,,,,,,,,,,,,0,27,27,27,,,,,,,,,,,,,,,,,,,,,,,,,,,,,,,,,,,,,,,,,,,,,,,,,,,,,,,,,,,,,,,,,,,,,,,,,,,,,,,,,1.3734567935268083,0.8287839999975404,179.1611569000088,None,ScrollDown,정답입니다,179.1611569000088,None,179.1611569000088,None,179.1611569000088,None,179.1611569000088,None,179.85300899999856,None,179.85300899999856,180.36846779999905,,,,,,,,,,,,,,,,210,2022-05-04_16h42.11.297,FishGame,2022.1.1,59.952829112567514,
,29,넌 열심이야,1,Orange,B,6.041666666666667,5.833333333333333,ScrollUp,ScrollDown,Orange.png,1,Positive,Incongruent,,,,,0,0,0,0,,,,,,,,,,,,,0,28,28,28,,,,,,,,,,,,,,,,,,,,,,,,,,,,,,,,,,,,,,,,,,,,,,,,,,,,,,,,,,,,,,,,,,,,,,,,,,,,,,,,,1.5216049375012517,1.34526729999925,181.03670530000818,None,NoResponse,무응답입니다,181.03670530000818,None,181.03670530000818,None,181.03670530000818,None,181.03670530000818,None,182.2400750000088,None,182.2400750000088,182.75145019999763,,,,,,,,,,,,,,,,210,2022-05-04_16h42.11.297,FishGame,2022.1.1,59.952829112567514,
,30,넌 인기없어,4,Orange,B,3,3.3,ScrollUp,ScrollDown,Orange.png,1,Negative,Congruent,,,,,0,0,0,0,,,,,,,,,,,,,0,29,29,29,,,,,,,,,,,,,,,,,,,,,,,,,,,,,,,,,,,,,,,,,,,,,,,,,,,,,,,,,,,,,,,,,,,,,,,,,,,,,,,,,2,1.0109078999958,183.41560160000517,None,ScrollUp,정답입니다,183.41560160000517,None,183.41560160000517,None,183.41560160000517,None,183.41560160000517,None,184.28489330000593,None,184.28489330000593,184.78467049999745,,,,,,,,,,,,,,,,210,2022-05-04_16h42.11.297,FishGame,2022.1.1,59.952829112567514,
,31,넌 익살스러워,3,Green,A,4.708333333333334,4.833333333333333,ScrollDown,ScrollUp,Green.png,1,Neutral,Neutral,,,,,0,0,0,0,,,,,,,,,,,,,0,30,30,30,,,,,,,,,,,,,,,,,,,,,,,,,,,,,,,,,,,,,,,,,,,,,,,,,,,,,,,,,,,,,,,,,,,,,,,,,,,,,,,,,1.1728395173947017,1.0499831999914022,185.44573970000783,None,ScrollDown,정답입니다,185.44573970000783,None,185.44573970000783,None,185.44573970000783,None,185.44573970000783,None,186.35758599999826,None,186.35758599999826,186.86764080000285,,,,,,,,,,,,,,,,210,2022-05-04_16h42.11.297,FishGame,2022.1.1,59.952829112567514,
,32,넌 이기적이야,5,Orange,B,2.291666666666667,2.333333333333333,ScrollUp,ScrollDown,Orange.png,1,Negative,Congruent,,,,,0,0,0,0,,,,,,,,,,,,,0,31,31,31,,,,,,,,,,,,,,,,,,,,,,,,,,,,,,,,,,,,,,,,,,,,,,,,,,,,,,,,,,,,,,,,,,,,,,,,,,,,,,,,,1.5262345684071383,0.8466871000127867,187.52428460000374,None,NoResponse,무응답입니다,187.52428460000374,None,187.52428460000374,None,187.52428460000374,None,187.52428460000374,None,188.24024090000603,None,188.24024090000603,188.75074550000136,,,,,,,,,,,,,,,,210,2022-05-04_16h42.11.297,FishGame,2022.1.1,59.952829112567514,
,33,나를 데려가줘,6,Orange,B,0,0,ScrollDown,ScrollUp,Orange.png,1,NonTarget,NonTarget,,,,,0,0,0,0,,,,,,,,,,,,,0,32,32,32,,,,,,,,,,,,,,,,,,,,,,,,,,,,,,,,,,,,,,,,,,,,,,,,,,,,,,,,,,,,,,,,,,,,,,,,,,,,,,,,,1.4598765435318153,1.1334496999916155,189.40677480000886,None,NoResponse,무응답입니다,189.40677480000886,None,189.40677480000886,None,189.40677480000886,None,189.40677480000886,None,190.40803170000436,None,190.40803170000436,190.91726919999928,,,,,,,,,,,,,,,,210,2022-05-04_16h42.11.297,FishGame,2022.1.1,59.952829112567514,
,34,넌 기회주의자야,5,Green,A,2.875,2.133333333333333,ScrollDown,ScrollUp,Green.png,1,Negative,Incongruent,,,,,0,0,0,0,,,,,,,,,,,,,0,33,33,33,,,,,,,,,,,,,,,,,,,,,,,,,,,,,,,,,,,,,,,,,,,,,,,,,,,,,,,,,,,,,,,,,,,,,,,,,,,,,,,,,1.2716049353281655,1.8940492999972776,191.5771695000003,None,ScrollDown,정답입니다,191.5771695000003,None,191.5771695000003,None,191.5771695000003,None,191.5771695000003,None,193.3374904000084,None,193.3374904000084,193.85008380000363,,,,,,,,,,,,,,,,210,2022-05-04_16h42.11.297,FishGame,2022.1.1,59.952829112567514,
,1,넌 미성숙해,4,Green,A,3,3.2,ScrollDown,ScrollUp,Green.png,2,Negative,Incongruent,,,,,0,0,0,0,,,,,,,,,,,,,,,,,0,0,0,0,,,,,,,,,,,,,,,,,,,,,,,,,,,,,,,,,,,,225.99652090000745,227.4957996000012,227.5291559000034,228.4790531000035,228.52909550000913,229.47897440000088,229.47897440000088,None,,,,,,,,,,,,,,,,,,,,,,,,,,,,,,,,,,1.1851851791143417,1.2636875999887707,230.64661209999758,None,ScrollDown,정답입니다,230.64661209999758,None,230.64661209999758,None,230.64661209999758,None,230.64661209999758,None,231.73745850000705,None,231.73745850000705,232.24521090000053,194.34999750000134,None,194.34999750000134,None,-0.2175926,-0.13240741,1,0,0,0.016020769995520823,None,224.34643150000193,None,,,210,2022-05-04_16h42.11.297,FishGame,2022.1.1,59.952829112567514,
,2,넌 반사회적이야,5,Orange,B,2.416666666666667,2.033333333333333,ScrollUp,ScrollDown,Orange.png,2,Negative,Congruent,,,,,0,0,0,0,,,,,,,,,,,,,,,,,0,1,1,1,,,,,,,,,,,,,,,,,,,,,,,,,,,,,,,,,,,,,,,,,,,,,,,,,,,,,,,,,,,,,,,,,,,,,,,,,,,,,1.658950611948967,0.8587230999983149,232.90921650000382,None,ScrollUp,정답입니다,232.90921650000382,None,232.90921650000382,None,232.90921650000382,None,232.90921650000382,None,233.62285749999864,None,233.62285749999864,234.12824099999852,,,,,,,,,,,,,,,,210,2022-05-04_16h42.11.297,FishGame,2022.1.1,59.952829112567514,
,3,넌 유능해,2,Green,A,6.208333333333333,4.433333333333334,ScrollDown,ScrollUp,Green.png,2,Positive,Congruent,,,,,0,0,0,0,,,,,,,,,,,,,,,,,0,2,2,2,,,,,,,,,,,,,,,,,,,,,,,,,,,,,,,,,,,,,,,,,,,,,,,,,,,,,,,,,,,,,,,,,,,,,,,,,,,,,1.1651234477758408,0.8296750000008615,234.78745560000243,None,ScrollDown,정답입니다,234.78745560000243,None,234.78745560000243,None,234.78745560000243,None,234.78745560000243,None,235.482027799997,None,235.482027799997,235.99471830000402,,,,,,,,,,,,,,,,210,2022-05-04_16h42.11.297,FishGame,2022.1.1,59.952829112567514,
,4,넌 능숙해,2,Orange,B,5.666666666666667,4.733333333333333,ScrollUp,ScrollDown,Orange.png,2,Positive,Incongruent,,,,,0,0,0,0,,,,,,,,,,,,,,,,,0,3,3,3,,,,,,,,,,,,,,,,,,,,,,,,,,,,,,,,,,,,,,,,,,,,,,,,,,,,,,,,,,,,,,,,,,,,,,,,,,,,,1.7978395173947017,1.2959453999937978,236.64737410000816,None,ScrollUp,정답입니다,236.64737410000816,None,236.64737410000816,None,236.64737410000816,None,236.64737410000816,None,237.81575950000843,None,237.81575950000843,238.32774330000393,,,,,,,,,,,,,,,,210,2022-05-04_16h42.11.297,FishGame,2022.1.1,59.952829112567514,
,5,넌 진부해,4,Orange,B,2.458333333333333,3.166666666666667,ScrollUp,ScrollDown,Orange.png,2,Negative,Congruent,,,,,0,0,0,0,,,,,,,,,,,,,,,,,0,4,4,4,,,,,,,,,,,,,,,,,,,,,,,,,,,,,,,,,,,,,,,,,,,,,,,,,,,,,,,,,,,,,,,,,,,,,,,,,,,,,1.765432099501292,0.9944467000022996,238.99111000000266,None,ScrollUp,정답입니다,238.99111000000266,None,238.99111000000266,None,238.99111000000266,None,238.99111000000266,None,239.8444673000049,None,239.8444673000049,240.34422290000657,,,,,,,,,,,,,,,,210,2022-05-04_16h42.11.297,FishGame,2022.1.1,59.952829112567514,
,6,나를 보내줘,6,Green,A,0,0,ScrollUp,ScrollDown,Green.png,2,NonTarget,NonTarget,,,,,0,0,0,0,,,,,,,,,,,,,,,,,0,5,5,5,,,,,,,,,,,,,,,,,,,,,,,,,,,,,,,,,,,,,,,,,,,,,,,,,,,,,,,,,,,,,,,,,,,,,,,,,,,,,1.6280864203969636,1.03637789998902,240.9959935000079,None,ScrollUp,정답입니다,240.9959935000079,None,240.9959935000079,None,240.9959935000079,None,240.9959935000079,None,241.90327540000726,None,241.90327540000726,242.41052010000567,,,,,,,,,,,,,,,,210,2022-05-04_16h42.11.297,FishGame,2022.1.1,59.952829112567514,
,7,넌 엄격해,3,Green,A,4.166666666666666,4.1,ScrollDown,ScrollUp,Green.png,2,Neutral,Neutral,,,,,0,0,0,0,,,,,,,,,,,,,,,,,0,6,6,6,,,,,,,,,,,,,,,,,,,,,,,,,,,,,,,,,,,,,,,,,,,,,,,,,,,,,,,,,,,,,,,,,,,,,,,,,,,,,1.3086419701576233,1.1837828999996418,243.0672307000059,None,ScrollDown,정답입니다,243.0672307000059,None,243.0672307000059,None,243.0672307000059,None,243.0672307000059,None,244.120210699999,None,244.120210699999,244.6271226000099,,,,,,,,,,,,,,,,210,2022-05-04_16h42.11.297,FishGame,2022.1.1,59.952829112567514,
,8,나를 보내줘,6,Green,A,0,0,ScrollUp,ScrollDown,Green.png,2,NonTarget,NonTarget,,,,,0,0,0,0,,,,,,,,,,,,,,,,,0,7,7,7,,,,,,,,,,,,,,,,,,,,,,,,,,,,,,,,,,,,,,,,,,,,,,,,,,,,,,,,,,,,,,,,,,,,,,,,,,,,,1.4135802499949932,0.8931134000013117,245.27473820000887,None,ScrollDown,오답입니다,245.27473820000887,None,245.27473820000887,None,245.27473820000887,None,245.27473820000887,None,246.04666220000945,None,246.04666220000945,246.55995640000037,,,,,,,,,,,,,,,,210,2022-05-04_16h42.11.297,FishGame,2022.1.1,59.952829112567514,
,9,넌 대담해,3,Orange,B,4.875,4.866666666666666,ScrollUp,ScrollDown,Orange.png,2,Neutral,Neutral,,,,,0,0,0,0,,,,,,,,,,,,,,,,,0,8,8,8,,,,,,,,,,,,,,,,,,,,,,,,,,,,,,,,,,,,,,,,,,,,,,,,,,,,,,,,,,,,,,,,,,,,,,,,,,,,,1.4614197543511789,0.9871941000019433,247.2263529000047,None,NoResponse,무응답입니다,247.2263529000047,None,247.2263529000047,None,247.2263529000047,None,247.2263529000047,None,248.07124010000553,None,248.07124010000553,248.5763752000057,,,,,,,,,,,,,,,,210,2022-05-04_16h42.11.297,FishGame,2022.1.1,59.952829112567514,
,10,넌 꾸준해,1,Green,A,5.916666666666668,5.8,ScrollDown,ScrollUp,Green.png,2,Positive,Congruent,,,,,0,0,0,0,,,,,,,,,,,,,,,,,0,9,9,9,,,,,,,,,,,,,,,,,,,,,,,,,,,,,,,,,,,,,,,,,,,,,,,,,,,,,,,,,,,,,,,,,,,,,,,,,,,,,1.345679017404715,1.0708513999998104,249.23510430000897,None,ScrollDown,정답입니다,249.23510430000897,None,249.23510430000897,None,249.23510430000897,None,249.23510430000897,None,250.17137619999994,None,250.17137619999994,250.67612800000643,,,,,,,,,,,,,,,,210,2022-05-04_16h42.11.297,FishGame,2022.1.1,59.952829112567514,
,11,나를 데려가줘,6,Orange,B,0,0,ScrollDown,ScrollUp,Orange.png,2,NonTarget,NonTarget,,,,,0,0,0,0,,,,,,,,,,,,,,,,,0,10,10,10,,,,,,,,,,,,,,,,,,,,,,,,,,,,,,,,,,,,,,,,,,,,,,,,,,,,,,,,,,,,,,,,,,,,,,,,,,,,,1.2685185074806213,1.133270000005723,251.3340176000056,None,ScrollDown,정답입니다,251.3340176000056,None,251.3340176000056,None,251.3340176000056,None,251.3340176000056,None,252.3325818000012,None,252.3325818000012,252.84257849999995,,,,,,,,,,,,,,,,210,2022-05-04_16h42.11.297,FishGame,2022.1.1,59.952829112567514,
,12,넌 독선적이야,5,Green,A,2.458333333333333,1.933333333333333,ScrollDown,ScrollUp,Green.png,2,Negative,Incongruent,,,,,0,0,0,0,,,,,,,,,,,,,,,,,0,11,11,11,,,,,,,,,,,,,,,,,,,,,,,,,,,,,,,,,,,,,,,,,,,,,,,,,,,,,,,,,,,,,,,,,,,,,,,,,,,,,1.3533950621883073,1.764271899999585,253.4984112000093,None,ScrollDown,정답입니다,253.4984112000093,None,253.4984112000093,None,253.4984112000093,None,253.4984112000093,None,255.1307766999962,None,255.1307766999962,255.64219169999706,,,,,,,,,,,,,,,,210,2022-05-04_16h42.11.297,FishGame,2022.1.1,59.952829112567514,
,13,나를 보내줘,6,Green,A,0,0,ScrollUp,ScrollDown,Green.png,2,NonTarget,NonTarget,,,,,0,0,0,0,,,,,,,,,,,,,,,,,0,12,12,12,,,,,,,,,,,,,,,,,,,,,,,,,,,,,,,,,,,,,,,,,,,,,,,,,,,,,,,,,,,,,,,,,,,,,,,,,,,,,1.6913580298423767,1.0216649000067264,256.29365730000427,None,ScrollUp,정답입니다,256.29365730000427,None,256.29365730000427,None,256.29365730000427,None,256.29365730000427,None,257.18516570000793,None,257.18516570000793,257.6919118000078,,,,,,,,,,,,,,,,210,2022-05-04_16h42.11.297,FishGame,2022.1.1,59.952829112567514,
,14,넌 책임감있어,1,Orange,B,6.347826086956522,6,ScrollUp,ScrollDown,Orange.png,2,Positive,Incongruent,,,,,0,0,0,0,,,,,,,,,,,,,,,,,0,13,13,13,,,,,,,,,,,,,,,,,,,,,,,,,,,,,,,,,,,,,,,,,,,,,,,,,,,,,,,,,,,,,,,,,,,,,,,,,,,,,1.4043209850788116,1.0888631000125315,258.3580711000104,None,ScrollDown,오답입니다,258.3580711000104,None,258.3580711000104,None,258.3580711000104,None,258.3580711000104,None,259.30384760000743,None,259.30384760000743,259.8085290000017,,,,,,,,,,,,,,,,210,2022-05-04_16h42.11.297,FishGame,2022.1.1,59.952829112567514,
,15,넌 문학적이야,3,Green,A,4.708333333333334,4.333333333333333,ScrollDown,ScrollUp,Green.png,2,Neutral,Neutral,,,,,0,0,0,0,,,,,,,,,,,,,,,,,0,14,14,14,,,,,,,,,,,,,,,,,,,,,,,,,,,,,,,,,,,,,,,,,,,,,,,,,,,,,,,,,,,,,,,,,,,,,,,,,,,,,1.3055555547277131,1.5845885000017006,260.469302700003,None,ScrollDown,정답입니다,260.469302700003,None,260.469302700003,None,260.469302700003,None,260.469302700003,None,261.91973280000093,None,261.91973280000093,262.4246654000017,,,,,,,,,,,,,,,,210,2022-05-04_16h42.11.297,FishGame,2022.1.1,59.952829112567514,
,16,넌 재미있어,1,Orange,B,5.875,5.7,ScrollUp,ScrollDown,Orange.png,2,Positive,Incongruent,,,,,0,0,0,0,,,,,,,,,,,,,,,,,0,15,15,15,,,,,,,,,,,,,,,,,,,,,,,,,,,,,,,,,,,,,,,,,,,,,,,,,,,,,,,,,,,,,,,,,,,,,,,,,,,,,1.5308641977608204,0.9609306000056677,263.08041340000636,None,NoResponse,무응답입니다,263.08041340000636,None,263.08041340000636,None,263.08041340000636,None,263.08041340000636,None,263.90952760000073,None,263.90952760000073,264.42435460000706,,,,,,,,,,,,,,,,210,2022-05-04_16h42.11.297,FishGame,2022.1.1,59.952829112567514,
,17,나를 데려가줘,6,Orange,B,0,0,ScrollDown,ScrollUp,Orange.png,2,NonTarget,NonTarget,,,,,0,0,0,0,,,,,,,,,,,,,,,,,0,16,16,16,,,,,,,,,,,,,,,,,,,,,,,,,,,,,,,,,,,,,,,,,,,,,,,,,,,,,,,,,,,,,,,,,,,,,,,,,,,,,1.3302469154198966,1.994095300004119,265.0849354000093,None,ScrollDown,정답입니다,265.0849354000093,None,265.0849354000093,None,265.0849354000093,None,265.0849354000093,None,266.9444158999977,None,266.9444158999977,267.45748480000475,,,,,,,,,,,,,,,,210,2022-05-04_16h42.11.297,FishGame,2022.1.1,59.952829112567514,
,18,넌 협력적이야,1,Green,A,5.625,5.633333333333334,ScrollDown,ScrollUp,Green.png,2,Positive,Congruent,,,,,0,0,0,0,,,,,,,,,,,,,,,,,0,17,17,17,,,,,,,,,,,,,,,,,,,,,,,,,,,,,,,,,,,,,,,,,,,,,,,,,,,,,,,,,,,,,,,,,,,,,,,,,,,,,1.2623456766208014,1.3812555000040447,268.1171119000064,None,ScrollDown,정답입니다,268.1171119000064,None,268.1171119000064,None,268.1171119000064,None,268.1171119000064,None,269.3617147000041,None,269.3617147000041,269.8737104000029,,,,,,,,,,,,,,,,210,2022-05-04_16h42.11.297,FishGame,2022.1.1,59.952829112567514,
,19,넌 평범해,3,Orange,B,4.333333333333332,4.233333333333333,ScrollUp,ScrollDown,Orange.png,2,Neutral,Neutral,,,,,0,0,0,0,,,,,,,,,,,,,,,,,0,18,18,18,,,,,,,,,,,,,,,,,,,,,,,,,,,,,,,,,,,,,,,,,,,,,,,,,,,,,,,,,,,,,,,,,,,,,,,,,,,,,1.67746914178133,0.8846128000004683,270.5320093000046,None,ScrollUp,정답입니다,270.5320093000046,None,270.5320093000046,None,270.5320093000046,None,270.5320093000046,None,271.2832411999989,None,271.2832411999989,271.7901522000029,,,,,,,,,,,,,,,,210,2022-05-04_16h42.11.297,FishGame,2022.1.1,59.952829112567514,
,20,넌 오만해,5,Green,A,2.333333333333333,2,ScrollDown,ScrollUp,Green.png,2,Negative,Incongruent,,,,,0,0,0,0,,,,,,,,,,,,,,,,,0,19,19,19,,,,,,,,,,,,,,,,,,,,,,,,,,,,,,,,,,,,,,,,,,,,,,,,,,,,,,,,,,,,,,,,,,,,,,,,,,,,,1.2052469104528427,1.0760425999906147,272.4476399999985,None,ScrollDown,정답입니다,272.4476399999985,None,272.4476399999985,None,272.4476399999985,None,272.4476399999985,None,273.3855099000066,None,273.3855099000066,273.8898760000011,,,,,,,,,,,,,,,,210,2022-05-04_16h42.11.297,FishGame,2022.1.1,59.952829112567514,
,21,넌 운이없어,4,Orange,B,3,3.466666666666667,ScrollUp,ScrollDown,Orange.png,2,Negative,Congruent,,,,,0,0,0,0,,,,,,,,,,,,,,,,,0,20,20,20,,,,,,,,,,,,,,,,,,,,,,,,,,,,,,,,,,,,,,,,,,,,,,,,,,,,,,,,,,,,,,,,,,,,,,,,,,,,,1.634259263674418,0.9037116999970749,274.55152750000707,None,ScrollUp,정답입니다,274.55152750000707,None,274.55152750000707,None,274.55152750000707,None,274.55152750000707,None,275.3153775000101,None,275.3153775000101,275.8230002000055,,,,,,,,,,,,,,,,210,2022-05-04_16h42.11.297,FishGame,2022.1.1,59.952829112567514,
,22,넌 창조적이야,2,Orange,B,6.125,4.633333333333334,ScrollUp,ScrollDown,Orange.png,2,Positive,Incongruent,,,,,0,0,0,0,,,,,,,,,,,,,,,,,0,21,21,21,,,,,,,,,,,,,,,,,,,,,,,,,,,,,,,,,,,,,,,,,,,,,,,,,,,,,,,,,,,,,,,,,,,,,,,,,,,,,1.8611111144224803,0.911371499998495,276.4865785000002,None,ScrollUp,정답입니다,276.4865785000002,None,276.4865785000002,None,276.4865785000002,None,276.4865785000002,None,277.25787500001024,None,277.25787500001024,277.77268809999805,,,,,,,,,,,,,,,,210,2022-05-04_16h42.11.297,FishGame,2022.1.1,59.952829112567514,
,23,나를 보내줘,6,Green,A,0,0,ScrollUp,ScrollDown,Green.png,2,NonTarget,NonTarget,,,,,0,0,0,0,,,,,,,,,,,,,,,,,0,22,22,22,,,,,,,,,,,,,,,,,,,,,,,,,,,,,,,,,,,,,,,,,,,,,,,,,,,,,,,,,,,,,,,,,,,,,,,,,,,,,1.7500000099341075,1.0363750000105938,278.4202847999986,None,ScrollUp,정답입니다,278.4202847999986,None,278.4202847999986,None,278.4202847999986,None,278.4202847999986,None,279.3325096000044,None,279.3325096000044,279.8390653000097,,,,,,,,,,,,,,,,210,2022-05-04_16h42.11.297,FishGame,2022.1.1,59.952829112567514,
,24,넌 통찰력있어,2,Green,A,6.5,4.8,ScrollDown,ScrollUp,Green.png,2,Positive,Congruent,,,,,0,0,0,0,,,,,,,,,,,,,,,,,0,23,23,23,,,,,,,,,,,,,,,,,,,,,,,,,,,,,,,,,,,,,,,,,,,,,,,,,,,,,,,,,,,,,,,,,,,,,,,,,,,,,1.1774691343307495,1.0102587000001222,280.50148170000466,None,ScrollDown,정답입니다,280.50148170000466,None,280.50148170000466,None,280.50148170000466,None,280.50148170000466,None,281.3683156000043,None,281.3683156000043,281.8721494000056,,,,,,,,,,,,,,,,210,2022-05-04_16h42.11.297,FishGame,2022.1.1,59.952829112567514,
,25,넌 경솔해,5,Orange,B,2.458333333333333,2.266666666666667,ScrollUp,ScrollDown,Orange.png,2,Negative,Congruent,,,,,0,0,0,0,,,,,,,,,,,,,,,,,0,24,24,24,,,,,,,,,,,,,,,,,,,,,,,,,,,,,,,,,,,,,,,,,,,,,,,,,,,,,,,,,,,,,,,,,,,,,,,,,,,,,1.5972222226361432,0.8728425000008428,282.53463100000226,None,ScrollUp,정답입니다,282.53463100000226,None,282.53463100000226,None,282.53463100000226,None,282.53463100000226,None,283.26624230000016,None,283.26624230000016,283.7719982999988,,,,,,,,,,,,,,,,210,2022-05-04_16h42.11.297,FishGame,2022.1.1,59.952829112567514,
,26,넌 초조해,4,Green,A,2.916666666666667,3.133333333333333,ScrollDown,ScrollUp,Green.png,2,Negative,Incongruent,,,,,0,0,0,0,,,,,,,,,,,,,,,,,0,25,25,25,,,,,,,,,,,,,,,,,,,,,,,,,,,,,,,,,,,,,,,,,,,,,,,,,,,,,,,,,,,,,,,,,,,,,,,,,,,,,1.2160493830839794,0.8936566000047605,284.42769759999646,None,ScrollDown,정답입니다,284.42769759999646,None,284.42769759999646,None,284.42769759999646,None,284.42769759999646,None,285.19299700000556,None,285.19299700000556,285.70504510001047,,,,,,,,,,,,,,,,210,2022-05-04_16h42.11.297,FishGame,2022.1.1,59.952829112567514,
,27,넌 무관심해,4,Orange,B,2.833333333333333,2.9,ScrollUp,ScrollDown,Orange.png,2,Negative,Congruent,,,,,0,0,0,0,,,,,,,,,,,,,,,,,0,26,26,26,,,,,,,,,,,,,,,,,,,,,,,,,,,,,,,,,,,,,,,,,,,,,,,,,,,,,,,,,,,,,,,,,,,,,,,,,,,,,1.6080246890584626,0.8523636000027182,286.3667850000056,None,ScrollUp,정답입니다,286.3667850000056,None,286.3667850000056,None,286.3667850000056,None,286.3667850000056,None,287.08047090000764,None,287.08047090000764,287.5880332000088,,,,,,,,,,,,,,,,210,2022-05-04_16h42.11.297,FishGame,2022.1.1,59.952829112567514,
,28,넌 감성적이야,3,Orange,B,4.125,4.166666666666667,ScrollUp,ScrollDown,Orange.png,2,Neutral,Neutral,,,,,0,0,0,0,,,,,,,,,,,,,,,,,0,27,27,27,,,,,,,,,,,,,,,,,,,,,,,,,,,,,,,,,,,,,,,,,,,,,,,,,,,,,,,,,,,,,,,,,,,,,,,,,,,,,1.799382706483205,0.8559300000051735,288.2497338000103,None,ScrollUp,정답입니다,288.2497338000103,None,288.2497338000103,None,288.2497338000103,None,288.2497338000103,None,288.965614700006,None,288.965614700006,289.47118090000004,,,,,,,,,,,,,,,,210,2022-05-04_16h42.11.297,FishGame,2022.1.1,59.952829112567514,
,29,넌 배려심있어,1,Green,A,6.083333333333333,5.5,ScrollDown,ScrollUp,Green.png,2,Positive,Congruent,,,,,0,0,0,0,,,,,,,,,,,,,,,,,0,28,28,28,,,,,,,,,,,,,,,,,,,,,,,,,,,,,,,,,,,,,,,,,,,,,,,,,,,,,,,,,,,,,,,,,,,,,,,,,,,,,1.2191358109315236,1.2822880000021541,290.12842790001014,None,ScrollDown,정답입니다,290.12842790001014,None,290.12842790001014,None,290.12842790001014,None,290.12842790001014,None,291.27646249999816,None,291.27646249999816,291.78771360000246,,,,,,,,,,,,,,,,210,2022-05-04_16h42.11.297,FishGame,2022.1.1,59.952829112567514,
,30,넌 숨김없어,3,Green,A,4.5,4.933333333333334,ScrollDown,ScrollUp,Green.png,2,Neutral,Neutral,,,,,0,0,0,0,,,,,,,,,,,,,,,,,0,29,29,29,,,,,,,,,,,,,,,,,,,,,,,,,,,,,,,,,,,,,,,,,,,,,,,,,,,,,,,,,,,,,,,,,,,,,,,,,,,,,1.214506169160207,0.8830719999969006,292.4473704999982,None,ScrollDown,정답입니다,292.4473704999982,None,292.4473704999982,None,292.4473704999982,None,292.4473704999982,None,293.19657610000286,None,293.19657610000286,293.70398879999993,,,,,,,,,,,,,,,,210,2022-05-04_16h42.11.297,FishGame,2022.1.1,59.952829112567514,
,31,넌 훌륭해,2,Orange,B,5.916666666666667,4.033333333333333,ScrollUp,ScrollDown,Orange.png,2,Positive,Incongruent,,,,,0,0,0,0,,,,,,,,,,,,,,,,,0,30,30,30,,,,,,,,,,,,,,,,,,,,,,,,,,,,,,,,,,,,,,,,,,,,,,,,,,,,,,,,,,,,,,,,,,,,,,,,,,,,,1.4722222207734983,0.824599900006433,294.3651006,None,NoResponse,무응답입니다,294.3651006,None,294.3651006,None,294.3651006,None,294.3651006,None,295.05600930000946,None,295.05600930000946,295.5703294999985,,,,,,,,,,,,,,,,210,2022-05-04_16h42.11.297,FishGame,2022.1.1,59.952829112567514,
,32,넌 슬기로워,2,Green,A,6.166666666666667,4.1,ScrollDown,ScrollUp,Green.png,2,Positive,Congruent,,,,,0,0,0,0,,,,,,,,,,,,,,,,,0,31,31,31,,,,,,,,,,,,,,,,,,,,,,,,,,,,,,,,,,,,,,,,,,,,,,,,,,,,,,,,,,,,,,,,,,,,,,,,,,,,,1.2361111144224803,0.9604831999895396,296.22890230000485,None,ScrollDown,정답입니다,296.22890230000485,None,296.22890230000485,None,296.22890230000485,None,296.22890230000485,None,297.05429020000156,None,297.05429020000156,297.5535399000073,,,,,,,,,,,,,,,,210,2022-05-04_16h42.11.297,FishGame,2022.1.1,59.952829112567514,
,33,넌 냉혹해,5,Green,A,2.583333333333333,2.1,ScrollDown,ScrollUp,Green.png,2,Negative,Incongruent,,,,,0,0,0,0,,,,,,,,,,,,,,,,,0,32,32,32,,,,,,,,,,,,,,,,,,,,,,,,,,,,,,,,,,,,,,,,,,,,,,,,,,,,,,,,,,,,,,,,,,,,,,,,,,,,,1.4953703702582668,0.9000009000010323,298.21914660000766,None,NoResponse,무응답입니다,298.21914660000766,None,298.21914660000766,None,298.21914660000766,None,298.21914660000766,None,298.9795770000055,None,298.9795770000055,299.4865681000083,,,,,,,,,,,,,,,,210,2022-05-04_16h42.11.297,FishGame,2022.1.1,59.952829112567514,
,34,나를 데려가줘,6,Orange,B,0,0,ScrollDown,ScrollUp,Orange.png,2,NonTarget,NonTarget,,,,,0,0,0,0,,,,,,,,,,,,,,,,,0,33,33,33,,,,,,,,,,,,,,,,,,,,,,,,,,,,,,,,,,,,,,,,,,,,,,,,,,,,,,,,,,,,,,,,,,,,,,,,,,,,,1.7083333333333335,1.5516875000030268,300.1417957000085,None,ScrollUp,오답입니다,300.1417957000085,None,300.1417957000085,None,300.1417957000085,None,300.1417957000085,None,301.5630367999984,None,301.5630367999984,302.069585300007,,,,,,,,,,,,,,,,210,2022-05-04_16h42.11.297,FishGame,2022.1.1,59.952829112567514,
,35,넌 편파적이야,5,Orange,B,2.125,2,ScrollUp,ScrollDown,Orange.png,2,Negative,Congruent,,,,,0,0,0,0,,,,,,,,,,,,,,,,,0,34,34,34,,,,,,,,,,,,,,,,,,,,,,,,,,,,,,,,,,,,,,,,,,,,,,,,,,,,,,,,,,,,,,,,,,,,,,,,,,,,,1.5972222226361432,1.4601656000013463,302.7289257000084,None,ScrollUp,정답입니다,302.7289257000084,None,302.7289257000084,None,302.7289257000084,None,302.7289257000084,None,304.0567219000077,None,304.0567219000077,304.569247899999,,,,,,,,,,,,,,,,210,2022-05-04_16h42.11.297,FishGame,2022.1.1,59.952829112567514,
,36,넌 슬퍼,4,Green,A,2.583333333333333,3.066666666666667,ScrollDown,ScrollUp,Green.png,2,Negative,Incongruent,,,,,0,0,0,0,,,,,,,,,,,,,,,,,0,35,35,35,,,,,,,,,,,,,,,,,,,,,,,,,,,,,,,,,,,,,,,,,,,,,,,,,,,,,,,,,,,,,,,,,,,,,,,,,,,,,1.1774691343307495,0.879419599994435,305.2244483999966,None,ScrollDown,정답입니다,305.2244483999966,None,305.2244483999966,None,305.2244483999966,None,305.2244483999966,None,305.9700562000071,None,305.9700562000071,306.4856262999965,,,,,,,,,,,,,,,,210,2022-05-04_16h42.11.297,FishGame,2022.1.1,59.952829112567514,
,37,나를 데려가줘,6,Orange,B,0,0,ScrollDown,ScrollUp,Orange.png,2,NonTarget,NonTarget,,,,,0,0,0,0,,,,,,,,,,,,,,,,,0,36,36,36,,,,,,,,,,,,,,,,,,,,,,,,,,,,,,,,,,,,,,,,,,,,,,,,,,,,,,,,,,,,,,,,,,,,,,,,,,,,,1.2253086417913437,0.970312700010254,307.1425431000098,None,ScrollDown,정답입니다,307.1425431000098,None,307.1425431000098,None,307.1425431000098,None,307.1425431000098,None,307.97769990000234,None,307.97769990000234,308.4854764000047,,,,,,,,,,,,,,,,210,2022-05-04_16h42.11.297,FishGame,2022.1.1,59.952829112567514,
,38,넌 친절해,1,Orange,B,6.041666666666667,5.533333333333333,ScrollUp,ScrollDown,Orange.png,2,Positive,Incongruent,,,,,0,0,0,0,,,,,,,,,,,,,,,,,0,37,37,37,,,,,,,,,,,,,,,,,,,,,,,,,,,,,,,,,,,,,,,,,,,,,,,,,,,,,,,,,,,,,,,,,,,,,,,,,,,,,1.837962955236435,0.9240521000028821,309.1486117000022,None,ScrollUp,정답입니다,309.1486117000022,None,309.1486117000022,None,309.1486117000022,None,309.1486117000022,None,309.93551500000467,None,309.93551500000467,310.4351536000031,,,,,,,,,,,,,,,,210,2022-05-04_16h42.11.297,FishGame,2022.1.1,59.952829112567514,
,1,넌 엉성해,4,Green,A,3,3.3,ScrollDown,ScrollUp,Green.png,3,Negative,Incongruent,,,,,0,0,0,0,,,,,,,,,,,,,,,,,,,,,0,0,0,0,,,,,,,,,,,,,,,,,,,,,,,,,,,,,,,,342.2644575000013,343.76431470000534,343.79768470001,344.7475836000085,344.7974899999972,345.74739230000705,345.74739230000705,None,,,,,,,,,,,,,,,,,,,,,,,,,,,,,,,,,,1.1141975373029709,1.2457260999944992,346.92939570000453,None,ScrollDown,정답입니다,346.92939570000453,None,346.92939570000453,None,346.92939570000453,None,346.92939570000453,None,347.99140520000947,None,347.99140520000947,348.4969734000042,310.93509359999734,None,310.93509359999734,None,-0.13981481,-0.08055556,1,0,0,0.016215070005273446,None,340.9480756999983,None,,,210,2022-05-04_16h42.11.297,FishGame,2022.1.1,59.952829112567514,
,2,나를 보내줘,6,Green,A,0,0,ScrollUp,ScrollDown,Green.png,3,NonTarget,NonTarget,,,,,0,0,0,0,,,,,,,,,,,,,,,,,,,,,0,1,1,1,,,,,,,,,,,,,,,,,,,,,,,,,,,,,,,,,,,,,,,,,,,,,,,,,,,,,,,,,,,,,,,,,,,,,,,,,1.8101851791143417,1.0602930000022752,349.1484599000105,None,ScrollUp,정답입니다,349.1484599000105,None,349.1484599000105,None,349.1484599000105,None,349.1484599000105,None,350.0761799000029,None,350.0761799000029,350.5799752000021,,,,,,,,,,,,,,,,210,2022-05-04_16h42.11.297,FishGame,2022.1.1,59.952829112567514,
,3,넌 활발해,1,Orange,B,5.666666666666667,5.6,ScrollUp,ScrollDown,Orange.png,3,Positive,Incongruent,,,,,0,0,0,0,,,,,,,,,,,,,,,,,,,,,0,2,2,2,,,,,,,,,,,,,,,,,,,,,,,,,,,,,,,,,,,,,,,,,,,,,,,,,,,,,,,,,,,,,,,,,,,,,,,,,1.6172839477658272,1.0668844000028912,351.2411606000096,None,ScrollUp,정답입니다,351.2411606000096,None,351.2411606000096,None,351.2411606000096,None,351.2411606000096,None,352.170818300001,None,352.170818300001,352.6798501000012,,,,,,,,,,,,,,,,210,2022-05-04_16h42.11.297,FishGame,2022.1.1,59.952829112567514,
,4,넌 논리적이야,2,Green,A,5.666666666666666,4.633333333333334,ScrollDown,ScrollUp,Green.png,3,Positive,Congruent,,,,,0,0,0,0,,,,,,,,,,,,,,,,,,,,,0,3,3,3,,,,,,,,,,,,,,,,,,,,,,,,,,,,,,,,,,,,,,,,,,,,,,,,,,,,,,,,,,,,,,,,,,,,,,,,,1.1728395173947017,1.0347772000095574,353.3404128999973,None,ScrollDown,정답입니다,353.3404128999973,None,353.3404128999973,None,353.3404128999973,None,353.3404128999973,None,354.23914000000514,None,354.23914000000514,354.7461903000076,,,,,,,,,,,,,,,,210,2022-05-04_16h42.11.297,FishGame,2022.1.1,59.952829112567514,
,5,넌 과묵해,3,Green,A,3.875,4.4,ScrollDown,ScrollUp,Green.png,3,Neutral,Neutral,,,,,0,0,0,0,,,,,,,,,,,,,,,,,,,,,0,4,4,4,,,,,,,,,,,,,,,,,,,,,,,,,,,,,,,,,,,,,,,,,,,,,,,,,,,,,,,,,,,,,,,,,,,,,,,,,1.0879629751046498,1.6215120999986539,355.4035548999964,None,ScrollDown,정답입니다,355.4035548999964,None,355.4035548999964,None,355.4035548999964,None,355.4035548999964,None,356.8897530000104,None,356.8897530000104,357.39608740000403,,,,,,,,,,,,,,,,210,2022-05-04_16h42.11.297,FishGame,2022.1.1,59.952829112567514,
,6,나를 데려가줘,6,Orange,B,0,0,ScrollDown,ScrollUp,Orange.png,3,NonTarget,NonTarget,,,,,0,0,0,0,,,,,,,,,,,,,,,,,,,,,0,5,5,5,,,,,,,,,,,,,,,,,,,,,,,,,,,,,,,,,,,,,,,,,,,,,,,,,,,,,,,,,,,,,,,,,,,,,,,,,1.1466049303611119,1.1346773999975994,358.0470662000007,None,ScrollDown,정답입니다,358.0470662000007,None,358.0470662000007,None,358.0470662000007,None,358.0470662000007,None,359.05579290000605,None,359.05579290000605,359.56219820000115,,,,,,,,,,,,,,,,210,2022-05-04_16h42.11.297,FishGame,2022.1.1,59.952829112567514,
,7,넌 미숙해,4,Orange,B,3,3,ScrollUp,ScrollDown,Orange.png,3,Negative,Congruent,,,,,0,0,0,0,,,,,,,,,,,,,,,,,,,,,0,6,6,6,,,,,,,,,,,,,,,,,,,,,,,,,,,,,,,,,,,,,,,,,,,,,,,,,,,,,,,,,,,,,,,,,,,,,,,,,1.858024686574936,1.015699700001278,360.214332500007,None,ScrollUp,정답입니다,360.214332500007,None,360.214332500007,None,360.214332500007,None,360.214332500007,None,361.10029100000975,None,361.10029100000975,361.6121531000099,,,,,,,,,,,,,,,,210,2022-05-04_16h42.11.297,FishGame,2022.1.1,59.952829112567514,
,8,나를 보내줘,6,Green,A,0,0,ScrollUp,ScrollDown,Green.png,3,NonTarget,NonTarget,,,,,0,0,0,0,,,,,,,,,,,,,,,,,,,,,0,7,7,7,,,,,,,,,,,,,,,,,,,,,,,,,,,,,,,,,,,,,,,,,,,,,,,,,,,,,,,,,,,,,,,,,,,,,,,,,1.9753086467583973,1.1676628999994136,362.2581397000031,None,ScrollUp,정답입니다,362.2581397000031,None,362.2581397000031,None,362.2581397000031,None,362.2581397000031,None,363.3033856999973,None,363.3033856999973,363.81173529999796,,,,,,,,,,,,,,,,210,2022-05-04_16h42.11.297,FishGame,2022.1.1,59.952829112567514,
,9,넌 자신만만해,3,Orange,B,4.833333333333334,4.333333333333333,ScrollUp,ScrollDown,Orange.png,3,Neutral,Neutral,,,,,0,0,0,0,,,,,,,,,,,,,,,,,,,,,0,8,8,8,,,,,,,,,,,,,,,,,,,,,,,,,,,,,,,,,,,,,,,,,,,,,,,,,,,,,,,,,,,,,,,,,,,,,,,,,1.859567900498708,0.9592572000110522,364.4699385999993,None,ScrollUp,정답입니다,364.4699385999993,None,364.4699385999993,None,364.4699385999993,None,364.4699385999993,None,365.2959775000054,None,365.2959775000054,365.8113718000095,,,,,,,,,,,,,,,,210,2022-05-04_16h42.11.297,FishGame,2022.1.1,59.952829112567514,
,10,넌 탐욕스러워,5,Green,A,2.25,2.1,ScrollDown,ScrollUp,Green.png,3,Negative,Incongruent,,,,,0,0,0,0,,,,,,,,,,,,,,,,,,,,,0,9,9,9,,,,,,,,,,,,,,,,,,,,,,,,,,,,,,,,,,,,,,,,,,,,,,,,,,,,,,,,,,,,,,,,,,,,,,,,,1.3749999950329461,0.8709303000068758,366.4730336000066,None,ScrollDown,정답입니다,366.4730336000066,None,366.4730336000066,None,366.4730336000066,None,366.4730336000066,None,367.2037696000043,None,367.2037696000043,367.71121760000824,,,,,,,,,,,,,,,,210,2022-05-04_16h42.11.297,FishGame,2022.1.1,59.952829112567514,
,11,넌 인기있어,2,Green,A,5.458333333333333,4.5,ScrollDown,ScrollUp,Green.png,3,Positive,Congruent,,,,,0,0,0,0,,,,,,,,,,,,,,,,,,,,,0,10,10,10,,,,,,,,,,,,,,,,,,,,,,,,,,,,,,,,,,,,,,,,,,,,,,,,,,,,,,,,,,,,,,,,,,,,,,,,,1.2314814726511638,0.8949647999979788,368.35709710000083,None,ScrollDown,정답입니다,368.35709710000083,None,368.35709710000083,None,368.35709710000083,None,368.35709710000083,None,369.1278212000034,None,369.1278212000034,369.6276582999999,,,,,,,,,,,,,,,,210,2022-05-04_16h42.11.297,FishGame,2022.1.1,59.952829112567514,
,12,나를 데려가줘,6,Orange,B,0,0,ScrollDown,ScrollUp,Orange.png,3,NonTarget,NonTarget,,,,,0,0,0,0,,,,,,,,,,,,,,,,,,,,,0,11,11,11,,,,,,,,,,,,,,,,,,,,,,,,,,,,,,,,,,,,,,,,,,,,,,,,,,,,,,,,,,,,,,,,,,,,,,,,,1.2515432039896646,0.9945885999914026,370.2814284000051,None,ScrollDown,정답입니다,370.2814284000051,None,370.2814284000051,None,370.2814284000051,None,370.2814284000051,None,371.14755150000565,None,371.14755150000565,371.66065830001025,,,,,,,,,,,,,,,,210,2022-05-04_16h42.11.297,FishGame,2022.1.1,59.952829112567514,
,13,넌 뛰어나,2,Orange,B,6.166666666666667,4,ScrollUp,ScrollDown,Orange.png,3,Positive,Incongruent,,,,,0,0,0,0,,,,,,,,,,,,,,,,,,,,,0,12,12,12,,,,,,,,,,,,,,,,,,,,,,,,,,,,,,,,,,,,,,,,,,,,,,,,,,,,,,,,,,,,,,,,,,,,,,,,,1.5802469129363694,0.9373686000035377,372.32448779999686,None,ScrollUp,정답입니다,372.32448779999686,None,372.32448779999686,None,372.32448779999686,None,372.32448779999686,None,373.12073750000854,None,373.12073750000854,373.62716080000973,,,,,,,,,,,,,,,,210,2022-05-04_16h42.11.297,FishGame,2022.1.1,59.952829112567514,
,14,넌 낙관적이야,1,Green,A,5.75,5.8,ScrollDown,ScrollUp,Green.png,3,Positive,Congruent,,,,,0,0,0,0,,,,,,,,,,,,,,,,,,,,,0,13,13,13,,,,,,,,,,,,,,,,,,,,,,,,,,,,,,,,,,,,,,,,,,,,,,,,,,,,,,,,,,,,,,,,,,,,,,,,,1.3317901293436685,0.8115014999930281,374.28020600001037,None,ScrollDown,정답입니다,374.28020600001037,None,374.28020600001037,None,374.28020600001037,None,374.28020600001037,None,374.9609003000078,None,374.9609003000078,375.4602032999974,,,,,,,,,,,,,,,,210,2022-05-04_16h42.11.297,FishGame,2022.1.1,59.952829112567514,
,15,넌 산만해,4,Orange,B,2.695652173913043,3.033333333333333,ScrollUp,ScrollDown,Orange.png,3,Negative,Congruent,,,,,0,0,0,0,,,,,,,,,,,,,,,,,,,,,0,14,14,14,,,,,,,,,,,,,,,,,,,,,,,,,,,,,,,,,,,,,,,,,,,,,,,,,,,,,,,,,,,,,,,,,,,,,,,,,1.5771604912976422,1.6097544000076596,376.1217375999986,None,ScrollUp,정답입니다,376.1217375999986,None,376.1217375999986,None,376.1217375999986,None,376.1217375999986,None,377.59325800000806,None,377.59325800000806,378.09327009999834,,,,,,,,,,,,,,,,210,2022-05-04_16h42.11.297,FishGame,2022.1.1,59.952829112567514,
,16,나를 보내줘,6,Green,A,0,0,ScrollUp,ScrollDown,Green.png,3,NonTarget,NonTarget,,,,,0,0,0,0,,,,,,,,,,,,,,,,,,,,,0,15,15,15,,,,,,,,,,,,,,,,,,,,,,,,,,,,,,,,,,,,,,,,,,,,,,,,,,,,,,,,,,,,,,,,,,,,,,,,,1.67746914178133,1.0267389000073308,378.7418028999964,None,ScrollUp,정답입니다,378.7418028999964,None,378.7418028999964,None,378.7418028999964,None,378.7418028999964,None,379.6431694000057,None,379.6431694000057,380.1429047999991,,,,,,,,,,,,,,,,210,2022-05-04_16h42.11.297,FishGame,2022.1.1,59.952829112567514,
,17,넌 교활해,5,Orange,B,2.333333333333333,2.133333333333333,ScrollUp,ScrollDown,Orange.png,3,Negative,Congruent,,,,,0,0,0,0,,,,,,,,,,,,,,,,,,,,,0,16,16,16,,,,,,,,,,,,,,,,,,,,,,,,,,,,,,,,,,,,,,,,,,,,,,,,,,,,,,,,,,,,,,,,,,,,,,,,,1.7561728407939274,0.9442811000044458,380.80248660000507,None,ScrollUp,정답입니다,380.80248660000507,None,380.80248660000507,None,380.80248660000507,None,380.80248660000507,None,381.6131999000063,None,381.6131999000063,382.126110600002,,,,,,,,,,,,,,,,210,2022-05-04_16h42.11.297,FishGame,2022.1.1,59.952829112567514,
,18,나를 보내줘,6,Green,A,0,0,ScrollUp,ScrollDown,Green.png,3,NonTarget,NonTarget,,,,,0,0,0,0,,,,,,,,,,,,,,,,,,,,,0,17,17,17,,,,,,,,,,,,,,,,,,,,,,,,,,,,,,,,,,,,,,,,,,,,,,,,,,,,,,,,,,,,,,,,,,,,,,,,,1.6898148159186044,1.0106251999968663,382.7748510000092,None,ScrollUp,정답입니다,382.7748510000092,None,382.7748510000092,None,382.7748510000092,None,382.7748510000092,None,383.65527499999735,None,383.65527499999735,384.1591047999973,,,,,,,,,,,,,,,,210,2022-05-04_16h42.11.297,FishGame,2022.1.1,59.952829112567514,
,19,넌 불친절해,5,Orange,B,2.208333333333333,2.033333333333333,ScrollUp,ScrollDown,Orange.png,3,Negative,Congruent,,,,,0,0,0,0,,,,,,,,,,,,,,,,,,,,,0,18,18,18,,,,,,,,,,,,,,,,,,,,,,,,,,,,,,,,,,,,,,,,,,,,,,,,,,,,,,,,,,,,,,,,,,,,,,,,,1.799382706483205,0.9326107999950182,384.81687989999773,None,ScrollUp,정답입니다,384.81687989999773,None,384.81687989999773,None,384.81687989999773,None,384.81687989999773,None,385.6153456000029,None,385.6153456000029,386.1253817000106,,,,,,,,,,,,,,,,210,2022-05-04_16h42.11.297,FishGame,2022.1.1,59.952829112567514,
,20,넌 지적이야,2,Orange,B,5.75,4.366666666666666,ScrollUp,ScrollDown,Orange.png,3,Positive,Incongruent,,,,,0,0,0,0,,,,,,,,,,,,,,,,,,,,,0,19,19,19,,,,,,,,,,,,,,,,,,,,,,,,,,,,,,,,,,,,,,,,,,,,,,,,,,,,,,,,,,,,,,,,,,,,,,,,,1.8117283930381138,1.1021448999963468,386.77810140000656,None,ScrollUp,정답입니다,386.77810140000656,None,386.77810140000656,None,386.77810140000656,None,386.77810140000656,None,387.75006730000314,None,387.75006730000314,388.25857550000364,,,,,,,,,,,,,,,,210,2022-05-04_16h42.11.297,FishGame,2022.1.1,59.952829112567514,
,21,넌 우유부단해,4,Green,A,2.666666666666667,3.166666666666667,ScrollDown,ScrollUp,Green.png,3,Negative,Incongruent,,,,,0,0,0,0,,,,,,,,,,,,,,,,,,,,,0,20,20,20,,,,,,,,,,,,,,,,,,,,,,,,,,,,,,,,,,,,,,,,,,,,,,,,,,,,,,,,,,,,,,,,,,,,,,,,,1.9120370248953502,1.0808958999987226,388.9165973000054,None,ScrollUp,오답입니다,388.9165973000054,None,388.9165973000054,None,388.9165973000054,None,388.9165973000054,None,389.8638329000096,None,389.8638329000096,390.37488190000295,,,,,,,,,,,,,,,,210,2022-05-04_16h42.11.297,FishGame,2022.1.1,59.952829112567514,
,22,나를 데려가줘,6,Orange,B,0,0,ScrollDown,ScrollUp,Orange.png,3,NonTarget,NonTarget,,,,,0,0,0,0,,,,,,,,,,,,,,,,,,,,,0,21,21,21,,,,,,,,,,,,,,,,,,,,,,,,,,,,,,,,,,,,,,,,,,,,,,,,,,,,,,,,,,,,,,,,,,,,,,,,,1,1.2281626000039978,391.02906390000135,None,ScrollDown,정답입니다,391.02906390000135,None,391.02906390000135,None,391.02906390000135,None,391.02906390000135,None,392.12774110000464,None,392.12774110000464,392.64138000000094,,,,,,,,,,,,,,,,210,2022-05-04_16h42.11.297,FishGame,2022.1.1,59.952829112567514,
,23,넌 성실해,1,Orange,B,6.041666666666666,5.7,ScrollUp,ScrollDown,Orange.png,3,Positive,Incongruent,,,,,0,0,0,0,,,,,,,,,,,,,,,,,,,,,0,22,22,22,,,,,,,,,,,,,,,,,,,,,,,,,,,,,,,,,,,,,,,,,,,,,,,,,,,,,,,,,,,,,,,,,,,,,,,,,1.7623456716537476,0.9954317999945488,393.2966779999988,None,ScrollUp,정답입니다,393.2966779999988,None,393.2966779999988,None,393.2966779999988,None,393.2966779999988,None,394.1605228999979,None,394.1605228999979,394.67447510000784,,,,,,,,,,,,,,,,210,2022-05-04_16h42.11.297,FishGame,2022.1.1,59.952829112567514,
,24,넌 현실주의적이야,3,Green,A,4.625,4.4,ScrollDown,ScrollUp,Green.png,3,Neutral,Neutral,,,,,0,0,0,0,,,,,,,,,,,,,,,,,,,,,0,23,23,23,,,,,,,,,,,,,,,,,,,,,,,,,,,,,,,,,,,,,,,,,,,,,,,,,,,,,,,,,,,,,,,,,,,,,,,,,1.2237654278675716,1.1771204999968177,395.32452350000676,None,ScrollDown,정답입니다,395.32452350000676,None,395.32452350000676,None,395.32452350000676,None,395.32452350000676,None,396.3704470000084,None,396.3704470000084,396.8741602000082,,,,,,,,,,,,,,,,210,2022-05-04_16h42.11.297,FishGame,2022.1.1,59.952829112567514,
,25,넌 진실돼,1,Green,A,6.625,5.566666666666666,ScrollDown,ScrollUp,Green.png,3,Positive,Congruent,,,,,0,0,0,0,,,,,,,,,,,,,,,,,,,,,0,24,24,24,,,,,,,,,,,,,,,,,,,,,,,,,,,,,,,,,,,,,,,,,,,,,,,,,,,,,,,,,,,,,,,,,,,,,,,,,1.1774691343307495,1.1984840000077384,397.52789130000747,None,ScrollDown,정답입니다,397.52789130000747,None,397.52789130000747,None,397.52789130000747,None,397.52789130000747,None,398.5956511999975,None,398.5956511999975,399.1072453000088,,,,,,,,,,,,,,,,210,2022-05-04_16h42.11.297,FishGame,2022.1.1,59.952829112567514,
,26,넌 천진난만해,3,Orange,B,4.958333333333334,4.833333333333333,ScrollUp,ScrollDown,Orange.png,3,Neutral,Neutral,,,,,0,0,0,0,,,,,,,,,,,,,,,,,,,,,0,25,25,25,,,,,,,,,,,,,,,,,,,,,,,,,,,,,,,,,,,,,,,,,,,,,,,,,,,,,,,,,,,,,,,,,,,,,,,,,1.8626543283462524,1.1005817999975989,399.77184830000624,None,ScrollUp,정답입니다,399.77184830000624,None,399.77184830000624,None,399.77184830000624,None,399.77184830000624,None,400.7313284999982,None,400.7313284999982,401.2402356000093,,,,,,,,,,,,,,,,210,2022-05-04_16h42.11.297,FishGame,2022.1.1,59.952829112567514,
,27,넌 교양없어,5,Green,A,2.416666666666667,2.2,ScrollDown,ScrollUp,Green.png,3,Negative,Incongruent,,,,,0,0,0,0,,,,,,,,,,,,,,,,,,,,,0,26,26,26,,,,,,,,,,,,,,,,,,,,,,,,,,,,,,,,,,,,,,,,,,,,,,,,,,,,,,,,,,,,,,,,,,,,,,,,,1.276234577099482,1.028576199998497,401.89169960000436,None,ScrollDown,정답입니다,401.89169960000436,None,401.89169960000436,None,401.89169960000436,None,401.89169960000436,None,402.7909762000054,None,402.7909762000054,403.3067158000049,,,,,,,,,,,,,,,,210,2022-05-04_16h42.11.297,FishGame,2022.1.1,59.952829112567514,
,28,나를 보내줘,6,Green,A,0,0,ScrollUp,ScrollDown,Green.png,3,NonTarget,NonTarget,,,,,0,0,0,0,,,,,,,,,,,,,,,,,,,,,0,27,27,27,,,,,,,,,,,,,,,,,,,,,,,,,,,,,,,,,,,,,,,,,,,,,,,,,,,,,,,,,,,,,,,,,,,,,,,,,1.8626543283462524,1.1761911999928998,403.9542996000091,None,ScrollUp,정답입니다,403.9542996000091,None,403.9542996000091,None,403.9542996000091,None,403.9542996000091,None,405.00633350000135,None,405.00633350000135,405.5063863999967,,,,,,,,,,,,,,,,210,2022-05-04_16h42.11.297,FishGame,2022.1.1,59.952829112567514,
,29,넌 엉뚱스러워,3,Green,A,4.166666666666667,4.133333333333334,ScrollDown,ScrollUp,Green.png,3,Neutral,Neutral,,,,,0,0,0,0,,,,,,,,,,,,,,,,,,,,,0,28,28,28,,,,,,,,,,,,,,,,,,,,,,,,,,,,,,,,,,,,,,,,,,,,,,,,,,,,,,,,,,,,,,,,,,,,,,,,,1.0154321193695068,1.2004354999953648,406.16337690000364,None,ScrollDown,정답입니다,406.16337690000364,None,406.16337690000364,None,406.16337690000364,None,406.16337690000364,None,407.2294969000068,None,407.2294969000068,407.7393122000067,,,,,,,,,,,,,,,,210,2022-05-04_16h42.11.297,FishGame,2022.1.1,59.952829112567514,
,30,넌 무지해,4,Orange,B,2.541666666666667,3.066666666666667,ScrollUp,ScrollDown,Orange.png,3,Negative,Congruent,,,,,0,0,0,0,,,,,,,,,,,,,,,,,,,,,0,29,29,29,,,,,,,,,,,,,,,,,,,,,,,,,,,,,,,,,,,,,,,,,,,,,,,,,,,,,,,,,,,,,,,,,,,,,,,,,1.9506172736485798,1.0962600000057137,408.3942129000061,None,ScrollUp,정답입니다,408.3942129000061,None,408.3942129000061,None,408.3942129000061,None,408.3942129000061,None,409.36140000000887,None,409.36140000000887,409.87250080000376,,,,,,,,,,,,,,,,210,2022-05-04_16h42.11.297,FishGame,2022.1.1,59.952829112567514,
,31,넌 음울해,5,Orange,B,2.25,2.233333333333333,ScrollUp,ScrollDown,Orange.png,3,Negative,Congruent,,,,,0,0,0,0,,,,,,,,,,,,,,,,,,,,,0,30,30,30,,,,,,,,,,,,,,,,,,,,,,,,,,,,,,,,,,,,,,,,,,,,,,,,,,,,,,,,,,,,,,,,,,,,,,,,,1.7361111094554267,1.1992135999898892,410.5397768999974,None,ScrollUp,정답입니다,410.5397768999974,None,410.5397768999974,None,410.5397768999974,None,410.5397768999974,None,411.59451049999916,None,411.59451049999916,412.10544590000063,,,,,,,,,,,,,,,,210,2022-05-04_16h42.11.297,FishGame,2022.1.1,59.952829112567514,
,32,넌 냉소적이야,5,Green,A,2.916666666666667,2.4,ScrollDown,ScrollUp,Green.png,3,Negative,Incongruent,,,,,0,0,0,0,,,,,,,,,,,,,,,,,,,,,0,31,31,31,,,,,,,,,,,,,,,,,,,,,,,,,,,,,,,,,,,,,,,,,,,,,,,,,,,,,,,,,,,,,,,,,,,,,,,,,1.1296296268701553,0.9958655999944312,412.75094929999614,None,ScrollDown,정답입니다,412.75094929999614,None,412.75094929999614,None,412.75094929999614,None,412.75094929999614,None,413.6236998000095,None,413.6236998000095,414.1385685999994,,,,,,,,,,,,,,,,210,2022-05-04_16h42.11.297,FishGame,2022.1.1,59.952829112567514,
,33,나를 데려가줘,6,Orange,B,0,0,ScrollDown,ScrollUp,Orange.png,3,NonTarget,NonTarget,,,,,0,0,0,0,,,,,,,,,,,,,,,,,,,,,0,32,32,32,,,,,,,,,,,,,,,,,,,,,,,,,,,,,,,,,,,,,,,,,,,,,,,,,,,,,,,,,,,,,,,,,,,,,,,,,1.0540123681227367,1.0104842000000644,414.791043899997,None,ScrollDown,정답입니다,414.791043899997,None,414.791043899997,None,414.791043899997,None,414.791043899997,None,415.6718273000006,None,415.6718273000006,416.17170610000903,,,,,,,,,,,,,,,,210,2022-05-04_16h42.11.297,FishGame,2022.1.1,59.952829112567514,
,34,넌 쾌활해,1,Green,A,5.541666666666666,5.733333333333333,ScrollDown,ScrollUp,Green.png,3,Positive,Congruent,,,,,0,0,0,0,,,,,,,,,,,,,,,,,,,,,0,33,33,33,,,,,,,,,,,,,,,,,,,,,,,,,,,,,,,,,,,,,,,,,,,,,,,,,,,,,,,,,,,,,,,,,,,,,,,,,1.1327160547176998,1.0020008999999845,416.82822860000306,None,ScrollDown,정답입니다,416.82822860000306,None,416.82822860000306,None,416.82822860000306,None,416.82822860000306,None,417.6969792000018,None,417.6969792000018,418.2048821000062,,,,,,,,,,,,,,,,210,2022-05-04_16h42.11.297,FishGame,2022.1.1,59.952829112567514,
,35,나를 보내줘,6,Green,A,0,0,ScrollUp,ScrollDown,Green.png,3,NonTarget,NonTarget,,,,,0,0,0,0,,,,,,,,,,,,,,,,,,,,,0,34,34,34,,,,,,,,,,,,,,,,,,,,,,,,,,,,,,,,,,,,,,,,,,,,,,,,,,,,,,,,,,,,,,,,,,,,,,,,,1.8688271592060726,1.2105969000112964,418.8750980000041,None,ScrollUp,정답입니다,418.8750980000041,None,418.8750980000041,None,418.8750980000041,None,418.8750980000041,None,419.93804660000023,None,419.93804660000023,420.43777350000164,,,,,,,,,,,,,,,,210,2022-05-04_16h42.11.297,FishGame,2022.1.1,59.952829112567514,
,36,넌 명랑해,1,Orange,B,5.739130434782609,5.666666666666667,ScrollUp,ScrollDown,Orange.png,3,Positive,Incongruent,,,,,0,0,0,0,,,,,,,,,,,,,,,,,,,,,0,35,35,35,,,,,,,,,,,,,,,,,,,,,,,,,,,,,,,,,,,,,,,,,,,,,,,,,,,,,,,,,,,,,,,,,,,,,,,,,1.5385802456488213,0.9604333000024781,421.09403710000333,None,NoResponse,무응답입니다,421.09403710000333,None,421.09403710000333,None,421.09403710000333,None,421.09403710000333,None,421.9220243000018,None,421.9220243000018,422.4374467000016,,,,,,,,,,,,,,,,210,2022-05-04_16h42.11.297,FishGame,2022.1.1,59.952829112567514,
,37,넌 멍해,4,Green,A,2.833333333333333,3.4,ScrollDown,ScrollUp,Green.png,3,Negative,Incongruent,,,,,0,0,0,0,,,,,,,,,,,,,,,,,,,,,0,36,36,36,,,,,,,,,,,,,,,,,,,,,,,,,,,,,,,,,,,,,,,,,,,,,,,,,,,,,,,,,,,,,,,,,,,,,,,,,1.296296296020349,1.1271534000115935,423.0919778000098,None,ScrollDown,정답입니다,423.0919778000098,None,423.0919778000098,None,423.0919778000098,None,423.0919778000098,None,424.0879765999998,None,424.0879765999998,424.5873258000065,,,,,,,,,,,,,,,,210,2022-05-04_16h42.11.297,FishGame,2022.1.1,59.952829112567514,
,38,나를 데려가줘,6,Orange,B,0,0,ScrollDown,ScrollUp,Orange.png,3,NonTarget,NonTarget,,,,,0,0,0,0,,,,,,,,,,,,,,,,,,,,,0,37,37,37,,,,,,,,,,,,,,,,,,,,,,,,,,,,,,,,,,,,,,,,,,,,,,,,,,,,,,,,,,,,,,,,,,,,,,,,,1.2052469104528427,1.1028143000003183,425.2417443000013,None,ScrollDown,정답입니다,425.2417443000013,None,425.2417443000013,None,425.2417443000013,None,425.2417443000013,None,426.2142339999991,None,426.2142339999991,426.72025530000974,,,,,,,,,,,,,,,,210,2022-05-04_16h42.11.297,FishGame,2022.1.1,59.952829112567514,
,39,넌 현명해,2,Green,A,6.541666666666666,4.533333333333333,ScrollDown,ScrollUp,Green.png,3,Positive,Congruent,,,,,0,0,0,0,,,,,,,,,,,,,,,,,,,,,0,38,38,38,,,,,,,,,,,,,,,,,,,,,,,,,,,,,,,,,,,,,,,,,,,,,,,,,,,,,,,,,,,,,,,,,,,,,,,,,1.2283950696388881,0.961584300006507,427.3753493999975,None,ScrollDown,정답입니다,427.3753493999975,None,427.3753493999975,None,427.3753493999975,None,427.3753493999975,None,428.2047401000018,None,428.2047401000018,428.72001530000125,,,,,,,,,,,,,,,,210,2022-05-04_16h42.11.297,FishGame,2022.1.1,59.952829112567514,
,40,넌 수줍어,3,Orange,B,3.541666666666666,4.366666666666666,ScrollUp,ScrollDown,Orange.png,3,Neutral,Neutral,,,,,0,0,0,0,,,,,,,,,,,,,,,,,,,,,0,39,39,39,,,,,,,,,,,,,,,,,,,,,,,,,,,,,,,,,,,,,,,,,,,,,,,,,,,,,,,,,,,,,,,,,,,,,,,,,1.663580241302649,1.16725129999395,429.38084589999926,None,ScrollUp,정답입니다,429.38084589999926,None,429.38084589999926,None,429.38084589999926,None,429.38084589999926,None,430.410546900006,None,430.410546900006,430.91975290000846,,,,,,,,,,,,,,,,210,2022-05-04_16h42.11.297,FishGame,2022.1.1,59.952829112567514,
,41,나를 데려가줘,6,Orange,B,0,0,ScrollDown,ScrollUp,Orange.png,3,NonTarget,NonTarget,,,,,0,0,0,0,,,,,,,,,,,,,,,,,,,,,0,40,40,40,,,,,,,,,,,,,,,,,,,,,,,,,,,,,,,,,,,,,,,,,,,,,,,,,,,,,,,,,,,,,,,,,,,,,,,,,1.1774691343307495,1.1668904999969527,431.5725044999999,None,ScrollDown,정답입니다,431.5725044999999,None,431.5725044999999,None,431.5725044999999,None,431.5725044999999,None,432.6094032999972,None,432.6094032999972,433.11945900000865,,,,,,,,,,,,,,,,210,2022-05-04_16h42.11.297,FishGame,2022.1.1,59.952829112567514,
,42,넌 성숙해,2,Orange,B,5.833333333333333,4.533333333333333,ScrollUp,ScrollDown,Orange.png,3,Positive,Incongruent,,,,,0,0,0,0,,,,,,,,,,,,,,,,,,,,,0,41,41,41,,,,,,,,,,,,,,,,,,,,,,,,,,,,,,,,,,,,,,,,,,,,,,,,,,,,,,,,,,,,,,,,,,,,,,,,,1.7361111094554267,1.0429882999887923,433.77563440000813,None,ScrollUp,정답입니다,433.77563440000813,None,433.77563440000813,None,433.77563440000813,None,433.77563440000813,None,434.6822267000098,None,434.6822267000098,435.1858632000076,,,,,,,,,,,,,,,,210,2022-05-04_16h42.11.297,FishGame,2022.1.1,59.952829112567514,
,1,넌 매력적이야,2,Orange,B,6.125,4.666666666666667,ScrollUp,ScrollDown,Orange.png,4,Positive,Incongruent,,,,,0,0,0,0,,,,,,,,,,,,,,,,,,,,,,,,,0,0,0,0,,,,,,,,,,,,,,,,,,,,,,,,,,,,467.2819133000012,468.7816729000042,468.81498969999666,469.7647369000042,469.81480900000315,470.7647894999973,470.7647894999973,None,,,,,,,,,,,,,,,,,,,,,,,,,,,,,,,,,,2,1.4427430000068853,471.9475239000021,None,ScrollUp,정답입니다,471.9475239000021,None,471.9475239000021,None,471.9475239000021,None,471.9475239000021,None,473.2060955000052,None,473.2060955000052,473.7142598000064,435.68585449999955,None,435.68585449999955,None,-0.21111111,-0.11388889,1,0,0,0.016188869980396703,None,465.69869240000844,None,,,210,2022-05-04_16h42.11.297,FishGame,2022.1.1,59.952829112567514,
,2,나를 보내줘,6,Green,A,0,0,ScrollUp,ScrollDown,Green.png,4,NonTarget,NonTarget,,,,,0,0,0,0,,,,,,,,,,,,,,,,,,,,,,,,,0,1,1,1,,,,,,,,,,,,,,,,,,,,,,,,,,,,,,,,,,,,,,,,,,,,,,,,,,,,,,,,,,,,,,,,,,,,,1.703703703979651,0.969364200005657,474.3606352000061,None,ScrollUp,정답입니다,474.3606352000061,None,474.3606352000061,None,474.3606352000061,None,474.3606352000061,None,475.2070088000037,None,475.2070088000037,475.71402900000976,,,,,,,,,,,,,,,,210,2022-05-04_16h42.11.297,FishGame,2022.1.1,59.952829112567514,
,3,넌 조심스러워,3,Green,A,4.791666666666666,4.666666666666667,ScrollDown,ScrollUp,Green.png,4,Neutral,Neutral,,,,,0,0,0,0,,,,,,,,,,,,,,,,,,,,,,,,,0,2,2,2,,,,,,,,,,,,,,,,,,,,,,,,,,,,,,,,,,,,,,,,,,,,,,,,,,,,,,,,,,,,,,,,,,,,,1,0.9995078000065405,476.36800550000044,None,ScrollDown,정답입니다,476.36800550000044,None,476.36800550000044,None,476.36800550000044,None,476.36800550000044,None,477.237449799999,None,477.237449799999,477.7471402000083,,,,,,,,,,,,,,,,210,2022-05-04_16h42.11.297,FishGame,2022.1.1,59.952829112567514,
,4,넌 철학적이야,3,Orange,B,4.5,4.266666666666667,ScrollUp,ScrollDown,Orange.png,4,Neutral,Neutral,,,,,0,0,0,0,,,,,,,,,,,,,,,,,,,,,,,,,0,3,3,3,,,,,,,,,,,,,,,,,,,,,,,,,,,,,,,,,,,,,,,,,,,,,,,,,,,,,,,,,,,,,,,,,,,,,1.817901223897934,0.7850189000018872,478.40596840000944,None,ScrollUp,정답입니다,478.40596840000944,None,478.40596840000944,None,478.40596840000944,None,478.40596840000944,None,479.05535280000186,None,479.05535280000186,479.56351469999936,,,,,,,,,,,,,,,,210,2022-05-04_16h42.11.297,FishGame,2022.1.1,59.952829112567514,
,5,넌 쩨쩨해,5,Green,A,2.375,2.133333333333333,ScrollDown,ScrollUp,Green.png,4,Negative,Incongruent,,,,,0,0,0,0,,,,,,,,,,,,,,,,,,,,,,,,,0,4,4,4,,,,,,,,,,,,,,,,,,,,,,,,,,,,,,,,,,,,,,,,,,,,,,,,,,,,,,,,,,,,,,,,,,,,,1.1728395173947017,1.1226737000106368,480.2184585000068,None,ScrollDown,정답입니다,480.2184585000068,None,480.2184585000068,None,480.2184585000068,None,480.2184585000068,None,481.20739740000863,None,481.20739740000863,481.7132818999962,,,,,,,,,,,,,,,,210,2022-05-04_16h42.11.297,FishGame,2022.1.1,59.952829112567514,
,6,나를 데려가줘,6,Orange,B,0,0,ScrollDown,ScrollUp,Orange.png,4,NonTarget,NonTarget,,,,,0,0,0,0,,,,,,,,,,,,,,,,,,,,,,,,,0,5,5,5,,,,,,,,,,,,,,,,,,,,,,,,,,,,,,,,,,,,,,,,,,,,,,,,,,,,,,,,,,,,,,,,,,,,,1.233024686574936,1.3278177000029245,482.3701756000082,None,ScrollDown,정답입니다,482.3701756000082,None,482.3701756000082,None,482.3701756000082,None,482.3701756000082,None,483.5597589000099,None,483.5597589000099,484.0630589000066,,,,,,,,,,,,,,,,210,2022-05-04_16h42.11.297,FishGame,2022.1.1,59.952829112567514,
,7,넌 고집불통이야,5,Orange,B,2.875,2,ScrollUp,ScrollDown,Orange.png,4,Negative,Congruent,,,,,0,0,0,0,,,,,,,,,,,,,,,,,,,,,,,,,0,6,6,6,,,,,,,,,,,,,,,,,,,,,,,,,,,,,,,,,,,,,,,,,,,,,,,,,,,,,,,,,,,,,,,,,,,,,1.939814825852712,0.9372678000072483,484.7393110999983,None,ScrollUp,정답입니다,484.7393110999983,None,484.7393110999983,None,484.7393110999983,None,484.7393110999983,None,485.529411800002,None,485.529411800002,486.02938940000604,,,,,,,,,,,,,,,,210,2022-05-04_16h42.11.297,FishGame,2022.1.1,59.952829112567514,
,8,넌 무심해,4,Green,A,2.875,3.2,ScrollDown,ScrollUp,Green.png,4,Negative,Incongruent,,,,,0,0,0,0,,,,,,,,,,,,,,,,,,,,,,,,,0,7,7,7,,,,,,,,,,,,,,,,,,,,,,,,,,,,,,,,,,,,,,,,,,,,,,,,,,,,,,,,,,,,,,,,,,,,,1.0694444576899211,0.9092300999909639,486.6808793000091,None,ScrollDown,정답입니다,486.6808793000091,None,486.6808793000091,None,486.6808793000091,None,486.6808793000091,None,487.46277830000327,None,487.46277830000327,487.9625034000055,,,,,,,,,,,,,,,,210,2022-05-04_16h42.11.297,FishGame,2022.1.1,59.952829112567514,
,9,넌 정겨워,1,Green,A,5.791666666666667,5.666666666666667,ScrollDown,ScrollUp,Green.png,4,Positive,Congruent,,,,,0,0,0,0,,,,,,,,,,,,,,,,,,,,,,,,,0,8,8,8,,,,,,,,,,,,,,,,,,,,,,,,,,,,,,,,,,,,,,,,,,,,,,,,,,,,,,,,,,,,,,,,,,,,,1.0385802288850148,0.9369905999919865,488.6161779999966,None,ScrollDown,정답입니다,488.6161779999966,None,488.6161779999966,None,488.6161779999966,None,488.6161779999966,None,489.42245179999736,None,489.42245179999736,489.92891149999923,,,,,,,,,,,,,,,,210,2022-05-04_16h42.11.297,FishGame,2022.1.1,59.952829112567514,
,10,나를 데려가줘,6,Orange,B,0,0,ScrollDown,ScrollUp,Orange.png,4,NonTarget,NonTarget,,,,,0,0,0,0,,,,,,,,,,,,,,,,,,,,,,,,,0,9,9,9,,,,,,,,,,,,,,,,,,,,,,,,,,,,,,,,,,,,,,,,,,,,,,,,,,,,,,,,,,,,,,,,,,,,,1.0123456915219624,0.960257200000342,490.58273290000216,None,ScrollDown,정답입니다,490.58273290000216,None,490.58273290000216,None,490.58273290000216,None,490.58273290000216,None,491.4121654000046,None,491.4121654000046,491.9118986000103,,,,,,,,,,,,,,,,210,2022-05-04_16h42.11.297,FishGame,2022.1.1,59.952829112567514,
,11,넌 체제순응적이야,4,Orange,B,3,3.6,ScrollUp,ScrollDown,Orange.png,4,Negative,Congruent,,,,,0,0,0,0,,,,,,,,,,,,,,,,,,,,,,,,,0,10,10,10,,,,,,,,,,,,,,,,,,,,,,,,,,,,,,,,,,,,,,,,,,,,,,,,,,,,,,,,,,,,,,,,,,,,,1.8287036965290706,0.9513069999957224,492.5821042000025,None,ScrollUp,정답입니다,492.5821042000025,None,492.5821042000025,None,492.5821042000025,None,492.5821042000025,None,493.3858154000045,None,493.3858154000045,493.89501089999976,,,,,,,,,,,,,,,,210,2022-05-04_16h42.11.297,FishGame,2022.1.1,59.952829112567514,
,12,나를 보내줘,6,Green,A,0,0,ScrollUp,ScrollDown,Green.png,4,NonTarget,NonTarget,,,,,0,0,0,0,,,,,,,,,,,,,,,,,,,,,,,,,0,11,11,11,,,,,,,,,,,,,,,,,,,,,,,,,,,,,,,,,,,,,,,,,,,,,,,,,,,,,,,,,,,,,,,,,,,,,1.7978395173947017,1.0383060000021942,494.5419219000032,None,ScrollUp,정답입니다,494.5419219000032,None,494.5419219000032,None,494.5419219000032,None,494.5419219000032,None,495.45462420000695,None,495.45462420000695,495.96151680000185,,,,,,,,,,,,,,,,210,2022-05-04_16h42.11.297,FishGame,2022.1.1,59.952829112567514,
,13,넌 박식해,2,Green,A,5.625,3.933333333333333,ScrollDown,ScrollUp,Green.png,4,Positive,Congruent,,,,,0,0,0,0,,,,,,,,,,,,,,,,,,,,,,,,,0,12,12,12,,,,,,,,,,,,,,,,,,,,,,,,,,,,,,,,,,,,,,,,,,,,,,,,,,,,,,,,,,,,,,,,,,,,,1,0.9927801999874646,496.61659510000027,None,ScrollDown,정답입니다,496.61659510000027,None,496.61659510000027,None,496.61659510000027,None,496.61659510000027,None,497.477899400008,None,497.477899400008,497.97786470000574,,,,,,,,,,,,,,,,210,2022-05-04_16h42.11.297,FishGame,2022.1.1,59.952829112567514,
,14,나를 보내줘,6,Green,A,0,0,ScrollUp,ScrollDown,Green.png,4,NonTarget,NonTarget,,,,,0,0,0,0,,,,,,,,,,,,,,,,,,,,,,,,,0,13,13,13,,,,,,,,,,,,,,,,,,,,,,,,,,,,,,,,,,,,,,,,,,,,,,,,,,,,,,,,,,,,,,,,,,,,,1.8749999900658925,1.0000805000017863,498.62635109999974,None,ScrollUp,정답입니다,498.62635109999974,None,498.62635109999974,None,498.62635109999974,None,498.62635109999974,None,499.4997213000024,None,499.4997213000024,500.010875699998,,,,,,,,,,,,,,,,210,2022-05-04_16h42.11.297,FishGame,2022.1.1,59.952829112567514,
,15,넌 침착해,1,Orange,B,5.458333333333333,5.566666666666666,ScrollUp,ScrollDown,Orange.png,4,Positive,Incongruent,,,,,0,0,0,0,,,,,,,,,,,,,,,,,,,,,,,,,0,14,14,14,,,,,,,,,,,,,,,,,,,,,,,,,,,,,,,,,,,,,,,,,,,,,,,,,,,,,,,,,,,,,,,,,,,,,1.604938273628553,0.9780820999876596,500.67160400000284,None,ScrollUp,정답입니다,500.67160400000284,None,500.67160400000284,None,500.67160400000284,None,500.67160400000284,None,501.5130349999963,None,501.5130349999963,502.02732360000664,,,,,,,,,,,,,,,,210,2022-05-04_16h42.11.297,FishGame,2022.1.1,59.952829112567514,
,16,나를 데려가줘,6,Orange,B,0,0,ScrollDown,ScrollUp,Orange.png,4,NonTarget,NonTarget,,,,,0,0,0,0,,,,,,,,,,,,,,,,,,,,,,,,,0,15,15,15,,,,,,,,,,,,,,,,,,,,,,,,,,,,,,,,,,,,,,,,,,,,,,,,,,,,,,,,,,,,,,,,,,,,,1.0216049253940582,1.0826433000038378,502.6821064000105,None,ScrollDown,정답입니다,502.6821064000105,None,502.6821064000105,None,502.6821064000105,None,502.6821064000105,None,503.63242439999885,None,503.63242439999885,504.1438061000081,,,,,,,,,,,,,,,,210,2022-05-04_16h42.11.297,FishGame,2022.1.1,59.952829112567514,
,17,넌 행복해,1,Green,A,6.416666666666666,6.166666666666667,ScrollDown,ScrollUp,Green.png,4,Positive,Congruent,,,,,0,0,0,0,,,,,,,,,,,,,,,,,,,,,,,,,0,16,16,16,,,,,,,,,,,,,,,,,,,,,,,,,,,,,,,,,,,,,,,,,,,,,,,,,,,,,,,,,,,,,,,,,,,,,1,0.9197461000003386,504.7996525000053,None,ScrollDown,정답입니다,504.7996525000053,None,504.7996525000053,None,504.7996525000053,None,504.7996525000053,None,505.5872517000098,None,505.5872517000098,506.0934466000035,,,,,,,,,,,,,,,,210,2022-05-04_16h42.11.297,FishGame,2022.1.1,59.952829112567514,
,18,넌 겸손해,2,Orange,B,5.791666666666667,4.766666666666667,ScrollUp,ScrollDown,Orange.png,4,Positive,Incongruent,,,,,0,0,0,0,,,,,,,,,,,,,,,,,,,,,,,,,0,17,17,17,,,,,,,,,,,,,,,,,,,,,,,,,,,,,,,,,,,,,,,,,,,,,,,,,,,,,,,,,,,,,,,,,,,,,1.4429012338320415,1.383930700001656,506.75525560000096,None,ScrollDown,오답입니다,506.75525560000096,None,506.75525560000096,None,506.75525560000096,None,506.75525560000096,None,508.0036584000045,None,508.0036584000045,508.509879300007,,,,,,,,,,,,,,,,210,2022-05-04_16h42.11.297,FishGame,2022.1.1,59.952829112567514,
,19,나를 보내줘,6,Green,A,0,0,ScrollUp,ScrollDown,Green.png,4,NonTarget,NonTarget,,,,,0,0,0,0,,,,,,,,,,,,,,,,,,,,,,,,,0,18,18,18,,,,,,,,,,,,,,,,,,,,,,,,,,,,,,,,,,,,,,,,,,,,,,,,,,,,,,,,,,,,,,,,,,,,,1.5725308619439602,1.1870341000030749,509.1622086999996,None,ScrollUp,정답입니다,509.1622086999996,None,509.1622086999996,None,509.1622086999996,None,509.1622086999996,None,510.2205268999969,None,510.2205268999969,510.72633170000336,,,,,,,,,,,,,,,,210,2022-05-04_16h42.11.297,FishGame,2022.1.1,59.952829112567514,
,20,넌 의심없어,3,Green,A,4.166666666666667,4.6,ScrollDown,ScrollUp,Green.png,4,Neutral,Neutral,,,,,0,0,0,0,,,,,,,,,,,,,,,,,,,,,,,,,0,19,19,19,,,,,,,,,,,,,,,,,,,,,,,,,,,,,,,,,,,,,,,,,,,,,,,,,,,,,,,,,,,,,,,,,,,,,1.1882716069618862,1.1137037000007695,511.37102780000714,None,ScrollDown,정답입니다,511.37102780000714,None,511.37102780000714,None,511.37102780000714,None,511.37102780000714,None,512.3645324999961,None,512.3645324999961,512.8759445000032,,,,,,,,,,,,,,,,210,2022-05-04_16h42.11.297,FishGame,2022.1.1,59.952829112567514,
,21,넌 시시해,4,Green,A,2.666666666666667,2.966666666666667,ScrollDown,ScrollUp,Green.png,4,Negative,Incongruent,,,,,0,0,0,0,,,,,,,,,,,,,,,,,,,,,,,,,0,20,20,20,,,,,,,,,,,,,,,,,,,,,,,,,,,,,,,,,,,,,,,,,,,,,,,,,,,,,,,,,,,,,,,,,,,,,1.0509259402751923,0.8717394999985117,513.5409979000106,None,ScrollDown,정답입니다,513.5409979000106,None,513.5409979000106,None,513.5409979000106,None,513.5409979000106,None,514.2756376000034,None,514.2756376000034,514.7757457999978,,,,,,,,,,,,,,,,210,2022-05-04_16h42.11.297,FishGame,2022.1.1,59.952829112567514,
,22,나를 데려가줘,6,Orange,B,0,0,ScrollDown,ScrollUp,Orange.png,4,NonTarget,NonTarget,,,,,0,0,0,0,,,,,,,,,,,,,,,,,,,,,,,,,0,21,21,21,,,,,,,,,,,,,,,,,,,,,,,,,,,,,,,,,,,,,,,,,,,,,,,,,,,,,,,,,,,,,,,,,,,,,1,1.1855365000083111,515.4322265000083,None,ScrollDown,정답입니다,515.4322265000083,None,515.4322265000083,None,515.4322265000083,None,515.4322265000083,None,516.4854159000097,None,516.4854159000097,516.992076399998,,,,,,,,,,,,,,,,210,2022-05-04_16h42.11.297,FishGame,2022.1.1,59.952829112567514,
,23,넌 무정해,5,Green,A,2.5,2.2,ScrollDown,ScrollUp,Green.png,4,Negative,Incongruent,,,,,0,0,0,0,,,,,,,,,,,,,,,,,,,,,,,,,0,22,22,22,,,,,,,,,,,,,,,,,,,,,,,,,,,,,,,,,,,,,,,,,,,,,,,,,,,,,,,,,,,,,,,,,,,,,1.2716049353281655,1.0216439999931026,517.6418935999973,None,ScrollDown,정답입니다,517.6418935999973,None,517.6418935999973,None,517.6418935999973,None,517.6418935999973,None,518.5424634000083,None,518.5424634000083,519.041850499998,,,,,,,,,,,,,,,,210,2022-05-04_16h42.11.297,FishGame,2022.1.1,59.952829112567514,
,24,넌 긍정적이야,1,Orange,B,6.041666666666667,6.066666666666666,ScrollUp,ScrollDown,Orange.png,4,Positive,Incongruent,,,,,0,0,0,0,,,,,,,,,,,,,,,,,,,,,,,,,0,23,23,23,,,,,,,,,,,,,,,,,,,,,,,,,,,,,,,,,,,,,,,,,,,,,,,,,,,,,,,,,,,,,,,,,,,,,1.9475308458010356,1.0850815000012517,519.7061168000073,None,ScrollUp,정답입니다,519.7061168000073,None,519.7061168000073,None,519.7061168000073,None,519.7061168000073,None,520.6500756000023,None,520.6500756000023,521.1584123000066,,,,,,,,,,,,,,,,210,2022-05-04_16h42.11.297,FishGame,2022.1.1,59.952829112567514,
,25,나를 보내줘,6,Green,A,0,0,ScrollUp,ScrollDown,Green.png,4,NonTarget,NonTarget,,,,,0,0,0,0,,,,,,,,,,,,,,,,,,,,,,,,,0,24,24,24,,,,,,,,,,,,,,,,,,,,,,,,,,,,,,,,,,,,,,,,,,,,,,,,,,,,,,,,,,,,,,,,,,,,,2,1.1384321999939857,521.8002385,None,ScrollUp,정답입니다,521.8002385,None,521.8002385,None,521.8002385,None,521.8002385,None,522.8250680000056,None,522.8250680000056,523.324660600003,,,,,,,,,,,,,,,,210,2022-05-04_16h42.11.297,FishGame,2022.1.1,59.952829112567514,
,26,넌 시기심이 많아,5,Orange,B,2.458333333333333,2.233333333333333,ScrollUp,ScrollDown,Orange.png,4,Negative,Congruent,,,,,0,0,0,0,,,,,,,,,,,,,,,,,,,,,,,,,0,25,25,25,,,,,,,,,,,,,,,,,,,,,,,,,,,,,,,,,,,,,,,,,,,,,,,,,,,,,,,,,,,,,,,,,,,,,1.5925925932824612,1.1794484999991255,523.9863985999982,None,ScrollUp,정답입니다,523.9863985999982,None,523.9863985999982,None,523.9863985999982,None,523.9863985999982,None,525.0286437000032,None,525.0286437000032,525.5411357999983,,,,,,,,,,,,,,,,210,2022-05-04_16h42.11.297,FishGame,2022.1.1,59.952829112567514,
,27,넌 탁월해,2,Green,A,5.708333333333334,4.5,ScrollDown,ScrollUp,Green.png,4,Positive,Congruent,,,,,0,0,0,0,,,,,,,,,,,,,,,,,,,,,,,,,0,26,26,26,,,,,,,,,,,,,,,,,,,,,,,,,,,,,,,,,,,,,,,,,,,,,,,,,,,,,,,,,,,,,,,,,,,,,1.256172845760981,1.0256674999982351,526.1992032999988,None,ScrollDown,정답입니다,526.1992032999988,None,526.1992032999988,None,526.1992032999988,None,526.1992032999988,None,527.0865938000061,None,527.0865938000061,527.5907042000035,,,,,,,,,,,,,,,,210,2022-05-04_16h42.11.297,FishGame,2022.1.1,59.952829112567514,
,28,나를 데려가줘,6,Orange,B,0,0,ScrollDown,ScrollUp,Orange.png,4,NonTarget,NonTarget,,,,,0,0,0,0,,,,,,,,,,,,,,,,,,,,,,,,,0,27,27,27,,,,,,,,,,,,,,,,,,,,,,,,,,,,,,,,,,,,,,,,,,,,,,,,,,,,,,,,,,,,,,,,,,,,,1.805555562178294,1.4838361000001896,528.2436115000019,None,ScrollUp,오답입니다,528.2436115000019,None,528.2436115000019,None,528.2436115000019,None,528.2436115000019,None,529.5998420000105,None,529.5998420000105,530.1071448000002,,,,,,,,,,,,,,,,210,2022-05-04_16h42.11.297,FishGame,2022.1.1,59.952829112567514,
,29,넌 조용해,3,Orange,B,4.333333333333333,4.166666666666667,ScrollUp,ScrollDown,Orange.png,4,Neutral,Neutral,,,,,0,0,0,0,,,,,,,,,,,,,,,,,,,,,,,,,0,28,28,28,,,,,,,,,,,,,,,,,,,,,,,,,,,,,,,,,,,,,,,,,,,,,,,,,,,,,,,,,,,,,,,,,,,,,1.7839506169160206,1.004493000000366,530.7666480000044,None,ScrollUp,정답입니다,530.7666480000044,None,530.7666480000044,None,530.7666480000044,None,530.7666480000044,None,531.6351775000076,None,531.6351775000076,532.1401936000038,,,,,,,,,,,,,,,,210,2022-05-04_16h42.11.297,FishGame,2022.1.1,59.952829112567514,
,30,넌 다정해,1,Green,A,5.833333333333334,5.7,ScrollDown,ScrollUp,Green.png,4,Positive,Congruent,,,,,0,0,0,0,,,,,,,,,,,,,,,,,,,,,,,,,0,29,29,29,,,,,,,,,,,,,,,,,,,,,,,,,,,,,,,,,,,,,,,,,,,,,,,,,,,,,,,,,,,,,,,,,,,,,1.0910493781169255,0.9281710000068415,532.7961712999968,None,ScrollDown,정답입니다,532.7961712999968,None,532.7961712999968,None,532.7961712999968,None,532.7961712999968,None,533.5979723000055,None,533.5979723000055,534.1065824999969,,,,,,,,,,,,,,,,210,2022-05-04_16h42.11.297,FishGame,2022.1.1,59.952829112567514,
,31,넌 능력있어,2,Orange,B,6.166666666666666,4.6,ScrollUp,ScrollDown,Orange.png,4,Positive,Incongruent,,,,,0,0,0,0,,,,,,,,,,,,,,,,,,,,,,,,,0,30,30,30,,,,,,,,,,,,,,,,,,,,,,,,,,,,,,,,,,,,,,,,,,,,,,,,,,,,,,,,,,,,,,,,,,,,,1.507716049440205,0.9901386999990791,534.7585114999965,None,NoResponse,무응답입니다,534.7585114999965,None,534.7585114999965,None,534.7585114999965,None,534.7585114999965,None,535.6227139999974,None,535.6227139999974,536.1230122999987,,,,,,,,,,,,,,,,210,2022-05-04_16h42.11.297,FishGame,2022.1.1,59.952829112567514,
,32,넌 불쾌해,5,Green,A,2.125,1.933333333333333,ScrollDown,ScrollUp,Green.png,4,Negative,Incongruent,,,,,0,0,0,0,,,,,,,,,,,,,,,,,,,,,,,,,0,31,31,31,,,,,,,,,,,,,,,,,,,,,,,,,,,,,,,,,,,,,,,,,,,,,,,,,,,,,,,,,,,,,,,,,,,,,1.31635802735885,1.1696680000022752,536.7727595000033,None,ScrollDown,정답입니다,536.7727595000033,None,536.7727595000033,None,536.7727595000033,None,536.7727595000033,None,537.8184793999972,None,537.8184793999972,538.3227287000045,,,,,,,,,,,,,,,,210,2022-05-04_16h42.11.297,FishGame,2022.1.1,59.952829112567514,
,33,나를 데려가줘,6,Orange,B,0,0,ScrollDown,ScrollUp,Orange.png,4,NonTarget,NonTarget,,,,,0,0,0,0,,,,,,,,,,,,,,,,,,,,,,,,,0,32,32,32,,,,,,,,,,,,,,,,,,,,,,,,,,,,,,,,,,,,,,,,,,,,,,,,,,,,,,,,,,,,,,,,,,,,,1.1527777860562007,1.0669291999947745,538.9745324000105,None,ScrollDown,정답입니다,538.9745324000105,None,538.9745324000105,None,538.9745324000105,None,538.9745324000105,None,539.9124804000021,None,539.9124804000021,540.4223964999983,,,,,,,,,,,,,,,,210,2022-05-04_16h42.11.297,FishGame,2022.1.1,59.952829112567514,
,34,넌 유순해,3,Green,A,4.458333333333333,5,ScrollDown,ScrollUp,Green.png,4,Neutral,Neutral,,,,,0,0,0,0,,,,,,,,,,,,,,,,,,,,,,,,,0,33,33,33,,,,,,,,,,,,,,,,,,,,,,,,,,,,,,,,,,,,,,,,,,,,,,,,,,,,,,,,,,,,,,,,,,,,,1.2098765522241592,0.9618336999992607,541.0692101000022,None,ScrollDown,정답입니다,541.0692101000022,None,541.0692101000022,None,541.0692101000022,None,541.0692101000022,None,541.9078559000045,None,541.9078559000045,542.4221593999973,,,,,,,,,,,,,,,,210,2022-05-04_16h42.11.297,FishGame,2022.1.1,59.952829112567514,
,35,넌 근심스러워,4,Orange,B,2.708333333333333,3.133333333333333,ScrollUp,ScrollDown,Orange.png,4,Negative,Congruent,,,,,0,0,0,0,,,,,,,,,,,,,,,,,,,,,,,,,0,34,34,34,,,,,,,,,,,,,,,,,,,,,,,,,,,,,,,,,,,,,,,,,,,,,,,,,,,,,,,,,,,,,,,,,,,,,1.9074074079593022,1.0318623000057414,543.0879404000007,None,ScrollUp,정답입니다,543.0879404000007,None,543.0879404000007,None,543.0879404000007,None,543.0879404000007,None,543.9773962000036,None,543.9773962000036,544.488666899997,,,,,,,,,,,,,,,,210,2022-05-04_16h42.11.297,FishGame,2022.1.1,59.952829112567514,
,36,넌 세련되었어,2,Green,A,5.5,4.6,ScrollDown,ScrollUp,Green.png,4,Positive,Congruent,,,,,0,0,0,0,,,,,,,,,,,,,,,,,,,,,,,,,0,35,35,35,,,,,,,,,,,,,,,,,,,,,,,,,,,,,,,,,,,,,,,,,,,,,,,,,,,,,,,,,,,,,,,,,,,,,1.2746913631757102,0.9437140999943949,545.1443526000076,None,ScrollDown,정답입니다,545.1443526000076,None,545.1443526000076,None,545.1443526000076,None,545.1443526000076,None,545.9583590999973,None,545.9583590999973,546.4716900000058,,,,,,,,,,,,,,,,210,2022-05-04_16h42.11.297,FishGame,2022.1.1,59.952829112567514,
,37,나를 보내줘,6,Green,A,0,0,ScrollUp,ScrollDown,Green.png,4,NonTarget,NonTarget,,,,,0,0,0,0,,,,,,,,,,,,,,,,,,,,,,,,,0,36,36,36,,,,,,,,,,,,,,,,,,,,,,,,,,,,,,,,,,,,,,,,,,,,,,,,,,,,,,,,,,,,,,,,,,,,,1.5138888896132507,0.9026445000054082,547.1180692000053,None,NoResponse,무응답입니다,547.1180692000053,None,547.1180692000053,None,547.1180692000053,None,547.1180692000053,None,547.900424300009,None,547.900424300009,548.4046606000047,,,,,,,,,,,,,,,,210,2022-05-04_16h42.11.297,FishGame,2022.1.1,59.952829112567514,
,38,넌 확고해,3,Orange,B,4.708333333333334,4.566666666666666,ScrollUp,ScrollDown,Orange.png,4,Neutral,Neutral,,,,,0,0,0,0,,,,,,,,,,,,,,,,,,,,,,,,,0,37,37,37,,,,,,,,,,,,,,,,,,,,,,,,,,,,,,,,,,,,,,,,,,,,,,,,,,,,,,,,,,,,,,,,,,,,,1.7283950646718345,1.0629564999981085,549.0664261000056,None,ScrollUp,정답입니다,549.0664261000056,None,549.0664261000056,None,549.0664261000056,None,549.0664261000056,None,549.9907436000067,None,549.9907436000067,550.5044595000072,,,,,,,,,,,,,,,,210,2022-05-04_16h42.11.297,FishGame,2022.1.1,59.952829112567514,
,39,넌 이해심이 많아,1,Orange,B,6.041666666666668,5.533333333333333,ScrollUp,ScrollDown,Orange.png,4,Positive,Incongruent,,,,,0,0,0,0,,,,,,,,,,,,,,,,,,,,,,,,,0,38,38,38,,,,,,,,,,,,,,,,,,,,,,,,,,,,,,,,,,,,,,,,,,,,,,,,,,,,,,,,,,,,,,,,,,,,,1.8240740795930226,1.1692722000007052,551.1581529999967,None,ScrollUp,정답입니다,551.1581529999967,None,551.1581529999967,None,551.1581529999967,None,551.1581529999967,None,552.1973520000029,None,552.1973520000029,552.704146700009,,,,,,,,,,,,,,,,210,2022-05-04_16h42.11.297,FishGame,2022.1.1,59.952829112567514,
,40,나를 보내줘,6,Green,A,0,0,ScrollUp,ScrollDown,Green.png,4,NonTarget,NonTarget,,,,,0,0,0,0,,,,,,,,,,,,,,,,,,,,,,,,,0,39,39,39,,,,,,,,,,,,,,,,,,,,,,,,,,,,,,,,,,,,,,,,,,,,,,,,,,,,,,,,,,,,,,,,,,,,,1.9243827362855275,1.203430000008666,553.3536135000031,None,ScrollUp,정답입니다,553.3536135000031,None,553.3536135000031,None,553.3536135000031,None,553.3536135000031,None,554.4308045000071,None,554.4308045000071,554.9374033000058,,,,,,,,,,,,,,,,210,2022-05-04_16h42.11.297,FishGame,2022.1.1,59.952829112567514,
,41,넌 거칠어,4,Green,A,2.625,3.033333333333333,ScrollDown,ScrollUp,Green.png,4,Negative,Incongruent,,,,,0,0,0,0,,,,,,,,,,,,,,,,,,,,,,,,,0,40,40,40,,,,,,,,,,,,,,,,,,,,,,,,,,,,,,,,,,,,,,,,,,,,,,,,,,,,,,,,,,,,,,,,,,,,,1.3287037014961243,1.9645145000104094,555.606640900005,None,ScrollDown,정답입니다,555.606640900005,None,555.606640900005,None,555.606640900005,None,555.606640900005,None,557.4274159000051,None,557.4274159000051,557.9368783999962,,,,,,,,,,,,,,,,210,2022-05-04_16h42.11.297,FishGame,2022.1.1,59.952829112567514,
,42,넌 변덕맞아,5,Orange,B,2.75,2.166666666666667,ScrollUp,ScrollDown,Orange.png,4,Negative,Congruent,,,,,0,0,0,0,,,,,,,,,,,,,,,,,,,,,,,,,0,41,41,41,,,,,,,,,,,,,,,,,,,,,,,,,,,,,,,,,,,,,,,,,,,,,,,,,,,,,,,,,,,,,,,,,,,,,1.7762345721324284,0.8867697999958182,558.6066541000037,None,ScrollUp,정답입니다,558.6066541000037,None,558.6066541000037,None,558.6066541000037,None,558.6066541000037,None,559.353440699997,None,559.353440699997,559.8531423000095,,,,,,,,,,,,,,,,210,2022-05-04_16h42.11.297,FishGame,2022.1.1,59.952829112567514,
,43,나를 데려가줘,6,Orange,B,0,0,ScrollDown,ScrollUp,Orange.png,4,NonTarget,NonTarget,,,,,0,0,0,0,,,,,,,,,,,,,,,,,,,,,,,,,0,42,42,42,,,,,,,,,,,,,,,,,,,,,,,,,,,,,,,,,,,,,,,,,,,,,,,,,,,,,,,,,,,,,,,,,,,,,1.2314814726511638,1.5273675000062212,560.5099934000027,None,ScrollDown,정답입니다,560.5099934000027,None,560.5099934000027,None,560.5099934000027,None,560.5099934000027,None,561.8997866999998,None,561.8997866999998,562.4029873999971,,,,,,,,,,,,,,,,210,2022-05-04_16h42.11.297,FishGame,2022.1.1,59.952829112567514,
,44,넌 외로워,4,Orange,B,2.833333333333333,3.3,ScrollUp,ScrollDown,Orange.png,4,Negative,Congruent,,,,,0,0,0,0,,,,,,,,,,,,,,,,,,,,,,,,,0,43,43,43,,,,,,,,,,,,,,,,,,,,,,,,,,,,,,,,,,,,,,,,,,,,,,,,,,,,,,,,,,,,,,,,,,,,,1.8672839452823002,1.334875699991244,563.0626763000037,None,ScrollUp,정답입니다,563.0626763000037,None,563.0626763000037,None,563.0626763000037,None,563.0626763000037,None,564.2619118000002,None,564.2619118000002,564.7692937000102,,,,,,,,,,,,,,,,210,2022-05-04_16h42.11.297,FishGame,2022.1.1,59.952829112567514,
,1,넌 불평스러워,5,Green,A,2.25,2.066666666666667,ScrollDown,ScrollUp,Green.png,5,Negative,Incongruent,,,,,0,0,0,0,,,,,,,,,,,,,,,,,,,,,,,,,,,,,0,0,0,0,,,,,,,,,,,,,,,,,,,,,,,,596.4990546000045,597.9984224000073,598.0318836000079,598.981586000009,599.0316337999975,599.9815565000026,599.9815565000026,None,,,,,,,,,,,,,,,,,,,,,,,,,,,,,,,,,,1.0740740497907002,1.2493937999970512,601.2213613000058,None,ScrollDown,정답입니다,601.2213613000058,None,601.2213613000058,None,601.2213613000058,None,601.2213613000058,None,602.2919146000058,None,602.2919146000058,602.7978320999973,565.2692041999981,None,565.2692041999981,None,-0.11388889,-0.108333334,1,0,0,0.01620996999554336,None,595.2820745000063,None,,,210,2022-05-04_16h42.11.297,FishGame,2022.1.1,59.952829112567514,
,2,나를 보내줘,6,Green,A,0,0,ScrollUp,ScrollDown,Green.png,5,NonTarget,NonTarget,,,,,0,0,0,0,,,,,,,,,,,,,,,,,,,,,,,,,,,,,0,1,1,1,,,,,,,,,,,,,,,,,,,,,,,,,,,,,,,,,,,,,,,,,,,,,,,,,,,,,,,,,,,,,,,,,1.7283950646718345,1.0942156000091927,603.4481423999969,None,ScrollUp,정답입니다,603.4481423999969,None,603.4481423999969,None,603.4481423999969,None,603.4481423999969,None,604.4174766000069,None,604.4174766000069,604.9307658000034,,,,,,,,,,,,,,,,210,2022-05-04_16h42.11.297,FishGame,2022.1.1,59.952829112567514,
,3,넌 다재다능해,2,Orange,B,6.208333333333333,4.5,ScrollUp,ScrollDown,Orange.png,5,Positive,Incongruent,,,,,0,0,0,0,,,,,,,,,,,,,,,,,,,,,,,,,,,,,0,2,2,2,,,,,,,,,,,,,,,,,,,,,,,,,,,,,,,,,,,,,,,,,,,,,,,,,,,,,,,,,,,,,,,,,1.9089506218830745,1.0023488000006182,605.5827256000048,None,ScrollUp,정답입니다,605.5827256000048,None,605.5827256000048,None,605.5827256000048,None,605.5827256000048,None,606.4552937999979,None,606.4552937999979,606.9638812000048,,,,,,,,,,,,,,,,210,2022-05-04_16h42.11.297,FishGame,2022.1.1,59.952829112567514,
,4,넌 과감해,3,Green,A,4.833333333333334,4.6,ScrollDown,ScrollUp,Green.png,5,Neutral,Neutral,,,,,0,0,0,0,,,,,,,,,,,,,,,,,,,,,,,,,,,,,0,3,3,3,,,,,,,,,,,,,,,,,,,,,,,,,,,,,,,,,,,,,,,,,,,,,,,,,,,,,,,,,,,,,,,,,1.1543209999799728,1.0756184000056237,607.6123779000045,None,ScrollDown,정답입니다,607.6123779000045,None,607.6123779000045,None,607.6123779000045,None,607.6123779000045,None,608.5590179999999,None,608.5590179999999,609.0636415000045,,,,,,,,,,,,,,,,210,2022-05-04_16h42.11.297,FishGame,2022.1.1,59.952829112567514,
,5,넌 고분고분해,3,Orange,B,3.75,4.033333333333333,ScrollUp,ScrollDown,Orange.png,5,Neutral,Neutral,,,,,0,0,0,0,,,,,,,,,,,,,,,,,,,,,,,,,,,,,0,4,4,4,,,,,,,,,,,,,,,,,,,,,,,,,,,,,,,,,,,,,,,,,,,,,,,,,,,,,,,,,,,,,,,,,1.5478395074605942,0.9391661000117892,609.7349509000051,None,NoResponse,무응답입니다,609.7349509000051,None,609.7349509000051,None,609.7349509000051,None,609.7349509000051,None,610.5267053999996,None,610.5267053999996,611.0300340999966,,,,,,,,,,,,,,,,210,2022-05-04_16h42.11.297,FishGame,2022.1.1,59.952829112567514,
,6,나를 보내줘,6,Green,A,0,0,ScrollUp,ScrollDown,Green.png,5,NonTarget,NonTarget,,,,,0,0,0,0,,,,,,,,,,,,,,,,,,,,,,,,,,,,,0,5,5,5,,,,,,,,,,,,,,,,,,,,,,,,,,,,,,,,,,,,,,,,,,,,,,,,,,,,,,,,,,,,,,,,,1.8950617214043934,1.3281996000005165,611.6770628000086,None,ScrollUp,정답입니다,611.6770628000086,None,611.6770628000086,None,611.6770628000086,None,611.6770628000086,None,612.8813020000089,None,612.8813020000089,613.3964065000036,,,,,,,,,,,,,,,,210,2022-05-04_16h42.11.297,FishGame,2022.1.1,59.952829112567514,
,7,넌 잘 잊어,4,Green,A,3,3.7,ScrollDown,ScrollUp,Green.png,5,Negative,Incongruent,,,,,0,0,0,0,,,,,,,,,,,,,,,,,,,,,,,,,,,,,0,6,6,6,,,,,,,,,,,,,,,,,,,,,,,,,,,,,,,,,,,,,,,,,,,,,,,,,,,,,,,,,,,,,,,,,1.0493827263514202,1.0356606999994256,614.0570967000094,None,ScrollDown,정답입니다,614.0570967000094,None,614.0570967000094,None,614.0570967000094,None,614.0570967000094,None,614.9537509000074,None,614.9537509000074,615.4629333000048,,,,,,,,,,,,,,,,210,2022-05-04_16h42.11.297,FishGame,2022.1.1,59.952829112567514,
,8,넌 탐구심이없어,4,Orange,B,2.833333333333333,3.066666666666667,ScrollUp,ScrollDown,Orange.png,5,Negative,Congruent,,,,,0,0,0,0,,,,,,,,,,,,,,,,,,,,,,,,,,,,,0,7,7,7,,,,,,,,,,,,,,,,,,,,,,,,,,,,,,,,,,,,,,,,,,,,,,,,,,,,,,,,,,,,,,,,,1.6929012313485146,1.0531983999971999,616.1282160999981,None,ScrollUp,정답입니다,616.1282160999981,None,616.1282160999981,None,616.1282160999981,None,616.1282160999981,None,617.0394857000065,None,617.0394857000065,617.54592650001,,,,,,,,,,,,,,,,210,2022-05-04_16h42.11.297,FishGame,2022.1.1,59.952829112567514,
,9,나를 데려가줘,6,Orange,B,0,0,ScrollDown,ScrollUp,Orange.png,5,NonTarget,NonTarget,,,,,0,0,0,0,,,,,,,,,,,,,,,,,,,,,,,,,,,,,0,8,8,8,,,,,,,,,,,,,,,,,,,,,,,,,,,,,,,,,,,,,,,,,,,,,,,,,,,,,,,,,,,,,,,,,1,1.1152672000025632,618.1989047000097,None,ScrollDown,정답입니다,618.1989047000097,None,618.1989047000097,None,618.1989047000097,None,618.1989047000097,None,619.1842832999973,None,619.1842832999973,619.695655500007,,,,,,,,,,,,,,,,210,2022-05-04_16h42.11.297,FishGame,2022.1.1,59.952829112567514,
,10,넌 참되어,2,Green,A,6.041666666666664,4.733333333333333,ScrollDown,ScrollUp,Green.png,5,Positive,Congruent,,,,,0,0,0,0,,,,,,,,,,,,,,,,,,,,,,,,,,,,,0,9,9,9,,,,,,,,,,,,,,,,,,,,,,,,,,,,,,,,,,,,,,,,,,,,,,,,,,,,,,,,,,,,,,,,,1.0586419602235158,0.9168151000048965,620.350972900007,None,ScrollDown,정답입니다,620.350972900007,None,620.350972900007,None,620.350972900007,None,620.350972900007,None,621.1360637000034,None,621.1360637000034,621.6452930000087,,,,,,,,,,,,,,,,210,2022-05-04_16h42.11.297,FishGame,2022.1.1,59.952829112567514,
,11,넌 생기있어,1,Orange,B,5.875,5.633333333333334,ScrollUp,ScrollDown,Orange.png,5,Positive,Incongruent,,,,,0,0,0,0,,,,,,,,,,,,,,,,,,,,,,,,,,,,,0,10,10,10,,,,,,,,,,,,,,,,,,,,,,,,,,,,,,,,,,,,,,,,,,,,,,,,,,,,,,,,,,,,,,,,,1.9151234527428944,0.9123693000001367,622.3014591999963,None,ScrollUp,정답입니다,622.3014591999963,None,622.3014591999963,None,622.3014591999963,None,622.3014591999963,None,623.0805891000055,None,623.0805891000055,623.5950058000017,,,,,,,,,,,,,,,,210,2022-05-04_16h42.11.297,FishGame,2022.1.1,59.952829112567514,
,12,넌 비사교적이야,4,Orange,B,2.875,2.9,ScrollUp,ScrollDown,Orange.png,5,Negative,Congruent,,,,,0,0,0,0,,,,,,,,,,,,,,,,,,,,,,,,,,,,,0,11,11,11,,,,,,,,,,,,,,,,,,,,,,,,,,,,,,,,,,,,,,,,,,,,,,,,,,,,,,,,,,,,,,,,,1.5817901206513247,0.8700539999990724,624.2479571000003,None,ScrollUp,정답입니다,624.2479571000003,None,624.2479571000003,None,624.2479571000003,None,624.2479571000003,None,624.9884959000046,None,624.9884959000046,625.4949095000047,,,,,,,,,,,,,,,,210,2022-05-04_16h42.11.297,FishGame,2022.1.1,59.952829112567514,
,13,나를 데려가줘,6,Orange,B,0,0,ScrollDown,ScrollUp,Orange.png,5,NonTarget,NonTarget,,,,,0,0,0,0,,,,,,,,,,,,,,,,,,,,,,,,,,,,,0,12,12,12,,,,,,,,,,,,,,,,,,,,,,,,,,,,,,,,,,,,,,,,,,,,,,,,,,,,,,,,,,,,,,,,,1.1388888855775197,1.0189060999982757,626.1526933999994,None,ScrollDown,정답입니다,626.1526933999994,None,626.1526933999994,None,626.1526933999994,None,626.1526933999994,None,627.0361888000043,None,627.0361888000043,627.5446467000002,,,,,,,,,,,,,,,,210,2022-05-04_16h42.11.297,FishGame,2022.1.1,59.952829112567514,
,14,넌 고독해,4,Green,A,2.916666666666667,3.233333333333333,ScrollDown,ScrollUp,Green.png,5,Negative,Incongruent,,,,,0,0,0,0,,,,,,,,,,,,,,,,,,,,,,,,,,,,,0,13,13,13,,,,,,,,,,,,,,,,,,,,,,,,,,,,,,,,,,,,,,,,,,,,,,,,,,,,,,,,,,,,,,,,,1.28086419403553,0.8792115999967791,628.1911349000002,None,ScrollDown,정답입니다,628.1911349000002,None,628.1911349000002,None,628.1911349000002,None,628.1911349000002,None,628.9458404000034,None,628.9458404000034,629.4610566000047,,,,,,,,,,,,,,,,210,2022-05-04_16h42.11.297,FishGame,2022.1.1,59.952829112567514,
,15,넌 신경질적이야,5,Orange,B,2.375,2.233333333333333,ScrollUp,ScrollDown,Orange.png,5,Negative,Congruent,,,,,0,0,0,0,,,,,,,,,,,,,,,,,,,,,,,,,,,,,0,14,14,14,,,,,,,,,,,,,,,,,,,,,,,,,,,,,,,,,,,,,,,,,,,,,,,,,,,,,,,,,,,,,,,,,1.7932098756233852,0.8933934000087902,630.1287548999971,None,ScrollUp,정답입니다,630.1287548999971,None,630.1287548999971,None,630.1287548999971,None,630.1287548999971,None,630.8776539999963,None,630.8776539999963,631.3775600000081,,,,,,,,,,,,,,,,210,2022-05-04_16h42.11.297,FishGame,2022.1.1,59.952829112567514,
,16,넌 똑똑해,2,Orange,B,5.666666666666667,3.966666666666667,ScrollUp,ScrollDown,Orange.png,5,Positive,Incongruent,,,,,0,0,0,0,,,,,,,,,,,,,,,,,,,,,,,,,,,,,0,15,15,15,,,,,,,,,,,,,,,,,,,,,,,,,,,,,,,,,,,,,,,,,,,,,,,,,,,,,,,,,,,,,,,,,1.7453703681627908,0.8104623999970499,632.036294000005,None,ScrollUp,정답입니다,632.036294000005,None,632.036294000005,None,632.036294000005,None,632.036294000005,None,632.7127966999979,None,632.7127966999979,633.2272382000083,,,,,,,,,,,,,,,,210,2022-05-04_16h42.11.297,FishGame,2022.1.1,59.952829112567514,
,17,나를 보내줘,6,Green,A,0,0,ScrollUp,ScrollDown,Green.png,5,NonTarget,NonTarget,,,,,0,0,0,0,,,,,,,,,,,,,,,,,,,,,,,,,,,,,0,16,16,16,,,,,,,,,,,,,,,,,,,,,,,,,,,,,,,,,,,,,,,,,,,,,,,,,,,,,,,,,,,,,,,,,2,1.4346402999944985,633.872718300001,None,ScrollUp,정답입니다,633.872718300001,None,633.872718300001,None,633.872718300001,None,633.872718300001,None,635.1829327000014,None,635.1829327000014,635.6935978999973,,,,,,,,,,,,,,,,210,2022-05-04_16h42.11.297,FishGame,2022.1.1,59.952829112567514,
,18,넌 협조적이야,1,Green,A,5.625,5.666666666666667,ScrollDown,ScrollUp,Green.png,5,Positive,Congruent,,,,,0,0,0,0,,,,,,,,,,,,,,,,,,,,,,,,,,,,,0,17,17,17,,,,,,,,,,,,,,,,,,,,,,,,,,,,,,,,,,,,,,,,,,,,,,,,,,,,,,,,,,,,,,,,,1.1682098756233852,0.8846564999985276,636.3473540999985,None,ScrollDown,정답입니다,636.3473540999985,None,636.3473540999985,None,636.3473540999985,None,636.3473540999985,None,637.100984100005,None,637.100984100005,637.6099395000056,,,,,,,,,,,,,,,,210,2022-05-04_16h42.11.297,FishGame,2022.1.1,59.952829112567514,
,19,나를 데려가줘,6,Orange,B,0,0,ScrollDown,ScrollUp,Orange.png,5,NonTarget,NonTarget,,,,,0,0,0,0,,,,,,,,,,,,,,,,,,,,,,,,,,,,,0,18,18,18,,,,,,,,,,,,,,,,,,,,,,,,,,,,,,,,,,,,,,,,,,,,,,,,,,,,,,,,,,,,,,,,,1.2885802388191223,0.9485682000085944,638.2621992000059,None,ScrollDown,정답입니다,638.2621992000059,None,638.2621992000059,None,638.2621992000059,None,638.2621992000059,None,639.0814642000041,None,639.0814642000041,639.5930766000092,,,,,,,,,,,,,,,,210,2022-05-04_16h42.11.297,FishGame,2022.1.1,59.952829112567514,
,20,넌 몰인정해,5,Orange,B,2.541666666666667,2.066666666666667,ScrollUp,ScrollDown,Orange.png,5,Negative,Congruent,,,,,0,0,0,0,,,,,,,,,,,,,,,,,,,,,,,,,,,,,0,19,19,19,,,,,,,,,,,,,,,,,,,,,,,,,,,,,,,,,,,,,,,,,,,,,,,,,,,,,,,,,,,,,,,,,1.5462962966412306,0.8956758999993326,640.2519621000101,None,NoResponse,무응답입니다,640.2519621000101,None,640.2519621000101,None,640.2519621000101,None,640.2519621000101,None,641.0125231999991,None,641.0125231999991,641.5261002000043,,,,,,,,,,,,,,,,210,2022-05-04_16h42.11.297,FishGame,2022.1.1,59.952829112567514,
,21,나를 데려가줘,6,Orange,B,0,0,ScrollDown,ScrollUp,Orange.png,5,NonTarget,NonTarget,,,,,0,0,0,0,,,,,,,,,,,,,,,,,,,,,,,,,,,,,0,20,20,20,,,,,,,,,,,,,,,,,,,,,,,,,,,,,,,,,,,,,,,,,,,,,,,,,,,,,,,,,,,,,,,,,1.1975308656692505,1.101283100011642,642.1823943000054,None,ScrollDown,정답입니다,642.1823943000054,None,642.1823943000054,None,642.1823943000054,None,642.1823943000054,None,643.1519044000015,None,643.1519044000015,643.6592715000006,,,,,,,,,,,,,,,,210,2022-05-04_16h42.11.297,FishGame,2022.1.1,59.952829112567514,
