name,TrialNum,Word,WordCategory,FishType,WordList,WordValence,WordReputation,CorrectResp,IncorrectResp,FishTypeFile,Round,WordType,Condition,LoopforOrange.thisRepN,LoopforOrange.thisTrialN,LoopforOrange.thisN,LoopforOrange.thisIndex,OrangeInstLoop.thisRepN,OrangeInstLoop.thisTrialN,OrangeInstLoop.thisN,OrangeInstLoop.thisIndex,OrangePrac.thisRepN,OrangePrac.thisTrialN,OrangePrac.thisN,OrangePrac.thisIndex,temp1.thisRepN,temp1.thisTrialN,temp1.thisN,temp1.thisIndex,OrangeRound1.thisRepN,OrangeRound1.thisTrialN,OrangeRound1.thisN,OrangeRound1.thisIndex,OrangeRound2.thisRepN,OrangeRound2.thisTrialN,OrangeRound2.thisN,OrangeRound2.thisIndex,OrangeRound3.thisRepN,OrangeRound3.thisTrialN,OrangeRound3.thisN,OrangeRound3.thisIndex,OrangeRound4.thisRepN,OrangeRound4.thisTrialN,OrangeRound4.thisN,OrangeRound4.thisIndex,OrangeRound5.thisRepN,OrangeRound5.thisTrialN,OrangeRound5.thisN,OrangeRound5.thisIndex,LoopForGreen.thisRepN,LoopForGreen.thisTrialN,LoopForGreen.thisN,LoopForGreen.thisIndex,text_2.started,text_2.stopped,text_3.started,text_3.stopped,key_resp.keys,key_resp.rt,key_resp.started,key_resp.stopped,PassI_2.started,PassI_2.stopped,PassInst_2.keys,PassInst_2.rt,PassInst_2.started,PassInst_2.stopped,mouse_2.x,mouse_2.y,mouse_2.leftButton,mouse_2.midButton,mouse_2.rightButton,mouse_2.started,mouse_2.stopped,image.started,image.stopped,text_5.started,text_5.stopped,text_6.started,text_6.stopped,text_7.started,text_7.stopped,text_8.started,text_8.stopped,slider_2.response,slider_2.rt,slider_2.started,slider_2.stopped,Response_2,Feedback_2,BackGround_2.started,BackGround_2.stopped,Fish_2.started,Fish_2.stopped,WordBox_2.started,WordBox_2.stopped,Words_2.started,Words_2.stopped,BackGround_Feedback_2.started,BackGround_Feedback_2.stopped,Feedbacks_2.started,Feedbacks_2.stopped,Continue_or_not.keys,Continue_or_not.rt,Continue_or_not.started,Continue_or_not.stopped,image_3.started,image_3.stopped,mouse_3.x,mouse_3.y,mouse_3.leftButton,mouse_3.midButton,mouse_3.rightButton,mouse_3.started,mouse_3.stopped,startmain.started,startmain.stopped,slider.response,slider.rt,slider.started,slider.stopped,Response,Feedback,BackGround.started,BackGround.stopped,Fish.started,Fish.stopped,WordBox.started,WordBox.stopped,Words.started,Words.stopped,BackGround_Feedback.started,BackGround_Feedback.stopped,Feedbacks.started,Feedbacks.stopped,text.started,text.stopped,break_interval.started,break_interval.stopped,mouse.x,mouse.y,mouse.leftButton,mouse.midButton,mouse.rightButton,mouse.started,mouse.stopped,stratnextround.started,stratnextround.stopped,endgame.started,endgame.stopped,participant,date,expName,psychopyVersion,frameRate,
,,,,,,,,,,,,,,,,,,,,,,,,,,,,,,,,,,,,,,,,,,,,,,,,,,,,,,31.352038199999697,None,31.352038199999697,None,space,4.655415899999753,31.84352729999955,None,,,,,,,,,,,,,,,,,,,,,,,,,,,,,,,,,,,,,,,,,,,,,,,,,,,,,,,,,,,,,,,,,,,,,,,,,,,,,,,,,,,,,,,,,,211,2022-05-06_14h09.30.079,FishGame,2022.1.1,60.00409227892892,
물고기과제_instruction(참가자용)OrangeVersion.mp4,,,,,,,,,,,,,,0,0,0,0,0,0,0,0,,,,,,,,,,,,,,,,,,,,,,,,,,,,,,,,,,,,,,,,,103.37350549999974,None,n,30.864848099999108,103.37350549999974,None,,,,,,,,,,,,,,,,,,,,,,,,,,,,,,,,,,,,,,,,,,,,,,,,,,,,,,,,,,,,,,,,,,,,,,,,,,,,,,,,,,,,211,2022-05-06_14h09.30.079,FishGame,2022.1.1,60.00409227892892,
,1,넌 교활해,5,Green,B,2.333333333333333,2.133333333333333,ScrollUp,ScrollDown,Green.png,practice,,,0,0,0,0,,,,,0,0,0,0,0,0,0,0,,,,,,,,,,,,,,,,,,,,,,,,,,,,,,,,,,,,,,,0.037962962,-0.23703703,1,0,0,0.5132011899995632,None,134.26337590000003,None,142.86232839999957,144.3620995000001,144.39542700000038,145.34523439999975,145.39535960000012,146.34524729999976,146.34524729999976,None,1.5663580248753228,1.9014047999999093,147.55157419999978,None,ScrollUp,정답입니다,147.55157419999978,None,147.55157419999978,None,147.55157419999978,None,147.55157419999978,None,149.26521369999955,None,149.26521369999955,149.77802549999979,,,,,,,,,,,,,,,,,,,,,,,,,,,,,,,,,,,,,,,,,,,,,,,,,211,2022-05-06_14h09.30.079,FishGame,2022.1.1,60.00409227892892,
,2,넌 슬기로워,2,Orange,A,6.166666666666667,4.1,ScrollDown,ScrollUp,Orange.png,practice,,,0,0,0,0,,,,,0,0,0,0,0,1,1,1,,,,,,,,,,,,,,,,,,,,,,,,,,,,,,,,,,,,,,,,,,,,,,,,,,,,,,,,1.3040123408039412,1.7955252000001565,150.44966449999993,None,ScrollDown,정답입니다,150.44966449999993,None,150.44966449999993,None,150.44966449999993,None,150.44966449999993,None,152.09687750000012,None,152.09687750000012,152.61101729999973,,,,,,,,,,,,,,,,,,,,,,,,,,,,,,,,,,,,,,,,,,,,,,,,,211,2022-05-06_14h09.30.079,FishGame,2022.1.1,60.00409227892892,
,3,나를 보내줘,6,Orange,A,0,0,ScrollUp,ScrollDown,Orange.png,practice,,,0,0,0,0,,,,,0,0,0,0,0,2,2,2,,,,,,,,,,,,,,,,,,,,,,,,,,,,,,,,,,,,,,,,,,,,,,,,,,,,,,,,1.6280864203969636,1.6598220000005313,153.2700544999998,None,ScrollUp,정답입니다,153.2700544999998,None,153.2700544999998,None,153.2700544999998,None,153.2700544999998,None,154.79426179999973,None,154.79426179999973,155.2939722000001,,,,,,,,,,,,,,,,,,,,,,,,,,,,,,,,,,,,,,,,,,,,,,,,,211,2022-05-06_14h09.30.079,FishGame,2022.1.1,60.00409227892892,
,4,나를 데려가줘,6,Green,B,0,0,ScrollDown,ScrollUp,Green.png,practice,,,0,0,0,0,,,,,0,0,0,0,0,3,3,3,,,,,,,,,,,,,,,,,,,,,,,,,,,,,,,,,,,,,,,,,,,,,,,,,,,,,,,,1.1172839403152466,1.2381852999997136,155.94358139999986,None,ScrollDown,정답입니다,155.94358139999986,None,155.94358139999986,None,155.94358139999986,None,155.94358139999986,None,157.05311239999992,None,157.05311239999992,157.56044740000016,,,,,,,,,,,,,,,,,,,,,,,,,,,,,,,,,,,,,,,,,,,,,,,,,211,2022-05-06_14h09.30.079,FishGame,2022.1.1,60.00409227892892,
,1,넌 교활해,5,Green,B,2.333333333333333,2.133333333333333,ScrollUp,ScrollDown,Green.png,practice,,,0,0,0,0,,,,,0,0,0,0,,,,,,,,,,,,,,,,,,,,,,,,,,,,,,,,,,,,,,,,,,,,,,,,,,,,,,,,,,,,,,,,,,,,,,,,,,,,,,n,5.81171809999978,158.06031929999972,None,158.06031929999972,None,,,,,,,,,,,,,,,,,,,,,,,,,,,,,,,,,,,,,,,,,,,211,2022-05-06_14h09.30.079,FishGame,2022.1.1,60.00409227892892,
,1,넌 따뜻해,1,Green,B,6.083333333333333,5.6,ScrollUp,ScrollDown,Green.png,1,Positive,Incongruent,0,0,0,0,,,,,,,,,,,,,0,0,0,0,,,,,,,,,,,,,,,,,,,,,,,,,,,,,,,,,,,,,,,,,,,,166.05942500000037,167.55924159999995,167.59259219999967,168.54241840000032,168.59235660000013,169.54221030000008,169.54221030000008,None,,,,,,,,,,,,,,,,,,,,,,,,,-0.0129629625,-0.1287037,1,0,0,0.3133829899988996,None,163.89292599999953,None,1.7592592686414719,1.4127840999999535,170.75189500000033,None,ScrollUp,정답입니다,170.75189500000033,None,170.75189500000033,None,170.75189500000033,None,170.75189500000033,None,171.97470199999952,None,171.97470199999952,172.47508860000016,,,,,,,,,,,,,,,,211,2022-05-06_14h09.30.079,FishGame,2022.1.1,60.00409227892892,
,2,넌 기품있어,2,Green,B,5.791666666666668,4.5,ScrollUp,ScrollDown,Green.png,1,Positive,Incongruent,0,0,0,0,,,,,,,,,,,,,0,1,1,1,,,,,,,,,,,,,,,,,,,,,,,,,,,,,,,,,,,,,,,,,,,,,,,,,,,,,,,,,,,,,,,,,,,,,,,,,,,,,,,,,,,,,1.6604938258727393,1.1021334999995815,173.13850749999983,None,ScrollUp,정답입니다,173.13850749999983,None,173.13850749999983,None,173.13850749999983,None,173.13850749999983,None,174.0992728000001,None,174.0992728000001,174.6081989000004,,,,,,,,,,,,,,,,211,2022-05-06_14h09.30.079,FishGame,2022.1.1,60.00409227892892,
,3,나를 보내줘,6,Orange,A,0,0,ScrollUp,ScrollDown,Orange.png,1,NonTarget,NonTarget,0,0,0,0,,,,,,,,,,,,,0,2,2,2,,,,,,,,,,,,,,,,,,,,,,,,,,,,,,,,,,,,,,,,,,,,,,,,,,,,,,,,,,,,,,,,,,,,,,,,,,,,,,,,,,,,,2,1.2798260999998092,175.27646300000015,None,ScrollUp,정답입니다,175.27646300000015,None,175.27646300000015,None,175.27646300000015,None,175.27646300000015,None,176.40902540000025,None,176.40902540000025,176.9245694000001,,,,,,,,,,,,,,,,211,2022-05-06_14h09.30.079,FishGame,2022.1.1,60.00409227892892,
,4,넌 수동적이야,4,Orange,A,2.833333333333333,2.933333333333333,ScrollDown,ScrollUp,Orange.png,1,Negative,Incongruent,0,0,0,0,,,,,,,,,,,,,0,3,3,3,,,,,,,,,,,,,,,,,,,,,,,,,,,,,,,,,,,,,,,,,,,,,,,,,,,,,,,,,,,,,,,,,,,,,,,,,,,,,,,,,,,,,1,1.4191377000006469,177.60257189999993,None,ScrollDown,정답입니다,177.60257189999993,None,177.60257189999993,None,177.60257189999993,None,177.60257189999993,None,178.86435950000032,None,178.86435950000032,179.37419539999973,,,,,,,,,,,,,,,,211,2022-05-06_14h09.30.079,FishGame,2022.1.1,60.00409227892892,
,5,넌 사심이 없어,3,Green,B,4.916666666666666,4.333333333333333,ScrollUp,ScrollDown,Green.png,1,Neutral,Neutral,0,0,0,0,,,,,,,,,,,,,0,4,4,4,,,,,,,,,,,,,,,,,,,,,,,,,,,,,,,,,,,,,,,,,,,,,,,,,,,,,,,,,,,,,,,,,,,,,,,,,,,,,,,,,,,,,1.9706790049870808,1.2635239999999612,180.03480750000017,None,ScrollUp,정답입니다,180.03480750000017,None,180.03480750000017,None,180.03480750000017,None,180.03480750000017,None,181.15957999999955,None,181.15957999999955,181.67390100000011,,,,,,,,,,,,,,,,211,2022-05-06_14h09.30.079,FishGame,2022.1.1,60.00409227892892,
,6,넌 헤퍼,5,Orange,A,2.458333333333334,2.233333333333333,ScrollDown,ScrollUp,Orange.png,1,Negative,Incongruent,0,0,0,0,,,,,,,,,,,,,0,5,5,5,,,,,,,,,,,,,,,,,,,,,,,,,,,,,,,,,,,,,,,,,,,,,,,,,,,,,,,,,,,,,,,,,,,,,,,,,,,,,,,,,,,,,1,1.1231254999993325,182.3359647999996,None,ScrollDown,정답입니다,182.3359647999996,None,182.3359647999996,None,182.3359647999996,None,182.3359647999996,None,183.32367629999953,None,183.32367629999953,183.82383630000004,,,,,,,,,,,,,,,,211,2022-05-06_14h09.30.079,FishGame,2022.1.1,60.00409227892892,
,7,넌 말쑥해,3,Orange,A,4.833333333333334,4.333333333333333,ScrollDown,ScrollUp,Orange.png,1,Neutral,Neutral,0,0,0,0,,,,,,,,,,,,,0,6,6,6,,,,,,,,,,,,,,,,,,,,,,,,,,,,,,,,,,,,,,,,,,,,,,,,,,,,,,,,,,,,,,,,,,,,,,,,,,,,,,,,,,,,,1.2222222139437993,1.3564029999997729,184.49907580000036,None,ScrollDown,정답입니다,184.49907580000036,None,184.49907580000036,None,184.49907580000036,None,184.49907580000036,None,185.7069609,None,185.7069609,186.20676550000007,,,,,,,,,,,,,,,,211,2022-05-06_14h09.30.079,FishGame,2022.1.1,60.00409227892892,
,8,넌 투덜거려,5,Green,B,2.541666666666667,2.266666666666667,ScrollUp,ScrollDown,Green.png,1,Negative,Congruent,0,0,0,0,,,,,,,,,,,,,0,7,7,7,,,,,,,,,,,,,,,,,,,,,,,,,,,,,,,,,,,,,,,,,,,,,,,,,,,,,,,,,,,,,,,,,,,,,,,,,,,,,,,,,,,,,2,1.1942856000005122,186.87045599999965,None,ScrollUp,정답입니다,186.87045599999965,None,186.87045599999965,None,186.87045599999965,None,186.87045599999965,None,187.92322319999948,None,187.92322319999948,188.42307710000023,,,,,,,,,,,,,,,,211,2022-05-06_14h09.30.079,FishGame,2022.1.1,60.00409227892892,
,9,넌 적극적이야,1,Orange,A,5.708333333333333,5.533333333333333,ScrollDown,ScrollUp,Orange.png,1,Positive,Congruent,0,0,0,0,,,,,,,,,,,,,0,8,8,8,,,,,,,,,,,,,,,,,,,,,,,,,,,,,,,,,,,,,,,,,,,,,,,,,,,,,,,,,,,,,,,,,,,,,,,,,,,,,,,,,,,,,1,1.1787100999999893,189.08527229999982,None,ScrollDown,정답입니다,189.08527229999982,None,189.08527229999982,None,189.08527229999982,None,189.08527229999982,None,190.1229016999996,None,190.1229016999996,190.62276959999963,,,,,,,,,,,,,,,,211,2022-05-06_14h09.30.079,FishGame,2022.1.1,60.00409227892892,
,10,넌 재미없어,4,Green,B,2.625,2.966666666666667,ScrollUp,ScrollDown,Green.png,1,Negative,Congruent,0,0,0,0,,,,,,,,,,,,,0,9,9,9,,,,,,,,,,,,,,,,,,,,,,,,,,,,,,,,,,,,,,,,,,,,,,,,,,,,,,,,,,,,,,,,,,,,,,,,,,,,,,,,,,,,,2,1.1274586999998064,191.2815142999998,None,ScrollUp,정답입니다,191.2815142999998,None,191.2815142999998,None,191.2815142999998,None,191.2815142999998,None,192.2722861000002,None,192.2722861000002,192.77252919999955,,,,,,,,,,,,,,,,211,2022-05-06_14h09.30.079,FishGame,2022.1.1,60.00409227892892,
,11,넌 명석해,2,Orange,A,5.875,4.033333333333333,ScrollDown,ScrollUp,Orange.png,1,Positive,Congruent,0,0,0,0,,,,,,,,,,,,,0,10,10,10,,,,,,,,,,,,,,,,,,,,,,,,,,,,,,,,,,,,,,,,,,,,,,,,,,,,,,,,,,,,,,,,,,,,,,,,,,,,,,,,,,,,,1,1.3068600000005972,193.43608829999994,None,ScrollDown,정답입니다,193.43608829999994,None,193.43608829999994,None,193.43608829999994,None,193.43608829999994,None,194.60582609999983,None,194.60582609999983,195.10544260000006,,,,,,,,,,,,,,,,211,2022-05-06_14h09.30.079,FishGame,2022.1.1,60.00409227892892,
,12,나를 데려가줘,6,Green,B,0,0,ScrollDown,ScrollUp,Green.png,1,NonTarget,NonTarget,0,0,0,0,,,,,,,,,,,,,0,11,11,11,,,,,,,,,,,,,,,,,,,,,,,,,,,,,,,,,,,,,,,,,,,,,,,,,,,,,,,,,,,,,,,,,,,,,,,,,,,,,,,,,,,,,1,1.1571082000000388,195.7633882,None,ScrollDown,정답입니다,195.7633882,None,195.7633882,None,195.7633882,None,195.7633882,None,196.78873870000007,None,196.78873870000007,197.28858359999958,,,,,,,,,,,,,,,,211,2022-05-06_14h09.30.079,FishGame,2022.1.1,60.00409227892892,
,13,넌 소심해,4,Orange,A,3,3.1,ScrollDown,ScrollUp,Orange.png,1,Negative,Incongruent,0,0,0,0,,,,,,,,,,,,,0,12,12,12,,,,,,,,,,,,,,,,,,,,,,,,,,,,,,,,,,,,,,,,,,,,,,,,,,,,,,,,,,,,,,,,,,,,,,,,,,,,,,,,,,,,,1,0.964802000000418,197.94303779999973,None,ScrollDown,정답입니다,197.94303779999973,None,197.94303779999973,None,197.94303779999973,None,197.94303779999973,None,198.77644099999998,None,198.77644099999998,199.28836769999998,,,,,,,,,,,,,,,,211,2022-05-06_14h09.30.079,FishGame,2022.1.1,60.00409227892892,
,14,넌 합리적이야,2,Orange,A,5.583333333333333,4.733333333333333,ScrollDown,ScrollUp,Orange.png,1,Positive,Congruent,0,0,0,0,,,,,,,,,,,,,0,13,13,13,,,,,,,,,,,,,,,,,,,,,,,,,,,,,,,,,,,,,,,,,,,,,,,,,,,,,,,,,,,,,,,,,,,,,,,,,,,,,,,,,,,,,1,0.9904081000004226,199.9543980999997,None,ScrollDown,정답입니다,199.9543980999997,None,199.9543980999997,None,199.9543980999997,None,199.9543980999997,None,200.79853410000032,None,200.79853410000032,201.3047704999999,,,,,,,,,,,,,,,,211,2022-05-06_14h09.30.079,FishGame,2022.1.1,60.00409227892892,
,15,넌 무자비해,5,Green,B,2.333333333333333,2.1,ScrollUp,ScrollDown,Green.png,1,Negative,Congruent,0,0,0,0,,,,,,,,,,,,,0,14,14,14,,,,,,,,,,,,,,,,,,,,,,,,,,,,,,,,,,,,,,,,,,,,,,,,,,,,,,,,,,,,,,,,,,,,,,,,,,,,,,,,,,,,,2,1.1896135000006325,201.96461360000012,None,ScrollUp,정답입니다,201.96461360000012,None,201.96461360000012,None,201.96461360000012,None,201.96461360000012,None,203.02125400000023,None,203.02125400000023,203.5210380999997,,,,,,,,,,,,,,,,211,2022-05-06_14h09.30.079,FishGame,2022.1.1,60.00409227892892,
,16,나를 보내줘,6,Orange,A,0,0,ScrollUp,ScrollDown,Orange.png,1,NonTarget,NonTarget,0,0,0,0,,,,,,,,,,,,,0,15,15,15,,,,,,,,,,,,,,,,,,,,,,,,,,,,,,,,,,,,,,,,,,,,,,,,,,,,,,,,,,,,,,,,,,,,,,,,,,,,,,,,,,,,,2,1.2882560999996713,204.17583079999986,None,ScrollUp,정답입니다,204.17583079999986,None,204.17583079999986,None,204.17583079999986,None,204.17583079999986,None,205.33089689999997,None,205.33089689999997,205.83742110000003,,,,,,,,,,,,,,,,211,2022-05-06_14h09.30.079,FishGame,2022.1.1,60.00409227892892,
,17,넌 현실적이야,3,Green,B,4.608695652173913,4.766666666666667,ScrollUp,ScrollDown,Green.png,1,Neutral,Neutral,0,0,0,0,,,,,,,,,,,,,0,16,16,16,,,,,,,,,,,,,,,,,,,,,,,,,,,,,,,,,,,,,,,,,,,,,,,,,,,,,,,,,,,,,,,,,,,,,,,,,,,,,,,,,,,,,1.584876542290052,1.0653930000007676,206.51652560000002,None,ScrollUp,정답입니다,206.51652560000002,None,206.51652560000002,None,206.51652560000002,None,206.51652560000002,None,207.42613729999994,None,207.42613729999994,207.93715429999975,,,,,,,,,,,,,,,,211,2022-05-06_14h09.30.079,FishGame,2022.1.1,60.00409227892892,
,18,넌 의리있어,1,Green,B,5.833333333333334,5.633333333333334,ScrollUp,ScrollDown,Green.png,1,Positive,Incongruent,0,0,0,0,,,,,,,,,,,,,0,17,17,17,,,,,,,,,,,,,,,,,,,,,,,,,,,,,,,,,,,,,,,,,,,,,,,,,,,,,,,,,,,,,,,,,,,,,,,,,,,,,,,,,,,,,1.8503086417913437,1.111272299999655,208.5928702000001,None,ScrollUp,정답입니다,208.5928702000001,None,208.5928702000001,None,208.5928702000001,None,208.5928702000001,None,209.57050340000023,None,209.57050340000023,210.07025049999993,,,,,,,,,,,,,,,,211,2022-05-06_14h09.30.079,FishGame,2022.1.1,60.00409227892892,
,19,넌 신경과민이야,5,Orange,A,2.541666666666667,2.166666666666667,ScrollDown,ScrollUp,Orange.png,1,Negative,Incongruent,0,0,0,0,,,,,,,,,,,,,0,18,18,18,,,,,,,,,,,,,,,,,,,,,,,,,,,,,,,,,,,,,,,,,,,,,,,,,,,,,,,,,,,,,,,,,,,,,,,,,,,,,,,,,,,,,1.2438271592060726,1.11244699999952,210.74191450000035,None,ScrollDown,정답입니다,210.74191450000035,None,210.74191450000035,None,210.74191450000035,None,210.74191450000035,None,211.70399089999955,None,211.70399089999955,212.20329829999991,,,,,,,,,,,,,,,,211,2022-05-06_14h09.30.079,FishGame,2022.1.1,60.00409227892892,
,20,넌 편안해,1,Orange,A,5.916666666666666,5.866666666666666,ScrollDown,ScrollUp,Orange.png,1,Positive,Congruent,0,0,0,0,,,,,,,,,,,,,0,19,19,19,,,,,,,,,,,,,,,,,,,,,,,,,,,,,,,,,,,,,,,,,,,,,,,,,,,,,,,,,,,,,,,,,,,,,,,,,,,,,,,,,,,,,1.0833333333333333,1.4405488000002151,212.86806799999977,None,ScrollDown,정답입니다,212.86806799999977,None,212.86806799999977,None,212.86806799999977,None,212.86806799999977,None,214.16993139999977,None,214.16993139999977,214.66969729999983,,,,,,,,,,,,,,,,211,2022-05-06_14h09.30.079,FishGame,2022.1.1,60.00409227892892,
,21,넌 품위있어,2,Green,B,5.291666666666666,4.466666666666667,ScrollUp,ScrollDown,Green.png,1,Positive,Incongruent,0,0,0,0,,,,,,,,,,,,,0,20,20,20,,,,,,,,,,,,,,,,,,,,,,,,,,,,,,,,,,,,,,,,,,,,,,,,,,,,,,,,,,,,,,,,,,,,,,,,,,,,,,,,,,,,,2,0.9971808999998757,215.32495149999977,None,ScrollUp,정답입니다,215.32495149999977,None,215.32495149999977,None,215.32495149999977,None,215.32495149999977,None,216.18848290000005,None,216.18848290000005,216.7027234999996,,,,,,,,,,,,,,,,211,2022-05-06_14h09.30.079,FishGame,2022.1.1,60.00409227892892,
,22,넌 빈틈없어,3,Orange,A,4.833333333333333,3.966666666666667,ScrollDown,ScrollUp,Orange.png,1,Neutral,Neutral,0,0,0,0,,,,,,,,,,,,,0,21,21,21,,,,,,,,,,,,,,,,,,,,,,,,,,,,,,,,,,,,,,,,,,,,,,,,,,,,,,,,,,,,,,,,,,,,,,,,,,,,,,,,,,,,,1.0586419602235158,0.916005199999745,217.36990460000015,None,ScrollDown,정답입니다,217.36990460000015,None,217.36990460000015,None,217.36990460000015,None,217.36990460000015,None,218.1409404999995,None,218.1409404999995,218.6524970999999,,,,,,,,,,,,,,,,211,2022-05-06_14h09.30.079,FishGame,2022.1.1,60.00409227892892,
,23,넌 상상력없어,4,Green,B,2.833333333333333,3.133333333333333,ScrollUp,ScrollDown,Green.png,1,Negative,Congruent,0,0,0,0,,,,,,,,,,,,,0,22,22,22,,,,,,,,,,,,,,,,,,,,,,,,,,,,,,,,,,,,,,,,,,,,,,,,,,,,,,,,,,,,,,,,,,,,,,,,,,,,,,,,,,,,,1.71913580596447,0.9070415000005596,219.3096276999995,None,ScrollUp,정답입니다,219.3096276999995,None,219.3096276999995,None,219.3096276999995,None,219.3096276999995,None,220.08572300000014,None,220.08572300000014,220.58551540000008,,,,,,,,,,,,,,,,211,2022-05-06_14h09.30.079,FishGame,2022.1.1,60.00409227892892,
,24,넌 지혜로워,2,Green,B,6.333333333333334,4.633333333333334,ScrollUp,ScrollDown,Green.png,1,Positive,Incongruent,0,0,0,0,,,,,,,,,,,,,0,23,23,23,,,,,,,,,,,,,,,,,,,,,,,,,,,,,,,,,,,,,,,,,,,,,,,,,,,,,,,,,,,,,,,,,,,,,,,,,,,,,,,,,,,,,1.9768518606821697,0.9214689999998882,221.24947049999992,None,ScrollUp,정답입니다,221.24947049999992,None,221.24947049999992,None,221.24947049999992,None,221.24947049999992,None,222.02776240000003,None,222.02776240000003,222.53527759999997,,,,,,,,,,,,,,,,211,2022-05-06_14h09.30.079,FishGame,2022.1.1,60.00409227892892,
,25,넌 시끄러워,4,Orange,A,2.833333333333333,3.033333333333333,ScrollDown,ScrollUp,Orange.png,1,Negative,Incongruent,0,0,0,0,,,,,,,,,,,,,0,24,24,24,,,,,,,,,,,,,,,,,,,,,,,,,,,,,,,,,,,,,,,,,,,,,,,,,,,,,,,,,,,,,,,,,,,,,,,,,,,,,,,,,,,,,1,1.1148229999998875,223.20859120000023,None,ScrollDown,정답입니다,223.20859120000023,None,223.20859120000023,None,223.20859120000023,None,223.20859120000023,None,224.1718006000001,None,224.1718006000001,224.6850561000001,,,,,,,,,,,,,,,,211,2022-05-06_14h09.30.079,FishGame,2022.1.1,60.00409227892892,
,26,넌 만사태평이야,3,Green,B,4,4.333333333333333,ScrollUp,ScrollDown,Green.png,1,Neutral,Neutral,0,0,0,0,,,,,,,,,,,,,0,25,25,25,,,,,,,,,,,,,,,,,,,,,,,,,,,,,,,,,,,,,,,,,,,,,,,,,,,,,,,,,,,,,,,,,,,,,,,,,,,,,,,,,,,,,2,1.0556310000001758,225.33953829999973,None,ScrollUp,정답입니다,225.33953829999973,None,225.33953829999973,None,225.33953829999973,None,225.33953829999973,None,226.26635989999977,None,226.26635989999977,226.76807649999955,,,,,,,,,,,,,,,,211,2022-05-06_14h09.30.079,FishGame,2022.1.1,60.00409227892892,
,27,넌 붙임성있어,1,Orange,A,5.708333333333333,5.633333333333334,ScrollDown,ScrollUp,Orange.png,1,Positive,Congruent,0,0,0,0,,,,,,,,,,,,,0,26,26,26,,,,,,,,,,,,,,,,,,,,,,,,,,,,,,,,,,,,,,,,,,,,,,,,,,,,,,,,,,,,,,,,,,,,,,,,,,,,,,,,,,,,,1.0092592636744182,0.9448075000000244,227.43439690000014,None,ScrollDown,정답입니다,227.43439690000014,None,227.43439690000014,None,227.43439690000014,None,227.43439690000014,None,228.23522219999995,None,228.23522219999995,228.73453450000034,,,,,,,,,,,,,,,,211,2022-05-06_14h09.30.079,FishGame,2022.1.1,60.00409227892892,
,28,넌 영리해,2,Orange,A,6,4.033333333333333,ScrollDown,ScrollUp,Orange.png,1,Positive,Congruent,0,0,0,0,,,,,,,,,,,,,0,27,27,27,,,,,,,,,,,,,,,,,,,,,,,,,,,,,,,,,,,,,,,,,,,,,,,,,,,,,,,,,,,,,,,,,,,,,,,,,,,,,,,,,,,,,1,1.0841260999995939,229.3981547000003,None,ScrollDown,정답입니다,229.3981547000003,None,229.3981547000003,None,229.3981547000003,None,229.3981547000003,None,230.3402500000002,None,230.3402500000002,230.8507952,,,,,,,,,,,,,,,,211,2022-05-06_14h09.30.079,FishGame,2022.1.1,60.00409227892892,
,29,넌 열심이야,1,Green,B,6.041666666666667,5.833333333333333,ScrollUp,ScrollDown,Green.png,1,Positive,Incongruent,0,0,0,0,,,,,,,,,,,,,0,28,28,28,,,,,,,,,,,,,,,,,,,,,,,,,,,,,,,,,,,,,,,,,,,,,,,,,,,,,,,,,,,,,,,,,,,,,,,,,,,,,,,,,,,,,2,1.0304912000001423,231.50705300000027,None,ScrollUp,정답입니다,231.50705300000027,None,231.50705300000027,None,231.50705300000027,None,231.50705300000027,None,232.4034015999996,None,232.4034015999996,232.9172652999996,,,,,,,,,,,,,,,,211,2022-05-06_14h09.30.079,FishGame,2022.1.1,60.00409227892892,
,30,넌 인기없어,4,Green,B,3,3.3,ScrollUp,ScrollDown,Green.png,1,Negative,Congruent,0,0,0,0,,,,,,,,,,,,,0,29,29,29,,,,,,,,,,,,,,,,,,,,,,,,,,,,,,,,,,,,,,,,,,,,,,,,,,,,,,,,,,,,,,,,,,,,,,,,,,,,,,,,,,,,,1.9876543084780376,0.9451977000007901,233.5667426,None,ScrollUp,정답입니다,233.5667426,None,233.5667426,None,233.5667426,None,233.5667426,None,234.3838899000002,None,234.3838899000002,234.88363690000006,,,,,,,,,,,,,,,,211,2022-05-06_14h09.30.079,FishGame,2022.1.1,60.00409227892892,
,31,넌 익살스러워,3,Orange,A,4.708333333333334,4.833333333333333,ScrollDown,ScrollUp,Orange.png,1,Neutral,Neutral,0,0,0,0,,,,,,,,,,,,,0,30,30,30,,,,,,,,,,,,,,,,,,,,,,,,,,,,,,,,,,,,,,,,,,,,,,,,,,,,,,,,,,,,,,,,,,,,,,,,,,,,,,,,,,,,,1,1.1311641000002055,235.5541760999995,None,ScrollDown,정답입니다,235.5541760999995,None,235.5541760999995,None,235.5541760999995,None,235.5541760999995,None,236.5399994999998,None,236.5399994999998,237.05009429999973,,,,,,,,,,,,,,,,211,2022-05-06_14h09.30.079,FishGame,2022.1.1,60.00409227892892,
,32,넌 이기적이야,5,Green,B,2.291666666666667,2.333333333333333,ScrollUp,ScrollDown,Green.png,1,Negative,Congruent,0,0,0,0,,,,,,,,,,,,,0,31,31,31,,,,,,,,,,,,,,,,,,,,,,,,,,,,,,,,,,,,,,,,,,,,,,,,,,,,,,,,,,,,,,,,,,,,,,,,,,,,,,,,,,,,,1.9567901293436687,0.96360039999945,237.69876560000012,None,ScrollUp,정답입니다,237.69876560000012,None,237.69876560000012,None,237.69876560000012,None,237.69876560000012,None,238.5386153999998,None,238.5386153999998,239.0498281,,,,,,,,,,,,,,,,211,2022-05-06_14h09.30.079,FishGame,2022.1.1,60.00409227892892,
,33,나를 데려가줘,6,Green,B,0,0,ScrollDown,ScrollUp,Green.png,1,NonTarget,NonTarget,0,0,0,0,,,,,,,,,,,,,0,32,32,32,,,,,,,,,,,,,,,,,,,,,,,,,,,,,,,,,,,,,,,,,,,,,,,,,,,,,,,,,,,,,,,,,,,,,,,,,,,,,,,,,,,,,1,1.5477113000006284,239.7009366000002,None,ScrollDown,정답입니다,239.7009366000002,None,239.7009366000002,None,239.7009366000002,None,239.7009366000002,None,241.12114639999982,None,241.12114639999982,241.63276599999972,,,,,,,,,,,,,,,,211,2022-05-06_14h09.30.079,FishGame,2022.1.1,60.00409227892892,
,34,넌 기회주의자야,5,Orange,A,2.875,2.133333333333333,ScrollDown,ScrollUp,Orange.png,1,Negative,Incongruent,0,0,0,0,,,,,,,,,,,,,0,33,33,33,,,,,,,,,,,,,,,,,,,,,,,,,,,,,,,,,,,,,,,,,,,,,,,,,,,,,,,,,,,,,,,,,,,,,,,,,,,,,,,,,,,,,1.0432098706563313,1.2144510999996783,242.30218779999996,None,ScrollDown,정답입니다,242.30218779999996,None,242.30218779999996,None,242.30218779999996,None,242.30218779999996,None,243.3713098999997,None,243.3713098999997,243.8825151000001,,,,,,,,,,,,,,,,211,2022-05-06_14h09.30.079,FishGame,2022.1.1,60.00409227892892,
,1,넌 미성숙해,4,Orange,A,3,3.2,ScrollDown,ScrollUp,Orange.png,2,Negative,Incongruent,0,0,0,0,,,,,,,,,,,,,,,,,0,0,0,0,,,,,,,,,,,,,,,,,,,,,,,,,,,,,,,,,,,,,,,,279.42791450000004,280.92784779999965,280.9611097999996,281.91093530000035,281.96105119999993,282.91092019999996,282.91092019999996,None,,,,,,,,,,,,,,,,,,,,,,,,,,,,,,,,,,1.1342592686414719,1.207475400000476,284.1124855999997,None,ScrollDown,정답입니다,284.1124855999997,None,284.1124855999997,None,284.1124855999997,None,284.1124855999997,None,285.13219969999955,None,285.13219969999955,285.6438986000003,244.38239619999968,None,244.38239619999968,None,0.06759259,-0.09166667,1,0,0,0.015997690000403963,None,274.3785267000003,None,,,211,2022-05-06_14h09.30.079,FishGame,2022.1.1,60.00409227892892,
,2,넌 반사회적이야,5,Green,B,2.416666666666667,2.033333333333333,ScrollUp,ScrollDown,Green.png,2,Negative,Congruent,0,0,0,0,,,,,,,,,,,,,,,,,0,1,1,1,,,,,,,,,,,,,,,,,,,,,,,,,,,,,,,,,,,,,,,,,,,,,,,,,,,,,,,,,,,,,,,,,,,,,,,,,,,,,,,,,1.805555562178294,1.1704694000000018,286.30020539999987,None,ScrollUp,정답입니다,286.30020539999987,None,286.30020539999987,None,286.30020539999987,None,286.30020539999987,None,287.33602749999955,None,287.33602749999955,287.84346259999984,,,,,,,,,,,,,,,,211,2022-05-06_14h09.30.079,FishGame,2022.1.1,60.00409227892892,
,3,넌 유능해,2,Orange,A,6.208333333333333,4.433333333333334,ScrollDown,ScrollUp,Orange.png,2,Positive,Congruent,0,0,0,0,,,,,,,,,,,,,,,,,0,2,2,2,,,,,,,,,,,,,,,,,,,,,,,,,,,,,,,,,,,,,,,,,,,,,,,,,,,,,,,,,,,,,,,,,,,,,,,,,,,,,,,,,1,1.0052888999998686,288.5074198000002,None,ScrollDown,정답입니다,288.5074198000002,None,288.5074198000002,None,288.5074198000002,None,288.5074198000002,None,289.3707495999997,None,289.3707495999997,289.87652569999955,,,,,,,,,,,,,,,,211,2022-05-06_14h09.30.079,FishGame,2022.1.1,60.00409227892892,
,4,넌 능숙해,2,Green,B,5.666666666666667,4.733333333333333,ScrollUp,ScrollDown,Green.png,2,Positive,Incongruent,0,0,0,0,,,,,,,,,,,,,,,,,0,3,3,3,,,,,,,,,,,,,,,,,,,,,,,,,,,,,,,,,,,,,,,,,,,,,,,,,,,,,,,,,,,,,,,,,,,,,,,,,,,,,,,,,1.799382706483205,1.0558001999997941,290.5243141000001,None,ScrollUp,정답입니다,290.5243141000001,None,290.5243141000001,None,290.5243141000001,None,290.5243141000001,None,291.4599301999997,None,291.4599301999997,291.95967850000034,,,,,,,,,,,,,,,,211,2022-05-06_14h09.30.079,FishGame,2022.1.1,60.00409227892892,
,5,넌 진부해,4,Green,B,2.458333333333333,3.166666666666667,ScrollUp,ScrollDown,Green.png,2,Negative,Congruent,0,0,0,0,,,,,,,,,,,,,,,,,0,4,4,4,,,,,,,,,,,,,,,,,,,,,,,,,,,,,,,,,,,,,,,,,,,,,,,,,,,,,,,,,,,,,,,,,,,,,,,,,,,,,,,,,1.7716049303611119,0.8887494999999035,292.6199848999995,None,ScrollUp,정답입니다,292.6199848999995,None,292.6199848999995,None,292.6199848999995,None,292.6199848999995,None,293.3762254000003,None,293.3762254000003,293.87600680000014,,,,,,,,,,,,,,,,211,2022-05-06_14h09.30.079,FishGame,2022.1.1,60.00409227892892,
,6,나를 보내줘,6,Orange,A,0,0,ScrollUp,ScrollDown,Orange.png,2,NonTarget,NonTarget,0,0,0,0,,,,,,,,,,,,,,,,,0,5,5,5,,,,,,,,,,,,,,,,,,,,,,,,,,,,,,,,,,,,,,,,,,,,,,,,,,,,,,,,,,,,,,,,,,,,,,,,,,,,,,,,,1.90586419403553,1.2503985000003013,294.53179790000013,None,ScrollUp,정답입니다,294.53179790000013,None,294.53179790000013,None,294.53179790000013,None,294.53179790000013,None,295.6471736000003,None,295.6471736000003,296.1590833,,,,,,,,,,,,,,,,211,2022-05-06_14h09.30.079,FishGame,2022.1.1,60.00409227892892,
,7,넌 엄격해,3,Orange,A,4.166666666666666,4.1,ScrollDown,ScrollUp,Orange.png,2,Neutral,Neutral,0,0,0,0,,,,,,,,,,,,,,,,,0,6,6,6,,,,,,,,,,,,,,,,,,,,,,,,,,,,,,,,,,,,,,,,,,,,,,,,,,,,,,,,,,,,,,,,,,,,,,,,,,,,,,,,,1.1990740795930226,1.0436402000004819,296.8230967999998,None,ScrollDown,정답입니다,296.8230967999998,None,296.8230967999998,None,296.8230967999998,None,296.8230967999998,None,297.7255267999999,None,297.7255267999999,298.2254106999999,,,,,,,,,,,,,,,,211,2022-05-06_14h09.30.079,FishGame,2022.1.1,60.00409227892892,
,8,나를 보내줘,6,Orange,A,0,0,ScrollUp,ScrollDown,Orange.png,2,NonTarget,NonTarget,0,0,0,0,,,,,,,,,,,,,,,,,0,7,7,7,,,,,,,,,,,,,,,,,,,,,,,,,,,,,,,,,,,,,,,,,,,,,,,,,,,,,,,,,,,,,,,,,,,,,,,,,,,,,,,,,1.7731481442848842,1.0738208000002487,298.87936030000037,None,ScrollUp,정답입니다,298.87936030000037,None,298.87936030000037,None,298.87936030000037,None,298.87936030000037,None,299.8254347000002,None,299.8254347000002,300.32521329999963,,,,,,,,,,,,,,,,211,2022-05-06_14h09.30.079,FishGame,2022.1.1,60.00409227892892,
,9,넌 대담해,3,Green,B,4.875,4.866666666666666,ScrollUp,ScrollDown,Green.png,2,Neutral,Neutral,0,0,0,0,,,,,,,,,,,,,,,,,0,8,8,8,,,,,,,,,,,,,,,,,,,,,,,,,,,,,,,,,,,,,,,,,,,,,,,,,,,,,,,,,,,,,,,,,,,,,,,,,,,,,,,,,1.787037044763565,1.1269524999997884,300.9815829999998,None,ScrollUp,정답입니다,300.9815829999998,None,300.9815829999998,None,300.9815829999998,None,300.9815829999998,None,301.97510069999953,None,301.97510069999953,302.4748798999999,,,,,,,,,,,,,,,,211,2022-05-06_14h09.30.079,FishGame,2022.1.1,60.00409227892892,
,10,넌 꾸준해,1,Orange,A,5.916666666666668,5.8,ScrollDown,ScrollUp,Orange.png,2,Positive,Congruent,0,0,0,0,,,,,,,,,,,,,,,,,0,9,9,9,,,,,,,,,,,,,,,,,,,,,,,,,,,,,,,,,,,,,,,,,,,,,,,,,,,,,,,,,,,,,,,,,,,,,,,,,,,,,,,,,1.1867283930381138,1.0343605999996726,303.13711200000034,None,ScrollDown,정답입니다,303.13711200000034,None,303.13711200000034,None,303.13711200000034,None,303.13711200000034,None,304.03307140000015,None,304.03307140000015,304.54127809999954,,,,,,,,,,,,,,,,211,2022-05-06_14h09.30.079,FishGame,2022.1.1,60.00409227892892,
,11,나를 데려가줘,6,Green,B,0,0,ScrollDown,ScrollUp,Green.png,2,NonTarget,NonTarget,0,0,0,0,,,,,,,,,,,,,,,,,0,10,10,10,,,,,,,,,,,,,,,,,,,,,,,,,,,,,,,,,,,,,,,,,,,,,,,,,,,,,,,,,,,,,,,,,,,,,,,,,,,,,,,,,1.2515432039896646,1.1001923000003444,305.1928920999999,None,ScrollDown,정답입니다,305.1928920999999,None,305.1928920999999,None,305.1928920999999,None,305.1928920999999,None,306.16459010000017,None,306.16459010000017,306.67432370000006,,,,,,,,,,,,,,,,211,2022-05-06_14h09.30.079,FishGame,2022.1.1,60.00409227892892,
,12,넌 독선적이야,5,Orange,A,2.458333333333333,1.933333333333333,ScrollDown,ScrollUp,Orange.png,2,Negative,Incongruent,0,0,0,0,,,,,,,,,,,,,,,,,0,11,11,11,,,,,,,,,,,,,,,,,,,,,,,,,,,,,,,,,,,,,,,,,,,,,,,,,,,,,,,,,,,,,,,,,,,,,,,,,,,,,,,,,1.2623456766208014,1.0263147999994544,307.3419861000002,None,ScrollDown,정답입니다,307.3419861000002,None,307.3419861000002,None,307.3419861000002,None,307.3419861000002,None,308.2190129999999,None,308.2190129999999,308.72427100000004,,,,,,,,,,,,,,,,211,2022-05-06_14h09.30.079,FishGame,2022.1.1,60.00409227892892,
,13,나를 보내줘,6,Orange,A,0,0,ScrollUp,ScrollDown,Orange.png,2,NonTarget,NonTarget,0,0,0,0,,,,,,,,,,,,,,,,,0,12,12,12,,,,,,,,,,,,,,,,,,,,,,,,,,,,,,,,,,,,,,,,,,,,,,,,,,,,,,,,,,,,,,,,,,,,,,,,,,,,,,,,,1.7824074029922485,1.029268299999785,309.37232219999987,None,ScrollUp,정답입니다,309.37232219999987,None,309.37232219999987,None,309.37232219999987,None,309.37232219999987,None,310.27410599999985,None,310.27410599999985,310.77388429999974,,,,,,,,,,,,,,,,211,2022-05-06_14h09.30.079,FishGame,2022.1.1,60.00409227892892,
,14,넌 책임감있어,1,Green,B,6.347826086956522,6,ScrollUp,ScrollDown,Green.png,2,Positive,Incongruent,0,0,0,0,,,,,,,,,,,,,,,,,0,13,13,13,,,,,,,,,,,,,,,,,,,,,,,,,,,,,,,,,,,,,,,,,,,,,,,,,,,,,,,,,,,,,,,,,,,,,,,,,,,,,,,,,1.9259259502092998,1.5405026999997062,311.43747840000015,None,ScrollUp,정답입니다,311.43747840000015,None,311.43747840000015,None,311.43747840000015,None,311.43747840000015,None,312.8401914999995,None,312.8401914999995,313.34006919999956,,,,,,,,,,,,,,,,211,2022-05-06_14h09.30.079,FishGame,2022.1.1,60.00409227892892,
,15,넌 문학적이야,3,Orange,A,4.708333333333334,4.333333333333333,ScrollDown,ScrollUp,Orange.png,2,Neutral,Neutral,0,0,0,0,,,,,,,,,,,,,,,,,0,14,14,14,,,,,,,,,,,,,,,,,,,,,,,,,,,,,,,,,,,,,,,,,,,,,,,,,,,,,,,,,,,,,,,,,,,,,,,,,,,,,,,,,1.297839509944121,1.0345029000000068,314.00519389999954,None,ScrollDown,정답입니다,314.00519389999954,None,314.00519389999954,None,314.00519389999954,None,314.00519389999954,None,314.8984025999998,None,314.8984025999998,315.4067839999998,,,,,,,,,,,,,,,,211,2022-05-06_14h09.30.079,FishGame,2022.1.1,60.00409227892892,
,16,넌 재미있어,1,Green,B,5.875,5.7,ScrollUp,ScrollDown,Green.png,2,Positive,Incongruent,0,0,0,0,,,,,,,,,,,,,,,,,0,15,15,15,,,,,,,,,,,,,,,,,,,,,,,,,,,,,,,,,,,,,,,,,,,,,,,,,,,,,,,,,,,,,,,,,,,,,,,,,,,,,,,,,1.7608024577299755,0.9898916000001918,316.05779559999974,None,ScrollUp,정답입니다,316.05779559999974,None,316.05779559999974,None,316.05779559999974,None,316.05779559999974,None,316.92291939999996,None,316.92291939999996,317.4229458,,,,,,,,,,,,,,,,211,2022-05-06_14h09.30.079,FishGame,2022.1.1,60.00409227892892,
,17,나를 데려가줘,6,Green,B,0,0,ScrollDown,ScrollUp,Green.png,2,NonTarget,NonTarget,0,0,0,0,,,,,,,,,,,,,,,,,0,16,16,16,,,,,,,,,,,,,,,,,,,,,,,,,,,,,,,,,,,,,,,,,,,,,,,,,,,,,,,,,,,,,,,,,,,,,,,,,,,,,,,,,1.1836419651905696,1.032458300000144,318.07642719999967,None,ScrollDown,정답입니다,318.07642719999967,None,318.07642719999967,None,318.07642719999967,None,318.07642719999967,None,318.9787489,None,318.9787489,319.4893503000003,,,,,,,,,,,,,,,,211,2022-05-06_14h09.30.079,FishGame,2022.1.1,60.00409227892892,
,18,넌 협력적이야,1,Orange,A,5.625,5.633333333333334,ScrollDown,ScrollUp,Orange.png,2,Positive,Congruent,0,0,0,0,,,,,,,,,,,,,,,,,0,17,17,17,,,,,,,,,,,,,,,,,,,,,,,,,,,,,,,,,,,,,,,,,,,,,,,,,,,,,,,,,,,,,,,,,,,,,,,,,,,,,,,,,1.3641975348194442,0.9431215000004158,320.15314990000024,None,ScrollDown,정답입니다,320.15314990000024,None,320.15314990000024,None,320.15314990000024,None,320.15314990000024,None,320.9557808999998,None,320.9557808999998,321.4557471999997,,,,,,,,,,,,,,,,211,2022-05-06_14h09.30.079,FishGame,2022.1.1,60.00409227892892,
,19,넌 평범해,3,Green,B,4.333333333333332,4.233333333333333,ScrollUp,ScrollDown,Green.png,2,Neutral,Neutral,0,0,0,0,,,,,,,,,,,,,,,,,0,18,18,18,,,,,,,,,,,,,,,,,,,,,,,,,,,,,,,,,,,,,,,,,,,,,,,,,,,,,,,,,,,,,,,,,,,,,,,,,,,,,,,,,1.7932098756233852,1.0519475999999486,322.1114821000001,None,ScrollUp,정답입니다,322.1114821000001,None,322.1114821000001,None,322.1114821000001,None,322.1114821000001,None,323.02992970000014,None,323.02992970000014,323.5389647000002,,,,,,,,,,,,,,,,211,2022-05-06_14h09.30.079,FishGame,2022.1.1,60.00409227892892,
,20,넌 오만해,5,Orange,A,2.333333333333333,2,ScrollDown,ScrollUp,Orange.png,2,Negative,Incongruent,0,0,0,0,,,,,,,,,,,,,,,,,0,19,19,19,,,,,,,,,,,,,,,,,,,,,,,,,,,,,,,,,,,,,,,,,,,,,,,,,,,,,,,,,,,,,,,,,,,,,,,,,,,,,,,,,1.0740740497907002,1.4731766000004427,324.2039870999997,None,ScrollDown,정답입니다,324.2039870999997,None,324.2039870999997,None,324.2039870999997,None,324.2039870999997,None,325.5387204999997,None,325.5387204999997,326.0385655,,,,,,,,,,,,,,,,211,2022-05-06_14h09.30.079,FishGame,2022.1.1,60.00409227892892,
,21,넌 운이없어,4,Green,B,3,3.466666666666667,ScrollUp,ScrollDown,Green.png,2,Negative,Congruent,0,0,0,0,,,,,,,,,,,,,,,,,0,20,20,20,,,,,,,,,,,,,,,,,,,,,,,,,,,,,,,,,,,,,,,,,,,,,,,,,,,,,,,,,,,,,,,,,,,,,,,,,,,,,,,,,1.8287036965290706,0.9397605999993175,326.6955226,None,ScrollUp,정답입니다,326.6955226,None,326.6955226,None,326.6955226,None,326.6955226,None,327.50491450000027,None,327.50491450000027,328.00487799999974,,,,,,,,,,,,,,,,211,2022-05-06_14h09.30.079,FishGame,2022.1.1,60.00409227892892,
,22,넌 창조적이야,2,Green,B,6.125,4.633333333333334,ScrollUp,ScrollDown,Green.png,2,Positive,Incongruent,0,0,0,0,,,,,,,,,,,,,,,,,0,21,21,21,,,,,,,,,,,,,,,,,,,,,,,,,,,,,,,,,,,,,,,,,,,,,,,,,,,,,,,,,,,,,,,,,,,,,,,,,,,,,,,,,1.6620370397965112,0.8828676000002815,328.6641886999996,None,ScrollUp,정답입니다,328.6641886999996,None,328.6641886999996,None,328.6641886999996,None,328.6641886999996,None,329.41080779999993,None,329.41080779999993,329.9213662000002,,,,,,,,,,,,,,,,211,2022-05-06_14h09.30.079,FishGame,2022.1.1,60.00409227892892,
,23,나를 보내줘,6,Orange,A,0,0,ScrollUp,ScrollDown,Orange.png,2,NonTarget,NonTarget,0,0,0,0,,,,,,,,,,,,,,,,,0,22,22,22,,,,,,,,,,,,,,,,,,,,,,,,,,,,,,,,,,,,,,,,,,,,,,,,,,,,,,,,,,,,,,,,,,,,,,,,,,,,,,,,,1.6064814875523248,1.08946670000023,330.57419349999964,None,ScrollUp,정답입니다,330.57419349999964,None,330.57419349999964,None,330.57419349999964,None,330.57419349999964,None,331.5377232000001,None,331.5377232000001,332.0377460999998,,,,,,,,,,,,,,,,211,2022-05-06_14h09.30.079,FishGame,2022.1.1,60.00409227892892,
,24,넌 통찰력있어,2,Orange,A,6.5,4.8,ScrollDown,ScrollUp,Orange.png,2,Positive,Congruent,0,0,0,0,,,,,,,,,,,,,,,,,0,23,23,23,,,,,,,,,,,,,,,,,,,,,,,,,,,,,,,,,,,,,,,,,,,,,,,,,,,,,,,,,,,,,,,,,,,,,,,,,,,,,,,,,1.2052469104528427,1.001607100000001,332.70286880000003,None,ScrollDown,정답입니다,332.70286880000003,None,332.70286880000003,None,332.70286880000003,None,332.70286880000003,None,333.5614403999998,None,333.5614403999998,334.07082809999974,,,,,,,,,,,,,,,,211,2022-05-06_14h09.30.079,FishGame,2022.1.1,60.00409227892892,
,25,넌 경솔해,5,Green,B,2.458333333333333,2.266666666666667,ScrollUp,ScrollDown,Green.png,2,Negative,Congruent,0,0,0,0,,,,,,,,,,,,,,,,,0,24,24,24,,,,,,,,,,,,,,,,,,,,,,,,,,,,,,,,,,,,,,,,,,,,,,,,,,,,,,,,,,,,,,,,,,,,,,,,,,,,,,,,,1.766975313425064,1.0100824999999531,334.7332169000001,None,ScrollUp,정답입니다,334.7332169000001,None,334.7332169000001,None,334.7332169000001,None,334.7332169000001,None,335.6042526000001,None,335.6042526000001,336.1038821000002,,,,,,,,,,,,,,,,211,2022-05-06_14h09.30.079,FishGame,2022.1.1,60.00409227892892,
,26,넌 초조해,4,Orange,A,2.916666666666667,3.133333333333333,ScrollDown,ScrollUp,Orange.png,2,Negative,Incongruent,0,0,0,0,,,,,,,,,,,,,,,,,0,25,25,25,,,,,,,,,,,,,,,,,,,,,,,,,,,,,,,,,,,,,,,,,,,,,,,,,,,,,,,,,,,,,,,,,,,,,,,,,,,,,,,,,1,1.1537044999995487,336.76265969999986,None,ScrollDown,정답입니다,336.76265969999986,None,336.76265969999986,None,336.76265969999986,None,336.76265969999986,None,337.7794608000004,None,337.7794608000004,338.2869376999997,,,,,,,,,,,,,,,,211,2022-05-06_14h09.30.079,FishGame,2022.1.1,60.00409227892892,
,27,넌 무관심해,4,Green,B,2.833333333333333,2.9,ScrollUp,ScrollDown,Green.png,2,Negative,Congruent,0,0,0,0,,,,,,,,,,,,,,,,,0,26,26,26,,,,,,,,,,,,,,,,,,,,,,,,,,,,,,,,,,,,,,,,,,,,,,,,,,,,,,,,,,,,,,,,,,,,,,,,,,,,,,,,,1.8919753183921177,0.9270086999995328,338.94315780000034,None,ScrollUp,정답입니다,338.94315780000034,None,338.94315780000034,None,338.94315780000034,None,338.94315780000034,None,339.7366351999999,None,339.7366351999999,340.23669880000034,,,,,,,,,,,,,,,,211,2022-05-06_14h09.30.079,FishGame,2022.1.1,60.00409227892892,
,28,넌 감성적이야,3,Green,B,4.125,4.166666666666667,ScrollUp,ScrollDown,Green.png,2,Neutral,Neutral,0,0,0,0,,,,,,,,,,,,,,,,,0,27,27,27,,,,,,,,,,,,,,,,,,,,,,,,,,,,,,,,,,,,,,,,,,,,,,,,,,,,,,,,,,,,,,,,,,,,,,,,,,,,,,,,,1.9953703780968983,1.0723324999999022,340.8885928999998,None,ScrollUp,정답입니다,340.8885928999998,None,340.8885928999998,None,340.8885928999998,None,340.8885928999998,None,341.8299546999997,None,341.8299546999997,342.33629159999964,,,,,,,,,,,,,,,,211,2022-05-06_14h09.30.079,FishGame,2022.1.1,60.00409227892892,
,29,넌 배려심있어,1,Orange,A,6.083333333333333,5.5,ScrollDown,ScrollUp,Orange.png,2,Positive,Congruent,0,0,0,0,,,,,,,,,,,,,,,,,0,28,28,28,,,,,,,,,,,,,,,,,,,,,,,,,,,,,,,,,,,,,,,,,,,,,,,,,,,,,,,,,,,,,,,,,,,,,,,,,,,,,,,,,1.3101851840813956,0.836984599999596,342.9993993999997,None,ScrollDown,정답입니다,342.9993993999997,None,342.9993993999997,None,342.9993993999997,None,342.9993993999997,None,343.6964028000002,None,343.6964028000002,344.20300469999984,,,,,,,,,,,,,,,,211,2022-05-06_14h09.30.079,FishGame,2022.1.1,60.00409227892892,
,30,넌 숨김없어,3,Orange,A,4.5,4.933333333333334,ScrollDown,ScrollUp,Orange.png,2,Neutral,Neutral,0,0,0,0,,,,,,,,,,,,,,,,,0,29,29,29,,,,,,,,,,,,,,,,,,,,,,,,,,,,,,,,,,,,,,,,,,,,,,,,,,,,,,,,,,,,,,,,,,,,,,,,,,,,,,,,,1.2793209801117578,0.9737732999992659,344.8725353,None,ScrollDown,정답입니다,344.8725353,None,344.8725353,None,344.8725353,None,344.8725353,None,345.7025090999996,None,345.7025090999996,346.2027556000003,,,,,,,,,,,,,,,,211,2022-05-06_14h09.30.079,FishGame,2022.1.1,60.00409227892892,
,31,넌 훌륭해,2,Green,B,5.916666666666667,4.033333333333333,ScrollUp,ScrollDown,Green.png,2,Positive,Incongruent,0,0,0,0,,,,,,,,,,,,,,,,,0,30,30,30,,,,,,,,,,,,,,,,,,,,,,,,,,,,,,,,,,,,,,,,,,,,,,,,,,,,,,,,,,,,,,,,,,,,,,,,,,,,,,,,,2,0.9627915999999459,346.8702929000001,None,ScrollUp,정답입니다,346.8702929000001,None,346.8702929000001,None,346.8702929000001,None,346.8702929000001,None,347.68903729999965,None,347.68903729999965,348.2024142999999,,,,,,,,,,,,,,,,211,2022-05-06_14h09.30.079,FishGame,2022.1.1,60.00409227892892,
,32,넌 슬기로워,2,Orange,A,6.166666666666667,4.1,ScrollDown,ScrollUp,Orange.png,2,Positive,Congruent,0,0,0,0,,,,,,,,,,,,,,,,,0,31,31,31,,,,,,,,,,,,,,,,,,,,,,,,,,,,,,,,,,,,,,,,,,,,,,,,,,,,,,,,,,,,,,,,,,,,,,,,,,,,,,,,,1.3024691392978034,0.8618591000004017,348.85890610000024,None,ScrollDown,정답입니다,348.85890610000024,None,348.85890610000024,None,348.85890610000024,None,348.85890610000024,None,349.5882953,None,349.5882953,350.10203290000027,,,,,,,,,,,,,,,,211,2022-05-06_14h09.30.079,FishGame,2022.1.1,60.00409227892892,
,33,넌 냉혹해,5,Orange,A,2.583333333333333,2.1,ScrollDown,ScrollUp,Orange.png,2,Negative,Incongruent,0,0,0,0,,,,,,,,,,,,,,,,,0,32,32,32,,,,,,,,,,,,,,,,,,,,,,,,,,,,,,,,,,,,,,,,,,,,,,,,,,,,,,,,,,,,,,,,,,,,,,,,,,,,,,,,,1.3549382761120796,0.827994100000069,350.76567199999954,None,ScrollDown,정답입니다,350.76567199999954,None,350.76567199999954,None,350.76567199999954,None,350.76567199999954,None,351.44854080000005,None,351.44854080000005,351.9517644999996,,,,,,,,,,,,,,,,211,2022-05-06_14h09.30.079,FishGame,2022.1.1,60.00409227892892,
,34,나를 데려가줘,6,Green,B,0,0,ScrollDown,ScrollUp,Green.png,2,NonTarget,NonTarget,0,0,0,0,,,,,,,,,,,,,,,,,0,33,33,33,,,,,,,,,,,,,,,,,,,,,,,,,,,,,,,,,,,,,,,,,,,,,,,,,,,,,,,,,,,,,,,,,,,,,,,,,,,,,,,,,1.341049388051033,0.9451864999991813,352.6039338999999,None,ScrollDown,정답입니다,352.6039338999999,None,352.6039338999999,None,352.6039338999999,None,352.6039338999999,None,353.4203471000001,None,353.4203471000001,353.9348930999995,,,,,,,,,,,,,,,,211,2022-05-06_14h09.30.079,FishGame,2022.1.1,60.00409227892892,
,35,넌 편파적이야,5,Green,B,2.125,2,ScrollUp,ScrollDown,Green.png,2,Negative,Congruent,0,0,0,0,,,,,,,,,,,,,,,,,0,34,34,34,,,,,,,,,,,,,,,,,,,,,,,,,,,,,,,,,,,,,,,,,,,,,,,,,,,,,,,,,,,,,,,,,,,,,,,,,,,,,,,,,1.8981481492519379,0.8940840000004755,354.59526709999955,None,ScrollUp,정답입니다,354.59526709999955,None,354.59526709999955,None,354.59526709999955,None,354.59526709999955,None,355.35136839999996,None,355.35136839999996,355.85130370000024,,,,,,,,,,,,,,,,211,2022-05-06_14h09.30.079,FishGame,2022.1.1,60.00409227892892,
,36,넌 슬퍼,4,Orange,A,2.583333333333333,3.066666666666667,ScrollDown,ScrollUp,Orange.png,2,Negative,Incongruent,0,0,0,0,,,,,,,,,,,,,,,,,0,35,35,35,,,,,,,,,,,,,,,,,,,,,,,,,,,,,,,,,,,,,,,,,,,,,,,,,,,,,,,,,,,,,,,,,,,,,,,,,,,,,,,,,1.2438271592060726,0.817289300000084,356.50557539999954,None,ScrollDown,정답입니다,356.50557539999954,None,356.50557539999954,None,356.50557539999954,None,356.50557539999954,None,357.19078660000014,None,357.19078660000014,357.7011518999998,,,,,,,,,,,,,,,,211,2022-05-06_14h09.30.079,FishGame,2022.1.1,60.00409227892892,
,37,나를 데려가줘,6,Green,B,0,0,ScrollDown,ScrollUp,Green.png,2,NonTarget,NonTarget,0,0,0,0,,,,,,,,,,,,,,,,,0,36,36,36,,,,,,,,,,,,,,,,,,,,,,,,,,,,,,,,,,,,,,,,,,,,,,,,,,,,,,,,,,,,,,,,,,,,,,,,,,,,,,,,,1.1759259204069774,0.9826493999999002,358.35311569999976,None,ScrollDown,정답입니다,358.35311569999976,None,358.35311569999976,None,358.35311569999976,None,358.35311569999976,None,359.2061230999998,None,359.2061230999998,359.7175338999996,,,,,,,,,,,,,,,,211,2022-05-06_14h09.30.079,FishGame,2022.1.1,60.00409227892892,
,38,넌 친절해,1,Green,B,6.041666666666667,5.533333333333333,ScrollUp,ScrollDown,Green.png,2,Positive,Incongruent,0,0,0,0,,,,,,,,,,,,,,,,,0,37,37,37,,,,,,,,,,,,,,,,,,,,,,,,,,,,,,,,,,,,,,,,,,,,,,,,,,,,,,,,,,,,,,,,,,,,,,,,,,,,,,,,,2,0.9708869000005507,360.3757875000001,None,ScrollUp,정답입니다,360.3757875000001,None,360.3757875000001,None,360.3757875000001,None,360.3757875000001,None,361.2097740999998,None,361.2097740999998,361.71716019999985,,,,,,,,,,,,,,,,211,2022-05-06_14h09.30.079,FishGame,2022.1.1,60.00409227892892,
,1,넌 엉성해,4,Orange,A,3,3.3,ScrollDown,ScrollUp,Orange.png,3,Negative,Incongruent,0,0,0,0,,,,,,,,,,,,,,,,,,,,,0,0,0,0,,,,,,,,,,,,,,,,,,,,,,,,,,,,,,,,,,,,395.19621840000036,396.6959606999999,396.72929829999975,397.67928570000004,397.72924460000013,398.67910519999987,398.67910519999987,None,,,,,,,,,,,,,,,,,,,,,,,,,,,,,,,,,,1.0617283880710602,1.1394473999998809,399.8904156999997,None,ScrollDown,정답입니다,399.8904156999997,None,399.8904156999997,None,399.8904156999997,None,399.8904156999997,None,400.8259022000002,None,400.8259022000002,401.3288069,362.2171648000003,None,362.2171648000003,None,0.09074074,-0.08148148,1,0,0,0.016246789999968314,None,392.22991399999955,None,,,211,2022-05-06_14h09.30.079,FishGame,2022.1.1,60.00409227892892,
,2,나를 보내줘,6,Orange,A,0,0,ScrollUp,ScrollDown,Orange.png,3,NonTarget,NonTarget,0,0,0,0,,,,,,,,,,,,,,,,,,,,,0,1,1,1,,,,,,,,,,,,,,,,,,,,,,,,,,,,,,,,,,,,,,,,,,,,,,,,,,,,,,,,,,,,,,,,,,,,,,,,,,,,,1.8749999900658925,1.0330342999995992,401.9833999000002,None,ScrollUp,정답입니다,401.9833999000002,None,401.9833999000002,None,401.9833999000002,None,401.9833999000002,None,402.8839485999997,None,402.8839485999997,403.3950954000002,,,,,,,,,,,,,,,,211,2022-05-06_14h09.30.079,FishGame,2022.1.1,60.00409227892892,
,3,넌 활발해,1,Green,B,5.666666666666667,5.6,ScrollUp,ScrollDown,Green.png,3,Positive,Incongruent,0,0,0,0,,,,,,,,,,,,,,,,,,,,,0,2,2,2,,,,,,,,,,,,,,,,,,,,,,,,,,,,,,,,,,,,,,,,,,,,,,,,,,,,,,,,,,,,,,,,,,,,,,,,,,,,,1.805555562178294,0.9560868999997183,404.0546392999995,None,ScrollUp,정답입니다,404.0546392999995,None,404.0546392999995,None,404.0546392999995,None,404.0546392999995,None,404.87816159999966,None,404.87816159999966,405.37827500000003,,,,,,,,,,,,,,,,211,2022-05-06_14h09.30.079,FishGame,2022.1.1,60.00409227892892,
,4,넌 논리적이야,2,Orange,A,5.666666666666666,4.633333333333334,ScrollDown,ScrollUp,Orange.png,3,Positive,Congruent,0,0,0,0,,,,,,,,,,,,,,,,,,,,,0,3,3,3,,,,,,,,,,,,,,,,,,,,,,,,,,,,,,,,,,,,,,,,,,,,,,,,,,,,,,,,,,,,,,,,,,,,,,,,,,,,,1.3580246915419898,0.8266688000003342,406.0405202000002,None,ScrollDown,정답입니다,406.0405202000002,None,406.0405202000002,None,406.0405202000002,None,406.0405202000002,None,406.72338630000013,None,406.72338630000013,407.2280310999995,,,,,,,,,,,,,,,,211,2022-05-06_14h09.30.079,FishGame,2022.1.1,60.00409227892892,
,5,넌 과묵해,3,Orange,A,3.875,4.4,ScrollDown,ScrollUp,Orange.png,3,Neutral,Neutral,0,0,0,0,,,,,,,,,,,,,,,,,,,,,0,4,4,4,,,,,,,,,,,,,,,,,,,,,,,,,,,,,,,,,,,,,,,,,,,,,,,,,,,,,,,,,,,,,,,,,,,,,,,,,,,,,1.2407407313585281,0.7665634000004502,407.88911629999984,None,ScrollDown,정답입니다,407.88911629999984,None,407.88911629999984,None,407.88911629999984,None,407.88911629999984,None,408.5183629000003,None,408.5183629000003,409.02798129999974,,,,,,,,,,,,,,,,211,2022-05-06_14h09.30.079,FishGame,2022.1.1,60.00409227892892,
,6,나를 데려가줘,6,Green,B,0,0,ScrollDown,ScrollUp,Green.png,3,NonTarget,NonTarget,0,0,0,0,,,,,,,,,,,,,,,,,,,,,0,5,5,5,,,,,,,,,,,,,,,,,,,,,,,,,,,,,,,,,,,,,,,,,,,,,,,,,,,,,,,,,,,,,,,,,,,,,,,,,,,,,1.160493830839793,0.95320509999965,409.6822302999999,None,ScrollDown,정답입니다,409.6822302999999,None,409.6822302999999,None,409.6822302999999,None,409.6822302999999,None,410.5022511999996,None,410.5022511999996,411.0108073000001,,,,,,,,,,,,,,,,211,2022-05-06_14h09.30.079,FishGame,2022.1.1,60.00409227892892,
,7,넌 미숙해,4,Green,B,3,3,ScrollUp,ScrollDown,Green.png,3,Negative,Congruent,0,0,0,0,,,,,,,,,,,,,,,,,,,,,0,6,6,6,,,,,,,,,,,,,,,,,,,,,,,,,,,,,,,,,,,,,,,,,,,,,,,,,,,,,,,,,,,,,,,,,,,,,,,,,,,,,1.7793209999799728,0.8392410999995263,411.6606191999999,None,ScrollUp,정답입니다,411.6606191999999,None,411.6606191999999,None,411.6606191999999,None,411.6606191999999,None,412.3776508000001,None,412.3776508000001,412.8772705000001,,,,,,,,,,,,,,,,211,2022-05-06_14h09.30.079,FishGame,2022.1.1,60.00409227892892,
,8,나를 보내줘,6,Orange,A,0,0,ScrollUp,ScrollDown,Orange.png,3,NonTarget,NonTarget,0,0,0,0,,,,,,,,,,,,,,,,,,,,,0,7,7,7,,,,,,,,,,,,,,,,,,,,,,,,,,,,,,,,,,,,,,,,,,,,,,,,,,,,,,,,,,,,,,,,,,,,,,,,,,,,,1.8703703731298447,1.0102315000003728,413.5321621000003,None,ScrollUp,정답입니다,413.5321621000003,None,413.5321621000003,None,413.5321621000003,None,413.5321621000003,None,414.4103905000002,None,414.4103905000002,414.9104390000002,,,,,,,,,,,,,,,,211,2022-05-06_14h09.30.079,FishGame,2022.1.1,60.00409227892892,
,9,넌 자신만만해,3,Green,B,4.833333333333334,4.333333333333333,ScrollUp,ScrollDown,Green.png,3,Neutral,Neutral,0,0,0,0,,,,,,,,,,,,,,,,,,,,,0,8,8,8,,,,,,,,,,,,,,,,,,,,,,,,,,,,,,,,,,,,,,,,,,,,,,,,,,,,,,,,,,,,,,,,,,,,,,,,,,,,,1.537037037933866,0.9538155000000188,415.5625203999998,None,NoResponse,무응답입니다,415.5625203999998,None,415.5625203999998,None,415.5625203999998,None,415.5625203999998,None,416.39241800000036,None,416.39241800000036,416.89327090000006,,,,,,,,,,,,,,,,211,2022-05-06_14h09.30.079,FishGame,2022.1.1,60.00409227892892,
,10,넌 탐욕스러워,5,Orange,A,2.25,2.1,ScrollDown,ScrollUp,Orange.png,3,Negative,Incongruent,0,0,0,0,,,,,,,,,,,,,,,,,,,,,0,9,9,9,,,,,,,,,,,,,,,,,,,,,,,,,,,,,,,,,,,,,,,,,,,,,,,,,,,,,,,,,,,,,,,,,,,,,,,,,,,,,1.1188271542390187,1.4261428999998316,417.56004959999973,None,ScrollDown,정답입니다,417.56004959999973,None,417.56004959999973,None,417.56004959999973,None,417.56004959999973,None,418.83932360000017,None,418.83932360000017,419.34306639999977,,,,,,,,,,,,,,,,211,2022-05-06_14h09.30.079,FishGame,2022.1.1,60.00409227892892,
,11,넌 인기있어,2,Orange,A,5.458333333333333,4.5,ScrollDown,ScrollUp,Orange.png,3,Positive,Congruent,0,0,0,0,,,,,,,,,,,,,,,,,,,,,0,10,10,10,,,,,,,,,,,,,,,,,,,,,,,,,,,,,,,,,,,,,,,,,,,,,,,,,,,,,,,,,,,,,,,,,,,,,,,,,,,,,1.2160493830839794,0.9077704000001177,420.00087650000023,None,ScrollDown,정답입니다,420.00087650000023,None,420.00087650000023,None,420.00087650000023,None,420.00087650000023,None,420.7763992,None,420.7763992,421.27618040000016,,,,,,,,,,,,,,,,211,2022-05-06_14h09.30.079,FishGame,2022.1.1,60.00409227892892,
,12,나를 데려가줘,6,Green,B,0,0,ScrollDown,ScrollUp,Green.png,3,NonTarget,NonTarget,0,0,0,0,,,,,,,,,,,,,,,,,,,,,0,11,11,11,,,,,,,,,,,,,,,,,,,,,,,,,,,,,,,,,,,,,,,,,,,,,,,,,,,,,,,,,,,,,,,,,,,,,,,,,,,,,1.1543209999799728,1.1091526000000158,421.9254437999998,None,ScrollDown,정답입니다,421.9254437999998,None,421.9254437999998,None,421.9254437999998,None,421.9254437999998,None,422.9092399000001,None,422.9092399000001,423.4092877000003,,,,,,,,,,,,,,,,211,2022-05-06_14h09.30.079,FishGame,2022.1.1,60.00409227892892,
,13,넌 뛰어나,2,Green,B,6.166666666666667,4,ScrollUp,ScrollDown,Green.png,3,Positive,Incongruent,0,0,0,0,,,,,,,,,,,,,,,,,,,,,0,12,12,12,,,,,,,,,,,,,,,,,,,,,,,,,,,,,,,,,,,,,,,,,,,,,,,,,,,,,,,,,,,,,,,,,,,,,,,,,,,,,1.939814825852712,1.1350262000005387,424.06542329999957,None,ScrollUp,정답입니다,424.06542329999957,None,424.06542329999957,None,424.06542329999957,None,424.06542329999957,None,425.0657795999996,None,425.0657795999996,425.5755624000003,,,,,,,,,,,,,,,,211,2022-05-06_14h09.30.079,FishGame,2022.1.1,60.00409227892892,
,14,넌 낙관적이야,1,Orange,A,5.75,5.8,ScrollDown,ScrollUp,Orange.png,3,Positive,Congruent,0,0,0,0,,,,,,,,,,,,,,,,,,,,,0,13,13,13,,,,,,,,,,,,,,,,,,,,,,,,,,,,,,,,,,,,,,,,,,,,,,,,,,,,,,,,,,,,,,,,,,,,,,,,,,,,,1,1.0339966999999888,426.24053189999995,None,ScrollDown,정답입니다,426.24053189999995,None,426.24053189999995,None,426.24053189999995,None,426.24053189999995,None,427.1314776999998,None,427.1314776999998,427.6419060999997,,,,,,,,,,,,,,,,211,2022-05-06_14h09.30.079,FishGame,2022.1.1,60.00409227892892,
,15,넌 산만해,4,Green,B,2.695652173913043,3.033333333333333,ScrollUp,ScrollDown,Green.png,3,Negative,Congruent,0,0,0,0,,,,,,,,,,,,,,,,,,,,,0,14,14,14,,,,,,,,,,,,,,,,,,,,,,,,,,,,,,,,,,,,,,,,,,,,,,,,,,,,,,,,,,,,,,,,,,,,,,,,,,,,,2,1.122777400000814,428.2974690000001,None,ScrollUp,정답입니다,428.2974690000001,None,428.2974690000001,None,428.2974690000001,None,428.2974690000001,None,429.2849471999998,None,429.2849471999998,429.7917078999999,,,,,,,,,,,,,,,,211,2022-05-06_14h09.30.079,FishGame,2022.1.1,60.00409227892892,
,16,나를 보내줘,6,Orange,A,0,0,ScrollUp,ScrollDown,Orange.png,3,NonTarget,NonTarget,0,0,0,0,,,,,,,,,,,,,,,,,,,,,0,15,15,15,,,,,,,,,,,,,,,,,,,,,,,,,,,,,,,,,,,,,,,,,,,,,,,,,,,,,,,,,,,,,,,,,,,,,,,,,,,,,1.9722222189108531,1.0751292000004469,430.4478892999996,None,ScrollUp,정답입니다,430.4478892999996,None,430.4478892999996,None,430.4478892999996,None,430.4478892999996,None,431.39144039999974,None,431.39144039999974,431.8912965999998,,,,,,,,,,,,,,,,211,2022-05-06_14h09.30.079,FishGame,2022.1.1,60.00409227892892,
,17,넌 교활해,5,Green,B,2.333333333333333,2.133333333333333,ScrollUp,ScrollDown,Green.png,3,Negative,Congruent,0,0,0,0,,,,,,,,,,,,,,,,,,,,,0,16,16,16,,,,,,,,,,,,,,,,,,,,,,,,,,,,,,,,,,,,,,,,,,,,,,,,,,,,,,,,,,,,,,,,,,,,,,,,,,,,,1.7283950646718345,0.9349533000004158,432.54855339999995,None,ScrollUp,정답입니다,432.54855339999995,None,432.54855339999995,None,432.54855339999995,None,432.54855339999995,None,433.34846560000005,None,433.34846560000005,433.85815230000026,,,,,,,,,,,,,,,,211,2022-05-06_14h09.30.079,FishGame,2022.1.1,60.00409227892892,
,18,나를 보내줘,6,Orange,A,0,0,ScrollUp,ScrollDown,Orange.png,3,NonTarget,NonTarget,0,0,0,0,,,,,,,,,,,,,,,,,,,,,0,17,17,17,,,,,,,,,,,,,,,,,,,,,,,,,,,,,,,,,,,,,,,,,,,,,,,,,,,,,,,,,,,,,,,,,,,,,,,,,,,,,1.6080246890584626,0.8939056999997774,434.507439,None,ScrollUp,정답입니다,434.507439,None,434.507439,None,434.507439,None,434.507439,None,435.2745081000003,None,435.2745081000003,435.77427420000004,,,,,,,,,,,,,,,,211,2022-05-06_14h09.30.079,FishGame,2022.1.1,60.00409227892892,
,19,넌 불친절해,5,Green,B,2.208333333333333,2.033333333333333,ScrollUp,ScrollDown,Green.png,3,Negative,Congruent,0,0,0,0,,,,,,,,,,,,,,,,,,,,,0,18,18,18,,,,,,,,,,,,,,,,,,,,,,,,,,,,,,,,,,,,,,,,,,,,,,,,,,,,,,,,,,,,,,,,,,,,,,,,,,,,,1.6496913532416024,0.9568098000008831,436.42928370000027,None,ScrollUp,정답입니다,436.42928370000027,None,436.42928370000027,None,436.42928370000027,None,436.42928370000027,None,437.25736959999995,None,437.25736959999995,437.7573489999995,,,,,,,,,,,,,,,,211,2022-05-06_14h09.30.079,FishGame,2022.1.1,60.00409227892892,
,20,넌 지적이야,2,Green,B,5.75,4.366666666666666,ScrollUp,ScrollDown,Green.png,3,Positive,Incongruent,0,0,0,0,,,,,,,,,,,,,,,,,,,,,0,19,19,19,,,,,,,,,,,,,,,,,,,,,,,,,,,,,,,,,,,,,,,,,,,,,,,,,,,,,,,,,,,,,,,,,,,,,,,,,,,,,1.6481481517354646,0.8159464999998818,438.4071002999999,None,ScrollUp,정답입니다,438.4071002999999,None,438.4071002999999,None,438.4071002999999,None,438.4071002999999,None,439.0958768999999,None,439.0958768999999,439.60711960000026,,,,,,,,,,,,,,,,211,2022-05-06_14h09.30.079,FishGame,2022.1.1,60.00409227892892,
,21,넌 우유부단해,4,Orange,A,2.666666666666667,3.166666666666667,ScrollDown,ScrollUp,Orange.png,3,Negative,Incongruent,0,0,0,0,,,,,,,,,,,,,,,,,,,,,0,20,20,20,,,,,,,,,,,,,,,,,,,,,,,,,,,,,,,,,,,,,,,,,,,,,,,,,,,,,,,,,,,,,,,,,,,,,,,,,,,,,1.4645061728854973,1.2227493000000322,440.27145240000027,None,NoResponse,무응답입니다,440.27145240000027,None,440.27145240000027,None,440.27145240000027,None,440.27145240000027,None,441.3512447000003,None,441.3512447000003,441.85697530000016,,,,,,,,,,,,,,,,211,2022-05-06_14h09.30.079,FishGame,2022.1.1,60.00409227892892,
,22,나를 데려가줘,6,Green,B,0,0,ScrollDown,ScrollUp,Green.png,3,NonTarget,NonTarget,0,0,0,0,,,,,,,,,,,,,,,,,,,,,0,21,21,21,,,,,,,,,,,,,,,,,,,,,,,,,,,,,,,,,,,,,,,,,,,,,,,,,,,,,,,,,,,,,,,,,,,,,,,,,,,,,1.2901234527428946,1.085060199999134,442.4966979999999,None,ScrollDown,정답입니다,442.4966979999999,None,442.4966979999999,None,442.4966979999999,None,442.4966979999999,None,443.46515759999966,None,443.46515759999966,443.9731746999996,,,,,,,,,,,,,,,,211,2022-05-06_14h09.30.079,FishGame,2022.1.1,60.00409227892892,
,23,넌 성실해,1,Green,B,6.041666666666666,5.7,ScrollUp,ScrollDown,Green.png,3,Positive,Incongruent,0,0,0,0,,,,,,,,,,,,,,,,,,,,,0,22,22,22,,,,,,,,,,,,,,,,,,,,,,,,,,,,,,,,,,,,,,,,,,,,,,,,,,,,,,,,,,,,,,,,,,,,,,,,,,,,,1.544753085821867,1.0167029999993247,444.6236835999998,None,NoResponse,무응답입니다,444.6236835999998,None,444.6236835999998,None,444.6236835999998,None,444.6236835999998,None,445.51391710000007,None,445.51391710000007,446.02297910000016,,,,,,,,,,,,,,,,211,2022-05-06_14h09.30.079,FishGame,2022.1.1,60.00409227892892,
,24,넌 현실주의적이야,3,Orange,A,4.625,4.4,ScrollDown,ScrollUp,Orange.png,3,Neutral,Neutral,0,0,0,0,,,,,,,,,,,,,,,,,,,,,0,23,23,23,,,,,,,,,,,,,,,,,,,,,,,,,,,,,,,,,,,,,,,,,,,,,,,,,,,,,,,,,,,,,,,,,,,,,,,,,,,,,1,1.180264999999963,446.67923150000024,None,ScrollDown,정답입니다,446.67923150000024,None,446.67923150000024,None,446.67923150000024,None,446.67923150000024,None,447.7256188000001,None,447.7256188000001,448.23946650000016,,,,,,,,,,,,,,,,211,2022-05-06_14h09.30.079,FishGame,2022.1.1,60.00409227892892,
,25,넌 진실돼,1,Orange,A,6.625,5.566666666666666,ScrollDown,ScrollUp,Orange.png,3,Positive,Congruent,0,0,0,0,,,,,,,,,,,,,,,,,,,,,0,24,24,24,,,,,,,,,,,,,,,,,,,,,,,,,,,,,,,,,,,,,,,,,,,,,,,,,,,,,,,,,,,,,,,,,,,,,,,,,,,,,1.160493830839793,0.9897301999999399,448.9007424000001,None,ScrollDown,정답입니다,448.9007424000001,None,448.9007424000001,None,448.9007424000001,None,448.9007424000001,None,449.75599669999974,None,449.75599669999974,450.2556975999996,,,,,,,,,,,,,,,,211,2022-05-06_14h09.30.079,FishGame,2022.1.1,60.00409227892892,
,26,넌 천진난만해,3,Green,B,4.958333333333334,4.833333333333333,ScrollUp,ScrollDown,Green.png,3,Neutral,Neutral,0,0,0,0,,,,,,,,,,,,,,,,,,,,,0,25,25,25,,,,,,,,,,,,,,,,,,,,,,,,,,,,,,,,,,,,,,,,,,,,,,,,,,,,,,,,,,,,,,,,,,,,,,,,,,,,,2,1.0039206999999806,450.9078571,None,ScrollUp,정답입니다,450.9078571,None,450.9078571,None,450.9078571,None,450.9078571,None,451.78705509999963,None,451.78705509999963,452.28892240000005,,,,,,,,,,,,,,,,211,2022-05-06_14h09.30.079,FishGame,2022.1.1,60.00409227892892,
,27,넌 교양없어,5,Orange,A,2.416666666666667,2.2,ScrollDown,ScrollUp,Orange.png,3,Negative,Incongruent,0,0,0,0,,,,,,,,,,,,,,,,,,,,,0,26,26,26,,,,,,,,,,,,,,,,,,,,,,,,,,,,,,,,,,,,,,,,,,,,,,,,,,,,,,,,,,,,,,,,,,,,,,,,,,,,,1.3518518482645354,1.7832365000003847,452.95120339999994,None,ScrollDown,정답입니다,452.95120339999994,None,452.95120339999994,None,452.95120339999994,None,452.95120339999994,None,454.5944188000003,None,454.5944188000003,455.1053307000002,,,,,,,,,,,,,,,,211,2022-05-06_14h09.30.079,FishGame,2022.1.1,60.00409227892892,
,28,나를 보내줘,6,Orange,A,0,0,ScrollUp,ScrollDown,Orange.png,3,NonTarget,NonTarget,0,0,0,0,,,,,,,,,,,,,,,,,,,,,0,27,27,27,,,,,,,,,,,,,,,,,,,,,,,,,,,,,,,,,,,,,,,,,,,,,,,,,,,,,,,,,,,,,,,,,,,,,,,,,,,,,1.6003086442748704,1.0375552000004973,455.7559799999999,None,ScrollUp,정답입니다,455.7559799999999,None,455.7559799999999,None,455.7559799999999,None,455.7559799999999,None,456.66452130000016,None,456.66452130000016,457.1715469999999,,,,,,,,,,,,,,,,211,2022-05-06_14h09.30.079,FishGame,2022.1.1,60.00409227892892,
,29,넌 엉뚱스러워,3,Orange,A,4.166666666666667,4.133333333333334,ScrollDown,ScrollUp,Orange.png,3,Neutral,Neutral,0,0,0,0,,,,,,,,,,,,,,,,,,,,,0,28,28,28,,,,,,,,,,,,,,,,,,,,,,,,,,,,,,,,,,,,,,,,,,,,,,,,,,,,,,,,,,,,,,,,,,,,,,,,,,,,,1.3796296243866284,0.9937648000004629,457.8317761999997,None,ScrollDown,정답입니다,457.8317761999997,None,457.8317761999997,None,457.8317761999997,None,457.8317761999997,None,458.6842445000002,None,458.6842445000002,459.18786399999954,,,,,,,,,,,,,,,,211,2022-05-06_14h09.30.079,FishGame,2022.1.1,60.00409227892892,
,30,넌 무지해,4,Green,B,2.541666666666667,3.066666666666667,ScrollUp,ScrollDown,Green.png,3,Negative,Congruent,0,0,0,0,,,,,,,,,,,,,,,,,,,,,0,29,29,29,,,,,,,,,,,,,,,,,,,,,,,,,,,,,,,,,,,,,,,,,,,,,,,,,,,,,,,,,,,,,,,,,,,,,,,,,,,,,1.5524691368142762,1.2483762000001661,459.8359951000002,None,ScrollUp,정답입니다,459.8359951000002,None,459.8359951000002,None,459.8359951000002,None,459.8359951000002,None,460.9593696000002,None,460.9593696000002,461.4709267999997,,,,,,,,,,,,,,,,211,2022-05-06_14h09.30.079,FishGame,2022.1.1,60.00409227892892,
,31,넌 음울해,5,Green,B,2.25,2.233333333333333,ScrollUp,ScrollDown,Green.png,3,Negative,Congruent,0,0,0,0,,,,,,,,,,,,,,,,,,,,,0,30,30,30,,,,,,,,,,,,,,,,,,,,,,,,,,,,,,,,,,,,,,,,,,,,,,,,,,,,,,,,,,,,,,,,,,,,,,,,,,,,,1.7638888855775197,0.9502746999996816,462.1283949999997,None,ScrollUp,정답입니다,462.1283949999997,None,462.1283949999997,None,462.1283949999997,None,462.1283949999997,None,462.94254100000035,None,462.94254100000035,463.4543070999998,,,,,,,,,,,,,,,,211,2022-05-06_14h09.30.079,FishGame,2022.1.1,60.00409227892892,
,32,넌 냉소적이야,5,Orange,A,2.916666666666667,2.4,ScrollDown,ScrollUp,Orange.png,3,Negative,Incongruent,0,0,0,0,,,,,,,,,,,,,,,,,,,,,0,31,31,31,,,,,,,,,,,,,,,,,,,,,,,,,,,,,,,,,,,,,,,,,,,,,,,,,,,,,,,,,,,,,,,,,,,,,,,,,,,,,1.2916666666666665,0.9993584000003466,464.1085309,None,ScrollDown,정답입니다,464.1085309,None,464.1085309,None,464.1085309,None,464.1085309,None,464.97767099999965,None,464.97767099999965,465.4870893999996,,,,,,,,,,,,,,,,211,2022-05-06_14h09.30.079,FishGame,2022.1.1,60.00409227892892,
,33,나를 데려가줘,6,Green,B,0,0,ScrollDown,ScrollUp,Green.png,3,NonTarget,NonTarget,0,0,0,0,,,,,,,,,,,,,,,,,,,,,0,32,32,32,,,,,,,,,,,,,,,,,,,,,,,,,,,,,,,,,,,,,,,,,,,,,,,,,,,,,,,,,,,,,,,,,,,,,,,,,,,,,1.1373456716537476,0.9459990999994261,466.13697409999986,None,ScrollDown,정답입니다,466.13697409999986,None,466.13697409999986,None,466.13697409999986,None,466.13697409999986,None,466.95486879999953,None,466.95486879999953,467.4702395000004,,,,,,,,,,,,,,,,211,2022-05-06_14h09.30.079,FishGame,2022.1.1,60.00409227892892,
,34,넌 쾌활해,1,Orange,A,5.541666666666666,5.733333333333333,ScrollDown,ScrollUp,Orange.png,3,Positive,Congruent,0,0,0,0,,,,,,,,,,,,,,,,,,,,,0,33,33,33,,,,,,,,,,,,,,,,,,,,,,,,,,,,,,,,,,,,,,,,,,,,,,,,,,,,,,,,,,,,,,,,,,,,,,,,,,,,,1.3425925895571709,0.8703494999999748,468.1235915999996,None,ScrollDown,정답입니다,468.1235915999996,None,468.1235915999996,None,468.1235915999996,None,468.1235915999996,None,468.86258970000017,None,468.86258970000017,469.36993859999984,,,,,,,,,,,,,,,,211,2022-05-06_14h09.30.079,FishGame,2022.1.1,60.00409227892892,
,35,나를 보내줘,6,Orange,A,0,0,ScrollUp,ScrollDown,Orange.png,3,NonTarget,NonTarget,0,0,0,0,,,,,,,,,,,,,,,,,,,,,0,34,34,34,,,,,,,,,,,,,,,,,,,,,,,,,,,,,,,,,,,,,,,,,,,,,,,,,,,,,,,,,,,,,,,,,,,,,,,,,,,,,1.537037037933866,1.469776400000228,470.02376279999953,None,NoResponse,무응답입니다,470.02376279999953,None,470.02376279999953,None,470.02376279999953,None,470.02376279999953,None,471.3627987,None,471.3627987,471.86962029999995,,,,,,,,,,,,,,,,211,2022-05-06_14h09.30.079,FishGame,2022.1.1,60.00409227892892,
,36,넌 명랑해,1,Green,B,5.739130434782609,5.666666666666667,ScrollUp,ScrollDown,Green.png,3,Positive,Incongruent,0,0,0,0,,,,,,,,,,,,,,,,,,,,,0,35,35,35,,,,,,,,,,,,,,,,,,,,,,,,,,,,,,,,,,,,,,,,,,,,,,,,,,,,,,,,,,,,,,,,,,,,,,,,,,,,,1.8564814726511638,1.9756426999992982,472.52501159999974,None,ScrollUp,정답입니다,472.52501159999974,None,472.52501159999974,None,472.52501159999974,None,472.52501159999974,None,474.36483810000027,None,474.36483810000027,474.8691712,,,,,,,,,,,,,,,,211,2022-05-06_14h09.30.079,FishGame,2022.1.1,60.00409227892892,
,37,넌 멍해,4,Orange,A,2.833333333333333,3.4,ScrollDown,ScrollUp,Orange.png,3,Negative,Incongruent,0,0,0,0,,,,,,,,,,,,,,,,,,,,,0,36,36,36,,,,,,,,,,,,,,,,,,,,,,,,,,,,,,,,,,,,,,,,,,,,,,,,,,,,,,,,,,,,,,,,,,,,,,,,,,,,,1.0293209950129192,1.19571040000028,475.5297531999995,None,ScrollDown,정답입니다,475.5297531999995,None,475.5297531999995,None,475.5297531999995,None,475.5297531999995,None,476.58565029999954,None,476.58565029999954,477.0855805000001,,,,,,,,,,,,,,,,211,2022-05-06_14h09.30.079,FishGame,2022.1.1,60.00409227892892,
,38,나를 데려가줘,6,Green,B,0,0,ScrollDown,ScrollUp,Green.png,3,NonTarget,NonTarget,0,0,0,0,,,,,,,,,,,,,,,,,,,,,0,37,37,37,,,,,,,,,,,,,,,,,,,,,,,,,,,,,,,,,,,,,,,,,,,,,,,,,,,,,,,,,,,,,,,,,,,,,,,,,,,,,1.0925925920406978,1.0284439000006387,477.74251170000025,None,ScrollDown,정답입니다,477.74251170000025,None,477.74251170000025,None,477.74251170000025,None,477.74251170000025,None,478.6362621999997,None,478.6362621999997,479.1352716000001,,,,,,,,,,,,,,,,211,2022-05-06_14h09.30.079,FishGame,2022.1.1,60.00409227892892,
,39,넌 현명해,2,Orange,A,6.541666666666666,4.533333333333333,ScrollDown,ScrollUp,Orange.png,3,Positive,Congruent,0,0,0,0,,,,,,,,,,,,,,,,,,,,,0,38,38,38,,,,,,,,,,,,,,,,,,,,,,,,,,,,,,,,,,,,,,,,,,,,,,,,,,,,,,,,,,,,,,,,,,,,,,,,,,,,,1.2253086417913437,0.8939147000000958,479.7905904999998,None,ScrollDown,정답입니다,479.7905904999998,None,479.7905904999998,None,479.7905904999998,None,479.7905904999998,None,480.5519317999997,None,480.5519317999997,481.05168669999966,,,,,,,,,,,,,,,,211,2022-05-06_14h09.30.079,FishGame,2022.1.1,60.00409227892892,
,40,넌 수줍어,3,Green,B,3.541666666666666,4.366666666666666,ScrollUp,ScrollDown,Green.png,3,Neutral,Neutral,0,0,0,0,,,,,,,,,,,,,,,,,,,,,0,39,39,39,,,,,,,,,,,,,,,,,,,,,,,,,,,,,,,,,,,,,,,,,,,,,,,,,,,,,,,,,,,,,,,,,,,,,,,,,,,,,1.7283950646718345,0.9413123000003907,481.7082141000001,None,ScrollUp,정답입니다,481.7082141000001,None,481.7082141000001,None,481.7082141000001,None,481.7082141000001,None,482.5181176999995,None,482.5181176999995,483.0180528000001,,,,,,,,,,,,,,,,211,2022-05-06_14h09.30.079,FishGame,2022.1.1,60.00409227892892,
,41,나를 데려가줘,6,Green,B,0,0,ScrollDown,ScrollUp,Green.png,3,NonTarget,NonTarget,0,0,0,0,,,,,,,,,,,,,,,,,,,,,0,40,40,40,,,,,,,,,,,,,,,,,,,,,,,,,,,,,,,,,,,,,,,,,,,,,,,,,,,,,,,,,,,,,,,,,,,,,,,,,,,,,1,0.9901009000004706,483.66688539999996,None,ScrollDown,정답입니다,483.66688539999996,None,483.66688539999996,None,483.66688539999996,None,483.66688539999996,None,484.5345067999997,None,484.5345067999997,485.03457179999987,,,,,,,,,,,,,,,,211,2022-05-06_14h09.30.079,FishGame,2022.1.1,60.00409227892892,
,42,넌 성숙해,2,Green,B,5.833333333333333,4.533333333333333,ScrollUp,ScrollDown,Green.png,3,Positive,Incongruent,0,0,0,0,,,,,,,,,,,,,,,,,,,,,0,41,41,41,,,,,,,,,,,,,,,,,,,,,,,,,,,,,,,,,,,,,,,,,,,,,,,,,,,,,,,,,,,,,,,,,,,,,,,,,,,,,1.7824074029922485,0.8855273999997735,485.67803660000027,None,ScrollUp,정답입니다,485.67803660000027,None,485.67803660000027,None,485.67803660000027,None,485.67803660000027,None,486.44071189999977,None,486.44071189999977,486.9509214999998,,,,,,,,,,,,,,,,211,2022-05-06_14h09.30.079,FishGame,2022.1.1,60.00409227892892,
,1,넌 매력적이야,2,Green,B,6.125,4.666666666666667,ScrollUp,ScrollDown,Green.png,4,Positive,Incongruent,0,0,0,0,,,,,,,,,,,,,,,,,,,,,,,,,0,0,0,0,,,,,,,,,,,,,,,,,,,,,,,,,,,,,,,,518.5302326999999,520.0300440999999,520.0634209999998,521.0132275999995,521.0632033000002,522.0132109999995,522.0132109999995,None,,,,,,,,,,,,,,,,,,,,,,,,,,,,,,,,,,1.9027777661879857,1.1239863000000696,523.2107847999996,None,ScrollUp,정답입니다,523.2107847999996,None,523.2107847999996,None,523.2107847999996,None,523.2107847999996,None,524.1511596,None,524.1511596,524.6627832000004,487.4508616000003,None,487.4508616000003,None,0.20833333,-0.08888889,1,0,0,0.016235990000495804,None,517.4635707999996,None,,,211,2022-05-06_14h09.30.079,FishGame,2022.1.1,60.00409227892892,
,2,나를 보내줘,6,Orange,A,0,0,ScrollUp,ScrollDown,Orange.png,4,NonTarget,NonTarget,0,0,0,0,,,,,,,,,,,,,,,,,,,,,,,,,0,1,1,1,,,,,,,,,,,,,,,,,,,,,,,,,,,,,,,,,,,,,,,,,,,,,,,,,,,,,,,,,,,,,,,,,,,,,,,,,1.7962963034709294,0.913795299999947,525.3215345999997,None,ScrollUp,정답입니다,525.3215345999997,None,525.3215345999997,None,525.3215345999997,None,525.3215345999997,None,526.0997187000003,None,526.0997187000003,526.6127368999996,,,,,,,,,,,,,,,,211,2022-05-06_14h09.30.079,FishGame,2022.1.1,60.00409227892892,
,3,넌 조심스러워,3,Orange,A,4.791666666666666,4.666666666666667,ScrollDown,ScrollUp,Orange.png,4,Neutral,Neutral,0,0,0,0,,,,,,,,,,,,,,,,,,,,,,,,,0,2,2,2,,,,,,,,,,,,,,,,,,,,,,,,,,,,,,,,,,,,,,,,,,,,,,,,,,,,,,,,,,,,,,,,,,,,,,,,,1.0416666567325592,0.9249222999997073,527.2621005000001,None,ScrollDown,정답입니다,527.2621005000001,None,527.2621005000001,None,527.2621005000001,None,527.2621005000001,None,528.0577912999997,None,528.0577912999997,528.5622316999998,,,,,,,,,,,,,,,,211,2022-05-06_14h09.30.079,FishGame,2022.1.1,60.00409227892892,
,4,넌 철학적이야,3,Green,B,4.5,4.266666666666667,ScrollUp,ScrollDown,Green.png,4,Neutral,Neutral,0,0,0,0,,,,,,,,,,,,,,,,,,,,,,,,,0,3,3,3,,,,,,,,,,,,,,,,,,,,,,,,,,,,,,,,,,,,,,,,,,,,,,,,,,,,,,,,,,,,,,,,,,,,,,,,,1.9521604875723522,0.918645199999446,529.2233436999995,None,ScrollUp,정답입니다,529.2233436999995,None,529.2233436999995,None,529.2233436999995,None,529.2233436999995,None,530.0017459999999,None,530.0017459999999,530.5119341999998,,,,,,,,,,,,,,,,211,2022-05-06_14h09.30.079,FishGame,2022.1.1,60.00409227892892,
,5,넌 쩨쩨해,5,Orange,A,2.375,2.133333333333333,ScrollDown,ScrollUp,Orange.png,4,Negative,Incongruent,0,0,0,0,,,,,,,,,,,,,,,,,,,,,,,,,0,4,4,4,,,,,,,,,,,,,,,,,,,,,,,,,,,,,,,,,,,,,,,,,,,,,,,,,,,,,,,,,,,,,,,,,,,,,,,,,1.0339506367842357,0.9005259000005026,531.1730354000001,None,ScrollDown,정답입니다,531.1730354000001,None,531.1730354000001,None,531.1730354000001,None,531.1730354000001,None,531.9338496999999,None,531.9338496999999,532.4449747999997,,,,,,,,,,,,,,,,211,2022-05-06_14h09.30.079,FishGame,2022.1.1,60.00409227892892,
,6,나를 데려가줘,6,Green,B,0,0,ScrollDown,ScrollUp,Green.png,4,NonTarget,NonTarget,0,0,0,0,,,,,,,,,,,,,,,,,,,,,,,,,0,5,5,5,,,,,,,,,,,,,,,,,,,,,,,,,,,,,,,,,,,,,,,,,,,,,,,,,,,,,,,,,,,,,,,,,,,,,,,,,1.140432099501292,0.9029989000000569,533.0950628,None,ScrollDown,정답입니다,533.0950628,None,533.0950628,None,533.0950628,None,533.0950628,None,533.8692652999998,None,533.8692652999998,534.3781264999998,,,,,,,,,,,,,,,,211,2022-05-06_14h09.30.079,FishGame,2022.1.1,60.00409227892892,
,7,넌 고집불통이야,5,Green,B,2.875,2,ScrollUp,ScrollDown,Green.png,4,Negative,Congruent,0,0,0,0,,,,,,,,,,,,,,,,,,,,,,,,,0,6,6,6,,,,,,,,,,,,,,,,,,,,,,,,,,,,,,,,,,,,,,,,,,,,,,,,,,,,,,,,,,,,,,,,,,,,,,,,,1.9768518606821697,1.0124243000000206,535.0389009999999,None,ScrollUp,정답입니다,535.0389009999999,None,535.0389009999999,None,535.0389009999999,None,535.0389009999999,None,535.9114002999995,None,535.9114002999995,536.4111236999997,,,,,,,,,,,,,,,,211,2022-05-06_14h09.30.079,FishGame,2022.1.1,60.00409227892892,
,8,넌 무심해,4,Orange,A,2.875,3.2,ScrollDown,ScrollUp,Orange.png,4,Negative,Incongruent,0,0,0,0,,,,,,,,,,,,,,,,,,,,,,,,,0,7,7,7,,,,,,,,,,,,,,,,,,,,,,,,,,,,,,,,,,,,,,,,,,,,,,,,,,,,,,,,,,,,,,,,,,,,,,,,,1,0.8656252999999197,537.0676012000004,None,ScrollDown,정답입니다,537.0676012000004,None,537.0676012000004,None,537.0676012000004,None,537.0676012000004,None,537.7997501,None,537.7997501,538.3110477,,,,,,,,,,,,,,,,211,2022-05-06_14h09.30.079,FishGame,2022.1.1,60.00409227892892,
,9,넌 정겨워,1,Orange,A,5.791666666666667,5.666666666666667,ScrollDown,ScrollUp,Orange.png,4,Positive,Congruent,0,0,0,0,,,,,,,,,,,,,,,,,,,,,,,,,0,8,8,8,,,,,,,,,,,,,,,,,,,,,,,,,,,,,,,,,,,,,,,,,,,,,,,,,,,,,,,,,,,,,,,,,,,,,,,,,1,0.9389422000003833,538.9655689000001,None,ScrollDown,정답입니다,538.9655689000001,None,538.9655689000001,None,538.9655689000001,None,538.9655689000001,None,539.7737906000002,None,539.7737906000002,540.2773734000002,,,,,,,,,,,,,,,,211,2022-05-06_14h09.30.079,FishGame,2022.1.1,60.00409227892892,
,10,나를 데려가줘,6,Green,B,0,0,ScrollDown,ScrollUp,Green.png,4,NonTarget,NonTarget,0,0,0,0,,,,,,,,,,,,,,,,,,,,,,,,,0,9,9,9,,,,,,,,,,,,,,,,,,,,,,,,,,,,,,,,,,,,,,,,,,,,,,,,,,,,,,,,,,,,,,,,,,,,,,,,,1,1.0628031999995073,540.9273561,None,ScrollDown,정답입니다,540.9273561,None,540.9273561,None,540.9273561,None,540.9273561,None,541.8621866000003,None,541.8621866000003,542.3771211000003,,,,,,,,,,,,,,,,211,2022-05-06_14h09.30.079,FishGame,2022.1.1,60.00409227892892,
,11,넌 체제순응적이야,4,Green,B,3,3.6,ScrollUp,ScrollDown,Green.png,4,Negative,Congruent,0,0,0,0,,,,,,,,,,,,,,,,,,,,,,,,,0,10,10,10,,,,,,,,,,,,,,,,,,,,,,,,,,,,,,,,,,,,,,,,,,,,,,,,,,,,,,,,,,,,,,,,,,,,,,,,,1.9675925771395366,1.2497111000002405,543.04241,None,ScrollUp,정답입니다,543.04241,None,543.04241,None,543.04241,None,543.04241,None,544.1488948999995,None,544.1488948999995,544.6602149999999,,,,,,,,,,,,,,,,211,2022-05-06_14h09.30.079,FishGame,2022.1.1,60.00409227892892,
,12,나를 보내줘,6,Orange,A,0,0,ScrollUp,ScrollDown,Orange.png,4,NonTarget,NonTarget,0,0,0,0,,,,,,,,,,,,,,,,,,,,,,,,,0,11,11,11,,,,,,,,,,,,,,,,,,,,,,,,,,,,,,,,,,,,,,,,,,,,,,,,,,,,,,,,,,,,,,,,,,,,,,,,,1.8827160596847534,1.0787098000000697,545.3148886999998,None,ScrollUp,정답입니다,545.3148886999998,None,545.3148886999998,None,545.3148886999998,None,545.3148886999998,None,546.2601741999997,None,546.2601741999997,546.7598271999996,,,,,,,,,,,,,,,,211,2022-05-06_14h09.30.079,FishGame,2022.1.1,60.00409227892892,
,13,넌 박식해,2,Orange,A,5.625,3.933333333333333,ScrollDown,ScrollUp,Orange.png,4,Positive,Congruent,0,0,0,0,,,,,,,,,,,,,,,,,,,,,,,,,0,12,12,12,,,,,,,,,,,,,,,,,,,,,,,,,,,,,,,,,,,,,,,,,,,,,,,,,,,,,,,,,,,,,,,,,,,,,,,,,1,1.1369104000004882,547.4244889000001,None,ScrollDown,정답입니다,547.4244889000001,None,547.4244889000001,None,547.4244889000001,None,547.4244889000001,None,548.4177239999999,None,548.4177239999999,548.9262444999995,,,,,,,,,,,,,,,,211,2022-05-06_14h09.30.079,FishGame,2022.1.1,60.00409227892892,
,14,나를 보내줘,6,Orange,A,0,0,ScrollUp,ScrollDown,Orange.png,4,NonTarget,NonTarget,0,0,0,0,,,,,,,,,,,,,,,,,,,,,,,,,0,13,13,13,,,,,,,,,,,,,,,,,,,,,,,,,,,,,,,,,,,,,,,,,,,,,,,,,,,,,,,,,,,,,,,,,,,,,,,,,1.7623456716537476,0.9935365999999703,549.5827773999999,None,ScrollUp,정답입니다,549.5827773999999,None,549.5827773999999,None,549.5827773999999,None,549.5827773999999,None,550.4428283999996,None,550.4428283999996,550.9427010999998,,,,,,,,,,,,,,,,211,2022-05-06_14h09.30.079,FishGame,2022.1.1,60.00409227892892,
,15,넌 침착해,1,Green,B,5.458333333333333,5.566666666666666,ScrollUp,ScrollDown,Green.png,4,Positive,Incongruent,0,0,0,0,,,,,,,,,,,,,,,,,,,,,,,,,0,14,14,14,,,,,,,,,,,,,,,,,,,,,,,,,,,,,,,,,,,,,,,,,,,,,,,,,,,,,,,,,,,,,,,,,,,,,,,,,1.6311728358268738,0.9927205000003596,551.5971614,None,ScrollUp,정답입니다,551.5971614,None,551.5971614,None,551.5971614,None,551.5971614,None,552.4592051999998,None,552.4592051999998,552.9592227000003,,,,,,,,,,,,,,,,211,2022-05-06_14h09.30.079,FishGame,2022.1.1,60.00409227892892,
,16,나를 데려가줘,6,Green,B,0,0,ScrollDown,ScrollUp,Green.png,4,NonTarget,NonTarget,0,0,0,0,,,,,,,,,,,,,,,,,,,,,,,,,0,15,15,15,,,,,,,,,,,,,,,,,,,,,,,,,,,,,,,,,,,,,,,,,,,,,,,,,,,,,,,,,,,,,,,,,,,,,,,,,1,1.015161000000262,553.6036668999996,None,ScrollDown,정답입니다,553.6036668999996,None,553.6036668999996,None,553.6036668999996,None,553.6036668999996,None,554.4977133000002,None,554.4977133000002,555.0088446999998,,,,,,,,,,,,,,,,211,2022-05-06_14h09.30.079,FishGame,2022.1.1,60.00409227892892,
,17,넌 행복해,1,Orange,A,6.416666666666666,6.166666666666667,ScrollDown,ScrollUp,Orange.png,4,Positive,Congruent,0,0,0,0,,,,,,,,,,,,,,,,,,,,,,,,,0,16,16,16,,,,,,,,,,,,,,,,,,,,,,,,,,,,,,,,,,,,,,,,,,,,,,,,,,,,,,,,,,,,,,,,,,,,,,,,,1,1.2813570999996955,555.6751962999997,None,ScrollDown,정답입니다,555.6751962999997,None,555.6751962999997,None,555.6751962999997,None,555.6751962999997,None,556.8131465999995,None,556.8131465999995,557.3251572999998,,,,,,,,,,,,,,,,211,2022-05-06_14h09.30.079,FishGame,2022.1.1,60.00409227892892,
,18,넌 겸손해,2,Green,B,5.791666666666667,4.766666666666667,ScrollUp,ScrollDown,Green.png,4,Positive,Incongruent,0,0,0,0,,,,,,,,,,,,,,,,,,,,,,,,,0,17,17,17,,,,,,,,,,,,,,,,,,,,,,,,,,,,,,,,,,,,,,,,,,,,,,,,,,,,,,,,,,,,,,,,,,,,,,,,,1,1.1521902000004047,557.9800538999998,None,ScrollDown,오답입니다,557.9800538999998,None,557.9800538999998,None,557.9800538999998,None,557.9800538999998,None,558.9998082000002,None,558.9998082000002,559.5081807999995,,,,,,,,,,,,,,,,211,2022-05-06_14h09.30.079,FishGame,2022.1.1,60.00409227892892,
,19,나를 보내줘,6,Orange,A,0,0,ScrollUp,ScrollDown,Orange.png,4,NonTarget,NonTarget,0,0,0,0,,,,,,,,,,,,,,,,,,,,,,,,,0,18,18,18,,,,,,,,,,,,,,,,,,,,,,,,,,,,,,,,,,,,,,,,,,,,,,,,,,,,,,,,,,,,,,,,,,,,,,,,,1.7175925920406976,1.161301199999798,560.1580046999998,None,ScrollUp,정답입니다,560.1580046999998,None,560.1580046999998,None,560.1580046999998,None,560.1580046999998,None,561.1920970000001,None,561.1920970000001,561.6912329999996,,,,,,,,,,,,,,,,211,2022-05-06_14h09.30.079,FishGame,2022.1.1,60.00409227892892,
,20,넌 의심없어,3,Orange,A,4.166666666666667,4.6,ScrollDown,ScrollUp,Orange.png,4,Neutral,Neutral,0,0,0,0,,,,,,,,,,,,,,,,,,,,,,,,,0,19,19,19,,,,,,,,,,,,,,,,,,,,,,,,,,,,,,,,,,,,,,,,,,,,,,,,,,,,,,,,,,,,,,,,,,,,,,,,,1,1.1647474999999758,562.3465349999997,None,ScrollDown,정답입니다,562.3465349999997,None,562.3465349999997,None,562.3465349999997,None,562.3465349999997,None,563.3794019999996,None,563.3794019999996,563.8909753999997,,,,,,,,,,,,,,,,211,2022-05-06_14h09.30.079,FishGame,2022.1.1,60.00409227892892,
,21,넌 시시해,4,Orange,A,2.666666666666667,2.966666666666667,ScrollDown,ScrollUp,Orange.png,4,Negative,Incongruent,0,0,0,0,,,,,,,,,,,,,,,,,,,,,,,,,0,20,20,20,,,,,,,,,,,,,,,,,,,,,,,,,,,,,,,,,,,,,,,,,,,,,,,,,,,,,,,,,,,,,,,,,,,,,,,,,1,1.0728281000001516,564.5458118999995,None,ScrollDown,정답입니다,564.5458118999995,None,564.5458118999995,None,564.5458118999995,None,564.5458118999995,None,565.4909595999998,None,565.4909595999998,565.9908485999995,,,,,,,,,,,,,,,,211,2022-05-06_14h09.30.079,FishGame,2022.1.1,60.00409227892892,
,22,나를 데려가줘,6,Green,B,0,0,ScrollDown,ScrollUp,Green.png,4,NonTarget,NonTarget,0,0,0,0,,,,,,,,,,,,,,,,,,,,,,,,,0,21,21,21,,,,,,,,,,,,,,,,,,,,,,,,,,,,,,,,,,,,,,,,,,,,,,,,,,,,,,,,,,,,,,,,,,,,,,,,,1,1.1575812000000951,566.6408619000003,None,ScrollDown,정답입니다,566.6408619000003,None,566.6408619000003,None,566.6408619000003,None,566.6408619000003,None,567.6741959999999,None,567.6741959999999,568.1737529000002,,,,,,,,,,,,,,,,211,2022-05-06_14h09.30.079,FishGame,2022.1.1,60.00409227892892,
,23,넌 무정해,5,Orange,A,2.5,2.2,ScrollDown,ScrollUp,Orange.png,4,Negative,Incongruent,0,0,0,0,,,,,,,,,,,,,,,,,,,,,,,,,0,22,22,22,,,,,,,,,,,,,,,,,,,,,,,,,,,,,,,,,,,,,,,,,,,,,,,,,,,,,,,,,,,,,,,,,,,,,,,,,1,1.0602682999997342,568.8208212,None,ScrollDown,정답입니다,568.8208212,None,568.8208212,None,568.8208212,None,568.8208212,None,569.7572214000002,None,569.7572214000002,570.2567816999999,,,,,,,,,,,,,,,,211,2022-05-06_14h09.30.079,FishGame,2022.1.1,60.00409227892892,
,24,넌 긍정적이야,1,Green,B,6.041666666666667,6.066666666666666,ScrollUp,ScrollDown,Green.png,4,Positive,Incongruent,0,0,0,0,,,,,,,,,,,,,,,,,,,,,,,,,0,23,23,23,,,,,,,,,,,,,,,,,,,,,,,,,,,,,,,,,,,,,,,,,,,,,,,,,,,,,,,,,,,,,,,,,,,,,,,,,1.9012345770994823,1.3432697000007465,570.9152945999995,None,ScrollUp,정답입니다,570.9152945999995,None,570.9152945999995,None,570.9152945999995,None,570.9152945999995,None,572.1230976000006,None,572.1230976000006,572.6231919000002,,,,,,,,,,,,,,,,211,2022-05-06_14h09.30.079,FishGame,2022.1.1,60.00409227892892,
,25,나를 보내줘,6,Orange,A,0,0,ScrollUp,ScrollDown,Orange.png,4,NonTarget,NonTarget,0,0,0,0,,,,,,,,,,,,,,,,,,,,,,,,,0,24,24,24,,,,,,,,,,,,,,,,,,,,,,,,,,,,,,,,,,,,,,,,,,,,,,,,,,,,,,,,,,,,,,,,,,,,,,,,,1.8904321044683456,1.2082315999996354,573.2777344000006,None,ScrollUp,정답입니다,573.2777344000006,None,573.2777344000006,None,573.2777344000006,None,573.2777344000006,None,574.3565132999993,None,574.3565132999993,574.8562597,,,,,,,,,,,,,,,,211,2022-05-06_14h09.30.079,FishGame,2022.1.1,60.00409227892892,
,26,넌 시기심이 많아,5,Green,B,2.458333333333333,2.233333333333333,ScrollUp,ScrollDown,Green.png,4,Negative,Congruent,0,0,0,0,,,,,,,,,,,,,,,,,,,,,,,,,0,25,25,25,,,,,,,,,,,,,,,,,,,,,,,,,,,,,,,,,,,,,,,,,,,,,,,,,,,,,,,,,,,,,,,,,,,,,,,,,1.6728395000100136,1.0612560999998095,575.5119656999996,None,ScrollUp,정답입니다,575.5119656999996,None,575.5119656999996,None,575.5119656999996,None,575.5119656999996,None,576.4361043999997,None,576.4361043999997,576.9396479000006,,,,,,,,,,,,,,,,211,2022-05-06_14h09.30.079,FishGame,2022.1.1,60.00409227892892,
,27,넌 탁월해,2,Orange,A,5.708333333333334,4.5,ScrollDown,ScrollUp,Orange.png,4,Positive,Congruent,0,0,0,0,,,,,,,,,,,,,,,,,,,,,,,,,0,26,26,26,,,,,,,,,,,,,,,,,,,,,,,,,,,,,,,,,,,,,,,,,,,,,,,,,,,,,,,,,,,,,,,,,,,,,,,,,1,0.953207200000179,577.6024498999996,None,ScrollDown,정답입니다,577.6024498999996,None,577.6024498999996,None,577.6024498999996,None,577.6024498999996,None,578.4142217000008,None,578.4142217000008,578.9222964,,,,,,,,,,,,,,,,211,2022-05-06_14h09.30.079,FishGame,2022.1.1,60.00409227892892,
,28,나를 데려가줘,6,Green,B,0,0,ScrollDown,ScrollUp,Green.png,4,NonTarget,NonTarget,0,0,0,0,,,,,,,,,,,,,,,,,,,,,,,,,0,27,27,27,,,,,,,,,,,,,,,,,,,,,,,,,,,,,,,,,,,,,,,,,,,,,,,,,,,,,,,,,,,,,,,,,,,,,,,,,1.016975333293279,1.0680479999991803,579.5718746999992,None,ScrollDown,정답입니다,579.5718746999992,None,579.5718746999992,None,579.5718746999992,None,579.5718746999992,None,580.5118882999996,None,580.5118882999996,581.0221273000006,,,,,,,,,,,,,,,,211,2022-05-06_14h09.30.079,FishGame,2022.1.1,60.00409227892892,
,29,넌 조용해,3,Green,B,4.333333333333333,4.166666666666667,ScrollUp,ScrollDown,Green.png,4,Neutral,Neutral,0,0,0,0,,,,,,,,,,,,,,,,,,,,,,,,,0,28,28,28,,,,,,,,,,,,,,,,,,,,,,,,,,,,,,,,,,,,,,,,,,,,,,,,,,,,,,,,,,,,,,,,,,,,,,,,,1.663580241302649,0.960479999999734,581.6797239999996,None,ScrollUp,정답입니다,581.6797239999996,None,581.6797239999996,None,581.6797239999996,None,581.6797239999996,None,582.5052818999993,None,582.5052818999993,583.0050895999993,,,,,,,,,,,,,,,,211,2022-05-06_14h09.30.079,FishGame,2022.1.1,60.00409227892892,
,30,넌 다정해,1,Orange,A,5.833333333333334,5.7,ScrollDown,ScrollUp,Orange.png,4,Positive,Congruent,0,0,0,0,,,,,,,,,,,,,,,,,,,,,,,,,0,29,29,29,,,,,,,,,,,,,,,,,,,,,,,,,,,,,,,,,,,,,,,,,,,,,,,,,,,,,,,,,,,,,,,,,,,,,,,,,1,0.8887047999996867,583.663939,None,ScrollDown,정답입니다,583.663939,None,583.663939,None,583.663939,None,583.663939,None,584.4155195000003,None,584.4155195000003,584.9215781999992,,,,,,,,,,,,,,,,211,2022-05-06_14h09.30.079,FishGame,2022.1.1,60.00409227892892,
,31,넌 능력있어,2,Green,B,6.166666666666666,4.6,ScrollUp,ScrollDown,Green.png,4,Positive,Incongruent,0,0,0,0,,,,,,,,,,,,,,,,,,,,,,,,,0,30,30,30,,,,,,,,,,,,,,,,,,,,,,,,,,,,,,,,,,,,,,,,,,,,,,,,,,,,,,,,,,,,,,,,,,,,,,,,,1.6111111169060073,0.9388546999998653,585.5681177000006,None,ScrollUp,정답입니다,585.5681177000006,None,585.5681177000006,None,585.5681177000006,None,585.5681177000006,None,586.3880752999994,None,586.3880752999994,586.8879187999992,,,,,,,,,,,,,,,,211,2022-05-06_14h09.30.079,FishGame,2022.1.1,60.00409227892892,
,32,넌 불쾌해,5,Orange,A,2.125,1.933333333333333,ScrollDown,ScrollUp,Orange.png,4,Negative,Incongruent,0,0,0,0,,,,,,,,,,,,,,,,,,,,,,,,,0,31,31,31,,,,,,,,,,,,,,,,,,,,,,,,,,,,,,,,,,,,,,,,,,,,,,,,,,,,,,,,,,,,,,,,,,,,,,,,,1,1.067527400000472,587.544036199999,None,ScrollDown,정답입니다,587.544036199999,None,587.544036199999,None,587.544036199999,None,587.544036199999,None,588.4769957000008,None,588.4769957000008,588.9877206000001,,,,,,,,,,,,,,,,211,2022-05-06_14h09.30.079,FishGame,2022.1.1,60.00409227892892,
,33,나를 데려가줘,6,Green,B,0,0,ScrollDown,ScrollUp,Green.png,4,NonTarget,NonTarget,0,0,0,0,,,,,,,,,,,,,,,,,,,,,,,,,0,32,32,32,,,,,,,,,,,,,,,,,,,,,,,,,,,,,,,,,,,,,,,,,,,,,,,,,,,,,,,,,,,,,,,,,,,,,,,,,1,0.9518936999993457,589.6425939000001,None,ScrollDown,정답입니다,589.6425939000001,None,589.6425939000001,None,589.6425939000001,None,589.6425939000001,None,590.4604620999999,None,590.4604620999999,590.9708210000008,,,,,,,,,,,,,,,,211,2022-05-06_14h09.30.079,FishGame,2022.1.1,60.00409227892892,
,34,넌 유순해,3,Orange,A,4.458333333333333,5,ScrollDown,ScrollUp,Orange.png,4,Neutral,Neutral,0,0,0,0,,,,,,,,,,,,,,,,,,,,,,,,,0,33,33,33,,,,,,,,,,,,,,,,,,,,,,,,,,,,,,,,,,,,,,,,,,,,,,,,,,,,,,,,,,,,,,,,,,,,,,,,,1,0.9444083999987924,591.6255882999994,None,ScrollDown,정답입니다,591.6255882999994,None,591.6255882999994,None,591.6255882999994,None,591.6255882999994,None,592.4373364999992,None,592.4373364999992,592.9371716999995,,,,,,,,,,,,,,,,211,2022-05-06_14h09.30.079,FishGame,2022.1.1,60.00409227892892,
,35,넌 근심스러워,4,Green,B,2.708333333333333,3.133333333333333,ScrollUp,ScrollDown,Green.png,4,Negative,Congruent,0,0,0,0,,,,,,,,,,,,,,,,,,,,,,,,,0,34,34,34,,,,,,,,,,,,,,,,,,,,,,,,,,,,,,,,,,,,,,,,,,,,,,,,,,,,,,,,,,,,,,,,,,,,,,,,,2,1.0021455000005517,593.6069554000005,None,ScrollUp,정답입니다,593.6069554000005,None,593.6069554000005,None,593.6069554000005,None,593.6069554000005,None,594.4602451999999,None,594.4602451999999,594.9702419000005,,,,,,,,,,,,,,,,211,2022-05-06_14h09.30.079,FishGame,2022.1.1,60.00409227892892,
,36,넌 세련되었어,2,Orange,A,5.5,4.6,ScrollDown,ScrollUp,Orange.png,4,Positive,Congruent,0,0,0,0,,,,,,,,,,,,,,,,,,,,,,,,,0,35,35,35,,,,,,,,,,,,,,,,,,,,,,,,,,,,,,,,,,,,,,,,,,,,,,,,,,,,,,,,,,,,,,,,,,,,,,,,,1,0.9963130000014644,595.6463839999997,None,ScrollDown,정답입니다,595.6463839999997,None,595.6463839999997,None,595.6463839999997,None,595.6463839999997,None,596.4871015999997,None,596.4871015999997,596.9866220999993,,,,,,,,,,,,,,,,211,2022-05-06_14h09.30.079,FishGame,2022.1.1,60.00409227892892,
,37,나를 보내줘,6,Orange,A,0,0,ScrollUp,ScrollDown,Orange.png,4,NonTarget,NonTarget,0,0,0,0,,,,,,,,,,,,,,,,,,,,,,,,,0,36,36,36,,,,,,,,,,,,,,,,,,,,,,,,,,,,,,,,,,,,,,,,,,,,,,,,,,,,,,,,,,,,,,,,,,,,,,,,,2,1.15612019999935,597.6405739000002,None,ScrollUp,정답입니다,597.6405739000002,None,597.6405739000002,None,597.6405739000002,None,597.6405739000002,None,598.6639003,None,598.6639003,599.1697354000007,,,,,,,,,,,,,,,,211,2022-05-06_14h09.30.079,FishGame,2022.1.1,60.00409227892892,
,38,넌 확고해,3,Green,B,4.708333333333334,4.566666666666666,ScrollUp,ScrollDown,Green.png,4,Neutral,Neutral,0,0,0,0,,,,,,,,,,,,,,,,,,,,,,,,,0,37,37,37,,,,,,,,,,,,,,,,,,,,,,,,,,,,,,,,,,,,,,,,,,,,,,,,,,,,,,,,,,,,,,,,,,,,,,,,,2,0.9678576000005705,599.8294272000003,None,ScrollUp,정답입니다,599.8294272000003,None,599.8294272000003,None,599.8294272000003,None,599.8294272000003,None,600.6587545000002,None,600.6587545000002,601.1695182000003,,,,,,,,,,,,,,,,211,2022-05-06_14h09.30.079,FishGame,2022.1.1,60.00409227892892,
,39,넌 이해심이 많아,1,Green,B,6.041666666666668,5.533333333333333,ScrollUp,ScrollDown,Green.png,4,Positive,Incongruent,0,0,0,0,,,,,,,,,,,,,,,,,,,,,,,,,0,38,38,38,,,,,,,,,,,,,,,,,,,,,,,,,,,,,,,,,,,,,,,,,,,,,,,,,,,,,,,,,,,,,,,,,,,,,,,,,1.8472222139437993,1.022992099999101,601.8221262999996,None,ScrollUp,정답입니다,601.8221262999996,None,601.8221262999996,None,601.8221262999996,None,601.8221262999996,None,602.7198124999995,None,602.7198124999995,603.2194058999994,,,,,,,,,,,,,,,,211,2022-05-06_14h09.30.079,FishGame,2022.1.1,60.00409227892892,
,40,나를 보내줘,6,Orange,A,0,0,ScrollUp,ScrollDown,Orange.png,4,NonTarget,NonTarget,0,0,0,0,,,,,,,,,,,,,,,,,,,,,,,,,0,39,39,39,,,,,,,,,,,,,,,,,,,,,,,,,,,,,,,,,,,,,,,,,,,,,,,,,,,,,,,,,,,,,,,,,,,,,,,,,1.6975308607021966,1.5222340999989683,603.8707627000003,None,ScrollUp,정답입니다,603.8707627000003,None,603.8707627000003,None,603.8707627000003,None,603.8707627000003,None,605.2692611999992,None,605.2692611999992,605.7689289999998,,,,,,,,,,,,,,,,211,2022-05-06_14h09.30.079,FishGame,2022.1.1,60.00409227892892,
,41,넌 거칠어,4,Orange,A,2.625,3.033333333333333,ScrollDown,ScrollUp,Orange.png,4,Negative,Incongruent,0,0,0,0,,,,,,,,,,,,,,,,,,,,,,,,,0,40,40,40,,,,,,,,,,,,,,,,,,,,,,,,,,,,,,,,,,,,,,,,,,,,,,,,,,,,,,,,,,,,,,,,,,,,,,,,,1,1.2288954999985435,606.4302384999992,None,ScrollDown,정답입니다,606.4302384999992,None,606.4302384999992,None,606.4302384999992,None,606.4302384999992,None,607.5189871999992,None,607.5189871999992,608.0186568000008,,,,,,,,,,,,,,,,211,2022-05-06_14h09.30.079,FishGame,2022.1.1,60.00409227892892,
,42,넌 변덕맞아,5,Green,B,2.75,2.166666666666667,ScrollUp,ScrollDown,Green.png,4,Negative,Congruent,0,0,0,0,,,,,,,,,,,,,,,,,,,,,,,,,0,41,41,41,,,,,,,,,,,,,,,,,,,,,,,,,,,,,,,,,,,,,,,,,,,,,,,,,,,,,,,,,,,,,,,,,,,,,,,,,1.983024666706721,1.087269199999355,608.6791154999992,None,ScrollUp,정답입니다,608.6791154999992,None,608.6791154999992,None,608.6791154999992,None,608.6791154999992,None,609.6262683000004,None,609.6262683000004,610.1349974000004,,,,,,,,,,,,,,,,211,2022-05-06_14h09.30.079,FishGame,2022.1.1,60.00409227892892,
,43,나를 데려가줘,6,Green,B,0,0,ScrollDown,ScrollUp,Green.png,4,NonTarget,NonTarget,0,0,0,0,,,,,,,,,,,,,,,,,,,,,,,,,0,42,42,42,,,,,,,,,,,,,,,,,,,,,,,,,,,,,,,,,,,,,,,,,,,,,,,,,,,,,,,,,,,,,,,,,,,,,,,,,1,1.1957013999999617,610.7749122999994,None,ScrollDown,정답입니다,610.7749122999994,None,610.7749122999994,None,610.7749122999994,None,610.7749122999994,None,611.8537988000007,None,611.8537988000007,612.3680232000006,,,,,,,,,,,,,,,,211,2022-05-06_14h09.30.079,FishGame,2022.1.1,60.00409227892892,
,44,넌 외로워,4,Green,B,2.833333333333333,3.3,ScrollUp,ScrollDown,Green.png,4,Negative,Congruent,0,0,0,0,,,,,,,,,,,,,,,,,,,,,,,,,0,43,43,43,,,,,,,,,,,,,,,,,,,,,,,,,,,,,,,,,,,,,,,,,,,,,,,,,,,,,,,,,,,,,,,,,,,,,,,,,2,1.1184015999988333,613.0237778999999,None,ScrollUp,정답입니다,613.0237778999999,None,613.0237778999999,None,613.0237778999999,None,613.0237778999999,None,614.0071549000004,None,614.0071549000004,614.5177638000005,,,,,,,,,,,,,,,,211,2022-05-06_14h09.30.079,FishGame,2022.1.1,60.00409227892892,
,1,넌 불평스러워,5,Orange,A,2.25,2.066666666666667,ScrollDown,ScrollUp,Orange.png,5,Negative,Incongruent,0,0,0,0,,,,,,,,,,,,,,,,,,,,,,,,,,,,,0,0,0,0,,,,,,,,,,,,,,,,,,,,,,,,,,,,646.5635832000007,648.0634647999996,648.096761499999,649.0467344999997,649.0967196000001,650.0465397999997,650.0465397999997,None,,,,,,,,,,,,,,,,,,,,,,,,,,,,,,,,,,1.0462962985038757,1.1476256000005378,651.2440564999997,None,ScrollDown,정답입니다,651.2440564999997,None,651.2440564999997,None,651.2440564999997,None,651.2440564999997,None,652.2072212999992,None,652.2072212999992,652.7127113000006,615.0175536000006,None,615.0175536000006,None,0.19629629,-0.08425926,1,0,0,0.016250390001005144,None,645.0137150999999,None,,,211,2022-05-06_14h09.30.079,FishGame,2022.1.1,60.00409227892892,
,2,나를 보내줘,6,Orange,A,0,0,ScrollUp,ScrollDown,Orange.png,5,NonTarget,NonTarget,0,0,0,0,,,,,,,,,,,,,,,,,,,,,,,,,,,,,0,1,1,1,,,,,,,,,,,,,,,,,,,,,,,,,,,,,,,,,,,,,,,,,,,,,,,,,,,,,,,,,,,,,,,,,,,,,2,0.981268600000476,653.3636406000005,None,ScrollUp,정답입니다,653.3636406000005,None,653.3636406000005,None,653.3636406000005,None,653.3636406000005,None,654.2166058999992,None,654.2166058999992,654.7292758000003,,,,,,,,,,,,,,,,211,2022-05-06_14h09.30.079,FishGame,2022.1.1,60.00409227892892,
,3,넌 다재다능해,2,Green,B,6.208333333333333,4.5,ScrollUp,ScrollDown,Green.png,5,Positive,Incongruent,0,0,0,0,,,,,,,,,,,,,,,,,,,,,,,,,,,,,0,2,2,2,,,,,,,,,,,,,,,,,,,,,,,,,,,,,,,,,,,,,,,,,,,,,,,,,,,,,,,,,,,,,,,,,,,,,1.9722222189108531,1.024429599998257,655.3811303000002,None,ScrollUp,정답입니다,655.3811303000002,None,655.3811303000002,None,655.3811303000002,None,655.3811303000002,None,656.2792484000001,None,656.2792484000001,656.7789259000001,,,,,,,,,,,,,,,,211,2022-05-06_14h09.30.079,FishGame,2022.1.1,60.00409227892892,
,4,넌 과감해,3,Orange,A,4.833333333333334,4.6,ScrollDown,ScrollUp,Orange.png,5,Neutral,Neutral,0,0,0,0,,,,,,,,,,,,,,,,,,,,,,,,,,,,,0,3,3,3,,,,,,,,,,,,,,,,,,,,,,,,,,,,,,,,,,,,,,,,,,,,,,,,,,,,,,,,,,,,,,,,,,,,,1.0216049253940582,0.95410499999889,657.4330577000001,None,ScrollDown,정답입니다,657.4330577000001,None,657.4330577000001,None,657.4330577000001,None,657.4330577000001,None,658.2541664,None,658.2541664,658.7619365999999,,,,,,,,,,,,,,,,211,2022-05-06_14h09.30.079,FishGame,2022.1.1,60.00409227892892,
,5,넌 고분고분해,3,Green,B,3.75,4.033333333333333,ScrollUp,ScrollDown,Green.png,5,Neutral,Neutral,0,0,0,0,,,,,,,,,,,,,,,,,,,,,,,,,,,,,0,4,4,4,,,,,,,,,,,,,,,,,,,,,,,,,,,,,,,,,,,,,,,,,,,,,,,,,,,,,,,,,,,,,,,,,,,,,2,1.0586091999994096,659.4177600000003,None,ScrollUp,정답입니다,659.4177600000003,None,659.4177600000003,None,659.4177600000003,None,659.4177600000003,None,660.3451588000007,None,660.3451588000007,660.8451273999999,,,,,,,,,,,,,,,,211,2022-05-06_14h09.30.079,FishGame,2022.1.1,60.00409227892892,
,6,나를 보내줘,6,Orange,A,0,0,ScrollUp,ScrollDown,Orange.png,5,NonTarget,NonTarget,0,0,0,0,,,,,,,,,,,,,,,,,,,,,,,,,,,,,0,5,5,5,,,,,,,,,,,,,,,,,,,,,,,,,,,,,,,,,,,,,,,,,,,,,,,,,,,,,,,,,,,,,,,,,,,,,2,1.0112338999988424,661.4963955999992,None,ScrollUp,정답입니다,661.4963955999992,None,661.4963955999992,None,661.4963955999992,None,661.4963955999992,None,662.3785738000006,None,662.3785738000006,662.8782092000001,,,,,,,,,,,,,,,,211,2022-05-06_14h09.30.079,FishGame,2022.1.1,60.00409227892892,
,7,넌 잘 잊어,4,Orange,A,3,3.7,ScrollDown,ScrollUp,Orange.png,5,Negative,Incongruent,0,0,0,0,,,,,,,,,,,,,,,,,,,,,,,,,,,,,0,6,6,6,,,,,,,,,,,,,,,,,,,,,,,,,,,,,,,,,,,,,,,,,,,,,,,,,,,,,,,,,,,,,,,,,,,,,1.0663580298423767,1.07288360000166,663.5419760999994,None,ScrollDown,정답입니다,663.5419760999994,None,663.5419760999994,None,663.5419760999994,None,663.5419760999994,None,664.4781528000003,None,664.4781528000003,664.9778143999993,,,,,,,,,,,,,,,,211,2022-05-06_14h09.30.079,FishGame,2022.1.1,60.00409227892892,
,8,넌 탐구심이없어,4,Green,B,2.833333333333333,3.066666666666667,ScrollUp,ScrollDown,Green.png,5,Negative,Congruent,0,0,0,0,,,,,,,,,,,,,,,,,,,,,,,,,,,,,0,7,7,7,,,,,,,,,,,,,,,,,,,,,,,,,,,,,,,,,,,,,,,,,,,,,,,,,,,,,,,,,,,,,,,,,,,,,1.9614197711149852,0.9552165000004607,665.6394301,None,ScrollUp,정답입니다,665.6394301,None,665.6394301,None,665.6394301,None,665.6394301,None,666.4535957000007,None,666.4535957000007,666.9609853000002,,,,,,,,,,,,,,,,211,2022-05-06_14h09.30.079,FishGame,2022.1.1,60.00409227892892,
,9,나를 데려가줘,6,Green,B,0,0,ScrollDown,ScrollUp,Green.png,5,NonTarget,NonTarget,0,0,0,0,,,,,,,,,,,,,,,,,,,,,,,,,,,,,0,8,8,8,,,,,,,,,,,,,,,,,,,,,,,,,,,,,,,,,,,,,,,,,,,,,,,,,,,,,,,,,,,,,,,,,,,,,1.0108024775981903,0.9895831999983784,667.6110857000003,None,ScrollDown,정답입니다,667.6110857000003,None,667.6110857000003,None,667.6110857000003,None,667.6110857000003,None,668.4777183999995,None,668.4777183999995,668.9772431000001,,,,,,,,,,,,,,,,211,2022-05-06_14h09.30.079,FishGame,2022.1.1,60.00409227892892,
,10,넌 참되어,2,Orange,A,6.041666666666664,4.733333333333333,ScrollDown,ScrollUp,Orange.png,5,Positive,Congruent,0,0,0,0,,,,,,,,,,,,,,,,,,,,,,,,,,,,,0,9,9,9,,,,,,,,,,,,,,,,,,,,,,,,,,,,,,,,,,,,,,,,,,,,,,,,,,,,,,,,,,,,,,,,,,,,,1.0123456915219624,0.9636048000011215,669.6339919999991,None,ScrollDown,정답입니다,669.6339919999991,None,669.6339919999991,None,669.6339919999991,None,669.6339919999991,None,670.4639635999993,None,670.4639635999993,670.9770110999998,,,,,,,,,,,,,,,,211,2022-05-06_14h09.30.079,FishGame,2022.1.1,60.00409227892892,
,11,넌 생기있어,1,Green,B,5.875,5.633333333333334,ScrollUp,ScrollDown,Green.png,5,Positive,Incongruent,0,0,0,0,,,,,,,,,,,,,,,,,,,,,,,,,,,,,0,10,10,10,,,,,,,,,,,,,,,,,,,,,,,,,,,,,,,,,,,,,,,,,,,,,,,,,,,,,,,,,,,,,,,,,,,,,1.9614197711149852,0.9672785000002477,671.6318728000006,None,ScrollUp,정답입니다,671.6318728000006,None,671.6318728000006,None,671.6318728000006,None,671.6318728000006,None,672.4654255999994,None,672.4654255999994,672.9770382000006,,,,,,,,,,,,,,,,211,2022-05-06_14h09.30.079,FishGame,2022.1.1,60.00409227892892,
,12,넌 비사교적이야,4,Green,B,2.875,2.9,ScrollUp,ScrollDown,Green.png,5,Negative,Congruent,0,0,0,0,,,,,,,,,,,,,,,,,,,,,,,,,,,,,0,11,11,11,,,,,,,,,,,,,,,,,,,,,,,,,,,,,,,,,,,,,,,,,,,,,,,,,,,,,,,,,,,,,,,,,,,,,2,1.1071119000007457,673.6229256000006,None,ScrollUp,정답입니다,673.6229256000006,None,673.6229256000006,None,673.6229256000006,None,673.6229256000006,None,674.6097814999994,None,674.6097814999994,675.1097656999991,,,,,,,,,,,,,,,,211,2022-05-06_14h09.30.079,FishGame,2022.1.1,60.00409227892892,
,13,나를 데려가줘,6,Green,B,0,0,ScrollDown,ScrollUp,Green.png,5,NonTarget,NonTarget,0,0,0,0,,,,,,,,,,,,,,,,,,,,,,,,,,,,,0,12,12,12,,,,,,,,,,,,,,,,,,,,,,,,,,,,,,,,,,,,,,,,,,,,,,,,,,,,,,,,,,,,,,,,,,,,,1.1095678955316544,0.9216448999995919,675.7605578999992,None,ScrollDown,정답입니다,675.7605578999992,None,675.7605578999992,None,675.7605578999992,None,675.7605578999992,None,676.5524544,None,676.5524544,677.0596937999999,,,,,,,,,,,,,,,,211,2022-05-06_14h09.30.079,FishGame,2022.1.1,60.00409227892892,
,14,넌 고독해,4,Orange,A,2.916666666666667,3.233333333333333,ScrollDown,ScrollUp,Orange.png,5,Negative,Incongruent,0,0,0,0,,,,,,,,,,,,,,,,,,,,,,,,,,,,,0,13,13,13,,,,,,,,,,,,,,,,,,,,,,,,,,,,,,,,,,,,,,,,,,,,,,,,,,,,,,,,,,,,,,,,,,,,,1.4135802499949932,1.7064670999989175,677.7112968000001,None,ScrollDown,정답입니다,677.7112968000001,None,677.7112968000001,None,677.7112968000001,None,677.7112968000001,None,679.2858180000003,None,679.2858180000003,679.7927689000007,,,,,,,,,,,,,,,,211,2022-05-06_14h09.30.079,FishGame,2022.1.1,60.00409227892892,
,15,넌 신경질적이야,5,Green,B,2.375,2.233333333333333,ScrollUp,ScrollDown,Green.png,5,Negative,Congruent,0,0,0,0,,,,,,,,,,,,,,,,,,,,,,,,,,,,,0,14,14,14,,,,,,,,,,,,,,,,,,,,,,,,,,,,,,,,,,,,,,,,,,,,,,,,,,,,,,,,,,,,,,,,,,,,,1.858024686574936,1.245447299999796,680.4452311000005,None,ScrollUp,정답입니다,680.4452311000005,None,680.4452311000005,None,680.4452311000005,None,680.4452311000005,None,681.5591012999994,None,681.5591012999994,682.0589418,,,,,,,,,,,,,,,,211,2022-05-06_14h09.30.079,FishGame,2022.1.1,60.00409227892892,
,16,넌 똑똑해,2,Green,B,5.666666666666667,3.966666666666667,ScrollUp,ScrollDown,Green.png,5,Positive,Incongruent,0,0,0,0,,,,,,,,,,,,,,,,,,,,,,,,,,,,,0,15,15,15,,,,,,,,,,,,,,,,,,,,,,,,,,,,,,,,,,,,,,,,,,,,,,,,,,,,,,,,,,,,,,,,,,,,,1.9891975224018097,1.0201670999995258,682.7182455000002,None,ScrollUp,정답입니다,682.7182455000002,None,682.7182455000002,None,682.7182455000002,None,682.7182455000002,None,683.6001558999997,None,683.6001558999997,684.1087652999995,,,,,,,,,,,,,,,,211,2022-05-06_14h09.30.079,FishGame,2022.1.1,60.00409227892892,
,17,나를 보내줘,6,Orange,A,0,0,ScrollUp,ScrollDown,Orange.png,5,NonTarget,NonTarget,0,0,0,0,,,,,,,,,,,,,,,,,,,,,,,,,,,,,0,16,16,16,,,,,,,,,,,,,,,,,,,,,,,,,,,,,,,,,,,,,,,,,,,,,,,,,,,,,,,,,,,,,,,,,,,,,2,1.1315636999988783,684.7619627000004,None,ScrollUp,정답입니다,684.7619627000004,None,684.7619627000004,None,684.7619627000004,None,684.7619627000004,None,685.7614252999992,None,685.7614252999992,686.275051999999,,,,,,,,,,,,,,,,211,2022-05-06_14h09.30.079,FishGame,2022.1.1,60.00409227892892,
,18,넌 협조적이야,1,Orange,A,5.625,5.666666666666667,ScrollDown,ScrollUp,Orange.png,5,Positive,Congruent,0,0,0,0,,,,,,,,,,,,,,,,,,,,,,,,,,,,,0,17,17,17,,,,,,,,,,,,,,,,,,,,,,,,,,,,,,,,,,,,,,,,,,,,,,,,,,,,,,,,,,,,,,,,,,,,,1.1450617164373398,1.3559856000010768,686.9284114999991,None,ScrollDown,정답입니다,686.9284114999991,None,686.9284114999991,None,686.9284114999991,None,686.9284114999991,None,688.1581743000006,None,688.1581743000006,688.6580844,,,,,,,,,,,,,,,,211,2022-05-06_14h09.30.079,FishGame,2022.1.1,60.00409227892892,
,19,나를 데려가줘,6,Green,B,0,0,ScrollDown,ScrollUp,Green.png,5,NonTarget,NonTarget,0,0,0,0,,,,,,,,,,,,,,,,,,,,,,,,,,,,,0,18,18,18,,,,,,,,,,,,,,,,,,,,,,,,,,,,,,,,,,,,,,,,,,,,,,,,,,,,,,,,,,,,,,,,,,,,,1,1.1282142000000022,689.3098632000001,None,ScrollDown,정답입니다,689.3098632000001,None,689.3098632000001,None,689.3098632000001,None,689.3098632000001,None,690.3091953000003,None,690.3091953000003,690.8244708000002,,,,,,,,,,,,,,,,211,2022-05-06_14h09.30.079,FishGame,2022.1.1,60.00409227892892,
,20,넌 몰인정해,5,Green,B,2.541666666666667,2.066666666666667,ScrollUp,ScrollDown,Green.png,5,Negative,Congruent,0,0,0,0,,,,,,,,,,,,,,,,,,,,,,,,,,,,,0,19,19,19,,,,,,,,,,,,,,,,,,,,,,,,,,,,,,,,,,,,,,,,,,,,,,,,,,,,,,,,,,,,,,,,,,,,,1.7716049303611119,1.0201145999999426,691.4795245000005,None,ScrollUp,정답입니다,691.4795245000005,None,691.4795245000005,None,691.4795245000005,None,691.4795245000005,None,692.3669203999998,None,692.3669203999998,692.8742973000008,,,,,,,,,,,,,,,,211,2022-05-06_14h09.30.079,FishGame,2022.1.1,60.00409227892892,
,21,나를 데려가줘,6,Green,B,0,0,ScrollDown,ScrollUp,Green.png,5,NonTarget,NonTarget,0,0,0,0,,,,,,,,,,,,,,,,,,,,,,,,,,,,,0,20,20,20,,,,,,,,,,,,,,,,,,,,,,,,,,,,,,,,,,,,,,,,,,,,,,,,,,,,,,,,,,,,,,,,,,,,,1,1.0683838999993895,693.5240047999996,None,ScrollDown,정답입니다,693.5240047999996,None,693.5240047999996,None,693.5240047999996,None,693.5240047999996,None,694.4635132999992,None,694.4635132999992,694.9739141999999,,,,,,,,,,,,,,,,211,2022-05-06_14h09.30.079,FishGame,2022.1.1,60.00409227892892,
,22,넌 순진해,3,Green,B,4.125,4.166666666666667,ScrollUp,ScrollDown,Green.png,5,Neutral,Neutral,0,0,0,0,,,,,,,,,,,,,,,,,,,,,,,,,,,,,0,21,21,21,,,,,,,,,,,,,,,,,,,,,,,,,,,,,,,,,,,,,,,,,,,,,,,,,,,,,,,,,,,,,,,,,,,,,1.837962955236435,0.9981070999983785,695.6180590000004,None,ScrollUp,정답입니다,695.6180590000004,None,695.6180590000004,None,695.6180590000004,None,695.6180590000004,None,696.4942360999994,None,696.4942360999994,697.0070935000003,,,,,,,,,,,,,,,,211,2022-05-06_14h09.30.079,FishGame,2022.1.1,60.00409227892892,
,23,넌 신뢰할만해,1,Orange,A,6.625,5.533333333333333,ScrollDown,ScrollUp,Orange.png,5,Positive,Congruent,0,0,0,0,,,,,,,,,,,,,,,,,,,,,,,,,,,,,0,22,22,22,,,,,,,,,,,,,,,,,,,,,,,,,,,,,,,,,,,,,,,,,,,,,,,,,,,,,,,,,,,,,,,,,,,,,1,1.0787075999996887,697.6726249000003,None,ScrollDown,정답입니다,697.6726249000003,None,697.6726249000003,None,697.6726249000003,None,697.6726249000003,None,698.6073281999998,None,698.6073281999998,699.1067045,,,,,,,,,,,,,,,,211,2022-05-06_14h09.30.079,FishGame,2022.1.1,60.00409227892892,
,24,나를 보내줘,6,Orange,A,0,0,ScrollUp,ScrollDown,Orange.png,5,NonTarget,NonTarget,0,0,0,0,,,,,,,,,,,,,,,,,,,,,,,,,,,,,0,23,23,23,,,,,,,,,,,,,,,,,,,,,,,,,,,,,,,,,,,,,,,,,,,,,,,,,,,,,,,,,,,,,,,,,,,,,1.9367283980051677,0.9616241999992781,699.7615736000007,None,ScrollUp,정답입니다,699.7615736000007,None,699.7615736000007,None,699.7615736000007,None,699.7615736000007,None,700.5898773000008,None,700.5898773000008,701.0898307000007,,,,,,,,,,,,,,,,211,2022-05-06_14h09.30.079,FishGame,2022.1.1,60.00409227892892,
