name,TrialNum,Word,WordCategory,FishType,WordList,WordValence,WordReputation,CorrectResp,IncorrectResp,FishTypeFile,Round,WordType,Condition,LoopforOrange.thisRepN,LoopforOrange.thisTrialN,LoopforOrange.thisN,LoopforOrange.thisIndex,LoopForGreen.thisRepN,LoopForGreen.thisTrialN,LoopForGreen.thisN,LoopForGreen.thisIndex,GreenInstLoop.thisRepN,GreenInstLoop.thisTrialN,GreenInstLoop.thisN,GreenInstLoop.thisIndex,GreenPrac.thisRepN,GreenPrac.thisTrialN,GreenPrac.thisN,GreenPrac.thisIndex,trials_2.thisRepN,trials_2.thisTrialN,trials_2.thisN,trials_2.thisIndex,GreenRound1.thisRepN,GreenRound1.thisTrialN,GreenRound1.thisN,GreenRound1.thisIndex,GreenRound2.thisRepN,GreenRound2.thisTrialN,GreenRound2.thisN,GreenRound2.thisIndex,GreenRound3.thisRepN,GreenRound3.thisTrialN,GreenRound3.thisN,GreenRound3.thisIndex,GreenRound4.thisRepN,GreenRound4.thisTrialN,GreenRound4.thisN,GreenRound4.thisIndex,GreenRound5.thisRepN,GreenRound5.thisTrialN,GreenRound5.thisN,GreenRound5.thisIndex,text_2.started,text_2.stopped,text_3.started,text_3.stopped,key_resp.keys,key_resp.rt,key_resp.started,key_resp.stopped,PassI.started,PassI.stopped,PassInst.keys,PassInst.rt,PassInst.started,PassInst.stopped,mouse_2.x,mouse_2.y,mouse_2.leftButton,mouse_2.midButton,mouse_2.rightButton,mouse_2.started,mouse_2.stopped,image.started,image.stopped,text_5.started,text_5.stopped,text_6.started,text_6.stopped,text_7.started,text_7.stopped,text_8.started,text_8.stopped,slider_3.response,slider_3.rt,slider_3.started,slider_3.stopped,Response_3,Feedback_3,BackGround_3.started,BackGround_3.stopped,Fish_3.started,Fish_3.stopped,WordBox_3.started,WordBox_3.stopped,Words_3.started,Words_3.stopped,BackGround_Feedback_3.started,BackGround_Feedback_3.stopped,Feedbacks_3.started,Feedbacks_3.stopped,Continue_or_not_2.keys,Continue_or_not_2.rt,Continue_or_not_2.started,Continue_or_not_2.stopped,image_4.started,image_4.stopped,mouse_3.x,mouse_3.y,mouse_3.leftButton,mouse_3.midButton,mouse_3.rightButton,mouse_3.started,mouse_3.stopped,startmain.started,startmain.stopped,slider_4.response,slider_4.rt,slider_4.started,slider_4.stopped,Response_4,Feedback_4,BackGround_4.started,BackGround_4.stopped,Fish_4.started,Fish_4.stopped,WordBox_4.started,WordBox_4.stopped,Words_4.started,Words_4.stopped,BackGround_Feedback_4.started,BackGround_Feedback_4.stopped,Feedbacks_4.started,Feedbacks_4.stopped,text.started,text.stopped,break_interval.started,break_interval.stopped,mouse.x,mouse.y,mouse.leftButton,mouse.midButton,mouse.rightButton,mouse.started,mouse.stopped,stratnextround.started,stratnextround.stopped,endgame.started,endgame.stopped,participant,date,expName,psychopyVersion,frameRate,
,,,,,,,,,,,,,,,,,,,,,,,,,,,,,,,,,,,,,,,,,,,,,,,,,,,,,,22.533536300001288,None,22.533536300001288,None,space,2.845198700000765,23.01734960000067,None,,,,,,,,,,,,,,,,,,,,,,,,,,,,,,,,,,,,,,,,,,,,,,,,,,,,,,,,,,,,,,,,,,,,,,,,,,,,,,,,,,,,,,,,,,212,2022-05-06_15h43.47.078,FishGame,2022.1.1,59.9701948131236,
물고기과제_instruction(참가자용)GreenVersion.mp4,,,,,,,,,,,,,,,,,,0,0,0,0,0,0,0,0,,,,,,,,,,,,,,,,,,,,,,,,,,,,,,,,,,,,,92.53179790000104,None,n,8.993627099998776,92.53179790000104,None,,,,,,,,,,,,,,,,,,,,,,,,,,,,,,,,,,,,,,,,,,,,,,,,,,,,,,,,,,,,,,,,,,,,,,,,,,,,,,,,,,,,212,2022-05-06_15h43.47.078,FishGame,2022.1.1,59.9701948131236,
,1,넌 교활해,5,Orange,B,2.333333333333333,2.133333333333333,ScrollUp,ScrollDown,Orange.png,practice,,,,,,,0,0,0,0,,,,,0,0,0,0,0,0,0,0,,,,,,,,,,,,,,,,,,,,,,,,,,,,,,,,,,,0.008333334,-0.22870371,1,0,0,0.5134142199985945,None,101.55717280000135,None,107.47350730000107,108.97293739999986,109.00608450000072,109.95593000000008,110.00610980000056,110.95602930000132,110.95602930000132,None,1.8101851791143417,1.6630858999997145,112.14775240000017,None,ScrollUp,정답입니다,112.14775240000017,None,112.14775240000017,None,112.14775240000017,None,112.14775240000017,None,113.63256050000018,None,113.63256050000018,114.13870020000104,,,,,,,,,,,,,,,,,,,,,,,,,,,,,,,,,,,,,,,,,,,,,,,,,212,2022-05-06_15h43.47.078,FishGame,2022.1.1,59.9701948131236,
,2,넌 슬기로워,2,Green,A,6.166666666666667,4.1,ScrollDown,ScrollUp,Green.png,practice,,,,,,,0,0,0,0,,,,,0,0,0,0,0,1,1,1,,,,,,,,,,,,,,,,,,,,,,,,,,,,,,,,,,,,,,,,,,,,,,,,,,,,1.1527777860562007,1.3753407999993215,114.79267299999992,None,ScrollDown,정답입니다,114.79267299999992,None,114.79267299999992,None,114.79267299999992,None,114.79267299999992,None,116.0343541000002,None,116.0343541000002,116.5383767000003,,,,,,,,,,,,,,,,,,,,,,,,,,,,,,,,,,,,,,,,,,,,,,,,,212,2022-05-06_15h43.47.078,FishGame,2022.1.1,59.9701948131236,
,3,나를 보내줘,6,Green,A,0,0,ScrollUp,ScrollDown,Green.png,practice,,,,,,,0,0,0,0,,,,,0,0,0,0,0,2,2,2,,,,,,,,,,,,,,,,,,,,,,,,,,,,,,,,,,,,,,,,,,,,,,,,,,,,1.6172839477658272,1.2832603999995627,117.2028762000009,None,ScrollUp,정답입니다,117.2028762000009,None,117.2028762000009,None,117.2028762000009,None,117.2028762000009,None,118.34481290000076,None,118.34481290000076,118.85472910000135,,,,,,,,,,,,,,,,,,,,,,,,,,,,,,,,,,,,,,,,,,,,,,,,,212,2022-05-06_15h43.47.078,FishGame,2022.1.1,59.9701948131236,
,4,나를 데려가줘,6,Orange,B,0,0,ScrollDown,ScrollUp,Orange.png,practice,,,,,,,0,0,0,0,,,,,0,0,0,0,0,3,3,3,,,,,,,,,,,,,,,,,,,,,,,,,,,,,,,,,,,,,,,,,,,,,,,,,,,,1.0771604776382446,1.2363514999997278,119.5132033000009,None,ScrollDown,정답입니다,119.5132033000009,None,119.5132033000009,None,119.5132033000009,None,119.5132033000009,None,120.6122544000009,None,120.6122544000009,121.12105370000063,,,,,,,,,,,,,,,,,,,,,,,,,,,,,,,,,,,,,,,,,,,,,,,,,212,2022-05-06_15h43.47.078,FishGame,2022.1.1,59.9701948131236,
,1,넌 교활해,5,Orange,B,2.333333333333333,2.133333333333333,ScrollUp,ScrollDown,Orange.png,practice,,,,,,,0,0,0,0,,,,,0,0,0,0,,,,,,,,,,,,,,,,,,,,,,,,,,,,,,,,,,,,,,,,,,,,,,,,,,,,,,,,,,,,,,,,,,,,,,,,,,n,16.314109299999473,121.62101020000046,None,121.62101020000046,None,,,,,,,,,,,,,,,,,,,,,,,,,,,,,,,,,,,,,,,,,,,212,2022-05-06_15h43.47.078,FishGame,2022.1.1,59.9701948131236,
,1,넌 따뜻해,1,Orange,B,6.083333333333333,5.6,ScrollUp,ScrollDown,Orange.png,1,Positive,Incongruent,,,,,0,0,0,0,,,,,,,,,,,,,0,0,0,0,,,,,,,,,,,,,,,,,,,,,,,,,,,,,,,,,,,,,,,,140.58549029999995,142.085138800001,142.11853780000092,143.06827200000043,143.11832950000098,144.06812710000122,144.06812710000122,None,,,,,,,,,,,,,,,,,,,,,,,,,0.2712963,-0.20925926,1,0,0,0.3133491200005665,None,137.95228719999977,None,1.6712962985038757,1.5391950000012002,145.2834382000001,None,ScrollUp,정답입니다,145.2834382000001,None,145.2834382000001,None,145.2834382000001,None,145.2834382000001,None,146.62952469999982,None,146.62952469999982,147.1343880000004,,,,,,,,,,,,,,,,212,2022-05-06_15h43.47.078,FishGame,2022.1.1,59.9701948131236,
,2,넌 기품있어,2,Orange,B,5.791666666666668,4.5,ScrollUp,ScrollDown,Orange.png,1,Positive,Incongruent,,,,,0,0,0,0,,,,,,,,,,,,,0,1,1,1,,,,,,,,,,,,,,,,,,,,,,,,,,,,,,,,,,,,,,,,,,,,,,,,,,,,,,,,,,,,,,,,,,,,,,,,,,,,,,,,,1.6466049378116927,1.0517329000012978,147.8104430000003,None,ScrollUp,정답입니다,147.8104430000003,None,147.8104430000003,None,147.8104430000003,None,147.8104430000003,None,148.70825630000036,None,148.70825630000036,149.2174740999999,,,,,,,,,,,,,,,,212,2022-05-06_15h43.47.078,FishGame,2022.1.1,59.9701948131236,
,3,나를 보내줘,6,Green,A,0,0,ScrollUp,ScrollDown,Green.png,1,NonTarget,NonTarget,,,,,0,0,0,0,,,,,,,,,,,,,0,2,2,2,,,,,,,,,,,,,,,,,,,,,,,,,,,,,,,,,,,,,,,,,,,,,,,,,,,,,,,,,,,,,,,,,,,,,,,,,,,,,,,,,1.5246913575877747,1.0872545000001992,149.88436320000073,None,NoResponse,무응답입니다,149.88436320000073,None,149.88436320000073,None,149.88436320000073,None,149.88436320000073,None,150.83530240000073,None,150.83530240000073,151.35052180000093,,,,,,,,,,,,,,,,212,2022-05-06_15h43.47.078,FishGame,2022.1.1,59.9701948131236,
,4,넌 수동적이야,4,Green,A,2.833333333333333,2.933333333333333,ScrollDown,ScrollUp,Green.png,1,Negative,Incongruent,,,,,0,0,0,0,,,,,,,,,,,,,0,3,3,3,,,,,,,,,,,,,,,,,,,,,,,,,,,,,,,,,,,,,,,,,,,,,,,,,,,,,,,,,,,,,,,,,,,,,,,,,,,,,,,,,1.0509259402751923,1.2289516999990155,152.02018680000037,None,ScrollDown,정답입니다,152.02018680000037,None,152.02018680000037,None,152.02018680000037,None,152.02018680000037,None,153.10587190000115,None,153.10587190000115,153.6170419000009,,,,,,,,,,,,,,,,212,2022-05-06_15h43.47.078,FishGame,2022.1.1,59.9701948131236,
,5,넌 사심이 없어,3,Orange,B,4.916666666666666,4.333333333333333,ScrollUp,ScrollDown,Orange.png,1,Neutral,Neutral,,,,,0,0,0,0,,,,,,,,,,,,,0,4,4,4,,,,,,,,,,,,,,,,,,,,,,,,,,,,,,,,,,,,,,,,,,,,,,,,,,,,,,,,,,,,,,,,,,,,,,,,,,,,,,,,,1.9135802388191223,1.1687910000000556,154.28624710000076,None,ScrollUp,정답입니다,154.28624710000076,None,154.28624710000076,None,154.28624710000076,None,154.28624710000076,None,155.30808799999977,None,155.30808799999977,155.81664020000062,,,,,,,,,,,,,,,,212,2022-05-06_15h43.47.078,FishGame,2022.1.1,59.9701948131236,
,6,넌 헤퍼,5,Green,A,2.458333333333334,2.233333333333333,ScrollDown,ScrollUp,Green.png,1,Negative,Incongruent,,,,,0,0,0,0,,,,,,,,,,,,,0,5,5,5,,,,,,,,,,,,,,,,,,,,,,,,,,,,,,,,,,,,,,,,,,,,,,,,,,,,,,,,,,,,,,,,,,,,,,,,,,,,,,,,,1,1.2014192000006005,156.47331099999974,None,ScrollDown,정답입니다,156.47331099999974,None,156.47331099999974,None,156.47331099999974,None,156.47331099999974,None,157.54073450000033,None,157.54073450000033,158.0497720000003,,,,,,,,,,,,,,,,212,2022-05-06_15h43.47.078,FishGame,2022.1.1,59.9701948131236,
,7,넌 말쑥해,3,Green,A,4.833333333333334,4.333333333333333,ScrollDown,ScrollUp,Green.png,1,Neutral,Neutral,,,,,0,0,0,0,,,,,,,,,,,,,0,6,6,6,,,,,,,,,,,,,,,,,,,,,,,,,,,,,,,,,,,,,,,,,,,,,,,,,,,,,,,,,,,,,,,,,,,,,,,,,,,,,,,,,1,1.1168885000006412,158.70830810000007,None,ScrollDown,정답입니다,158.70830810000007,None,158.70830810000007,None,158.70830810000007,None,158.70830810000007,None,159.68945040000108,None,159.68945040000108,160.19936210000014,,,,,,,,,,,,,,,,212,2022-05-06_15h43.47.078,FishGame,2022.1.1,59.9701948131236,
,8,넌 투덜거려,5,Orange,B,2.541666666666667,2.266666666666667,ScrollUp,ScrollDown,Orange.png,1,Negative,Congruent,,,,,0,0,0,0,,,,,,,,,,,,,0,7,7,7,,,,,,,,,,,,,,,,,,,,,,,,,,,,,,,,,,,,,,,,,,,,,,,,,,,,,,,,,,,,,,,,,,,,,,,,,,,,,,,,,1.8904321044683456,1.0012791999997717,160.86984980000125,None,ScrollUp,정답입니다,160.86984980000125,None,160.86984980000125,None,160.86984980000125,None,160.86984980000125,None,161.7226799,None,161.7226799,162.23247770000125,,,,,,,,,,,,,,,,212,2022-05-06_15h43.47.078,FishGame,2022.1.1,59.9701948131236,
,9,넌 적극적이야,1,Green,A,5.708333333333333,5.533333333333333,ScrollDown,ScrollUp,Green.png,1,Positive,Congruent,,,,,0,0,0,0,,,,,,,,,,,,,0,8,8,8,,,,,,,,,,,,,,,,,,,,,,,,,,,,,,,,,,,,,,,,,,,,,,,,,,,,,,,,,,,,,,,,,,,,,,,,,,,,,,,,,1,1.2405481000005238,162.8906461000006,None,ScrollDown,정답입니다,162.8906461000006,None,162.8906461000006,None,162.8906461000006,None,162.8906461000006,None,163.9992039000008,None,163.9992039000008,164.49888470000042,,,,,,,,,,,,,,,,212,2022-05-06_15h43.47.078,FishGame,2022.1.1,59.9701948131236,
,10,넌 재미없어,4,Orange,B,2.625,2.966666666666667,ScrollUp,ScrollDown,Orange.png,1,Negative,Congruent,,,,,0,0,0,0,,,,,,,,,,,,,0,9,9,9,,,,,,,,,,,,,,,,,,,,,,,,,,,,,,,,,,,,,,,,,,,,,,,,,,,,,,,,,,,,,,,,,,,,,,,,,,,,,,,,,1.9259259502092998,1.050776499998392,165.1642128000003,None,ScrollUp,정답입니다,165.1642128000003,None,165.1642128000003,None,165.1642128000003,None,165.1642128000003,None,166.07167480000135,None,166.07167480000135,166.58191650000117,,,,,,,,,,,,,,,,212,2022-05-06_15h43.47.078,FishGame,2022.1.1,59.9701948131236,
,11,넌 명석해,2,Green,A,5.875,4.033333333333333,ScrollDown,ScrollUp,Green.png,1,Positive,Congruent,,,,,0,0,0,0,,,,,,,,,,,,,0,10,10,10,,,,,,,,,,,,,,,,,,,,,,,,,,,,,,,,,,,,,,,,,,,,,,,,,,,,,,,,,,,,,,,,,,,,,,,,,,,,,,,,,1,1.1100335999999515,167.24083450000035,None,ScrollDown,정답입니다,167.24083450000035,None,167.24083450000035,None,167.24083450000035,None,167.24083450000035,None,168.2152298000001,None,168.2152298000001,168.71487230000093,,,,,,,,,,,,,,,,212,2022-05-06_15h43.47.078,FishGame,2022.1.1,59.9701948131236,
,12,나를 데려가줘,6,Orange,B,0,0,ScrollDown,ScrollUp,Orange.png,1,NonTarget,NonTarget,,,,,0,0,0,0,,,,,,,,,,,,,0,11,11,11,,,,,,,,,,,,,,,,,,,,,,,,,,,,,,,,,,,,,,,,,,,,,,,,,,,,,,,,,,,,,,,,,,,,,,,,,,,,,,,,,1,1.280507800000123,169.38013570000112,None,ScrollDown,정답입니다,169.38013570000112,None,169.38013570000112,None,169.38013570000112,None,169.38013570000112,None,170.5202074000008,None,170.5202074000008,171.0313599000001,,,,,,,,,,,,,,,,212,2022-05-06_15h43.47.078,FishGame,2022.1.1,59.9701948131236,
,13,넌 소심해,4,Green,A,3,3.1,ScrollDown,ScrollUp,Green.png,1,Negative,Incongruent,,,,,0,0,0,0,,,,,,,,,,,,,0,12,12,12,,,,,,,,,,,,,,,,,,,,,,,,,,,,,,,,,,,,,,,,,,,,,,,,,,,,,,,,,,,,,,,,,,,,,,,,,,,,,,,,,1,1.0495012999999744,171.6876525000007,None,ScrollDown,정답입니다,171.6876525000007,None,171.6876525000007,None,171.6876525000007,None,171.6876525000007,None,172.60327340000003,None,172.60327340000003,173.11440610000136,,,,,,,,,,,,,,,,212,2022-05-06_15h43.47.078,FishGame,2022.1.1,59.9701948131236,
,14,넌 합리적이야,2,Green,A,5.583333333333333,4.733333333333333,ScrollDown,ScrollUp,Green.png,1,Positive,Congruent,,,,,0,0,0,0,,,,,,,,,,,,,0,13,13,13,,,,,,,,,,,,,,,,,,,,,,,,,,,,,,,,,,,,,,,,,,,,,,,,,,,,,,,,,,,,,,,,,,,,,,,,,,,,,,,,,1,0.957025199999407,173.77555530000063,None,ScrollDown,정답입니다,173.77555530000063,None,173.77555530000063,None,173.77555530000063,None,173.77555530000063,None,174.59765479999987,None,174.59765479999987,175.0974514999998,,,,,,,,,,,,,,,,212,2022-05-06_15h43.47.078,FishGame,2022.1.1,59.9701948131236,
,15,넌 무자비해,5,Orange,B,2.333333333333333,2.1,ScrollUp,ScrollDown,Orange.png,1,Negative,Congruent,,,,,0,0,0,0,,,,,,,,,,,,,0,14,14,14,,,,,,,,,,,,,,,,,,,,,,,,,,,,,,,,,,,,,,,,,,,,,,,,,,,,,,,,,,,,,,,,,,,,,,,,,,,,,,,,,1.9521604875723522,1.0288086000000476,175.76515420000032,None,ScrollUp,정답입니다,175.76515420000032,None,175.76515420000032,None,175.76515420000032,None,175.76515420000032,None,176.6504299999997,None,176.6504299999997,177.1638839999996,,,,,,,,,,,,,,,,212,2022-05-06_15h43.47.078,FishGame,2022.1.1,59.9701948131236,
,16,나를 보내줘,6,Green,A,0,0,ScrollUp,ScrollDown,Green.png,1,NonTarget,NonTarget,,,,,0,0,0,0,,,,,,,,,,,,,0,15,15,15,,,,,,,,,,,,,,,,,,,,,,,,,,,,,,,,,,,,,,,,,,,,,,,,,,,,,,,,,,,,,,,,,,,,,,,,,,,,,,,,,1.9691357910633087,1.0832618000004004,177.81659910000053,None,ScrollUp,정답입니다,177.81659910000053,None,177.81659910000053,None,177.81659910000053,None,177.81659910000053,None,178.77289610000116,None,178.77289610000116,179.28040060000058,,,,,,,,,,,,,,,,212,2022-05-06_15h43.47.078,FishGame,2022.1.1,59.9701948131236,
,17,넌 현실적이야,3,Orange,B,4.608695652173913,4.766666666666667,ScrollUp,ScrollDown,Orange.png,1,Neutral,Neutral,,,,,0,0,0,0,,,,,,,,,,,,,0,16,16,16,,,,,,,,,,,,,,,,,,,,,,,,,,,,,,,,,,,,,,,,,,,,,,,,,,,,,,,,,,,,,,,,,,,,,,,,,,,,,,,,,2,1.072014900000795,179.94666920000054,None,ScrollUp,정답입니다,179.94666920000054,None,179.94666920000054,None,179.94666920000054,None,179.94666920000054,None,180.8800795999996,None,180.8800795999996,181.38013430000137,,,,,,,,,,,,,,,,212,2022-05-06_15h43.47.078,FishGame,2022.1.1,59.9701948131236,
,18,넌 의리있어,1,Orange,B,5.833333333333334,5.633333333333334,ScrollUp,ScrollDown,Orange.png,1,Positive,Incongruent,,,,,0,0,0,0,,,,,,,,,,,,,0,17,17,17,,,,,,,,,,,,,,,,,,,,,,,,,,,,,,,,,,,,,,,,,,,,,,,,,,,,,,,,,,,,,,,,,,,,,,,,,,,,,,,,,2,1.0335145999997621,182.04209830000036,None,ScrollUp,정답입니다,182.04209830000036,None,182.04209830000036,None,182.04209830000036,None,182.04209830000036,None,182.9354168000009,None,182.9354168000009,183.44634000000042,,,,,,,,,,,,,,,,212,2022-05-06_15h43.47.078,FishGame,2022.1.1,59.9701948131236,
,19,넌 신경과민이야,5,Green,A,2.541666666666667,2.166666666666667,ScrollDown,ScrollUp,Green.png,1,Negative,Incongruent,,,,,0,0,0,0,,,,,,,,,,,,,0,18,18,18,,,,,,,,,,,,,,,,,,,,,,,,,,,,,,,,,,,,,,,,,,,,,,,,,,,,,,,,,,,,,,,,,,,,,,,,,,,,,,,,,1,1.0755274000002828,184.1112290000001,None,ScrollDown,정답입니다,184.1112290000001,None,184.1112290000001,None,184.1112290000001,None,184.1112290000001,None,185.04621080000106,None,185.04621080000106,185.5461262000008,,,,,,,,,,,,,,,,212,2022-05-06_15h43.47.078,FishGame,2022.1.1,59.9701948131236,
,20,넌 편안해,1,Green,A,5.916666666666666,5.866666666666666,ScrollDown,ScrollUp,Green.png,1,Positive,Congruent,,,,,0,0,0,0,,,,,,,,,,,,,0,19,19,19,,,,,,,,,,,,,,,,,,,,,,,,,,,,,,,,,,,,,,,,,,,,,,,,,,,,,,,,,,,,,,,,,,,,,,,,,,,,,,,,,1,1.0167776999987836,186.204426100001,None,ScrollDown,정답입니다,186.204426100001,None,186.204426100001,None,186.204426100001,None,186.204426100001,None,187.08653220000087,None,187.08653220000087,187.5957838000013,,,,,,,,,,,,,,,,212,2022-05-06_15h43.47.078,FishGame,2022.1.1,59.9701948131236,
,21,넌 품위있어,2,Orange,B,5.291666666666666,4.466666666666667,ScrollUp,ScrollDown,Orange.png,1,Positive,Incongruent,,,,,0,0,0,0,,,,,,,,,,,,,0,20,20,20,,,,,,,,,,,,,,,,,,,,,,,,,,,,,,,,,,,,,,,,,,,,,,,,,,,,,,,,,,,,,,,,,,,,,,,,,,,,,,,,,1.765432099501292,1.2618378999995912,188.25784620000013,None,ScrollUp,정답입니다,188.25784620000013,None,188.25784620000013,None,188.25784620000013,None,188.25784620000013,None,189.37861280000106,None,189.37861280000106,189.878829700001,,,,,,,,,,,,,,,,212,2022-05-06_15h43.47.078,FishGame,2022.1.1,59.9701948131236,
,22,넌 빈틈없어,3,Green,A,4.833333333333333,3.966666666666667,ScrollDown,ScrollUp,Green.png,1,Neutral,Neutral,,,,,0,0,0,0,,,,,,,,,,,,,0,21,21,21,,,,,,,,,,,,,,,,,,,,,,,,,,,,,,,,,,,,,,,,,,,,,,,,,,,,,,,,,,,,,,,,,,,,,,,,,,,,,,,,,1,0.8760625999984768,190.5413707000007,None,ScrollDown,정답입니다,190.5413707000007,None,190.5413707000007,None,190.5413707000007,None,190.5413707000007,None,191.27905199999987,None,191.27905199999987,191.7786285000002,,,,,,,,,,,,,,,,212,2022-05-06_15h43.47.078,FishGame,2022.1.1,59.9701948131236,
,23,넌 상상력없어,4,Orange,B,2.833333333333333,3.133333333333333,ScrollUp,ScrollDown,Orange.png,1,Negative,Congruent,,,,,0,0,0,0,,,,,,,,,,,,,0,22,22,22,,,,,,,,,,,,,,,,,,,,,,,,,,,,,,,,,,,,,,,,,,,,,,,,,,,,,,,,,,,,,,,,,,,,,,,,,,,,,,,,,1.9120370248953502,1.03653900000063,192.444076400001,None,ScrollUp,정답입니다,192.444076400001,None,192.444076400001,None,192.444076400001,None,192.444076400001,None,193.3381698000012,None,193.3381698000012,193.8450184000012,,,,,,,,,,,,,,,,212,2022-05-06_15h43.47.078,FishGame,2022.1.1,59.9701948131236,
,24,넌 지혜로워,2,Orange,B,6.333333333333334,4.633333333333334,ScrollUp,ScrollDown,Orange.png,1,Positive,Incongruent,,,,,0,0,0,0,,,,,,,,,,,,,0,23,23,23,,,,,,,,,,,,,,,,,,,,,,,,,,,,,,,,,,,,,,,,,,,,,,,,,,,,,,,,,,,,,,,,,,,,,,,,,,,,,,,,,2,1.0337598999994952,194.51348230000076,None,ScrollUp,정답입니다,194.51348230000076,None,194.51348230000076,None,194.51348230000076,None,194.51348230000076,None,195.40085200000067,None,195.40085200000067,195.91141440000138,,,,,,,,,,,,,,,,212,2022-05-06_15h43.47.078,FishGame,2022.1.1,59.9701948131236,
,25,넌 시끄러워,4,Green,A,2.833333333333333,3.033333333333333,ScrollDown,ScrollUp,Green.png,1,Negative,Incongruent,,,,,0,0,0,0,,,,,,,,,,,,,0,24,24,24,,,,,,,,,,,,,,,,,,,,,,,,,,,,,,,,,,,,,,,,,,,,,,,,,,,,,,,,,,,,,,,,,,,,,,,,,,,,,,,,,1,1.0457913000009285,196.5743421999996,None,ScrollDown,정답입니다,196.5743421999996,None,196.5743421999996,None,196.5743421999996,None,196.5743421999996,None,197.48127139999997,None,197.48127139999997,197.99446160000116,,,,,,,,,,,,,,,,212,2022-05-06_15h43.47.078,FishGame,2022.1.1,59.9701948131236,
,26,넌 만사태평이야,3,Orange,B,4,4.333333333333333,ScrollUp,ScrollDown,Orange.png,1,Neutral,Neutral,,,,,0,0,0,0,,,,,,,,,,,,,0,25,25,25,,,,,,,,,,,,,,,,,,,,,,,,,,,,,,,,,,,,,,,,,,,,,,,,,,,,,,,,,,,,,,,,,,,,,,,,,,,,,,,,,2,0.9620896999986144,198.6639668000007,None,ScrollUp,정답입니다,198.6639668000007,None,198.6639668000007,None,198.6639668000007,None,198.6639668000007,None,199.47790600000008,None,199.47790600000008,199.97763490000034,,,,,,,,,,,,,,,,212,2022-05-06_15h43.47.078,FishGame,2022.1.1,59.9701948131236,
,27,넌 붙임성있어,1,Green,A,5.708333333333333,5.633333333333334,ScrollDown,ScrollUp,Green.png,1,Positive,Congruent,,,,,0,0,0,0,,,,,,,,,,,,,0,26,26,26,,,,,,,,,,,,,,,,,,,,,,,,,,,,,,,,,,,,,,,,,,,,,,,,,,,,,,,,,,,,,,,,,,,,,,,,,,,,,,,,,1,0.9471921999993356,200.64025419999962,None,ScrollDown,정답입니다,200.64025419999962,None,200.64025419999962,None,200.64025419999962,None,200.64025419999962,None,201.44799220000095,None,201.44799220000095,201.96068110000124,,,,,,,,,,,,,,,,212,2022-05-06_15h43.47.078,FishGame,2022.1.1,59.9701948131236,
,28,넌 영리해,2,Green,A,6,4.033333333333333,ScrollDown,ScrollUp,Green.png,1,Positive,Congruent,,,,,0,0,0,0,,,,,,,,,,,,,0,27,27,27,,,,,,,,,,,,,,,,,,,,,,,,,,,,,,,,,,,,,,,,,,,,,,,,,,,,,,,,,,,,,,,,,,,,,,,,,,,,,,,,,1,0.9330332999998063,202.61732529999972,None,ScrollDown,정답입니다,202.61732529999972,None,202.61732529999972,None,202.61732529999972,None,202.61732529999972,None,203.41649710000092,None,203.41649710000092,203.92702559999998,,,,,,,,,,,,,,,,212,2022-05-06_15h43.47.078,FishGame,2022.1.1,59.9701948131236,
,29,넌 열심이야,1,Orange,B,6.041666666666667,5.833333333333333,ScrollUp,ScrollDown,Orange.png,1,Positive,Incongruent,,,,,0,0,0,0,,,,,,,,,,,,,0,28,28,28,,,,,,,,,,,,,,,,,,,,,,,,,,,,,,,,,,,,,,,,,,,,,,,,,,,,,,,,,,,,,,,,,,,,,,,,,,,,,,,,,2,0.8498780999998417,204.59118900000067,None,ScrollUp,정답입니다,204.59118900000067,None,204.59118900000067,None,204.59118900000067,None,204.59118900000067,None,205.29925150000054,None,205.29925150000054,205.81016269999964,,,,,,,,,,,,,,,,212,2022-05-06_15h43.47.078,FishGame,2022.1.1,59.9701948131236,
,30,넌 인기없어,4,Orange,B,3,3.3,ScrollUp,ScrollDown,Orange.png,1,Negative,Congruent,,,,,0,0,0,0,,,,,,,,,,,,,0,29,29,29,,,,,,,,,,,,,,,,,,,,,,,,,,,,,,,,,,,,,,,,,,,,,,,,,,,,,,,,,,,,,,,,,,,,,,,,,,,,,,,,,2,0.9287360999987868,206.47329850000096,None,ScrollUp,정답입니다,206.47329850000096,None,206.47329850000096,None,206.47329850000096,None,206.47329850000096,None,207.26141020000068,None,207.26141020000068,207.7769860999997,,,,,,,,,,,,,,,,212,2022-05-06_15h43.47.078,FishGame,2022.1.1,59.9701948131236,
,31,넌 익살스러워,3,Green,A,4.708333333333334,4.833333333333333,ScrollDown,ScrollUp,Green.png,1,Neutral,Neutral,,,,,0,0,0,0,,,,,,,,,,,,,0,30,30,30,,,,,,,,,,,,,,,,,,,,,,,,,,,,,,,,,,,,,,,,,,,,,,,,,,,,,,,,,,,,,,,,,,,,,,,,,,,,,,,,,1,0.9365873000006104,208.4304518000008,None,ScrollDown,정답입니다,208.4304518000008,None,208.4304518000008,None,208.4304518000008,None,208.4304518000008,None,209.23580760000004,None,209.23580760000004,209.74288410000008,,,,,,,,,,,,,,,,212,2022-05-06_15h43.47.078,FishGame,2022.1.1,59.9701948131236,
,32,넌 이기적이야,5,Orange,B,2.291666666666667,2.333333333333333,ScrollUp,ScrollDown,Orange.png,1,Negative,Congruent,,,,,0,0,0,0,,,,,,,,,,,,,0,31,31,31,,,,,,,,,,,,,,,,,,,,,,,,,,,,,,,,,,,,,,,,,,,,,,,,,,,,,,,,,,,,,,,,,,,,,,,,,,,,,,,,,2,1.0643371999994997,210.3968318999996,None,ScrollUp,정답입니다,210.3968318999996,None,210.3968318999996,None,210.3968318999996,None,210.3968318999996,None,211.33121980000033,None,211.33121980000033,211.8426911000006,,,,,,,,,,,,,,,,212,2022-05-06_15h43.47.078,FishGame,2022.1.1,59.9701948131236,
,33,나를 데려가줘,6,Orange,B,0,0,ScrollDown,ScrollUp,Orange.png,1,NonTarget,NonTarget,,,,,0,0,0,0,,,,,,,,,,,,,0,32,32,32,,,,,,,,,,,,,,,,,,,,,,,,,,,,,,,,,,,,,,,,,,,,,,,,,,,,,,,,,,,,,,,,,,,,,,,,,,,,,,,,,1,1.4678141999993386,212.49562739999965,None,ScrollDown,정답입니다,212.49562739999965,None,212.49562739999965,None,212.49562739999965,None,212.49562739999965,None,213.8329749000004,None,213.8329749000004,214.34233959999983,,,,,,,,,,,,,,,,212,2022-05-06_15h43.47.078,FishGame,2022.1.1,59.9701948131236,
,34,넌 기회주의자야,5,Green,A,2.875,2.133333333333333,ScrollDown,ScrollUp,Green.png,1,Negative,Incongruent,,,,,0,0,0,0,,,,,,,,,,,,,0,33,33,33,,,,,,,,,,,,,,,,,,,,,,,,,,,,,,,,,,,,,,,,,,,,,,,,,,,,,,,,,,,,,,,,,,,,,,,,,,,,,,,,,1,1.0531320000009146,215.00385149999966,None,ScrollDown,정답입니다,215.00385149999966,None,215.00385149999966,None,215.00385149999966,None,215.00385149999966,None,215.91827120000016,None,215.91827120000016,216.4253759000003,,,,,,,,,,,,,,,,212,2022-05-06_15h43.47.078,FishGame,2022.1.1,59.9701948131236,
,1,넌 미성숙해,4,Green,A,3,3.2,ScrollDown,ScrollUp,Green.png,2,Negative,Incongruent,,,,,0,0,0,0,,,,,,,,,,,,,,,,,0,0,0,0,,,,,,,,,,,,,,,,,,,,,,,,,,,,,,,,,,,,248.4383725000007,249.93772309999986,249.971217100001,250.92096820000006,250.97105499999998,251.92083710000043,251.92083710000043,None,,,,,,,,,,,,,,,,,,,,,,,,,,,,,,,,,,1,1.1011175000003277,253.1093533000003,None,ScrollDown,정답입니다,253.1093533000003,None,253.1093533000003,None,253.1093533000003,None,253.1093533000003,None,254.03746160000082,None,254.03746160000082,254.53716030000032,216.92532610000126,None,216.92532610000126,None,0.29259259,-0.046296295,1,0,0,0.01604441999916162,None,246.93809090000104,None,,,212,2022-05-06_15h43.47.078,FishGame,2022.1.1,59.9701948131236,
,2,넌 반사회적이야,5,Orange,B,2.416666666666667,2.033333333333333,ScrollUp,ScrollDown,Orange.png,2,Negative,Congruent,,,,,0,0,0,0,,,,,,,,,,,,,,,,,0,1,1,1,,,,,,,,,,,,,,,,,,,,,,,,,,,,,,,,,,,,,,,,,,,,,,,,,,,,,,,,,,,,,,,,,,,,,,,,,,,,,2,0.9103001999992557,255.19778790000055,None,ScrollUp,정답입니다,255.19778790000055,None,255.19778790000055,None,255.19778790000055,None,255.19778790000055,None,255.97103480000078,None,255.97103480000078,256.4703860000009,,,,,,,,,,,,,,,,212,2022-05-06_15h43.47.078,FishGame,2022.1.1,59.9701948131236,
,3,넌 유능해,2,Green,A,6.208333333333333,4.433333333333334,ScrollDown,ScrollUp,Green.png,2,Positive,Congruent,,,,,0,0,0,0,,,,,,,,,,,,,,,,,0,2,2,2,,,,,,,,,,,,,,,,,,,,,,,,,,,,,,,,,,,,,,,,,,,,,,,,,,,,,,,,,,,,,,,,,,,,,,,,,,,,,1,0.9369492999994691,257.12863780000043,None,ScrollDown,정답입니다,257.12863780000043,None,257.12863780000043,None,257.12863780000043,None,257.12863780000043,None,257.93194740000035,None,257.93194740000035,258.4367273000007,,,,,,,,,,,,,,,,212,2022-05-06_15h43.47.078,FishGame,2022.1.1,59.9701948131236,
,4,넌 능숙해,2,Orange,B,5.666666666666667,4.733333333333333,ScrollUp,ScrollDown,Orange.png,2,Positive,Incongruent,,,,,0,0,0,0,,,,,,,,,,,,,,,,,0,3,3,3,,,,,,,,,,,,,,,,,,,,,,,,,,,,,,,,,,,,,,,,,,,,,,,,,,,,,,,,,,,,,,,,,,,,,,,,,,,,,2,0.9013982999986183,259.08945870000025,None,ScrollUp,정답입니다,259.08945870000025,None,259.08945870000025,None,259.08945870000025,None,259.08945870000025,None,259.8607587000006,None,259.8607587000006,260.36977490000027,,,,,,,,,,,,,,,,212,2022-05-06_15h43.47.078,FishGame,2022.1.1,59.9701948131236,
,5,넌 진부해,4,Orange,B,2.458333333333333,3.166666666666667,ScrollUp,ScrollDown,Orange.png,2,Negative,Congruent,,,,,0,0,0,0,,,,,,,,,,,,,,,,,0,4,4,4,,,,,,,,,,,,,,,,,,,,,,,,,,,,,,,,,,,,,,,,,,,,,,,,,,,,,,,,,,,,,,,,,,,,,,,,,,,,,2,0.9392083999991883,261.0303941000002,None,ScrollUp,정답입니다,261.0303941000002,None,261.0303941000002,None,261.0303941000002,None,261.0303941000002,None,261.83009570000104,None,261.83009570000104,262.336522900001,,,,,,,,,,,,,,,,212,2022-05-06_15h43.47.078,FishGame,2022.1.1,59.9701948131236,
,6,나를 보내줘,6,Green,A,0,0,ScrollUp,ScrollDown,Green.png,2,NonTarget,NonTarget,,,,,0,0,0,0,,,,,,,,,,,,,,,,,0,5,5,5,,,,,,,,,,,,,,,,,,,,,,,,,,,,,,,,,,,,,,,,,,,,,,,,,,,,,,,,,,,,,,,,,,,,,,,,,,,,,2,0.9711631999998644,262.98740890000045,None,ScrollUp,정답입니다,262.98740890000045,None,262.98740890000045,None,262.98740890000045,None,262.98740890000045,None,263.8300990000007,None,263.8300990000007,264.3358965999996,,,,,,,,,,,,,,,,212,2022-05-06_15h43.47.078,FishGame,2022.1.1,59.9701948131236,
,7,넌 엄격해,3,Green,A,4.166666666666666,4.1,ScrollDown,ScrollUp,Green.png,2,Neutral,Neutral,,,,,0,0,0,0,,,,,,,,,,,,,,,,,0,6,6,6,,,,,,,,,,,,,,,,,,,,,,,,,,,,,,,,,,,,,,,,,,,,,,,,,,,,,,,,,,,,,,,,,,,,,,,,,,,,,1.0354938507080078,0.9191609000008611,264.989755300001,None,ScrollDown,정답입니다,264.989755300001,None,264.989755300001,None,264.989755300001,None,264.989755300001,None,265.7778818000006,None,265.7778818000006,266.28561100000115,,,,,,,,,,,,,,,,212,2022-05-06_15h43.47.078,FishGame,2022.1.1,59.9701948131236,
,8,나를 보내줘,6,Green,A,0,0,ScrollUp,ScrollDown,Green.png,2,NonTarget,NonTarget,,,,,0,0,0,0,,,,,,,,,,,,,,,,,0,7,7,7,,,,,,,,,,,,,,,,,,,,,,,,,,,,,,,,,,,,,,,,,,,,,,,,,,,,,,,,,,,,,,,,,,,,,,,,,,,,,2,0.9377220999995188,266.9350989000013,None,ScrollUp,정답입니다,266.9350989000013,None,266.9350989000013,None,266.9350989000013,None,266.9350989000013,None,267.7450370000006,None,267.7450370000006,268.25201000000015,,,,,,,,,,,,,,,,212,2022-05-06_15h43.47.078,FishGame,2022.1.1,59.9701948131236,
,9,넌 대담해,3,Orange,B,4.875,4.866666666666666,ScrollUp,ScrollDown,Orange.png,2,Neutral,Neutral,,,,,0,0,0,0,,,,,,,,,,,,,,,,,0,8,8,8,,,,,,,,,,,,,,,,,,,,,,,,,,,,,,,,,,,,,,,,,,,,,,,,,,,,,,,,,,,,,,,,,,,,,,,,,,,,,2,0.9990135000007285,268.91570160000083,None,ScrollUp,정답입니다,268.91570160000083,None,268.91570160000083,None,268.91570160000083,None,268.91570160000083,None,269.7738480000007,None,269.7738480000007,270.28514220000034,,,,,,,,,,,,,,,,212,2022-05-06_15h43.47.078,FishGame,2022.1.1,59.9701948131236,
,10,넌 꾸준해,1,Green,A,5.916666666666668,5.8,ScrollDown,ScrollUp,Green.png,2,Positive,Congruent,,,,,0,0,0,0,,,,,,,,,,,,,,,,,0,9,9,9,,,,,,,,,,,,,,,,,,,,,,,,,,,,,,,,,,,,,,,,,,,,,,,,,,,,,,,,,,,,,,,,,,,,,,,,,,,,,1,0.8932335000008607,270.9621051000013,None,ScrollDown,정답입니다,270.9621051000013,None,270.9621051000013,None,270.9621051000013,None,270.9621051000013,None,271.7017592000011,None,271.7017592000011,272.20148450000124,,,,,,,,,,,,,,,,212,2022-05-06_15h43.47.078,FishGame,2022.1.1,59.9701948131236,
,11,나를 데려가줘,6,Orange,B,0,0,ScrollDown,ScrollUp,Orange.png,2,NonTarget,NonTarget,,,,,0,0,0,0,,,,,,,,,,,,,,,,,0,10,10,10,,,,,,,,,,,,,,,,,,,,,,,,,,,,,,,,,,,,,,,,,,,,,,,,,,,,,,,,,,,,,,,,,,,,,,,,,,,,,1,1.094207500000266,272.8580868000008,None,ScrollDown,정답입니다,272.8580868000008,None,272.8580868000008,None,272.8580868000008,None,272.8580868000008,None,273.8181010999997,None,273.8181010999997,274.3179598000006,,,,,,,,,,,,,,,,212,2022-05-06_15h43.47.078,FishGame,2022.1.1,59.9701948131236,
,12,넌 독선적이야,5,Green,A,2.458333333333333,1.933333333333333,ScrollDown,ScrollUp,Green.png,2,Negative,Incongruent,,,,,0,0,0,0,,,,,,,,,,,,,,,,,0,11,11,11,,,,,,,,,,,,,,,,,,,,,,,,,,,,,,,,,,,,,,,,,,,,,,,,,,,,,,,,,,,,,,,,,,,,,,,,,,,,,1.0123456915219624,0.9359354999996867,274.9757322000005,None,ScrollDown,정답입니다,274.9757322000005,None,274.9757322000005,None,274.9757322000005,None,274.9757322000005,None,275.77670279999984,None,275.77670279999984,276.28435809999974,,,,,,,,,,,,,,,,212,2022-05-06_15h43.47.078,FishGame,2022.1.1,59.9701948131236,
,13,나를 보내줘,6,Green,A,0,0,ScrollUp,ScrollDown,Green.png,2,NonTarget,NonTarget,,,,,0,0,0,0,,,,,,,,,,,,,,,,,0,12,12,12,,,,,,,,,,,,,,,,,,,,,,,,,,,,,,,,,,,,,,,,,,,,,,,,,,,,,,,,,,,,,,,,,,,,,,,,,,,,,2,0.9689187000003585,276.93481129999964,None,ScrollUp,정답입니다,276.93481129999964,None,276.93481129999964,None,276.93481129999964,None,276.93481129999964,None,277.7753154000002,None,277.7753154000002,278.28401719999965,,,,,,,,,,,,,,,,212,2022-05-06_15h43.47.078,FishGame,2022.1.1,59.9701948131236,
,14,넌 책임감있어,1,Orange,B,6.347826086956522,6,ScrollUp,ScrollDown,Orange.png,2,Positive,Incongruent,,,,,0,0,0,0,,,,,,,,,,,,,,,,,0,13,13,13,,,,,,,,,,,,,,,,,,,,,,,,,,,,,,,,,,,,,,,,,,,,,,,,,,,,,,,,,,,,,,,,,,,,,,,,,,,,,2,0.8948806000007608,278.9542445999996,None,ScrollUp,정답입니다,278.9542445999996,None,278.9542445999996,None,278.9542445999996,None,278.9542445999996,None,279.7005874000006,None,279.7005874000006,280.2005145000003,,,,,,,,,,,,,,,,212,2022-05-06_15h43.47.078,FishGame,2022.1.1,59.9701948131236,
,15,넌 문학적이야,3,Green,A,4.708333333333334,4.333333333333333,ScrollDown,ScrollUp,Green.png,2,Neutral,Neutral,,,,,0,0,0,0,,,,,,,,,,,,,,,,,0,14,14,14,,,,,,,,,,,,,,,,,,,,,,,,,,,,,,,,,,,,,,,,,,,,,,,,,,,,,,,,,,,,,,,,,,,,,,,,,,,,,1,0.966237500000716,280.8586774000014,None,ScrollDown,정답입니다,280.8586774000014,None,280.8586774000014,None,280.8586774000014,None,280.8586774000014,None,281.69111520000115,None,281.69111520000115,282.2004926999998,,,,,,,,,,,,,,,,212,2022-05-06_15h43.47.078,FishGame,2022.1.1,59.9701948131236,
,16,넌 재미있어,1,Orange,B,5.875,5.7,ScrollUp,ScrollDown,Orange.png,2,Positive,Incongruent,,,,,0,0,0,0,,,,,,,,,,,,,,,,,0,15,15,15,,,,,,,,,,,,,,,,,,,,,,,,,,,,,,,,,,,,,,,,,,,,,,,,,,,,,,,,,,,,,,,,,,,,,,,,,,,,,1.9922839502493541,0.8979103000001487,282.8532245000006,None,ScrollUp,정답입니다,282.8532245000006,None,282.8532245000006,None,282.8532245000006,None,282.8532245000006,None,283.6223269000002,None,283.6223269000002,284.1332550999996,,,,,,,,,,,,,,,,212,2022-05-06_15h43.47.078,FishGame,2022.1.1,59.9701948131236,
,17,나를 데려가줘,6,Orange,B,0,0,ScrollDown,ScrollUp,Orange.png,2,NonTarget,NonTarget,,,,,0,0,0,0,,,,,,,,,,,,,,,,,0,16,16,16,,,,,,,,,,,,,,,,,,,,,,,,,,,,,,,,,,,,,,,,,,,,,,,,,,,,,,,,,,,,,,,,,,,,,,,,,,,,,1,0.994090000000142,284.7890031000006,None,ScrollDown,정답입니다,284.7890031000006,None,284.7890031000006,None,284.7890031000006,None,284.7890031000006,None,285.6499636000008,None,285.6499636000008,286.1497737999998,,,,,,,,,,,,,,,,212,2022-05-06_15h43.47.078,FishGame,2022.1.1,59.9701948131236,
,18,넌 협력적이야,1,Green,A,5.625,5.633333333333334,ScrollDown,ScrollUp,Green.png,2,Positive,Congruent,,,,,0,0,0,0,,,,,,,,,,,,,,,,,0,17,17,17,,,,,,,,,,,,,,,,,,,,,,,,,,,,,,,,,,,,,,,,,,,,,,,,,,,,,,,,,,,,,,,,,,,,,,,,,,,,,1,0.9762625000003027,286.80424719999974,None,ScrollDown,정답입니다,286.80424719999974,None,286.80424719999974,None,286.80424719999974,None,286.80424719999974,None,287.6461021000014,None,287.6461021000014,288.14947779999966,,,,,,,,,,,,,,,,212,2022-05-06_15h43.47.078,FishGame,2022.1.1,59.9701948131236,
,19,넌 평범해,3,Orange,B,4.333333333333332,4.233333333333333,ScrollUp,ScrollDown,Orange.png,2,Neutral,Neutral,,,,,0,0,0,0,,,,,,,,,,,,,,,,,0,18,18,18,,,,,,,,,,,,,,,,,,,,,,,,,,,,,,,,,,,,,,,,,,,,,,,,,,,,,,,,,,,,,,,,,,,,,,,,,,,,,2,0.9159740999984933,288.8103862000007,None,ScrollUp,정답입니다,288.8103862000007,None,288.8103862000007,None,288.8103862000007,None,288.8103862000007,None,289.58829230000083,None,289.58829230000083,290.09946820000005,,,,,,,,,,,,,,,,212,2022-05-06_15h43.47.078,FishGame,2022.1.1,59.9701948131236,
,20,넌 오만해,5,Green,A,2.333333333333333,2,ScrollDown,ScrollUp,Green.png,2,Negative,Incongruent,,,,,0,0,0,0,,,,,,,,,,,,,,,,,0,19,19,19,,,,,,,,,,,,,,,,,,,,,,,,,,,,,,,,,,,,,,,,,,,,,,,,,,,,,,,,,,,,,,,,,,,,,,,,,,,,,1.0154321193695068,0.8224066999991919,290.7517521000009,None,ScrollDown,정답입니다,290.7517521000009,None,290.7517521000009,None,290.7517521000009,None,290.7517521000009,None,291.44898470000044,None,291.44898470000044,291.9489996000011,,,,,,,,,,,,,,,,212,2022-05-06_15h43.47.078,FishGame,2022.1.1,59.9701948131236,
,21,넌 운이없어,4,Orange,B,3,3.466666666666667,ScrollUp,ScrollDown,Orange.png,2,Negative,Congruent,,,,,0,0,0,0,,,,,,,,,,,,,,,,,0,20,20,20,,,,,,,,,,,,,,,,,,,,,,,,,,,,,,,,,,,,,,,,,,,,,,,,,,,,,,,,,,,,,,,,,,,,,,,,,,,,,2,0.9541797000001679,292.6082574000011,None,ScrollUp,정답입니다,292.6082574000011,None,292.6082574000011,None,292.6082574000011,None,292.6082574000011,None,293.42433960000017,None,293.42433960000017,293.93188610000107,,,,,,,,,,,,,,,,212,2022-05-06_15h43.47.078,FishGame,2022.1.1,59.9701948131236,
,22,넌 창조적이야,2,Orange,B,6.125,4.633333333333334,ScrollUp,ScrollDown,Orange.png,2,Positive,Incongruent,,,,,0,0,0,0,,,,,,,,,,,,,,,,,0,21,21,21,,,,,,,,,,,,,,,,,,,,,,,,,,,,,,,,,,,,,,,,,,,,,,,,,,,,,,,,,,,,,,,,,,,,,,,,,,,,,1.9938271641731262,0.9129154999991442,294.5959619000005,None,ScrollUp,정답입니다,294.5959619000005,None,294.5959619000005,None,294.5959619000005,None,294.5959619000005,None,295.36836760000006,None,295.36836760000006,295.88172830000076,,,,,,,,,,,,,,,,212,2022-05-06_15h43.47.078,FishGame,2022.1.1,59.9701948131236,
,23,나를 보내줘,6,Green,A,0,0,ScrollUp,ScrollDown,Green.png,2,NonTarget,NonTarget,,,,,0,0,0,0,,,,,,,,,,,,,,,,,0,22,22,22,,,,,,,,,,,,,,,,,,,,,,,,,,,,,,,,,,,,,,,,,,,,,,,,,,,,,,,,,,,,,,,,,,,,,,,,,,,,,2,0.9775889000011375,296.52846169999975,None,ScrollUp,정답입니다,296.52846169999975,None,296.52846169999975,None,296.52846169999975,None,296.52846169999975,None,297.3817508000011,None,297.3817508000011,297.8814901000005,,,,,,,,,,,,,,,,212,2022-05-06_15h43.47.078,FishGame,2022.1.1,59.9701948131236,
,24,넌 통찰력있어,2,Green,A,6.5,4.8,ScrollDown,ScrollUp,Green.png,2,Positive,Congruent,,,,,0,0,0,0,,,,,,,,,,,,,,,,,0,23,23,23,,,,,,,,,,,,,,,,,,,,,,,,,,,,,,,,,,,,,,,,,,,,,,,,,,,,,,,,,,,,,,,,,,,,,,,,,,,,,1.0200617114702861,0.8982641000002332,298.53720200000134,None,ScrollDown,정답입니다,298.53720200000134,None,298.53720200000134,None,298.53720200000134,None,298.53720200000134,None,299.3029643000009,None,299.3029643000009,299.81461839999974,,,,,,,,,,,,,,,,212,2022-05-06_15h43.47.078,FishGame,2022.1.1,59.9701948131236,
,25,넌 경솔해,5,Orange,B,2.458333333333333,2.266666666666667,ScrollUp,ScrollDown,Orange.png,2,Negative,Congruent,,,,,0,0,0,0,,,,,,,,,,,,,,,,,0,24,24,24,,,,,,,,,,,,,,,,,,,,,,,,,,,,,,,,,,,,,,,,,,,,,,,,,,,,,,,,,,,,,,,,,,,,,,,,,,,,,2,0.9017567999999301,300.4743520000011,None,ScrollUp,정답입니다,300.4743520000011,None,300.4743520000011,None,300.4743520000011,None,300.4743520000011,None,301.23777940000036,None,301.23777940000036,301.74768060000133,,,,,,,,,,,,,,,,212,2022-05-06_15h43.47.078,FishGame,2022.1.1,59.9701948131236,
,26,넌 초조해,4,Green,A,2.916666666666667,3.133333333333333,ScrollDown,ScrollUp,Green.png,2,Negative,Incongruent,,,,,0,0,0,0,,,,,,,,,,,,,,,,,0,25,25,25,,,,,,,,,,,,,,,,,,,,,,,,,,,,,,,,,,,,,,,,,,,,,,,,,,,,,,,,,,,,,,,,,,,,,,,,,,,,,1.060185174147288,0.8890234000009514,302.3989650000003,None,ScrollDown,정답입니다,302.3989650000003,None,302.3989650000003,None,302.3989650000003,None,302.3989650000003,None,303.15695159999996,None,303.15695159999996,303.6640385999999,,,,,,,,,,,,,,,,212,2022-05-06_15h43.47.078,FishGame,2022.1.1,59.9701948131236,
,27,넌 무관심해,4,Orange,B,2.833333333333333,2.9,ScrollUp,ScrollDown,Orange.png,2,Negative,Congruent,,,,,0,0,0,0,,,,,,,,,,,,,,,,,0,26,26,26,,,,,,,,,,,,,,,,,,,,,,,,,,,,,,,,,,,,,,,,,,,,,,,,,,,,,,,,,,,,,,,,,,,,,,,,,,,,,2,0.8865408999990905,304.32570450000094,None,ScrollUp,정답입니다,304.32570450000094,None,304.32570450000094,None,304.32570450000094,None,304.32570450000094,None,305.071716800001,None,305.071716800001,305.58059740000135,,,,,,,,,,,,,,,,212,2022-05-06_15h43.47.078,FishGame,2022.1.1,59.9701948131236,
,28,넌 감성적이야,3,Orange,B,4.125,4.166666666666667,ScrollUp,ScrollDown,Orange.png,2,Neutral,Neutral,,,,,0,0,0,0,,,,,,,,,,,,,,,,,0,27,27,27,,,,,,,,,,,,,,,,,,,,,,,,,,,,,,,,,,,,,,,,,,,,,,,,,,,,,,,,,,,,,,,,,,,,,,,,,,,,,1.8719135870536168,0.9535698999989108,306.232110500001,None,ScrollUp,정답입니다,306.232110500001,None,306.232110500001,None,306.232110500001,None,306.232110500001,None,307.05575409999983,None,307.05575409999983,307.5635574000007,,,,,,,,,,,,,,,,212,2022-05-06_15h43.47.078,FishGame,2022.1.1,59.9701948131236,
,29,넌 배려심있어,1,Green,A,6.083333333333333,5.5,ScrollDown,ScrollUp,Green.png,2,Positive,Congruent,,,,,0,0,0,0,,,,,,,,,,,,,,,,,0,28,28,28,,,,,,,,,,,,,,,,,,,,,,,,,,,,,,,,,,,,,,,,,,,,,,,,,,,,,,,,,,,,,,,,,,,,,,,,,,,,,1.0679012437661488,0.9170111000003089,308.2161646000004,None,ScrollDown,정답입니다,308.2161646000004,None,308.2161646000004,None,308.2161646000004,None,308.2161646000004,None,309.0036357000008,None,309.0036357000008,309.51332619999994,,,,,,,,,,,,,,,,212,2022-05-06_15h43.47.078,FishGame,2022.1.1,59.9701948131236,
,30,넌 숨김없어,3,Green,A,4.5,4.933333333333334,ScrollDown,ScrollUp,Green.png,2,Neutral,Neutral,,,,,0,0,0,0,,,,,,,,,,,,,,,,,0,29,29,29,,,,,,,,,,,,,,,,,,,,,,,,,,,,,,,,,,,,,,,,,,,,,,,,,,,,,,,,,,,,,,,,,,,,,,,,,,,,,1.0231481393178303,0.895058500000232,310.17310739999994,None,ScrollDown,정답입니다,310.17310739999994,None,310.17310739999994,None,310.17310739999994,None,310.17310739999994,None,310.93007370000123,None,310.93007370000123,311.42987040000116,,,,,,,,,,,,,,,,212,2022-05-06_15h43.47.078,FishGame,2022.1.1,59.9701948131236,
,31,넌 훌륭해,2,Orange,B,5.916666666666667,4.033333333333333,ScrollUp,ScrollDown,Orange.png,2,Positive,Incongruent,,,,,0,0,0,0,,,,,,,,,,,,,,,,,0,30,30,30,,,,,,,,,,,,,,,,,,,,,,,,,,,,,,,,,,,,,,,,,,,,,,,,,,,,,,,,,,,,,,,,,,,,,,,,,,,,,2,0.872343600000022,312.0894096000011,None,ScrollUp,정답입니다,312.0894096000011,None,312.0894096000011,None,312.0894096000011,None,312.0894096000011,None,312.82975199999964,None,312.82975199999964,313.3299087000014,,,,,,,,,,,,,,,,212,2022-05-06_15h43.47.078,FishGame,2022.1.1,59.9701948131236,
,32,넌 슬기로워,2,Green,A,6.166666666666667,4.1,ScrollDown,ScrollUp,Green.png,2,Positive,Congruent,,,,,0,0,0,0,,,,,,,,,,,,,,,,,0,31,31,31,,,,,,,,,,,,,,,,,,,,,,,,,,,,,,,,,,,,,,,,,,,,,,,,,,,,,,,,,,,,,,,,,,,,,,,,,,,,,1,0.8593044000008376,313.9911478000013,None,ScrollDown,정답입니다,313.9911478000013,None,313.9911478000013,None,313.9911478000013,None,313.9911478000013,None,314.70805370000016,None,314.70805370000016,315.2125495,,,,,,,,,,,,,,,,212,2022-05-06_15h43.47.078,FishGame,2022.1.1,59.9701948131236,
,33,넌 냉혹해,5,Green,A,2.583333333333333,2.1,ScrollDown,ScrollUp,Green.png,2,Negative,Incongruent,,,,,0,0,0,0,,,,,,,,,,,,,,,,,0,32,32,32,,,,,,,,,,,,,,,,,,,,,,,,,,,,,,,,,,,,,,,,,,,,,,,,,,,,,,,,,,,,,,,,,,,,,,,,,,,,,1,0.8400050000000192,315.86959390000084,None,ScrollDown,정답입니다,315.86959390000084,None,315.86959390000084,None,315.86959390000084,None,315.86959390000084,None,316.57901649999985,None,316.57901649999985,317.0791491,,,,,,,,,,,,,,,,212,2022-05-06_15h43.47.078,FishGame,2022.1.1,59.9701948131236,
,34,나를 데려가줘,6,Orange,B,0,0,ScrollDown,ScrollUp,Orange.png,2,NonTarget,NonTarget,,,,,0,0,0,0,,,,,,,,,,,,,,,,,0,33,33,33,,,,,,,,,,,,,,,,,,,,,,,,,,,,,,,,,,,,,,,,,,,,,,,,,,,,,,,,,,,,,,,,,,,,,,,,,,,,,1.0108024775981903,1.033576499999981,317.7356173999997,None,ScrollDown,정답입니다,317.7356173999997,None,317.7356173999997,None,317.7356173999997,None,317.7356173999997,None,318.63603429999966,None,318.63603429999966,319.145308000001,,,,,,,,,,,,,,,,212,2022-05-06_15h43.47.078,FishGame,2022.1.1,59.9701948131236,
,35,넌 편파적이야,5,Orange,B,2.125,2,ScrollUp,ScrollDown,Orange.png,2,Negative,Congruent,,,,,0,0,0,0,,,,,,,,,,,,,,,,,0,34,34,34,,,,,,,,,,,,,,,,,,,,,,,,,,,,,,,,,,,,,,,,,,,,,,,,,,,,,,,,,,,,,,,,,,,,,,,,,,,,,2,0.8897230999991734,319.80764249999993,None,ScrollUp,정답입니다,319.80764249999993,None,319.80764249999993,None,319.80764249999993,None,319.80764249999993,None,320.5620276000009,None,320.5620276000009,321.0619501000001,,,,,,,,,,,,,,,,212,2022-05-06_15h43.47.078,FishGame,2022.1.1,59.9701948131236,
,36,넌 슬퍼,4,Green,A,2.583333333333333,3.066666666666667,ScrollDown,ScrollUp,Green.png,2,Negative,Incongruent,,,,,0,0,0,0,,,,,,,,,,,,,,,,,0,35,35,35,,,,,,,,,,,,,,,,,,,,,,,,,,,,,,,,,,,,,,,,,,,,,,,,,,,,,,,,,,,,,,,,,,,,,,,,,,,,,1.0540123681227367,0.8867401999996218,321.70820280000044,None,ScrollDown,정답입니다,321.70820280000044,None,321.70820280000044,None,321.70820280000044,None,321.70820280000044,None,322.47132020000026,None,322.47132020000026,322.9782073000006,,,,,,,,,,,,,,,,212,2022-05-06_15h43.47.078,FishGame,2022.1.1,59.9701948131236,
,37,나를 데려가줘,6,Orange,B,0,0,ScrollDown,ScrollUp,Orange.png,2,NonTarget,NonTarget,,,,,0,0,0,0,,,,,,,,,,,,,,,,,0,36,36,36,,,,,,,,,,,,,,,,,,,,,,,,,,,,,,,,,,,,,,,,,,,,,,,,,,,,,,,,,,,,,,,,,,,,,,,,,,,,,1,1.0233819000004587,323.6333728999998,None,ScrollDown,정답입니다,323.6333728999998,None,323.6333728999998,None,323.6333728999998,None,323.6333728999998,None,324.5280597000001,None,324.5280597000001,325.02796130000024,,,,,,,,,,,,,,,,212,2022-05-06_15h43.47.078,FishGame,2022.1.1,59.9701948131236,
,38,넌 친절해,1,Orange,B,6.041666666666667,5.533333333333333,ScrollUp,ScrollDown,Orange.png,2,Positive,Incongruent,,,,,0,0,0,0,,,,,,,,,,,,,,,,,0,37,37,37,,,,,,,,,,,,,,,,,,,,,,,,,,,,,,,,,,,,,,,,,,,,,,,,,,,,,,,,,,,,,,,,,,,,,,,,,,,,,1.9645061492919922,1.0725225999995018,325.6932675999997,None,ScrollUp,정답입니다,325.6932675999997,None,325.6932675999997,None,325.6932675999997,None,325.6932675999997,None,326.6279947000003,None,326.6279947000003,327.1275803000008,,,,,,,,,,,,,,,,212,2022-05-06_15h43.47.078,FishGame,2022.1.1,59.9701948131236,
,1,넌 엉성해,4,Green,A,3,3.3,ScrollDown,ScrollUp,Green.png,3,Negative,Incongruent,,,,,0,0,0,0,,,,,,,,,,,,,,,,,,,,,0,0,0,0,,,,,,,,,,,,,,,,,,,,,,,,,,,,,,,,359.1570087,360.65675809999993,360.6901861000006,361.6401048000007,361.6900722999999,362.6398287000011,362.6398287000011,None,,,,,,,,,,,,,,,,,,,,,,,,,,,,,,,,,,1,1.1127310000010766,363.83248690000073,None,ScrollDown,정답입니다,363.83248690000073,None,363.83248690000073,None,363.83248690000073,None,363.83248690000073,None,364.7686020000001,None,364.7686020000001,365.27281159999984,327.6276496999999,None,327.6276496999999,None,0.3074074,-0.041666668,1,0,0,0.016248119998635957,None,357.6403889000012,None,,,212,2022-05-06_15h43.47.078,FishGame,2022.1.1,59.9701948131236,
,2,나를 보내줘,6,Green,A,0,0,ScrollUp,ScrollDown,Green.png,3,NonTarget,NonTarget,,,,,0,0,0,0,,,,,,,,,,,,,,,,,,,,,0,1,1,1,,,,,,,,,,,,,,,,,,,,,,,,,,,,,,,,,,,,,,,,,,,,,,,,,,,,,,,,,,,,,,,,,,,,,,,,,2,1.171166500000254,365.92066520000117,None,ScrollUp,정답입니다,365.92066520000117,None,365.92066520000117,None,365.92066520000117,None,365.92066520000117,None,366.96611010000015,None,366.96611010000015,367.47243440000057,,,,,,,,,,,,,,,,212,2022-05-06_15h43.47.078,FishGame,2022.1.1,59.9701948131236,
,3,넌 활발해,1,Orange,B,5.666666666666667,5.6,ScrollUp,ScrollDown,Orange.png,3,Positive,Incongruent,,,,,0,0,0,0,,,,,,,,,,,,,,,,,,,,,0,2,2,2,,,,,,,,,,,,,,,,,,,,,,,,,,,,,,,,,,,,,,,,,,,,,,,,,,,,,,,,,,,,,,,,,,,,,,,,,2,0.9393426999995427,368.14287239999976,None,ScrollUp,정답입니다,368.14287239999976,None,368.14287239999976,None,368.14287239999976,None,368.14287239999976,None,368.93882360000134,None,368.93882360000134,369.43891220000114,,,,,,,,,,,,,,,,212,2022-05-06_15h43.47.078,FishGame,2022.1.1,59.9701948131236,
,4,넌 논리적이야,2,Green,A,5.666666666666666,4.633333333333334,ScrollDown,ScrollUp,Green.png,3,Positive,Congruent,,,,,0,0,0,0,,,,,,,,,,,,,,,,,,,,,0,3,3,3,,,,,,,,,,,,,,,,,,,,,,,,,,,,,,,,,,,,,,,,,,,,,,,,,,,,,,,,,,,,,,,,,,,,,,,,,1,0.8976222000001144,370.0940307000001,None,ScrollDown,정답입니다,370.0940307000001,None,370.0940307000001,None,370.0940307000001,None,370.0940307000001,None,370.86079299999983,None,370.86079299999983,371.3720043000012,,,,,,,,,,,,,,,,212,2022-05-06_15h43.47.078,FishGame,2022.1.1,59.9701948131236,
,5,넌 과묵해,3,Green,A,3.875,4.4,ScrollDown,ScrollUp,Green.png,3,Neutral,Neutral,,,,,0,0,0,0,,,,,,,,,,,,,,,,,,,,,0,4,4,4,,,,,,,,,,,,,,,,,,,,,,,,,,,,,,,,,,,,,,,,,,,,,,,,,,,,,,,,,,,,,,,,,,,,,,,,,1,0.8174351000016031,372.0324902000011,None,ScrollDown,정답입니다,372.0324902000011,None,372.0324902000011,None,372.0324902000011,None,372.0324902000011,None,372.71157160000075,None,372.71157160000075,373.22169530000065,,,,,,,,,,,,,,,,212,2022-05-06_15h43.47.078,FishGame,2022.1.1,59.9701948131236,
,6,나를 데려가줘,6,Orange,B,0,0,ScrollDown,ScrollUp,Orange.png,3,NonTarget,NonTarget,,,,,0,0,0,0,,,,,,,,,,,,,,,,,,,,,0,5,5,5,,,,,,,,,,,,,,,,,,,,,,,,,,,,,,,,,,,,,,,,,,,,,,,,,,,,,,,,,,,,,,,,,,,,,,,,,1.0046296219031017,1.3608851000008144,373.8789314000005,None,ScrollDown,정답입니다,373.8789314000005,None,373.8789314000005,None,373.8789314000005,None,373.8789314000005,None,375.1047451000013,None,375.1047451000013,375.6047255000012,,,,,,,,,,,,,,,,212,2022-05-06_15h43.47.078,FishGame,2022.1.1,59.9701948131236,
,7,넌 미숙해,4,Orange,B,3,3,ScrollUp,ScrollDown,Orange.png,3,Negative,Congruent,,,,,0,0,0,0,,,,,,,,,,,,,,,,,,,,,0,6,6,6,,,,,,,,,,,,,,,,,,,,,,,,,,,,,,,,,,,,,,,,,,,,,,,,,,,,,,,,,,,,,,,,,,,,,,,,,1.9783950746059418,0.8583605999992869,376.26084640000045,None,ScrollUp,정답입니다,376.26084640000045,None,376.26084640000045,None,376.26084640000045,None,376.26084640000045,None,376.9881415,None,376.9881415,377.48781450000024,,,,,,,,,,,,,,,,212,2022-05-06_15h43.47.078,FishGame,2022.1.1,59.9701948131236,
,8,나를 보내줘,6,Green,A,0,0,ScrollUp,ScrollDown,Green.png,3,NonTarget,NonTarget,,,,,0,0,0,0,,,,,,,,,,,,,,,,,,,,,0,7,7,7,,,,,,,,,,,,,,,,,,,,,,,,,,,,,,,,,,,,,,,,,,,,,,,,,,,,,,,,,,,,,,,,,,,,,,,,,2,0.9390027000008558,378.13803220000045,None,ScrollUp,정답입니다,378.13803220000045,None,378.13803220000045,None,378.13803220000045,None,378.13803220000045,None,378.9488297000007,None,378.9488297000007,379.45422529999996,,,,,,,,,,,,,,,,212,2022-05-06_15h43.47.078,FishGame,2022.1.1,59.9701948131236,
,9,넌 자신만만해,3,Orange,B,4.833333333333334,4.333333333333333,ScrollUp,ScrollDown,Orange.png,3,Neutral,Neutral,,,,,0,0,0,0,,,,,,,,,,,,,,,,,,,,,0,8,8,8,,,,,,,,,,,,,,,,,,,,,,,,,,,,,,,,,,,,,,,,,,,,,,,,,,,,,,,,,,,,,,,,,,,,,,,,,1.8688271592060726,0.9682187999987946,380.10690260000047,None,ScrollUp,정답입니다,380.10690260000047,None,380.10690260000047,None,380.10690260000047,None,380.10690260000047,None,380.9452598000007,None,380.9452598000007,381.4540348999999,,,,,,,,,,,,,,,,212,2022-05-06_15h43.47.078,FishGame,2022.1.1,59.9701948131236,
,10,넌 탐욕스러워,5,Green,A,2.25,2.1,ScrollDown,ScrollUp,Green.png,3,Negative,Incongruent,,,,,0,0,0,0,,,,,,,,,,,,,,,,,,,,,0,9,9,9,,,,,,,,,,,,,,,,,,,,,,,,,,,,,,,,,,,,,,,,,,,,,,,,,,,,,,,,,,,,,,,,,,,,,,,,,1.1080246816078823,1.1007933000000776,382.1108576000006,None,ScrollDown,정답입니다,382.1108576000006,None,382.1108576000006,None,382.1108576000006,None,382.1108576000006,None,383.0782261000004,None,383.0782261000004,383.5870498000004,,,,,,,,,,,,,,,,212,2022-05-06_15h43.47.078,FishGame,2022.1.1,59.9701948131236,
,11,넌 인기있어,2,Green,A,5.458333333333333,4.5,ScrollDown,ScrollUp,Green.png,3,Positive,Congruent,,,,,0,0,0,0,,,,,,,,,,,,,,,,,,,,,0,10,10,10,,,,,,,,,,,,,,,,,,,,,,,,,,,,,,,,,,,,,,,,,,,,,,,,,,,,,,,,,,,,,,,,,,,,,,,,,1.0447530845801036,0.9468433000001824,384.2378169000003,None,ScrollDown,정답입니다,384.2378169000003,None,384.2378169000003,None,384.2378169000003,None,384.2378169000003,None,385.0539306999999,None,385.0539306999999,385.55340500000057,,,,,,,,,,,,,,,,212,2022-05-06_15h43.47.078,FishGame,2022.1.1,59.9701948131236,
,12,나를 데려가줘,6,Orange,B,0,0,ScrollDown,ScrollUp,Orange.png,3,NonTarget,NonTarget,,,,,0,0,0,0,,,,,,,,,,,,,,,,,,,,,0,11,11,11,,,,,,,,,,,,,,,,,,,,,,,,,,,,,,,,,,,,,,,,,,,,,,,,,,,,,,,,,,,,,,,,,,,,,,,,,1.1141975373029709,0.9189917000003334,386.2059470000004,None,ScrollDown,정답입니다,386.2059470000004,None,386.2059470000004,None,386.2059470000004,None,386.2059470000004,None,386.9961140000014,None,386.9961140000014,387.50317410000025,,,,,,,,,,,,,,,,212,2022-05-06_15h43.47.078,FishGame,2022.1.1,59.9701948131236,
,13,넌 뛰어나,2,Orange,B,6.166666666666667,4,ScrollUp,ScrollDown,Orange.png,3,Positive,Incongruent,,,,,0,0,0,0,,,,,,,,,,,,,,,,,,,,,0,12,12,12,,,,,,,,,,,,,,,,,,,,,,,,,,,,,,,,,,,,,,,,,,,,,,,,,,,,,,,,,,,,,,,,,,,,,,,,,1.8827160596847534,0.9459250999989308,388.1630643999997,None,ScrollUp,정답입니다,388.1630643999997,None,388.1630643999997,None,388.1630643999997,None,388.1630643999997,None,388.9728608000005,None,388.9728608000005,389.4863333000012,,,,,,,,,,,,,,,,212,2022-05-06_15h43.47.078,FishGame,2022.1.1,59.9701948131236,
,14,넌 낙관적이야,1,Green,A,5.75,5.8,ScrollDown,ScrollUp,Green.png,3,Positive,Congruent,,,,,0,0,0,0,,,,,,,,,,,,,,,,,,,,,0,13,13,13,,,,,,,,,,,,,,,,,,,,,,,,,,,,,,,,,,,,,,,,,,,,,,,,,,,,,,,,,,,,,,,,,,,,,,,,,1.2623456766208014,0.93445310000061,390.14260300000024,None,ScrollDown,정답입니다,390.14260300000024,None,390.14260300000024,None,390.14260300000024,None,390.14260300000024,None,390.94395319999967,None,390.94395319999967,391.45261850000134,,,,,,,,,,,,,,,,212,2022-05-06_15h43.47.078,FishGame,2022.1.1,59.9701948131236,
,15,넌 산만해,4,Orange,B,2.695652173913043,3.033333333333333,ScrollUp,ScrollDown,Orange.png,3,Negative,Congruent,,,,,0,0,0,0,,,,,,,,,,,,,,,,,,,,,0,14,14,14,,,,,,,,,,,,,,,,,,,,,,,,,,,,,,,,,,,,,,,,,,,,,,,,,,,,,,,,,,,,,,,,,,,,,,,,,1.9012345770994823,0.9841059999998834,392.11093860000074,None,ScrollUp,정답입니다,392.11093860000074,None,392.11093860000074,None,392.11093860000074,None,392.11093860000074,None,392.9601736000004,None,392.9601736000004,393.46915120000085,,,,,,,,,,,,,,,,212,2022-05-06_15h43.47.078,FishGame,2022.1.1,59.9701948131236,
,16,나를 보내줘,6,Green,A,0,0,ScrollUp,ScrollDown,Green.png,3,NonTarget,NonTarget,,,,,0,0,0,0,,,,,,,,,,,,,,,,,,,,,0,15,15,15,,,,,,,,,,,,,,,,,,,,,,,,,,,,,,,,,,,,,,,,,,,,,,,,,,,,,,,,,,,,,,,,,,,,,,,,,1.9861110945542653,1.0685783000008087,394.1192566999998,None,ScrollUp,정답입니다,394.1192566999998,None,394.1192566999998,None,394.1192566999998,None,394.1192566999998,None,395.0612412999999,None,395.0612412999999,395.56878060000054,,,,,,,,,,,,,,,,212,2022-05-06_15h43.47.078,FishGame,2022.1.1,59.9701948131236,
,17,넌 교활해,5,Orange,B,2.333333333333333,2.133333333333333,ScrollUp,ScrollDown,Orange.png,3,Negative,Congruent,,,,,0,0,0,0,,,,,,,,,,,,,,,,,,,,,0,16,16,16,,,,,,,,,,,,,,,,,,,,,,,,,,,,,,,,,,,,,,,,,,,,,,,,,,,,,,,,,,,,,,,,,,,,,,,,,1.939814825852712,0.9496748000001389,396.22540560000016,None,ScrollUp,정답입니다,396.22540560000016,None,396.22540560000016,None,396.22540560000016,None,396.22540560000016,None,397.04333250000127,None,397.04333250000127,397.551918000001,,,,,,,,,,,,,,,,212,2022-05-06_15h43.47.078,FishGame,2022.1.1,59.9701948131236,
,18,나를 보내줘,6,Green,A,0,0,ScrollUp,ScrollDown,Green.png,3,NonTarget,NonTarget,,,,,0,0,0,0,,,,,,,,,,,,,,,,,,,,,0,17,17,17,,,,,,,,,,,,,,,,,,,,,,,,,,,,,,,,,,,,,,,,,,,,,,,,,,,,,,,,,,,,,,,,,,,,,,,,,1.7885802586873372,0.9880029000014474,398.1993754000014,None,ScrollUp,정답입니다,398.1993754000014,None,398.1993754000014,None,398.1993754000014,None,398.1993754000014,None,399.0691731000006,None,399.0691731000006,399.56836160000057,,,,,,,,,,,,,,,,212,2022-05-06_15h43.47.078,FishGame,2022.1.1,59.9701948131236,
,19,넌 불친절해,5,Orange,B,2.208333333333333,2.033333333333333,ScrollUp,ScrollDown,Orange.png,3,Negative,Congruent,,,,,0,0,0,0,,,,,,,,,,,,,,,,,,,,,0,18,18,18,,,,,,,,,,,,,,,,,,,,,,,,,,,,,,,,,,,,,,,,,,,,,,,,,,,,,,,,,,,,,,,,,,,,,,,,,1.959876557191213,0.932640299999548,400.229102700001,None,ScrollUp,정답입니다,400.229102700001,None,400.229102700001,None,400.229102700001,None,400.229102700001,None,401.02393370000027,None,401.02393370000027,401.5347367000013,,,,,,,,,,,,,,,,212,2022-05-06_15h43.47.078,FishGame,2022.1.1,59.9701948131236,
,20,넌 지적이야,2,Orange,B,5.75,4.366666666666666,ScrollUp,ScrollDown,Orange.png,3,Positive,Incongruent,,,,,0,0,0,0,,,,,,,,,,,,,,,,,,,,,0,19,19,19,,,,,,,,,,,,,,,,,,,,,,,,,,,,,,,,,,,,,,,,,,,,,,,,,,,,,,,,,,,,,,,,,,,,,,,,,1.7916666616996129,0.9600178000000597,402.18765390000044,None,ScrollUp,정답입니다,402.18765390000044,None,402.18765390000044,None,402.18765390000044,None,402.18765390000044,None,403.0179344999997,None,403.0179344999997,403.5178816000007,,,,,,,,,,,,,,,,212,2022-05-06_15h43.47.078,FishGame,2022.1.1,59.9701948131236,
,21,넌 우유부단해,4,Green,A,2.666666666666667,3.166666666666667,ScrollDown,ScrollUp,Green.png,3,Negative,Incongruent,,,,,0,0,0,0,,,,,,,,,,,,,,,,,,,,,0,20,20,20,,,,,,,,,,,,,,,,,,,,,,,,,,,,,,,,,,,,,,,,,,,,,,,,,,,,,,,,,,,,,,,,,,,,,,,,,1.1574074029922485,0.9331335999995645,404.1781049000001,None,ScrollDown,정답입니다,404.1781049000001,None,404.1781049000001,None,404.1781049000001,None,404.1781049000001,None,404.9748587000013,None,404.9748587000013,405.484112600001,,,,,,,,,,,,,,,,212,2022-05-06_15h43.47.078,FishGame,2022.1.1,59.9701948131236,
,22,나를 데려가줘,6,Orange,B,0,0,ScrollDown,ScrollUp,Orange.png,3,NonTarget,NonTarget,,,,,0,0,0,0,,,,,,,,,,,,,,,,,,,,,0,21,21,21,,,,,,,,,,,,,,,,,,,,,,,,,,,,,,,,,,,,,,,,,,,,,,,,,,,,,,,,,,,,,,,,,,,,,,,,,1,0.9506559000001289,406.1405508000007,None,ScrollDown,정답입니다,406.1405508000007,None,406.1405508000007,None,406.1405508000007,None,406.1405508000007,None,406.9575435000006,None,406.9575435000006,407.46724780000113,,,,,,,,,,,,,,,,212,2022-05-06_15h43.47.078,FishGame,2022.1.1,59.9701948131236,
,23,넌 성실해,1,Orange,B,6.041666666666666,5.7,ScrollUp,ScrollDown,Orange.png,3,Positive,Incongruent,,,,,0,0,0,0,,,,,,,,,,,,,,,,,,,,,0,22,22,22,,,,,,,,,,,,,,,,,,,,,,,,,,,,,,,,,,,,,,,,,,,,,,,,,,,,,,,,,,,,,,,,,,,,,,,,,1.817901223897934,0.9949166999995214,408.1225137000001,None,ScrollUp,정답입니다,408.1225137000001,None,408.1225137000001,None,408.1225137000001,None,408.1225137000001,None,408.9839690000008,None,408.9839690000008,409.4836187000001,,,,,,,,,,,,,,,,212,2022-05-06_15h43.47.078,FishGame,2022.1.1,59.9701948131236,
,24,넌 현실주의적이야,3,Green,A,4.625,4.4,ScrollDown,ScrollUp,Green.png,3,Neutral,Neutral,,,,,0,0,0,0,,,,,,,,,,,,,,,,,,,,,0,23,23,23,,,,,,,,,,,,,,,,,,,,,,,,,,,,,,,,,,,,,,,,,,,,,,,,,,,,,,,,,,,,,,,,,,,,,,,,,1.2206790000200272,1.2697540999997727,410.1379262999999,None,ScrollDown,정답입니다,410.1379262999999,None,410.1379262999999,None,410.1379262999999,None,410.1379262999999,None,411.2754270000005,None,411.2754270000005,411.78340200000093,,,,,,,,,,,,,,,,212,2022-05-06_15h43.47.078,FishGame,2022.1.1,59.9701948131236,
,25,넌 진실돼,1,Green,A,6.625,5.566666666666666,ScrollDown,ScrollUp,Green.png,3,Positive,Congruent,,,,,0,0,0,0,,,,,,,,,,,,,,,,,,,,,0,24,24,24,,,,,,,,,,,,,,,,,,,,,,,,,,,,,,,,,,,,,,,,,,,,,,,,,,,,,,,,,,,,,,,,,,,,,,,,,1.1558641890684764,1.0463948999986314,412.4362691000006,None,ScrollDown,정답입니다,412.4362691000006,None,412.4362691000006,None,412.4362691000006,None,412.4362691000006,None,413.3535587000006,None,413.3535587000006,413.86649000000034,,,,,,,,,,,,,,,,212,2022-05-06_15h43.47.078,FishGame,2022.1.1,59.9701948131236,
,26,넌 천진난만해,3,Orange,B,4.958333333333334,4.833333333333333,ScrollUp,ScrollDown,Orange.png,3,Neutral,Neutral,,,,,0,0,0,0,,,,,,,,,,,,,,,,,,,,,0,25,25,25,,,,,,,,,,,,,,,,,,,,,,,,,,,,,,,,,,,,,,,,,,,,,,,,,,,,,,,,,,,,,,,,,,,,,,,,,1.9089506218830745,0.8830173000005743,414.5275889000004,None,ScrollUp,정답입니다,414.5275889000004,None,414.5275889000004,None,414.5275889000004,None,414.5275889000004,None,415.27118260000134,None,415.27118260000134,415.7828573000006,,,,,,,,,,,,,,,,212,2022-05-06_15h43.47.078,FishGame,2022.1.1,59.9701948131236,
,27,넌 교양없어,5,Green,A,2.416666666666667,2.2,ScrollDown,ScrollUp,Green.png,3,Negative,Incongruent,,,,,0,0,0,0,,,,,,,,,,,,,,,,,,,,,0,26,26,26,,,,,,,,,,,,,,,,,,,,,,,,,,,,,,,,,,,,,,,,,,,,,,,,,,,,,,,,,,,,,,,,,,,,,,,,,1.1774691343307495,1.1670871999995143,416.43853149999995,None,ScrollDown,정답입니다,416.43853149999995,None,416.43853149999995,None,416.43853149999995,None,416.43853149999995,None,417.47237870000026,None,417.47237870000026,417.98260800000025,,,,,,,,,,,,,,,,212,2022-05-06_15h43.47.078,FishGame,2022.1.1,59.9701948131236,
,28,나를 보내줘,6,Green,A,0,0,ScrollUp,ScrollDown,Green.png,3,NonTarget,NonTarget,,,,,0,0,0,0,,,,,,,,,,,,,,,,,,,,,0,27,27,27,,,,,,,,,,,,,,,,,,,,,,,,,,,,,,,,,,,,,,,,,,,,,,,,,,,,,,,,,,,,,,,,,,,,,,,,,1.8765432039896648,0.9978154000000359,418.62900079999963,None,ScrollUp,정답입니다,418.62900079999963,None,418.62900079999963,None,418.62900079999963,None,418.62900079999963,None,419.50336510000125,None,419.50336510000125,420.0156877999998,,,,,,,,,,,,,,,,212,2022-05-06_15h43.47.078,FishGame,2022.1.1,59.9701948131236,
,29,넌 엉뚱스러워,3,Green,A,4.166666666666667,4.133333333333334,ScrollDown,ScrollUp,Green.png,3,Neutral,Neutral,,,,,0,0,0,0,,,,,,,,,,,,,,,,,,,,,0,28,28,28,,,,,,,,,,,,,,,,,,,,,,,,,,,,,,,,,,,,,,,,,,,,,,,,,,,,,,,,,,,,,,,,,,,,,,,,,1.1296296268701553,0.9771548000007897,420.6727761000002,None,ScrollDown,정답입니다,420.6727761000002,None,420.6727761000002,None,420.6727761000002,None,420.6727761000002,None,421.5119680000007,None,421.5119680000007,422.01535160000094,,,,,,,,,,,,,,,,212,2022-05-06_15h43.47.078,FishGame,2022.1.1,59.9701948131236,
,30,넌 무지해,4,Orange,B,2.541666666666667,3.066666666666667,ScrollUp,ScrollDown,Orange.png,3,Negative,Congruent,,,,,0,0,0,0,,,,,,,,,,,,,,,,,,,,,0,29,29,29,,,,,,,,,,,,,,,,,,,,,,,,,,,,,,,,,,,,,,,,,,,,,,,,,,,,,,,,,,,,,,,,,,,,,,,,,1.858024686574936,0.9709934999991674,422.66667229999985,None,ScrollUp,정답입니다,422.66667229999985,None,422.66667229999985,None,422.66667229999985,None,422.66667229999985,None,423.50805779999973,None,423.50805779999973,424.01511800000117,,,,,,,,,,,,,,,,212,2022-05-06_15h43.47.078,FishGame,2022.1.1,59.9701948131236,
,31,넌 음울해,5,Orange,B,2.25,2.233333333333333,ScrollUp,ScrollDown,Orange.png,3,Negative,Congruent,,,,,0,0,0,0,,,,,,,,,,,,,,,,,,,,,0,30,30,30,,,,,,,,,,,,,,,,,,,,,,,,,,,,,,,,,,,,,,,,,,,,,,,,,,,,,,,,,,,,,,,,,,,,,,,,,1.8456790000200272,0.9381659999999101,424.67621490000056,None,ScrollUp,정답입니다,424.67621490000056,None,424.67621490000056,None,424.67621490000056,None,424.67621490000056,None,425.4817258000003,None,425.4817258000003,425.9815772000002,,,,,,,,,,,,,,,,212,2022-05-06_15h43.47.078,FishGame,2022.1.1,59.9701948131236,
,32,넌 냉소적이야,5,Green,A,2.916666666666667,2.4,ScrollDown,ScrollUp,Green.png,3,Negative,Incongruent,,,,,0,0,0,0,,,,,,,,,,,,,,,,,,,,,0,31,31,31,,,,,,,,,,,,,,,,,,,,,,,,,,,,,,,,,,,,,,,,,,,,,,,,,,,,,,,,,,,,,,,,,,,,,,,,,1.182098776102066,0.9048461999991559,426.63325930000065,None,ScrollDown,정답입니다,426.63325930000065,None,426.63325930000065,None,426.63325930000065,None,426.63325930000065,None,427.40697379999983,None,427.40697379999983,427.91471660000025,,,,,,,,,,,,,,,,212,2022-05-06_15h43.47.078,FishGame,2022.1.1,59.9701948131236,
,33,나를 데려가줘,6,Orange,B,0,0,ScrollDown,ScrollUp,Orange.png,3,NonTarget,NonTarget,,,,,0,0,0,0,,,,,,,,,,,,,,,,,,,,,0,32,32,32,,,,,,,,,,,,,,,,,,,,,,,,,,,,,,,,,,,,,,,,,,,,,,,,,,,,,,,,,,,,,,,,,,,,,,,,,1,1.0600714000011067,428.57158270000036,None,ScrollDown,정답입니다,428.57158270000036,None,428.57158270000036,None,428.57158270000036,None,428.57158270000036,None,429.49767450000036,None,429.49767450000036,429.9976717999998,,,,,,,,,,,,,,,,212,2022-05-06_15h43.47.078,FishGame,2022.1.1,59.9701948131236,
,34,넌 쾌활해,1,Green,A,5.541666666666666,5.733333333333333,ScrollDown,ScrollUp,Green.png,3,Positive,Congruent,,,,,0,0,0,0,,,,,,,,,,,,,,,,,,,,,0,33,33,33,,,,,,,,,,,,,,,,,,,,,,,,,,,,,,,,,,,,,,,,,,,,,,,,,,,,,,,,,,,,,,,,,,,,,,,,,1.1574074029922485,1.210550499999954,430.6516145000005,None,ScrollDown,정답입니다,430.6516145000005,None,430.6516145000005,None,430.6516145000005,None,430.6516145000005,None,431.7268753999997,None,431.7268753999997,432.23070780000126,,,,,,,,,,,,,,,,212,2022-05-06_15h43.47.078,FishGame,2022.1.1,59.9701948131236,
,35,나를 보내줘,6,Green,A,0,0,ScrollUp,ScrollDown,Green.png,3,NonTarget,NonTarget,,,,,0,0,0,0,,,,,,,,,,,,,,,,,,,,,0,34,34,34,,,,,,,,,,,,,,,,,,,,,,,,,,,,,,,,,,,,,,,,,,,,,,,,,,,,,,,,,,,,,,,,,,,,,,,,,1.7376543233791986,0.9342049000006227,432.8849876000004,None,ScrollUp,정답입니다,432.8849876000004,None,432.8849876000004,None,432.8849876000004,None,432.8849876000004,None,433.6894647000008,None,433.6894647000008,434.19716549999976,,,,,,,,,,,,,,,,212,2022-05-06_15h43.47.078,FishGame,2022.1.1,59.9701948131236,
,36,넌 명랑해,1,Orange,B,5.739130434782609,5.666666666666667,ScrollUp,ScrollDown,Orange.png,3,Positive,Incongruent,,,,,0,0,0,0,,,,,,,,,,,,,,,,,,,,,0,35,35,35,,,,,,,,,,,,,,,,,,,,,,,,,,,,,,,,,,,,,,,,,,,,,,,,,,,,,,,,,,,,,,,,,,,,,,,,,1.8024691343307495,0.9203118000004906,434.85647659999995,None,ScrollUp,정답입니다,434.85647659999995,None,434.85647659999995,None,434.85647659999995,None,434.85647659999995,None,435.64034360000005,None,435.64034360000005,436.14690450000126,,,,,,,,,,,,,,,,212,2022-05-06_15h43.47.078,FishGame,2022.1.1,59.9701948131236,
,37,넌 멍해,4,Green,A,2.833333333333333,3.4,ScrollDown,ScrollUp,Green.png,3,Negative,Incongruent,,,,,0,0,0,0,,,,,,,,,,,,,,,,,,,,,0,36,36,36,,,,,,,,,,,,,,,,,,,,,,,,,,,,,,,,,,,,,,,,,,,,,,,,,,,,,,,,,,,,,,,,,,,,,,,,,1.0354938507080078,1.1398576000010507,436.80169580000074,None,ScrollDown,정답입니다,436.80169580000074,None,436.80169580000074,None,436.80169580000074,None,436.80169580000074,None,437.8134914000002,None,437.8134914000002,438.31332870000006,,,,,,,,,,,,,,,,212,2022-05-06_15h43.47.078,FishGame,2022.1.1,59.9701948131236,
,38,나를 데려가줘,6,Orange,B,0,0,ScrollDown,ScrollUp,Orange.png,3,NonTarget,NonTarget,,,,,0,0,0,0,,,,,,,,,,,,,,,,,,,,,0,37,37,37,,,,,,,,,,,,,,,,,,,,,,,,,,,,,,,,,,,,,,,,,,,,,,,,,,,,,,,,,,,,,,,,,,,,,,,,,1.0848765472571056,1.0198416000002908,438.9643587999999,None,ScrollDown,정답입니다,438.9643587999999,None,438.9643587999999,None,438.9643587999999,None,438.9643587999999,None,439.8566821000004,None,439.8566821000004,440.36298780000106,,,,,,,,,,,,,,,,212,2022-05-06_15h43.47.078,FishGame,2022.1.1,59.9701948131236,
,39,넌 현명해,2,Green,A,6.541666666666666,4.533333333333333,ScrollDown,ScrollUp,Green.png,3,Positive,Congruent,,,,,0,0,0,0,,,,,,,,,,,,,,,,,,,,,0,38,38,38,,,,,,,,,,,,,,,,,,,,,,,,,,,,,,,,,,,,,,,,,,,,,,,,,,,,,,,,,,,,,,,,,,,,,,,,,1.233024686574936,1.1157290000010107,441.01104420000047,None,ScrollDown,정답입니다,441.01104420000047,None,441.01104420000047,None,441.01104420000047,None,441.01104420000047,None,442.00260570000137,None,442.00260570000137,442.5126564000002,,,,,,,,,,,,,,,,212,2022-05-06_15h43.47.078,FishGame,2022.1.1,59.9701948131236,
,40,넌 수줍어,3,Orange,B,3.541666666666666,4.366666666666666,ScrollUp,ScrollDown,Orange.png,3,Neutral,Neutral,,,,,0,0,0,0,,,,,,,,,,,,,,,,,,,,,0,39,39,39,,,,,,,,,,,,,,,,,,,,,,,,,,,,,,,,,,,,,,,,,,,,,,,,,,,,,,,,,,,,,,,,,,,,,,,,,1.7407407512267432,0.8895814999996219,443.17602740000075,None,ScrollUp,정답입니다,443.17602740000075,None,443.17602740000075,None,443.17602740000075,None,443.17602740000075,None,443.9292344000005,None,443.9292344000005,444.4293213000001,,,,,,,,,,,,,,,,212,2022-05-06_15h43.47.078,FishGame,2022.1.1,59.9701948131236,
,41,나를 데려가줘,6,Orange,B,0,0,ScrollDown,ScrollUp,Orange.png,3,NonTarget,NonTarget,,,,,0,0,0,0,,,,,,,,,,,,,,,,,,,,,0,40,40,40,,,,,,,,,,,,,,,,,,,,,,,,,,,,,,,,,,,,,,,,,,,,,,,,,,,,,,,,,,,,,,,,,,,,,,,,,1.2422839452823002,1.0013821000011376,445.082460900001,None,ScrollDown,정답입니다,445.082460900001,None,445.082460900001,None,445.082460900001,None,445.082460900001,None,445.9539162000001,None,445.9539162000001,446.4622539000011,,,,,,,,,,,,,,,,212,2022-05-06_15h43.47.078,FishGame,2022.1.1,59.9701948131236,
,42,넌 성숙해,2,Orange,B,5.833333333333333,4.533333333333333,ScrollUp,ScrollDown,Orange.png,3,Positive,Incongruent,,,,,0,0,0,0,,,,,,,,,,,,,,,,,,,,,0,41,41,41,,,,,,,,,,,,,,,,,,,,,,,,,,,,,,,,,,,,,,,,,,,,,,,,,,,,,,,,,,,,,,,,,,,,,,,,,1.6080246890584626,0.8603904000010516,447.12064590000045,None,ScrollUp,정답입니다,447.12064590000045,None,447.12064590000045,None,447.12064590000045,None,447.12064590000045,None,447.84557590000077,None,447.84557590000077,448.34535460000006,,,,,,,,,,,,,,,,212,2022-05-06_15h43.47.078,FishGame,2022.1.1,59.9701948131236,
,1,넌 매력적이야,2,Orange,B,6.125,4.666666666666667,ScrollUp,ScrollDown,Orange.png,4,Positive,Incongruent,,,,,0,0,0,0,,,,,,,,,,,,,,,,,,,,,,,,,0,0,0,0,,,,,,,,,,,,,,,,,,,,,,,,,,,,481.6243408999999,483.1242112,483.1575788000009,484.10733059999984,484.15742020000107,485.10732199999984,485.10732199999984,None,,,,,,,,,,,,,,,,,,,,,,,,,,,,,,,,,,1.9907407363255818,1.1114696999993612,486.31214940000064,None,ScrollUp,정답입니다,486.31214940000064,None,486.31214940000064,None,486.31214940000064,None,486.31214940000064,None,487.24045020000085,None,487.24045020000085,487.7402008000008,448.84526390000065,None,448.84526390000065,None,0.31666666,-0.10277778,1,0,0,0.016241420000369544,None,478.8579425000007,None,,,212,2022-05-06_15h43.47.078,FishGame,2022.1.1,59.9701948131236,
,2,나를 보내줘,6,Green,A,0,0,ScrollUp,ScrollDown,Green.png,4,NonTarget,NonTarget,,,,,0,0,0,0,,,,,,,,,,,,,,,,,,,,,,,,,0,1,1,1,,,,,,,,,,,,,,,,,,,,,,,,,,,,,,,,,,,,,,,,,,,,,,,,,,,,,,,,,,,,,,,,,,,,,2,1.0181001000000833,488.3871274000012,None,ScrollUp,정답입니다,488.3871274000012,None,488.3871274000012,None,488.3871274000012,None,488.3871274000012,None,489.28020170000127,None,489.28020170000127,489.7899458000011,,,,,,,,,,,,,,,,212,2022-05-06_15h43.47.078,FishGame,2022.1.1,59.9701948131236,
,3,넌 조심스러워,3,Green,A,4.791666666666666,4.666666666666667,ScrollDown,ScrollUp,Green.png,4,Neutral,Neutral,,,,,0,0,0,0,,,,,,,,,,,,,,,,,,,,,,,,,0,2,2,2,,,,,,,,,,,,,,,,,,,,,,,,,,,,,,,,,,,,,,,,,,,,,,,,,,,,,,,,,,,,,,,,,,,,,1.2299382835626602,0.8643117000010534,490.44406020000133,None,ScrollDown,정답입니다,490.44406020000133,None,490.44406020000133,None,490.44406020000133,None,490.44406020000133,None,491.180727500001,None,491.180727500001,491.6898075000008,,,,,,,,,,,,,,,,212,2022-05-06_15h43.47.078,FishGame,2022.1.1,59.9701948131236,
,4,넌 철학적이야,3,Orange,B,4.5,4.266666666666667,ScrollUp,ScrollDown,Orange.png,4,Neutral,Neutral,,,,,0,0,0,0,,,,,,,,,,,,,,,,,,,,,,,,,0,3,3,3,,,,,,,,,,,,,,,,,,,,,,,,,,,,,,,,,,,,,,,,,,,,,,,,,,,,,,,,,,,,,,,,,,,,,2,1.0784136000002036,492.3594754000005,None,ScrollUp,정답입니다,492.3594754000005,None,492.3594754000005,None,492.3594754000005,None,492.3594754000005,None,493.28971079999974,None,493.28971079999974,493.78935340000135,,,,,,,,,,,,,,,,212,2022-05-06_15h43.47.078,FishGame,2022.1.1,59.9701948131236,
,5,넌 쩨쩨해,5,Green,A,2.375,2.133333333333333,ScrollDown,ScrollUp,Green.png,4,Negative,Incongruent,,,,,0,0,0,0,,,,,,,,,,,,,,,,,,,,,,,,,0,4,4,4,,,,,,,,,,,,,,,,,,,,,,,,,,,,,,,,,,,,,,,,,,,,,,,,,,,,,,,,,,,,,,,,,,,,,1,0.8701180999996723,494.4438616000007,None,ScrollDown,정답입니다,494.4438616000007,None,494.4438616000007,None,494.4438616000007,None,494.4438616000007,None,495.1844065000005,None,495.1844065000005,495.6892045000004,,,,,,,,,,,,,,,,212,2022-05-06_15h43.47.078,FishGame,2022.1.1,59.9701948131236,
,6,나를 데려가줘,6,Orange,B,0,0,ScrollDown,ScrollUp,Orange.png,4,NonTarget,NonTarget,,,,,0,0,0,0,,,,,,,,,,,,,,,,,,,,,,,,,0,5,5,5,,,,,,,,,,,,,,,,,,,,,,,,,,,,,,,,,,,,,,,,,,,,,,,,,,,,,,,,,,,,,,,,,,,,,1,0.919656500000201,496.34424390000095,None,ScrollDown,정답입니다,496.34424390000095,None,496.34424390000095,None,496.34424390000095,None,496.34424390000095,None,497.13147150000077,None,497.13147150000077,497.6389331999999,,,,,,,,,,,,,,,,212,2022-05-06_15h43.47.078,FishGame,2022.1.1,59.9701948131236,
,7,넌 고집불통이야,5,Orange,B,2.875,2,ScrollUp,ScrollDown,Orange.png,4,Negative,Congruent,,,,,0,0,0,0,,,,,,,,,,,,,,,,,,,,,,,,,0,6,6,6,,,,,,,,,,,,,,,,,,,,,,,,,,,,,,,,,,,,,,,,,,,,,,,,,,,,,,,,,,,,,,,,,,,,,2,1.0190091999993456,498.3011832000011,None,ScrollUp,정답입니다,498.3011832000011,None,498.3011832000011,None,498.3011832000011,None,498.3011832000011,None,499.18177920000016,None,499.18177920000016,499.6886998000009,,,,,,,,,,,,,,,,212,2022-05-06_15h43.47.078,FishGame,2022.1.1,59.9701948131236,
,8,넌 무심해,4,Green,A,2.875,3.2,ScrollDown,ScrollUp,Green.png,4,Negative,Incongruent,,,,,0,0,0,0,,,,,,,,,,,,,,,,,,,,,,,,,0,7,7,7,,,,,,,,,,,,,,,,,,,,,,,,,,,,,,,,,,,,,,,,,,,,,,,,,,,,,,,,,,,,,,,,,,,,,1.060185174147288,0.91414690000056,500.3367717000001,None,ScrollDown,정답입니다,500.3367717000001,None,500.3367717000001,None,500.3367717000001,None,500.3367717000001,None,501.12673689999974,None,501.12673689999974,501.6384592000013,,,,,,,,,,,,,,,,212,2022-05-06_15h43.47.078,FishGame,2022.1.1,59.9701948131236,
,9,넌 정겨워,1,Green,A,5.791666666666667,5.666666666666667,ScrollDown,ScrollUp,Green.png,4,Positive,Congruent,,,,,0,0,0,0,,,,,,,,,,,,,,,,,,,,,,,,,0,8,8,8,,,,,,,,,,,,,,,,,,,,,,,,,,,,,,,,,,,,,,,,,,,,,,,,,,,,,,,,,,,,,,,,,,,,,1.0277777810891469,0.9518102000001818,502.29498930000045,None,ScrollDown,정답입니다,502.29498930000045,None,502.29498930000045,None,502.29498930000045,None,502.29498930000045,None,503.11163900000065,None,503.11163900000065,503.6215092000002,,,,,,,,,,,,,,,,212,2022-05-06_15h43.47.078,FishGame,2022.1.1,59.9701948131236,
,10,나를 데려가줘,6,Orange,B,0,0,ScrollDown,ScrollUp,Orange.png,4,NonTarget,NonTarget,,,,,0,0,0,0,,,,,,,,,,,,,,,,,,,,,,,,,0,9,9,9,,,,,,,,,,,,,,,,,,,,,,,,,,,,,,,,,,,,,,,,,,,,,,,,,,,,,,,,,,,,,,,,,,,,,1,1.001470799999879,504.27364409999973,None,ScrollDown,정답입니다,504.27364409999973,None,504.27364409999973,None,504.27364409999973,None,504.27364409999973,None,505.1451883000009,None,505.1451883000009,505.654487400001,,,,,,,,,,,,,,,,212,2022-05-06_15h43.47.078,FishGame,2022.1.1,59.9701948131236,
,11,넌 체제순응적이야,4,Orange,B,3,3.6,ScrollUp,ScrollDown,Orange.png,4,Negative,Congruent,,,,,0,0,0,0,,,,,,,,,,,,,,,,,,,,,,,,,0,10,10,10,,,,,,,,,,,,,,,,,,,,,,,,,,,,,,,,,,,,,,,,,,,,,,,,,,,,,,,,,,,,,,,,,,,,,2,1.073804999999993,506.3236839000001,None,ScrollUp,정답입니다,506.3236839000001,None,506.3236839000001,None,506.3236839000001,None,506.3236839000001,None,507.2544482000012,None,507.2544482000012,507.75427430000127,,,,,,,,,,,,,,,,212,2022-05-06_15h43.47.078,FishGame,2022.1.1,59.9701948131236,
,12,나를 보내줘,6,Green,A,0,0,ScrollUp,ScrollDown,Green.png,4,NonTarget,NonTarget,,,,,0,0,0,0,,,,,,,,,,,,,,,,,,,,,,,,,0,11,11,11,,,,,,,,,,,,,,,,,,,,,,,,,,,,,,,,,,,,,,,,,,,,,,,,,,,,,,,,,,,,,,,,,,,,,2,1.471786299998712,508.4051089000004,None,ScrollUp,정답입니다,508.4051089000004,None,508.4051089000004,None,508.4051089000004,None,508.4051089000004,None,509.74814309999965,None,509.74814309999965,510.253911400001,,,,,,,,,,,,,,,,212,2022-05-06_15h43.47.078,FishGame,2022.1.1,59.9701948131236,
,13,넌 박식해,2,Green,A,5.625,3.933333333333333,ScrollDown,ScrollUp,Green.png,4,Positive,Congruent,,,,,0,0,0,0,,,,,,,,,,,,,,,,,,,,,,,,,0,12,12,12,,,,,,,,,,,,,,,,,,,,,,,,,,,,,,,,,,,,,,,,,,,,,,,,,,,,,,,,,,,,,,,,,,,,,1.0308642089366913,0.9472269999987475,510.9099822999997,None,ScrollDown,정답입니다,510.9099822999997,None,510.9099822999997,None,510.9099822999997,None,510.9099822999997,None,511.7239069999996,None,511.7239069999996,512.2369744000007,,,,,,,,,,,,,,,,212,2022-05-06_15h43.47.078,FishGame,2022.1.1,59.9701948131236,
,14,나를 보내줘,6,Green,A,0,0,ScrollUp,ScrollDown,Green.png,4,NonTarget,NonTarget,,,,,0,0,0,0,,,,,,,,,,,,,,,,,,,,,,,,,0,13,13,13,,,,,,,,,,,,,,,,,,,,,,,,,,,,,,,,,,,,,,,,,,,,,,,,,,,,,,,,,,,,,,,,,,,,,2,1.0276912999997876,512.885038800001,None,ScrollUp,정답입니다,512.885038800001,None,512.885038800001,None,512.885038800001,None,512.885038800001,None,513.7871633000013,None,513.7871633000013,514.286773400001,,,,,,,,,,,,,,,,212,2022-05-06_15h43.47.078,FishGame,2022.1.1,59.9701948131236,
,15,넌 침착해,1,Orange,B,5.458333333333333,5.566666666666666,ScrollUp,ScrollDown,Orange.png,4,Positive,Incongruent,,,,,0,0,0,0,,,,,,,,,,,,,,,,,,,,,,,,,0,14,14,14,,,,,,,,,,,,,,,,,,,,,,,,,,,,,,,,,,,,,,,,,,,,,,,,,,,,,,,,,,,,,,,,,,,,,1.8858024626970291,1.0995086999992054,514.9509091,None,ScrollUp,정답입니다,514.9509091,None,514.9509091,None,514.9509091,None,514.9509091,None,515.9098501999997,None,515.9098501999997,516.4198514,,,,,,,,,,,,,,,,212,2022-05-06_15h43.47.078,FishGame,2022.1.1,59.9701948131236,
,16,나를 데려가줘,6,Orange,B,0,0,ScrollDown,ScrollUp,Orange.png,4,NonTarget,NonTarget,,,,,0,0,0,0,,,,,,,,,,,,,,,,,,,,,,,,,0,15,15,15,,,,,,,,,,,,,,,,,,,,,,,,,,,,,,,,,,,,,,,,,,,,,,,,,,,,,,,,,,,,,,,,,,,,,1.2592592487732568,1.0195030999984738,517.0746064000014,None,ScrollDown,정답입니다,517.0746064000014,None,517.0746064000014,None,517.0746064000014,None,517.0746064000014,None,517.9632625000013,None,517.9632625000013,518.4697007000013,,,,,,,,,,,,,,,,212,2022-05-06_15h43.47.078,FishGame,2022.1.1,59.9701948131236,
,17,넌 행복해,1,Green,A,6.416666666666666,6.166666666666667,ScrollDown,ScrollUp,Green.png,4,Positive,Congruent,,,,,0,0,0,0,,,,,,,,,,,,,,,,,,,,,,,,,0,16,16,16,,,,,,,,,,,,,,,,,,,,,,,,,,,,,,,,,,,,,,,,,,,,,,,,,,,,,,,,,,,,,,,,,,,,,1.2438271592060726,0.83000279999942,519.1286943000014,None,ScrollDown,정답입니다,519.1286943000014,None,519.1286943000014,None,519.1286943000014,None,519.1286943000014,None,519.8229626000011,None,519.8229626000011,520.335868600001,,,,,,,,,,,,,,,,212,2022-05-06_15h43.47.078,FishGame,2022.1.1,59.9701948131236,
,18,넌 겸손해,2,Orange,B,5.791666666666667,4.766666666666667,ScrollUp,ScrollDown,Orange.png,4,Positive,Incongruent,,,,,0,0,0,0,,,,,,,,,,,,,,,,,,,,,,,,,0,17,17,17,,,,,,,,,,,,,,,,,,,,,,,,,,,,,,,,,,,,,,,,,,,,,,,,,,,,,,,,,,,,,,,,,,,,,1.9891975224018097,0.8937478999996529,520.995535,None,ScrollUp,정답입니다,520.995535,None,520.995535,None,520.995535,None,520.995535,None,521.7525623000001,None,521.7525623000001,522.2523207000013,,,,,,,,,,,,,,,,212,2022-05-06_15h43.47.078,FishGame,2022.1.1,59.9701948131236,
,19,나를 보내줘,6,Green,A,0,0,ScrollUp,ScrollDown,Green.png,4,NonTarget,NonTarget,,,,,0,0,0,0,,,,,,,,,,,,,,,,,,,,,,,,,0,18,18,18,,,,,,,,,,,,,,,,,,,,,,,,,,,,,,,,,,,,,,,,,,,,,,,,,,,,,,,,,,,,,,,,,,,,,2,1.0152115000000776,522.9083401999997,None,ScrollUp,정답입니다,522.9083401999997,None,522.9083401999997,None,522.9083401999997,None,522.9083401999997,None,523.7910697000007,None,523.7910697000007,524.3021465000002,,,,,,,,,,,,,,,,212,2022-05-06_15h43.47.078,FishGame,2022.1.1,59.9701948131236,
,20,넌 의심없어,3,Green,A,4.166666666666667,4.6,ScrollDown,ScrollUp,Green.png,4,Neutral,Neutral,,,,,0,0,0,0,,,,,,,,,,,,,,,,,,,,,,,,,0,19,19,19,,,,,,,,,,,,,,,,,,,,,,,,,,,,,,,,,,,,,,,,,,,,,,,,,,,,,,,,,,,,,,,,,,,,,1,0.8786281000011513,524.9520031000011,None,ScrollDown,정답입니다,524.9520031000011,None,524.9520031000011,None,524.9520031000011,None,524.9520031000011,None,525.7033530999997,None,525.7033530999997,526.2186462999998,,,,,,,,,,,,,,,,212,2022-05-06_15h43.47.078,FishGame,2022.1.1,59.9701948131236,
,21,넌 시시해,4,Green,A,2.666666666666667,2.966666666666667,ScrollDown,ScrollUp,Green.png,4,Negative,Incongruent,,,,,0,0,0,0,,,,,,,,,,,,,,,,,,,,,,,,,0,20,20,20,,,,,,,,,,,,,,,,,,,,,,,,,,,,,,,,,,,,,,,,,,,,,,,,,,,,,,,,,,,,,,,,,,,,,1.0277777810891469,0.8827810000002501,526.8658991000011,None,ScrollDown,정답입니다,526.8658991000011,None,526.8658991000011,None,526.8658991000011,None,526.8658991000011,None,527.624261500001,None,527.624261500001,528.1349308999997,,,,,,,,,,,,,,,,212,2022-05-06_15h43.47.078,FishGame,2022.1.1,59.9701948131236,
,22,나를 데려가줘,6,Orange,B,0,0,ScrollDown,ScrollUp,Orange.png,4,NonTarget,NonTarget,,,,,0,0,0,0,,,,,,,,,,,,,,,,,,,,,,,,,0,21,21,21,,,,,,,,,,,,,,,,,,,,,,,,,,,,,,,,,,,,,,,,,,,,,,,,,,,,,,,,,,,,,,,,,,,,,2,0.9622674000002007,528.7909123999998,None,ScrollUp,오답입니다,528.7909123999998,None,528.7909123999998,None,528.7909123999998,None,528.7909123999998,None,529.6201215000001,None,529.6201215000001,530.1346661000007,,,,,,,,,,,,,,,,212,2022-05-06_15h43.47.078,FishGame,2022.1.1,59.9701948131236,
,23,넌 무정해,5,Green,A,2.5,2.2,ScrollDown,ScrollUp,Green.png,4,Negative,Incongruent,,,,,0,0,0,0,,,,,,,,,,,,,,,,,,,,,,,,,0,22,22,22,,,,,,,,,,,,,,,,,,,,,,,,,,,,,,,,,,,,,,,,,,,,,,,,,,,,,,,,,,,,,,,,,,,,,1.2469135870536168,0.9700424000002386,530.7813794000012,None,ScrollDown,정답입니다,530.7813794000012,None,530.7813794000012,None,530.7813794000012,None,530.7813794000012,None,531.6282339000009,None,531.6282339000009,532.134463800001,,,,,,,,,,,,,,,,212,2022-05-06_15h43.47.078,FishGame,2022.1.1,59.9701948131236,
,24,넌 긍정적이야,1,Orange,B,6.041666666666667,6.066666666666666,ScrollUp,ScrollDown,Orange.png,4,Positive,Incongruent,,,,,0,0,0,0,,,,,,,,,,,,,,,,,,,,,,,,,0,23,23,23,,,,,,,,,,,,,,,,,,,,,,,,,,,,,,,,,,,,,,,,,,,,,,,,,,,,,,,,,,,,,,,,,,,,,1.9722222189108531,1.0153196000010212,532.8073399000004,None,ScrollUp,정답입니다,532.8073399000004,None,532.8073399000004,None,532.8073399000004,None,532.8073399000004,None,533.6725704,None,533.6725704,534.1844082000007,,,,,,,,,,,,,,,,212,2022-05-06_15h43.47.078,FishGame,2022.1.1,59.9701948131236,
,25,나를 보내줘,6,Green,A,0,0,ScrollUp,ScrollDown,Green.png,4,NonTarget,NonTarget,,,,,0,0,0,0,,,,,,,,,,,,,,,,,,,,,,,,,0,24,24,24,,,,,,,,,,,,,,,,,,,,,,,,,,,,,,,,,,,,,,,,,,,,,,,,,,,,,,,,,,,,,,,,,,,,,1.9861110945542653,1.2006918000006408,534.8348609000004,None,ScrollUp,정답입니다,534.8348609000004,None,534.8348609000004,None,534.8348609000004,None,534.8348609000004,None,535.9057845999996,None,535.9057845999996,536.4172509,,,,,,,,,,,,,,,,212,2022-05-06_15h43.47.078,FishGame,2022.1.1,59.9701948131236,
,26,넌 시기심이 많아,5,Orange,B,2.458333333333333,2.233333333333333,ScrollUp,ScrollDown,Orange.png,4,Negative,Congruent,,,,,0,0,0,0,,,,,,,,,,,,,,,,,,,,,,,,,0,25,25,25,,,,,,,,,,,,,,,,,,,,,,,,,,,,,,,,,,,,,,,,,,,,,,,,,,,,,,,,,,,,,,,,,,,,,1.9012345770994823,1.1019414999991568,537.0795092000008,None,ScrollUp,정답입니다,537.0795092000008,None,537.0795092000008,None,537.0795092000008,None,537.0795092000008,None,538.0416182999998,None,538.0416182999998,538.5503143000005,,,,,,,,,,,,,,,,212,2022-05-06_15h43.47.078,FishGame,2022.1.1,59.9701948131236,
,27,넌 탁월해,2,Green,A,5.708333333333334,4.5,ScrollDown,ScrollUp,Green.png,4,Positive,Congruent,,,,,0,0,0,0,,,,,,,,,,,,,,,,,,,,,,,,,0,26,26,26,,,,,,,,,,,,,,,,,,,,,,,,,,,,,,,,,,,,,,,,,,,,,,,,,,,,,,,,,,,,,,,,,,,,,1.1666666616996129,1.0270290000007662,539.2073856000006,None,ScrollDown,정답입니다,539.2073856000006,None,539.2073856000006,None,539.2073856000006,None,539.2073856000006,None,540.0971384000004,None,540.0971384000004,540.5999871000004,,,,,,,,,,,,,,,,212,2022-05-06_15h43.47.078,FishGame,2022.1.1,59.9701948131236,
,28,나를 데려가줘,6,Orange,B,0,0,ScrollDown,ScrollUp,Orange.png,4,NonTarget,NonTarget,,,,,0,0,0,0,,,,,,,,,,,,,,,,,,,,,,,,,0,27,27,27,,,,,,,,,,,,,,,,,,,,,,,,,,,,,,,,,,,,,,,,,,,,,,,,,,,,,,,,,,,,,,,,,,,,,1.2222222139437993,1.1621391999997286,541.2611228000005,None,ScrollDown,정답입니다,541.2611228000005,None,541.2611228000005,None,541.2611228000005,None,541.2611228000005,None,542.2865192000008,None,542.2865192000008,542.7997805000014,,,,,,,,,,,,,,,,212,2022-05-06_15h43.47.078,FishGame,2022.1.1,59.9701948131236,
,29,넌 조용해,3,Orange,B,4.333333333333333,4.166666666666667,ScrollUp,ScrollDown,Orange.png,4,Neutral,Neutral,,,,,0,0,0,0,,,,,,,,,,,,,,,,,,,,,,,,,0,28,28,28,,,,,,,,,,,,,,,,,,,,,,,,,,,,,,,,,,,,,,,,,,,,,,,,,,,,,,,,,,,,,,,,,,,,,1.7453703681627908,0.8877348999994865,543.4589888999999,None,ScrollUp,정답입니다,543.4589888999999,None,543.4589888999999,None,543.4589888999999,None,543.4589888999999,None,544.2116426000011,None,544.2116426000011,544.7161329999999,,,,,,,,,,,,,,,,212,2022-05-06_15h43.47.078,FishGame,2022.1.1,59.9701948131236,
,30,넌 다정해,1,Green,A,5.833333333333334,5.7,ScrollDown,ScrollUp,Green.png,4,Positive,Congruent,,,,,0,0,0,0,,,,,,,,,,,,,,,,,,,,,,,,,0,29,29,29,,,,,,,,,,,,,,,,,,,,,,,,,,,,,,,,,,,,,,,,,,,,,,,,,,,,,,,,,,,,,,,,,,,,,1.1188271542390187,0.9659612000014022,545.3723315000007,None,ScrollDown,정답입니다,545.3723315000007,None,545.3723315000007,None,545.3723315000007,None,545.3723315000007,None,546.2065717000005,None,546.2065717000005,546.7158667000003,,,,,,,,,,,,,,,,212,2022-05-06_15h43.47.078,FishGame,2022.1.1,59.9701948131236,
,31,넌 능력있어,2,Orange,B,6.166666666666666,4.6,ScrollUp,ScrollDown,Orange.png,4,Positive,Incongruent,,,,,0,0,0,0,,,,,,,,,,,,,,,,,,,,,,,,,0,30,30,30,,,,,,,,,,,,,,,,,,,,,,,,,,,,,,,,,,,,,,,,,,,,,,,,,,,,,,,,,,,,,,,,,,,,,1.9984568059444427,1.1498699000003398,547.3678737999999,None,ScrollUp,정답입니다,547.3678737999999,None,547.3678737999999,None,547.3678737999999,None,547.3678737999999,None,548.3877126000007,None,548.3877126000007,548.8990448000004,,,,,,,,,,,,,,,,212,2022-05-06_15h43.47.078,FishGame,2022.1.1,59.9701948131236,
,32,넌 불쾌해,5,Green,A,2.125,1.933333333333333,ScrollDown,ScrollUp,Green.png,4,Negative,Incongruent,,,,,0,0,0,0,,,,,,,,,,,,,,,,,,,,,,,,,0,31,31,31,,,,,,,,,,,,,,,,,,,,,,,,,,,,,,,,,,,,,,,,,,,,,,,,,,,,,,,,,,,,,,,,,,,,,1.1018518507480621,0.884817899999689,549.5464711000004,None,ScrollDown,정답입니다,549.5464711000004,None,549.5464711000004,None,549.5464711000004,None,549.5464711000004,None,550.3064981000007,None,550.3064981000007,550.8152714000007,,,,,,,,,,,,,,,,212,2022-05-06_15h43.47.078,FishGame,2022.1.1,59.9701948131236,
,33,나를 데려가줘,6,Orange,B,0,0,ScrollDown,ScrollUp,Orange.png,4,NonTarget,NonTarget,,,,,0,0,0,0,,,,,,,,,,,,,,,,,,,,,,,,,0,32,32,32,,,,,,,,,,,,,,,,,,,,,,,,,,,,,,,,,,,,,,,,,,,,,,,,,,,,,,,,,,,,,,,,,,,,,1,0.9613429000000906,551.4726573000007,None,ScrollDown,정답입니다,551.4726573000007,None,551.4726573000007,None,551.4726573000007,None,551.4726573000007,None,552.2988481000011,None,552.2988481000011,552.7983898000002,,,,,,,,,,,,,,,,212,2022-05-06_15h43.47.078,FishGame,2022.1.1,59.9701948131236,
,34,넌 유순해,3,Green,A,4.458333333333333,5,ScrollDown,ScrollUp,Green.png,4,Neutral,Neutral,,,,,0,0,0,0,,,,,,,,,,,,,,,,,,,,,,,,,0,33,33,33,,,,,,,,,,,,,,,,,,,,,,,,,,,,,,,,,,,,,,,,,,,,,,,,,,,,,,,,,,,,,,,,,,,,,1.276234577099482,0.8930313999990176,553.4514314000007,None,ScrollDown,정답입니다,553.4514314000007,None,553.4514314000007,None,553.4514314000007,None,553.4514314000007,None,554.2122835000009,None,554.2122835000009,554.7147765000009,,,,,,,,,,,,,,,,212,2022-05-06_15h43.47.078,FishGame,2022.1.1,59.9701948131236,
,35,넌 근심스러워,4,Orange,B,2.708333333333333,3.133333333333333,ScrollUp,ScrollDown,Orange.png,4,Negative,Congruent,,,,,0,0,0,0,,,,,,,,,,,,,,,,,,,,,,,,,0,34,34,34,,,,,,,,,,,,,,,,,,,,,,,,,,,,,,,,,,,,,,,,,,,,,,,,,,,,,,,,,,,,,,,,,,,,,1.9675925771395366,1.0003520999998727,555.3770120999998,None,ScrollUp,정답입니다,555.3770120999998,None,555.3770120999998,None,555.3770120999998,None,555.3770120999998,None,556.2441336000011,None,556.2441336000011,556.7479091000005,,,,,,,,,,,,,,,,212,2022-05-06_15h43.47.078,FishGame,2022.1.1,59.9701948131236,
,36,넌 세련되었어,2,Green,A,5.5,4.6,ScrollDown,ScrollUp,Green.png,4,Positive,Congruent,,,,,0,0,0,0,,,,,,,,,,,,,,,,,,,,,,,,,0,35,35,35,,,,,,,,,,,,,,,,,,,,,,,,,,,,,,,,,,,,,,,,,,,,,,,,,,,,,,,,,,,,,,,,,,,,,1.162037044763565,0.8938844999993307,557.4124085000003,None,ScrollDown,정답입니다,557.4124085000003,None,557.4124085000003,None,557.4124085000003,None,557.4124085000003,None,558.164613500001,None,558.164613500001,558.6644585000013,,,,,,,,,,,,,,,,212,2022-05-06_15h43.47.078,FishGame,2022.1.1,59.9701948131236,
,37,나를 보내줘,6,Green,A,0,0,ScrollUp,ScrollDown,Green.png,4,NonTarget,NonTarget,,,,,0,0,0,0,,,,,,,,,,,,,,,,,,,,,,,,,0,36,36,36,,,,,,,,,,,,,,,,,,,,,,,,,,,,,,,,,,,,,,,,,,,,,,,,,,,,,,,,,,,,,,,,,,,,,2,1.1605854999997973,559.3125529999998,None,ScrollUp,정답입니다,559.3125529999998,None,559.3125529999998,None,559.3125529999998,None,559.3125529999998,None,560.3475722000003,None,560.3475722000003,560.8473644000005,,,,,,,,,,,,,,,,212,2022-05-06_15h43.47.078,FishGame,2022.1.1,59.9701948131236,
,38,넌 확고해,3,Orange,B,4.708333333333334,4.566666666666666,ScrollUp,ScrollDown,Orange.png,4,Neutral,Neutral,,,,,0,0,0,0,,,,,,,,,,,,,,,,,,,,,,,,,0,37,37,37,,,,,,,,,,,,,,,,,,,,,,,,,,,,,,,,,,,,,,,,,,,,,,,,,,,,,,,,,,,,,,,,,,,,,2,1.1901340999993408,561.5095978000008,None,ScrollUp,정답입니다,561.5095978000008,None,561.5095978000008,None,561.5095978000008,None,561.5095978000008,None,562.5637771000002,None,562.5637771000002,563.0637817000006,,,,,,,,,,,,,,,,212,2022-05-06_15h43.47.078,FishGame,2022.1.1,59.9701948131236,
,39,넌 이해심이 많아,1,Orange,B,6.041666666666668,5.533333333333333,ScrollUp,ScrollDown,Orange.png,4,Positive,Incongruent,,,,,0,0,0,0,,,,,,,,,,,,,,,,,,,,,,,,,0,38,38,38,,,,,,,,,,,,,,,,,,,,,,,,,,,,,,,,,,,,,,,,,,,,,,,,,,,,,,,,,,,,,,,,,,,,,1.9583333432674408,0.9010513000011997,563.7210164999997,None,ScrollUp,정답입니다,563.7210164999997,None,563.7210164999997,None,563.7210164999997,None,563.7210164999997,None,564.4881827999998,None,564.4881827999998,564.9969398000012,,,,,,,,,,,,,,,,212,2022-05-06_15h43.47.078,FishGame,2022.1.1,59.9701948131236,
,40,나를 보내줘,6,Green,A,0,0,ScrollUp,ScrollDown,Green.png,4,NonTarget,NonTarget,,,,,0,0,0,0,,,,,,,,,,,,,,,,,,,,,,,,,0,39,39,39,,,,,,,,,,,,,,,,,,,,,,,,,,,,,,,,,,,,,,,,,,,,,,,,,,,,,,,,,,,,,,,,,,,,,2,1.0234820999994554,565.6454172000012,None,ScrollUp,정답입니다,565.6454172000012,None,565.6454172000012,None,565.6454172000012,None,565.6454172000012,None,566.5468657000001,None,566.5468657000001,567.0466444000012,,,,,,,,,,,,,,,,212,2022-05-06_15h43.47.078,FishGame,2022.1.1,59.9701948131236,
,41,넌 거칠어,4,Green,A,2.625,3.033333333333333,ScrollDown,ScrollUp,Green.png,4,Negative,Incongruent,,,,,0,0,0,0,,,,,,,,,,,,,,,,,,,,,,,,,0,40,40,40,,,,,,,,,,,,,,,,,,,,,,,,,,,,,,,,,,,,,,,,,,,,,,,,,,,,,,,,,,,,,,,,,,,,,1.1496913582086563,1.0025748000007297,567.7030357000003,None,ScrollDown,정답입니다,567.7030357000003,None,567.7030357000003,None,567.7030357000003,None,567.7030357000003,None,568.5728611000013,None,568.5728611000013,569.0796946999999,,,,,,,,,,,,,,,,212,2022-05-06_15h43.47.078,FishGame,2022.1.1,59.9701948131236,
,42,넌 변덕맞아,5,Orange,B,2.75,2.166666666666667,ScrollUp,ScrollDown,Orange.png,4,Negative,Congruent,,,,,0,0,0,0,,,,,,,,,,,,,,,,,,,,,,,,,0,41,41,41,,,,,,,,,,,,,,,,,,,,,,,,,,,,,,,,,,,,,,,,,,,,,,,,,,,,,,,,,,,,,,,,,,,,,2,0.9403029999994033,569.7428301,None,ScrollUp,정답입니다,569.7428301,None,569.7428301,None,569.7428301,None,569.7428301,None,570.5461938000008,None,570.5461938000008,571.0459912000006,,,,,,,,,,,,,,,,212,2022-05-06_15h43.47.078,FishGame,2022.1.1,59.9701948131236,
,43,나를 데려가줘,6,Orange,B,0,0,ScrollDown,ScrollUp,Orange.png,4,NonTarget,NonTarget,,,,,0,0,0,0,,,,,,,,,,,,,,,,,,,,,,,,,0,42,42,42,,,,,,,,,,,,,,,,,,,,,,,,,,,,,,,,,,,,,,,,,,,,,,,,,,,,,,,,,,,,,,,,,,,,,1.1651234477758408,1.1950658000005205,571.7013363000005,None,ScrollDown,정답입니다,571.7013363000005,None,571.7013363000005,None,571.7013363000005,None,571.7013363000005,None,572.7634546999998,None,572.7634546999998,573.2791164999999,,,,,,,,,,,,,,,,212,2022-05-06_15h43.47.078,FishGame,2022.1.1,59.9701948131236,
,44,넌 외로워,4,Orange,B,2.833333333333333,3.3,ScrollUp,ScrollDown,Orange.png,4,Negative,Congruent,,,,,0,0,0,0,,,,,,,,,,,,,,,,,,,,,,,,,0,43,43,43,,,,,,,,,,,,,,,,,,,,,,,,,,,,,,,,,,,,,,,,,,,,,,,,,,,,,,,,,,,,,,,,,,,,,1.7530864129463832,1.052526299999954,573.9397492000007,None,ScrollUp,정답입니다,573.9397492000007,None,573.9397492000007,None,573.9397492000007,None,573.9397492000007,None,574.8542460000008,None,574.8542460000008,575.3620690000007,,,,,,,,,,,,,,,,212,2022-05-06_15h43.47.078,FishGame,2022.1.1,59.9701948131236,
,1,넌 불평스러워,5,Green,A,2.25,2.066666666666667,ScrollDown,ScrollUp,Green.png,5,Negative,Incongruent,,,,,0,0,0,0,,,,,,,,,,,,,,,,,,,,,,,,,,,,,0,0,0,0,,,,,,,,,,,,,,,,,,,,,,,,606.8749547000007,608.3745624000003,608.4079769,609.3578914000009,609.4078104,610.3576816000004,610.3576816000004,None,,,,,,,,,,,,,,,,,,,,,,,,,,,,,,,,,,1.162037044763565,1.096666000001278,611.6138877000012,None,ScrollDown,정답입니다,611.6138877000012,None,611.6138877000012,None,611.6138877000012,None,611.6138877000012,None,612.5339221000013,None,612.5339221000013,613.0406144000008,575.8621000000003,None,575.8621000000003,None,-0.062037036,-0.14074074,1,0,0,0.016155819999767118,None,605.874871,None,,,212,2022-05-06_15h43.47.078,FishGame,2022.1.1,59.9701948131236,
,2,나를 보내줘,6,Green,A,0,0,ScrollUp,ScrollDown,Green.png,5,NonTarget,NonTarget,,,,,0,0,0,0,,,,,,,,,,,,,,,,,,,,,,,,,,,,,0,1,1,1,,,,,,,,,,,,,,,,,,,,,,,,,,,,,,,,,,,,,,,,,,,,,,,,,,,,,,,,,,,,,,,,,2,0.9264634999999544,613.6875505000007,None,ScrollUp,정답입니다,613.6875505000007,None,613.6875505000007,None,613.6875505000007,None,613.6875505000007,None,614.490697700001,None,614.490697700001,614.9902777999996,,,,,,,,,,,,,,,,212,2022-05-06_15h43.47.078,FishGame,2022.1.1,59.9701948131236,
,3,넌 다재다능해,2,Orange,B,6.208333333333333,4.5,ScrollUp,ScrollDown,Orange.png,5,Positive,Incongruent,,,,,0,0,0,0,,,,,,,,,,,,,,,,,,,,,,,,,,,,,0,2,2,2,,,,,,,,,,,,,,,,,,,,,,,,,,,,,,,,,,,,,,,,,,,,,,,,,,,,,,,,,,,,,,,,,2,0.927748199999769,615.647340200001,None,ScrollUp,정답입니다,615.647340200001,None,615.647340200001,None,615.647340200001,None,615.647340200001,None,616.4405256000009,None,616.4405256000009,616.9401680999999,,,,,,,,,,,,,,,,212,2022-05-06_15h43.47.078,FishGame,2022.1.1,59.9701948131236,
,4,넌 과감해,3,Green,A,4.833333333333334,4.6,ScrollDown,ScrollUp,Green.png,5,Neutral,Neutral,,,,,0,0,0,0,,,,,,,,,,,,,,,,,,,,,,,,,,,,,0,3,3,3,,,,,,,,,,,,,,,,,,,,,,,,,,,,,,,,,,,,,,,,,,,,,,,,,,,,,,,,,,,,,,,,,1.0324074228604634,0.9465866000009555,617.5874151999997,None,ScrollDown,정답입니다,617.5874151999997,None,617.5874151999997,None,617.5874151999997,None,617.5874151999997,None,618.4112053999997,None,618.4112053999997,618.9233378000008,,,,,,,,,,,,,,,,212,2022-05-06_15h43.47.078,FishGame,2022.1.1,59.9701948131236,
,5,넌 고분고분해,3,Orange,B,3.75,4.033333333333333,ScrollUp,ScrollDown,Orange.png,5,Neutral,Neutral,,,,,0,0,0,0,,,,,,,,,,,,,,,,,,,,,,,,,,,,,0,4,4,4,,,,,,,,,,,,,,,,,,,,,,,,,,,,,,,,,,,,,,,,,,,,,,,,,,,,,,,,,,,,,,,,,1.9938271641731262,0.8802510000004986,619.587685800001,None,ScrollUp,정답입니다,619.587685800001,None,619.587685800001,None,619.587685800001,None,619.587685800001,None,620.3262320000013,None,620.3262320000013,620.8396247000001,,,,,,,,,,,,,,,,212,2022-05-06_15h43.47.078,FishGame,2022.1.1,59.9701948131236,
,6,나를 보내줘,6,Green,A,0,0,ScrollUp,ScrollDown,Green.png,5,NonTarget,NonTarget,,,,,0,0,0,0,,,,,,,,,,,,,,,,,,,,,,,,,,,,,0,5,5,5,,,,,,,,,,,,,,,,,,,,,,,,,,,,,,,,,,,,,,,,,,,,,,,,,,,,,,,,,,,,,,,,,2,0.9408894999996846,621.4837796000011,None,ScrollUp,정답입니다,621.4837796000011,None,621.4837796000011,None,621.4837796000011,None,621.4837796000011,None,622.301518100001,None,622.301518100001,622.8060314000013,,,,,,,,,,,,,,,,212,2022-05-06_15h43.47.078,FishGame,2022.1.1,59.9701948131236,
,7,넌 잘 잊어,4,Green,A,3,3.7,ScrollDown,ScrollUp,Green.png,5,Negative,Incongruent,,,,,0,0,0,0,,,,,,,,,,,,,,,,,,,,,,,,,,,,,0,6,6,6,,,,,,,,,,,,,,,,,,,,,,,,,,,,,,,,,,,,,,,,,,,,,,,,,,,,,,,,,,,,,,,,,1.126543199022611,0.9839778999994451,623.4617679000003,None,ScrollDown,정답입니다,623.4617679000003,None,623.4617679000003,None,623.4617679000003,None,623.4617679000003,None,624.3169084000001,None,624.3169084000001,624.8223438000005,,,,,,,,,,,,,,,,212,2022-05-06_15h43.47.078,FishGame,2022.1.1,59.9701948131236,
,8,넌 탐구심이없어,4,Orange,B,2.833333333333333,3.066666666666667,ScrollUp,ScrollDown,Orange.png,5,Negative,Congruent,,,,,0,0,0,0,,,,,,,,,,,,,,,,,,,,,,,,,,,,,0,7,7,7,,,,,,,,,,,,,,,,,,,,,,,,,,,,,,,,,,,,,,,,,,,,,,,,,,,,,,,,,,,,,,,,,1.9814815024534862,0.96708530000069,625.4863525000001,None,ScrollUp,정답입니다,625.4863525000001,None,625.4863525000001,None,625.4863525000001,None,625.4863525000001,None,626.3159995000005,None,626.3159995000005,626.8220385000004,,,,,,,,,,,,,,,,212,2022-05-06_15h43.47.078,FishGame,2022.1.1,59.9701948131236,
,9,나를 데려가줘,6,Orange,B,0,0,ScrollDown,ScrollUp,Orange.png,5,NonTarget,NonTarget,,,,,0,0,0,0,,,,,,,,,,,,,,,,,,,,,,,,,,,,,0,8,8,8,,,,,,,,,,,,,,,,,,,,,,,,,,,,,,,,,,,,,,,,,,,,,,,,,,,,,,,,,,,,,,,,,1.28703702489535,1.0489899000003788,627.4744050000008,None,ScrollDown,정답입니다,627.4744050000008,None,627.4744050000008,None,627.4744050000008,None,627.4744050000008,None,628.3948768000009,None,628.3948768000009,628.9051653000006,,,,,,,,,,,,,,,,212,2022-05-06_15h43.47.078,FishGame,2022.1.1,59.9701948131236,
,10,넌 참되어,2,Green,A,6.041666666666664,4.733333333333333,ScrollDown,ScrollUp,Green.png,5,Positive,Congruent,,,,,0,0,0,0,,,,,,,,,,,,,,,,,,,,,,,,,,,,,0,9,9,9,,,,,,,,,,,,,,,,,,,,,,,,,,,,,,,,,,,,,,,,,,,,,,,,,,,,,,,,,,,,,,,,,1.1435185273488362,1.0239183999983652,629.5582988000006,None,ScrollDown,정답입니다,629.5582988000006,None,629.5582988000006,None,629.5582988000006,None,629.5582988000006,None,630.4549007000005,None,630.4549007000005,630.9549813000012,,,,,,,,,,,,,,,,212,2022-05-06_15h43.47.078,FishGame,2022.1.1,59.9701948131236,
,11,넌 생기있어,1,Orange,B,5.875,5.633333333333334,ScrollUp,ScrollDown,Orange.png,5,Positive,Incongruent,,,,,0,0,0,0,,,,,,,,,,,,,,,,,,,,,,,,,,,,,0,10,10,10,,,,,,,,,,,,,,,,,,,,,,,,,,,,,,,,,,,,,,,,,,,,,,,,,,,,,,,,,,,,,,,,,1.9367283980051677,0.9393524999995861,631.6165765000005,None,ScrollUp,정답입니다,631.6165765000005,None,631.6165765000005,None,631.6165765000005,None,631.6165765000005,None,632.4214998000007,None,632.4214998000007,632.9213004000012,,,,,,,,,,,,,,,,212,2022-05-06_15h43.47.078,FishGame,2022.1.1,59.9701948131236,
,12,넌 비사교적이야,4,Orange,B,2.875,2.9,ScrollUp,ScrollDown,Orange.png,5,Negative,Congruent,,,,,0,0,0,0,,,,,,,,,,,,,,,,,,,,,,,,,,,,,0,11,11,11,,,,,,,,,,,,,,,,,,,,,,,,,,,,,,,,,,,,,,,,,,,,,,,,,,,,,,,,,,,,,,,,,1.8503086417913437,0.9009893000002194,633.5733974000013,None,ScrollUp,정답입니다,633.5733974000013,None,633.5733974000013,None,633.5733974000013,None,633.5733974000013,None,634.3449784000004,None,634.3449784000004,634.8545266000001,,,,,,,,,,,,,,,,212,2022-05-06_15h43.47.078,FishGame,2022.1.1,59.9701948131236,
,13,나를 데려가줘,6,Orange,B,0,0,ScrollDown,ScrollUp,Orange.png,5,NonTarget,NonTarget,,,,,0,0,0,0,,,,,,,,,,,,,,,,,,,,,,,,,,,,,0,12,12,12,,,,,,,,,,,,,,,,,,,,,,,,,,,,,,,,,,,,,,,,,,,,,,,,,,,,,,,,,,,,,,,,,1.0277777810891469,1.1936698999998043,635.5115655000009,None,ScrollDown,정답입니다,635.5115655000009,None,635.5115655000009,None,635.5115655000009,None,635.5115655000009,None,636.5710916000007,None,636.5710916000007,637.070744300001,,,,,,,,,,,,,,,,212,2022-05-06_15h43.47.078,FishGame,2022.1.1,59.9701948131236,
,14,넌 고독해,4,Green,A,2.916666666666667,3.233333333333333,ScrollDown,ScrollUp,Green.png,5,Negative,Incongruent,,,,,0,0,0,0,,,,,,,,,,,,,,,,,,,,,,,,,,,,,0,13,13,13,,,,,,,,,,,,,,,,,,,,,,,,,,,,,,,,,,,,,,,,,,,,,,,,,,,,,,,,,,,,,,,,,1.121913582086563,0.9425096000013582,637.7152225000009,None,ScrollDown,정답입니다,637.7152225000009,None,637.7152225000009,None,637.7152225000009,None,637.7152225000009,None,638.5376022,None,638.5376022,639.0372227999997,,,,,,,,,,,,,,,,212,2022-05-06_15h43.47.078,FishGame,2022.1.1,59.9701948131236,
,15,넌 신경질적이야,5,Orange,B,2.375,2.233333333333333,ScrollUp,ScrollDown,Orange.png,5,Negative,Congruent,,,,,0,0,0,0,,,,,,,,,,,,,,,,,,,,,,,,,,,,,0,14,14,14,,,,,,,,,,,,,,,,,,,,,,,,,,,,,,,,,,,,,,,,,,,,,,,,,,,,,,,,,,,,,,,,,1.8827160596847534,0.9269378999997571,639.6977296000005,None,ScrollUp,정답입니다,639.6977296000005,None,639.6977296000005,None,639.6977296000005,None,639.6977296000005,None,640.4869944000002,None,640.4869944000002,640.9869128000009,,,,,,,,,,,,,,,,212,2022-05-06_15h43.47.078,FishGame,2022.1.1,59.9701948131236,
,16,넌 똑똑해,2,Orange,B,5.666666666666667,3.966666666666667,ScrollUp,ScrollDown,Orange.png,5,Positive,Incongruent,,,,,0,0,0,0,,,,,,,,,,,,,,,,,,,,,,,,,,,,,0,15,15,15,,,,,,,,,,,,,,,,,,,,,,,,,,,,,,,,,,,,,,,,,,,,,,,,,,,,,,,,,,,,,,,,,2,1.1975910000001022,641.6473041999998,None,ScrollUp,정답입니다,641.6473041999998,None,641.6473041999998,None,641.6473041999998,None,641.6473041999998,None,642.7078797000013,None,642.7078797000013,643.2200357000002,,,,,,,,,,,,,,,,212,2022-05-06_15h43.47.078,FishGame,2022.1.1,59.9701948131236,
,17,나를 보내줘,6,Green,A,0,0,ScrollUp,ScrollDown,Green.png,5,NonTarget,NonTarget,,,,,0,0,0,0,,,,,,,,,,,,,,,,,,,,,,,,,,,,,0,16,16,16,,,,,,,,,,,,,,,,,,,,,,,,,,,,,,,,,,,,,,,,,,,,,,,,,,,,,,,,,,,,,,,,,1.9706790049870808,0.821929400000954,643.8659850000004,None,ScrollUp,정답입니다,643.8659850000004,None,643.8659850000004,None,643.8659850000004,None,643.8659850000004,None,644.5699932000007,None,644.5699932000007,645.0698413000009,,,,,,,,,,,,,,,,212,2022-05-06_15h43.47.078,FishGame,2022.1.1,59.9701948131236,
,18,넌 협조적이야,1,Green,A,5.625,5.666666666666667,ScrollDown,ScrollUp,Green.png,5,Positive,Congruent,,,,,0,0,0,0,,,,,,,,,,,,,,,,,,,,,,,,,,,,,0,17,17,17,,,,,,,,,,,,,,,,,,,,,,,,,,,,,,,,,,,,,,,,,,,,,,,,,,,,,,,,,,,,,,,,,1.0879629751046498,0.8764866000001348,645.7202178999996,None,ScrollDown,정답입니다,645.7202178999996,None,645.7202178999996,None,645.7202178999996,None,645.7202178999996,None,646.4697166000005,None,646.4697166000005,646.9695673000006,,,,,,,,,,,,,,,,212,2022-05-06_15h43.47.078,FishGame,2022.1.1,59.9701948131236,
,19,나를 데려가줘,6,Orange,B,0,0,ScrollDown,ScrollUp,Orange.png,5,NonTarget,NonTarget,,,,,0,0,0,0,,,,,,,,,,,,,,,,,,,,,,,,,,,,,0,18,18,18,,,,,,,,,,,,,,,,,,,,,,,,,,,,,,,,,,,,,,,,,,,,,,,,,,,,,,,,,,,,,,,,,1.0478395124276478,0.9861089999994874,647.6198387000004,None,ScrollDown,정답입니다,647.6198387000004,None,647.6198387000004,None,647.6198387000004,None,647.6198387000004,None,648.4778266000012,None,648.4778266000012,648.985966100001,,,,,,,,,,,,,,,,212,2022-05-06_15h43.47.078,FishGame,2022.1.1,59.9701948131236,
,20,넌 몰인정해,5,Orange,B,2.541666666666667,2.066666666666667,ScrollUp,ScrollDown,Orange.png,5,Negative,Congruent,,,,,0,0,0,0,,,,,,,,,,,,,,,,,,,,,,,,,,,,,0,19,19,19,,,,,,,,,,,,,,,,,,,,,,,,,,,,,,,,,,,,,,,,,,,,,,,,,,,,,,,,,,,,,,,,,1.6820987711350122,0.9128226000011637,649.6457244000012,None,ScrollUp,정답입니다,649.6457244000012,None,649.6457244000012,None,649.6457244000012,None,649.6457244000012,None,650.4220593999999,None,650.4220593999999,650.9355742000007,,,,,,,,,,,,,,,,212,2022-05-06_15h43.47.078,FishGame,2022.1.1,59.9701948131236,
,21,나를 데려가줘,6,Orange,B,0,0,ScrollDown,ScrollUp,Orange.png,5,NonTarget,NonTarget,,,,,0,0,0,0,,,,,,,,,,,,,,,,,,,,,,,,,,,,,0,20,20,20,,,,,,,,,,,,,,,,,,,,,,,,,,,,,,,,,,,,,,,,,,,,,,,,,,,,,,,,,,,,,,,,,1.2237654278675716,0.9773707999993348,651.5925155000004,None,ScrollDown,정답입니다,651.5925155000004,None,651.5925155000004,None,651.5925155000004,None,651.5925155000004,None,652.4320423000008,None,652.4320423000008,652.9353578999999,,,,,,,,,,,,,,,,212,2022-05-06_15h43.47.078,FishGame,2022.1.1,59.9701948131236,
,22,넌 순진해,3,Orange,B,4.125,4.166666666666667,ScrollUp,ScrollDown,Orange.png,5,Neutral,Neutral,,,,,0,0,0,0,,,,,,,,,,,,,,,,,,,,,,,,,,,,,0,21,21,21,,,,,,,,,,,,,,,,,,,,,,,,,,,,,,,,,,,,,,,,,,,,,,,,,,,,,,,,,,,,,,,,,1.8719135870536168,1.509655500000008,653.5879526999997,None,ScrollUp,정답입니다,653.5879526999997,None,653.5879526999997,None,653.5879526999997,None,653.5879526999997,None,654.9687374000005,None,654.9687374000005,655.4684794000004,,,,,,,,,,,,,,,,212,2022-05-06_15h43.47.078,FishGame,2022.1.1,59.9701948131236,
,23,넌 신뢰할만해,1,Green,A,6.625,5.533333333333333,ScrollDown,ScrollUp,Green.png,5,Positive,Congruent,,,,,0,0,0,0,,,,,,,,,,,,,,,,,,,,,,,,,,,,,0,22,22,22,,,,,,,,,,,,,,,,,,,,,,,,,,,,,,,,,,,,,,,,,,,,,,,,,,,,,,,,,,,,,,,,,1.2716049353281655,0.9444869999988441,656.1347344000005,None,ScrollDown,정답입니다,656.1347344000005,None,656.1347344000005,None,656.1347344000005,None,656.1347344000005,None,656.9351239999996,None,656.9351239999996,657.4349046999996,,,,,,,,,,,,,,,,212,2022-05-06_15h43.47.078,FishGame,2022.1.1,59.9701948131236,
,24,나를 보내줘,6,Green,A,0,0,ScrollUp,ScrollDown,Green.png,5,NonTarget,NonTarget,,,,,0,0,0,0,,,,,,,,,,,,,,,,,,,,,,,,,,,,,0,23,23,23,,,,,,,,,,,,,,,,,,,,,,,,,,,,,,,,,,,,,,,,,,,,,,,,,,,,,,,,,,,,,,,,,1.7746913582086563,0.9837745999993786,658.0856905,None,ScrollUp,정답입니다,658.0856905,None,658.0856905,None,658.0856905,None,658.0856905,None,658.9415984000007,None,658.9415984000007,659.4511782999998,,,,,,,,,,,,,,,,212,2022-05-06_15h43.47.078,FishGame,2022.1.1,59.9701948131236,
