name,TrialNum,Word,WordCategory,FishType,WordList,WordValence,WordReputation,CorrectResp,IncorrectResp,FishTypeFile,Round,WordType,Condition,LoopforOrange.thisRepN,LoopforOrange.thisTrialN,LoopforOrange.thisN,LoopforOrange.thisIndex,OrangeInstLoop.thisRepN,OrangeInstLoop.thisTrialN,OrangeInstLoop.thisN,OrangeInstLoop.thisIndex,OrangePrac.thisRepN,OrangePrac.thisTrialN,OrangePrac.thisN,OrangePrac.thisIndex,temp1.thisRepN,temp1.thisTrialN,temp1.thisN,temp1.thisIndex,OrangeRound1.thisRepN,OrangeRound1.thisTrialN,OrangeRound1.thisN,OrangeRound1.thisIndex,OrangeRound2.thisRepN,OrangeRound2.thisTrialN,OrangeRound2.thisN,OrangeRound2.thisIndex,OrangeRound3.thisRepN,OrangeRound3.thisTrialN,OrangeRound3.thisN,OrangeRound3.thisIndex,OrangeRound4.thisRepN,OrangeRound4.thisTrialN,OrangeRound4.thisN,OrangeRound4.thisIndex,OrangeRound5.thisRepN,OrangeRound5.thisTrialN,OrangeRound5.thisN,OrangeRound5.thisIndex,LoopForGreen.thisRepN,LoopForGreen.thisTrialN,LoopForGreen.thisN,LoopForGreen.thisIndex,text_2.started,text_2.stopped,text_3.started,text_3.stopped,key_resp.keys,key_resp.rt,key_resp.started,key_resp.stopped,PassI_2.started,PassI_2.stopped,PassInst_2.keys,PassInst_2.rt,PassInst_2.started,PassInst_2.stopped,mouse_2.x,mouse_2.y,mouse_2.leftButton,mouse_2.midButton,mouse_2.rightButton,mouse_2.started,mouse_2.stopped,image.started,image.stopped,text_5.started,text_5.stopped,text_6.started,text_6.stopped,text_7.started,text_7.stopped,text_8.started,text_8.stopped,slider_2.response,slider_2.rt,slider_2.started,slider_2.stopped,Response_2,Feedback_2,BackGround_2.started,BackGround_2.stopped,Fish_2.started,Fish_2.stopped,WordBox_2.started,WordBox_2.stopped,Words_2.started,Words_2.stopped,BackGround_Feedback_2.started,BackGround_Feedback_2.stopped,Feedbacks_2.started,Feedbacks_2.stopped,Continue_or_not.keys,Continue_or_not.rt,Continue_or_not.started,Continue_or_not.stopped,image_3.started,image_3.stopped,mouse_3.x,mouse_3.y,mouse_3.leftButton,mouse_3.midButton,mouse_3.rightButton,mouse_3.started,mouse_3.stopped,startmain.started,startmain.stopped,slider.response,slider.rt,slider.started,slider.stopped,Response,Feedback,BackGround.started,BackGround.stopped,Fish.started,Fish.stopped,WordBox.started,WordBox.stopped,Words.started,Words.stopped,BackGround_Feedback.started,BackGround_Feedback.stopped,Feedbacks.started,Feedbacks.stopped,text.started,text.stopped,break_interval.started,break_interval.stopped,mouse.x,mouse.y,mouse.leftButton,mouse.midButton,mouse.rightButton,mouse.started,mouse.stopped,stratnextround.started,stratnextround.stopped,endgame.started,endgame.stopped,participant,date,expName,psychopyVersion,frameRate,
,,,,,,,,,,,,,,,,,,,,,,,,,,,,,,,,,,,,,,,,,,,,,,,,,,,,,,20.972044900000128,None,20.972044900000128,None,space,4.578644899999745,21.450609299999996,None,,,,,,,,,,,,,,,,,,,,,,,,,,,,,,,,,,,,,,,,,,,,,,,,,,,,,,,,,,,,,,,,,,,,,,,,,,,,,,,,,,,,,,,,,,213,2022-05-10_14h05.15.101,FishGame,2022.1.1,60.00452434114982,
물고기과제_instruction(참가자용)OrangeVersion.mp4,,,,,,,,,,,,,,0,0,0,0,0,0,0,0,,,,,,,,,,,,,,,,,,,,,,,,,,,,,,,,,,,,,,,,,92.85326850000001,None,n,20.208037400000194,92.85326850000001,None,,,,,,,,,,,,,,,,,,,,,,,,,,,,,,,,,,,,,,,,,,,,,,,,,,,,,,,,,,,,,,,,,,,,,,,,,,,,,,,,,,,,213,2022-05-10_14h05.15.101,FishGame,2022.1.1,60.00452434114982,
,1,넌 교활해,5,Green,B,2.333333333333333,2.133333333333333,ScrollUp,ScrollDown,Green.png,practice,,,0,0,0,0,,,,,0,0,0,0,0,0,0,0,,,,,,,,,,,,,,,,,,,,,,,,,,,,,,,,,,,,,,,0.0129629625,-0.2361111,1,0,0,0.5129644300004657,None,113.08885099999998,None,116.80507960000023,118.30474440000035,118.33813000000009,119.28807070000039,119.33798060000026,120.28788850000001,120.28788850000001,None,1.7083333333333335,2.8798995000001923,121.44325070000014,None,ScrollUp,정답입니다,121.44325070000014,None,121.44325070000014,None,121.44325070000014,None,121.44325070000014,None,124.17908750000015,None,124.17908750000015,124.68718910000007,,,,,,,,,,,,,,,,,,,,,,,,,,,,,,,,,,,,,,,,,,,,,,,,,213,2022-05-10_14h05.15.101,FishGame,2022.1.1,60.00452434114982,
,2,넌 슬기로워,2,Orange,A,6.166666666666667,4.1,ScrollDown,ScrollUp,Orange.png,practice,,,0,0,0,0,,,,,0,0,0,0,0,1,1,1,,,,,,,,,,,,,,,,,,,,,,,,,,,,,,,,,,,,,,,,,,,,,,,,,,,,,,,,1.1558641890684764,0.9999996999999894,125.35478300000023,None,ScrollDown,정답입니다,125.35478300000023,None,125.35478300000023,None,125.35478300000023,None,125.35478300000023,None,126.20930070000031,None,126.20930070000031,126.72017780000033,,,,,,,,,,,,,,,,,,,,,,,,,,,,,,,,,,,,,,,,,,,,,,,,,213,2022-05-10_14h05.15.101,FishGame,2022.1.1,60.00452434114982,
,3,나를 보내줘,6,Orange,A,0,0,ScrollUp,ScrollDown,Orange.png,practice,,,0,0,0,0,,,,,0,0,0,0,0,2,2,2,,,,,,,,,,,,,,,,,,,,,,,,,,,,,,,,,,,,,,,,,,,,,,,,,,,,,,,,1.56944444651405,1.156898799999908,127.38008560000026,None,ScrollUp,정답입니다,127.38008560000026,None,127.38008560000026,None,127.38008560000026,None,127.38008560000026,None,128.39912870000035,None,128.39912870000035,128.9032585,,,,,,,,,,,,,,,,,,,,,,,,,,,,,,,,,,,,,,,,,,,,,,,,,213,2022-05-10_14h05.15.101,FishGame,2022.1.1,60.00452434114982,
,4,나를 데려가줘,6,Green,B,0,0,ScrollDown,ScrollUp,Green.png,practice,,,0,0,0,0,,,,,0,0,0,0,0,3,3,3,,,,,,,,,,,,,,,,,,,,,,,,,,,,,,,,,,,,,,,,,,,,,,,,,,,,,,,,1.3719135796030364,0.9566199000000779,129.55580810000038,None,ScrollDown,정답입니다,129.55580810000038,None,129.55580810000038,None,129.55580810000038,None,129.55580810000038,None,130.3863768000001,None,130.3863768000001,130.8862521000001,,,,,,,,,,,,,,,,,,,,,,,,,,,,,,,,,,,,,,,,,,,,,,,,,213,2022-05-10_14h05.15.101,FishGame,2022.1.1,60.00452434114982,
,1,넌 교활해,5,Green,B,2.333333333333333,2.133333333333333,ScrollUp,ScrollDown,Green.png,practice,,,0,0,0,0,,,,,0,0,0,0,,,,,,,,,,,,,,,,,,,,,,,,,,,,,,,,,,,,,,,,,,,,,,,,,,,,,,,,,,,,,,,,,,,,,,,,,,,,,,n,5.755800399999771,131.38645910000014,None,131.38645910000014,None,,,,,,,,,,,,,,,,,,,,,,,,,,,,,,,,,,,,,,,,,,,213,2022-05-10_14h05.15.101,FishGame,2022.1.1,60.00452434114982,
,1,넌 따뜻해,1,Green,B,6.083333333333333,5.6,ScrollUp,ScrollDown,Green.png,1,Positive,Incongruent,0,0,0,0,,,,,,,,,,,,,0,0,0,0,,,,,,,,,,,,,,,,,,,,,,,,,,,,,,,,,,,,,,,,,,,,139.41881950000015,140.91841620000014,140.95172550000007,141.90171260000034,141.9517737000001,142.90170620000026,142.90170620000026,None,,,,,,,,,,,,,,,,,,,,,,,,,-0.0018518518,-0.106481485,1,0,0,0.31313132999957816,None,137.16895290000002,None,1.4444444415469964,1.3296923000002607,144.1160890000001,None,ScrollDown,오답입니다,144.1160890000001,None,144.1160890000001,None,144.1160890000001,None,144.1160890000001,None,145.2413117000001,None,145.2413117000001,145.75101440000026,,,,,,,,,,,,,,,,213,2022-05-10_14h05.15.101,FishGame,2022.1.1,60.00452434114982,
,2,넌 기품있어,2,Green,B,5.791666666666668,4.5,ScrollUp,ScrollDown,Green.png,1,Positive,Incongruent,0,0,0,0,,,,,,,,,,,,,0,1,1,1,,,,,,,,,,,,,,,,,,,,,,,,,,,,,,,,,,,,,,,,,,,,,,,,,,,,,,,,,,,,,,,,,,,,,,,,,,,,,,,,,,,,,1.6203703756133714,2.2786191999998664,146.41403370000035,None,ScrollUp,정답입니다,146.41403370000035,None,146.41403370000035,None,146.41403370000035,None,146.41403370000035,None,148.55648070000007,None,148.55648070000007,149.0673665000004,,,,,,,,,,,,,,,,213,2022-05-10_14h05.15.101,FishGame,2022.1.1,60.00452434114982,
,3,나를 보내줘,6,Orange,A,0,0,ScrollUp,ScrollDown,Orange.png,1,NonTarget,NonTarget,0,0,0,0,,,,,,,,,,,,,0,2,2,2,,,,,,,,,,,,,,,,,,,,,,,,,,,,,,,,,,,,,,,,,,,,,,,,,,,,,,,,,,,,,,,,,,,,,,,,,,,,,,,,,,,,,1.5540123445292315,1.134983899999952,149.7375307000002,None,ScrollUp,정답입니다,149.7375307000002,None,149.7375307000002,None,149.7375307000002,None,149.7375307000002,None,150.7243751000001,None,150.7243751000001,151.23372450000033,,,,,,,,,,,,,,,,213,2022-05-10_14h05.15.101,FishGame,2022.1.1,60.00452434114982,
,4,넌 수동적이야,4,Orange,A,2.833333333333333,2.933333333333333,ScrollDown,ScrollUp,Orange.png,1,Negative,Incongruent,0,0,0,0,,,,,,,,,,,,,0,3,3,3,,,,,,,,,,,,,,,,,,,,,,,,,,,,,,,,,,,,,,,,,,,,,,,,,,,,,,,,,,,,,,,,,,,,,,,,,,,,,,,,,,,,,1.2206790000200272,1.3010481999999683,151.9058258,None,ScrollDown,정답입니다,151.9058258,None,151.9058258,None,151.9058258,None,151.9058258,None,153.05719480000016,None,153.05719480000016,153.56684040000027,,,,,,,,,,,,,,,,213,2022-05-10_14h05.15.101,FishGame,2022.1.1,60.00452434114982,
,5,넌 사심이 없어,3,Green,B,4.916666666666666,4.333333333333333,ScrollUp,ScrollDown,Green.png,1,Neutral,Neutral,0,0,0,0,,,,,,,,,,,,,0,4,4,4,,,,,,,,,,,,,,,,,,,,,,,,,,,,,,,,,,,,,,,,,,,,,,,,,,,,,,,,,,,,,,,,,,,,,,,,,,,,,,,,,,,,,1.7098765472571054,1.1775056000001314,154.22712150000007,None,ScrollUp,정답입니다,154.22712150000007,None,154.22712150000007,None,154.22712150000007,None,154.22712150000007,None,155.26323430000002,None,155.26323430000002,155.76643300000023,,,,,,,,,,,,,,,,213,2022-05-10_14h05.15.101,FishGame,2022.1.1,60.00452434114982,
,6,넌 헤퍼,5,Orange,A,2.458333333333334,2.233333333333333,ScrollDown,ScrollUp,Orange.png,1,Negative,Incongruent,0,0,0,0,,,,,,,,,,,,,0,5,5,5,,,,,,,,,,,,,,,,,,,,,,,,,,,,,,,,,,,,,,,,,,,,,,,,,,,,,,,,,,,,,,,,,,,,,,,,,,,,,,,,,,,,,1.320987656712532,0.9398274000000129,156.43424249999998,None,ScrollDown,정답입니다,156.43424249999998,None,156.43424249999998,None,156.43424249999998,None,156.43424249999998,None,157.2294353000002,None,157.2294353000002,157.73281310000039,,,,,,,,,,,,,,,,213,2022-05-10_14h05.15.101,FishGame,2022.1.1,60.00452434114982,
,7,넌 말쑥해,3,Orange,A,4.833333333333334,4.333333333333333,ScrollDown,ScrollUp,Orange.png,1,Neutral,Neutral,0,0,0,0,,,,,,,,,,,,,0,6,6,6,,,,,,,,,,,,,,,,,,,,,,,,,,,,,,,,,,,,,,,,,,,,,,,,,,,,,,,,,,,,,,,,,,,,,,,,,,,,,,,,,,,,,1.4012345696489017,1.5988460999997187,158.3957333000003,None,ScrollDown,정답입니다,158.3957333000003,None,158.3957333000003,None,158.3957333000003,None,158.3957333000003,None,159.85403210000004,None,159.85403210000004,160.36585980000018,,,,,,,,,,,,,,,,213,2022-05-10_14h05.15.101,FishGame,2022.1.1,60.00452434114982,
,8,넌 투덜거려,5,Green,B,2.541666666666667,2.266666666666667,ScrollUp,ScrollDown,Green.png,1,Negative,Congruent,0,0,0,0,,,,,,,,,,,,,0,7,7,7,,,,,,,,,,,,,,,,,,,,,,,,,,,,,,,,,,,,,,,,,,,,,,,,,,,,,,,,,,,,,,,,,,,,,,,,,,,,,,,,,,,,,1.7608024577299755,1.0777981000001091,161.0269029000001,None,ScrollUp,정답입니다,161.0269029000001,None,161.0269029000001,None,161.0269029000001,None,161.0269029000001,None,161.9616106000003,None,161.9616106000003,162.46562630000017,,,,,,,,,,,,,,,,213,2022-05-10_14h05.15.101,FishGame,2022.1.1,60.00452434114982,
,9,넌 적극적이야,1,Orange,A,5.708333333333333,5.533333333333333,ScrollDown,ScrollUp,Orange.png,1,Positive,Congruent,0,0,0,0,,,,,,,,,,,,,0,8,8,8,,,,,,,,,,,,,,,,,,,,,,,,,,,,,,,,,,,,,,,,,,,,,,,,,,,,,,,,,,,,,,,,,,,,,,,,,,,,,,,,,,,,,1.266975318392118,0.9550128999999288,163.12730710000005,None,ScrollDown,정답입니다,163.12730710000005,None,163.12730710000005,None,163.12730710000005,None,163.12730710000005,None,163.94121140000016,None,163.94121140000016,164.4486551,,,,,,,,,,,,,,,,213,2022-05-10_14h05.15.101,FishGame,2022.1.1,60.00452434114982,
,10,넌 재미없어,4,Green,B,2.625,2.966666666666667,ScrollUp,ScrollDown,Green.png,1,Negative,Congruent,0,0,0,0,,,,,,,,,,,,,0,9,9,9,,,,,,,,,,,,,,,,,,,,,,,,,,,,,,,,,,,,,,,,,,,,,,,,,,,,,,,,,,,,,,,,,,,,,,,,,,,,,,,,,,,,,1.8225308656692505,0.9315255999999863,165.11372700000038,None,ScrollUp,정답입니다,165.11372700000038,None,165.11372700000038,None,165.11372700000038,None,165.11372700000038,None,165.90380910000022,None,165.90380910000022,166.41514890000008,,,,,,,,,,,,,,,,213,2022-05-10_14h05.15.101,FishGame,2022.1.1,60.00452434114982,
,11,넌 명석해,2,Orange,A,5.875,4.033333333333333,ScrollDown,ScrollUp,Orange.png,1,Positive,Congruent,0,0,0,0,,,,,,,,,,,,,0,10,10,10,,,,,,,,,,,,,,,,,,,,,,,,,,,,,,,,,,,,,,,,,,,,,,,,,,,,,,,,,,,,,,,,,,,,,,,,,,,,,,,,,,,,,1.1913580348094304,0.9753053999997974,167.07528880000018,None,ScrollDown,정답입니다,167.07528880000018,None,167.07528880000018,None,167.07528880000018,None,167.07528880000018,None,167.9149527000004,None,167.9149527000004,168.41491350000024,,,,,,,,,,,,,,,,213,2022-05-10_14h05.15.101,FishGame,2022.1.1,60.00452434114982,
,12,나를 데려가줘,6,Green,B,0,0,ScrollDown,ScrollUp,Green.png,1,NonTarget,NonTarget,0,0,0,0,,,,,,,,,,,,,0,11,11,11,,,,,,,,,,,,,,,,,,,,,,,,,,,,,,,,,,,,,,,,,,,,,,,,,,,,,,,,,,,,,,,,,,,,,,,,,,,,,,,,,,,,,1.3734567935268083,1.1774524999996174,169.07305700000006,None,ScrollDown,정답입니다,169.07305700000006,None,169.07305700000006,None,169.07305700000006,None,169.07305700000006,None,170.11607360000016,None,170.11607360000016,170.63116890000038,,,,,,,,,,,,,,,,213,2022-05-10_14h05.15.101,FishGame,2022.1.1,60.00452434114982,
,13,넌 소심해,4,Orange,A,3,3.1,ScrollDown,ScrollUp,Orange.png,1,Negative,Incongruent,0,0,0,0,,,,,,,,,,,,,0,12,12,12,,,,,,,,,,,,,,,,,,,,,,,,,,,,,,,,,,,,,,,,,,,,,,,,,,,,,,,,,,,,,,,,,,,,,,,,,,,,,,,,,,,,,1.2453703731298447,1.103496499999892,171.29003050000028,None,ScrollDown,정답입니다,171.29003050000028,None,171.29003050000028,None,171.29003050000028,None,171.29003050000028,None,172.25596059999998,None,172.25596059999998,172.76439960000016,,,,,,,,,,,,,,,,213,2022-05-10_14h05.15.101,FishGame,2022.1.1,60.00452434114982,
,14,넌 합리적이야,2,Orange,A,5.583333333333333,4.733333333333333,ScrollDown,ScrollUp,Orange.png,1,Positive,Congruent,0,0,0,0,,,,,,,,,,,,,0,13,13,13,,,,,,,,,,,,,,,,,,,,,,,,,,,,,,,,,,,,,,,,,,,,,,,,,,,,,,,,,,,,,,,,,,,,,,,,,,,,,,,,,,,,,1.1327160547176998,1.0660796000001938,173.42844080000032,None,ScrollDown,정답입니다,173.42844080000032,None,173.42844080000032,None,173.42844080000032,None,173.42844080000032,None,174.3533327,None,174.3533327,174.86407450000024,,,,,,,,,,,,,,,,213,2022-05-10_14h05.15.101,FishGame,2022.1.1,60.00452434114982,
,15,넌 무자비해,5,Green,B,2.333333333333333,2.1,ScrollUp,ScrollDown,Green.png,1,Negative,Congruent,0,0,0,0,,,,,,,,,,,,,0,14,14,14,,,,,,,,,,,,,,,,,,,,,,,,,,,,,,,,,,,,,,,,,,,,,,,,,,,,,,,,,,,,,,,,,,,,,,,,,,,,,,,,,,,,,1.8240740795930226,0.9384908000001815,175.5231629,None,ScrollUp,정답입니다,175.5231629,None,175.5231629,None,175.5231629,None,175.5231629,None,176.32371550000016,None,176.32371550000016,176.83029870000018,,,,,,,,,,,,,,,,213,2022-05-10_14h05.15.101,FishGame,2022.1.1,60.00452434114982,
,16,나를 보내줘,6,Orange,A,0,0,ScrollUp,ScrollDown,Orange.png,1,NonTarget,NonTarget,0,0,0,0,,,,,,,,,,,,,0,15,15,15,,,,,,,,,,,,,,,,,,,,,,,,,,,,,,,,,,,,,,,,,,,,,,,,,,,,,,,,,,,,,,,,,,,,,,,,,,,,,,,,,,,,,1.5910493855675063,1.0184551999996074,177.4879705000003,None,ScrollUp,정답입니다,177.4879705000003,None,177.4879705000003,None,177.4879705000003,None,177.4879705000003,None,178.3708290000004,None,178.3708290000004,178.88013520000004,,,,,,,,,,,,,,,,213,2022-05-10_14h05.15.101,FishGame,2022.1.1,60.00452434114982,
,17,넌 현실적이야,3,Green,B,4.608695652173913,4.766666666666667,ScrollUp,ScrollDown,Green.png,1,Neutral,Neutral,0,0,0,0,,,,,,,,,,,,,0,16,16,16,,,,,,,,,,,,,,,,,,,,,,,,,,,,,,,,,,,,,,,,,,,,,,,,,,,,,,,,,,,,,,,,,,,,,,,,,,,,,,,,,,,,,1.6697530845801034,0.9492086999998719,179.54027570000017,None,ScrollUp,정답입니다,179.54027570000017,None,179.54027570000017,None,179.54027570000017,None,179.54027570000017,None,180.3517192000004,None,180.3517192000004,180.86314840000023,,,,,,,,,,,,,,,,213,2022-05-10_14h05.15.101,FishGame,2022.1.1,60.00452434114982,
,18,넌 의리있어,1,Green,B,5.833333333333334,5.633333333333334,ScrollUp,ScrollDown,Green.png,1,Positive,Incongruent,0,0,0,0,,,,,,,,,,,,,0,17,17,17,,,,,,,,,,,,,,,,,,,,,,,,,,,,,,,,,,,,,,,,,,,,,,,,,,,,,,,,,,,,,,,,,,,,,,,,,,,,,,,,,,,,,1.6157407462596893,0.8949518999997963,181.52197270000033,None,ScrollUp,정답입니다,181.52197270000033,None,181.52197270000033,None,181.52197270000033,None,181.52197270000033,None,182.2796128,None,182.2796128,182.77961730000015,,,,,,,,,,,,,,,,213,2022-05-10_14h05.15.101,FishGame,2022.1.1,60.00452434114982,
,19,넌 신경과민이야,5,Orange,A,2.541666666666667,2.166666666666667,ScrollDown,ScrollUp,Orange.png,1,Negative,Incongruent,0,0,0,0,,,,,,,,,,,,,0,18,18,18,,,,,,,,,,,,,,,,,,,,,,,,,,,,,,,,,,,,,,,,,,,,,,,,,,,,,,,,,,,,,,,,,,,,,,,,,,,,,,,,,,,,,1.2175925970077515,0.9273941000001287,183.45754160000024,None,ScrollDown,정답입니다,183.45754160000024,None,183.45754160000024,None,183.45754160000024,None,183.45754160000024,None,184.2462002000002,None,184.2462002000002,184.7459242,,,,,,,,,,,,,,,,213,2022-05-10_14h05.15.101,FishGame,2022.1.1,60.00452434114982,
,20,넌 편안해,1,Orange,A,5.916666666666666,5.866666666666666,ScrollDown,ScrollUp,Orange.png,1,Positive,Congruent,0,0,0,0,,,,,,,,,,,,,0,19,19,19,,,,,,,,,,,,,,,,,,,,,,,,,,,,,,,,,,,,,,,,,,,,,,,,,,,,,,,,,,,,,,,,,,,,,,,,,,,,,,,,,,,,,1.2067901243766148,0.9146646999997756,185.40712910000002,None,ScrollDown,정답입니다,185.40712910000002,None,185.40712910000002,None,185.40712910000002,None,185.40712910000002,None,186.18393070000002,None,186.18393070000002,186.69581310000012,,,,,,,,,,,,,,,,213,2022-05-10_14h05.15.101,FishGame,2022.1.1,60.00452434114982,
,21,넌 품위있어,2,Green,B,5.291666666666666,4.466666666666667,ScrollUp,ScrollDown,Green.png,1,Positive,Incongruent,0,0,0,0,,,,,,,,,,,,,0,20,20,20,,,,,,,,,,,,,,,,,,,,,,,,,,,,,,,,,,,,,,,,,,,,,,,,,,,,,,,,,,,,,,,,,,,,,,,,,,,,,,,,,,,,,1.839506169160207,0.9025154999999359,187.34958700000016,None,ScrollUp,정답입니다,187.34958700000016,None,187.34958700000016,None,187.34958700000016,None,187.34958700000016,None,188.1198634000002,None,188.1198634000002,188.6287940000002,,,,,,,,,,,,,,,,213,2022-05-10_14h05.15.101,FishGame,2022.1.1,60.00452434114982,
,22,넌 빈틈없어,3,Orange,A,4.833333333333333,3.966666666666667,ScrollDown,ScrollUp,Orange.png,1,Neutral,Neutral,0,0,0,0,,,,,,,,,,,,,0,21,21,21,,,,,,,,,,,,,,,,,,,,,,,,,,,,,,,,,,,,,,,,,,,,,,,,,,,,,,,,,,,,,,,,,,,,,,,,,,,,,,,,,,,,,1.3518518482645354,1.5955807000000277,189.29106660000025,None,ScrollDown,정답입니다,189.29106660000025,None,189.29106660000025,None,189.29106660000025,None,189.29106660000025,None,190.74727350000012,None,190.74727350000012,191.26185110000006,,,,,,,,,,,,,,,,213,2022-05-10_14h05.15.101,FishGame,2022.1.1,60.00452434114982,
,23,넌 상상력없어,4,Green,B,2.833333333333333,3.133333333333333,ScrollUp,ScrollDown,Green.png,1,Negative,Congruent,0,0,0,0,,,,,,,,,,,,,0,22,22,22,,,,,,,,,,,,,,,,,,,,,,,,,,,,,,,,,,,,,,,,,,,,,,,,,,,,,,,,,,,,,,,,,,,,,,,,,,,,,,,,,,,,,1.8240740795930226,0.9781782999998541,191.9190678,None,ScrollUp,정답입니다,191.9190678,None,191.9190678,None,191.9190678,None,191.9190678,None,192.7623437000002,None,192.7623437000002,193.26160370000025,,,,,,,,,,,,,,,,213,2022-05-10_14h05.15.101,FishGame,2022.1.1,60.00452434114982,
,24,넌 지혜로워,2,Green,B,6.333333333333334,4.633333333333334,ScrollUp,ScrollDown,Green.png,1,Positive,Incongruent,0,0,0,0,,,,,,,,,,,,,0,23,23,23,,,,,,,,,,,,,,,,,,,,,,,,,,,,,,,,,,,,,,,,,,,,,,,,,,,,,,,,,,,,,,,,,,,,,,,,,,,,,,,,,,,,,1.7808641890684764,0.8450204999999187,193.9232009000002,None,ScrollUp,정답입니다,193.9232009000002,None,193.9232009000002,None,193.9232009000002,None,193.9232009000002,None,194.62818970000035,None,194.62818970000035,195.12800180000022,,,,,,,,,,,,,,,,213,2022-05-10_14h05.15.101,FishGame,2022.1.1,60.00452434114982,
,25,넌 시끄러워,4,Orange,A,2.833333333333333,3.033333333333333,ScrollDown,ScrollUp,Orange.png,1,Negative,Incongruent,0,0,0,0,,,,,,,,,,,,,0,24,24,24,,,,,,,,,,,,,,,,,,,,,,,,,,,,,,,,,,,,,,,,,,,,,,,,,,,,,,,,,,,,,,,,,,,,,,,,,,,,,,,,,,,,,1.0833333333333333,0.9770753000002514,195.79441640000005,None,ScrollDown,정답입니다,195.79441640000005,None,195.79441640000005,None,195.79441640000005,None,195.79441640000005,None,196.6280240000001,None,196.6280240000001,197.12800030000017,,,,,,,,,,,,,,,,213,2022-05-10_14h05.15.101,FishGame,2022.1.1,60.00452434114982,
,26,넌 만사태평이야,3,Green,B,4,4.333333333333333,ScrollUp,ScrollDown,Green.png,1,Neutral,Neutral,0,0,0,0,,,,,,,,,,,,,0,25,25,25,,,,,,,,,,,,,,,,,,,,,,,,,,,,,,,,,,,,,,,,,,,,,,,,,,,,,,,,,,,,,,,,,,,,,,,,,,,,,,,,,,,,,1.8827160596847534,0.9423705999997765,197.7846555000001,None,ScrollUp,정답입니다,197.7846555000001,None,197.7846555000001,None,197.7846555000001,None,197.7846555000001,None,198.5942917000002,None,198.5942917000002,199.09437690000004,,,,,,,,,,,,,,,,213,2022-05-10_14h05.15.101,FishGame,2022.1.1,60.00452434114982,
,27,넌 붙임성있어,1,Orange,A,5.708333333333333,5.633333333333334,ScrollDown,ScrollUp,Orange.png,1,Positive,Congruent,0,0,0,0,,,,,,,,,,,,,0,26,26,26,,,,,,,,,,,,,,,,,,,,,,,,,,,,,,,,,,,,,,,,,,,,,,,,,,,,,,,,,,,,,,,,,,,,,,,,,,,,,,,,,,,,,1.200617293516795,0.9116964999998345,199.75964890000023,None,ScrollDown,정답입니다,199.75964890000023,None,199.75964890000023,None,199.75964890000023,None,199.75964890000023,None,200.52411070000016,None,200.52411070000016,201.02739950000023,,,,,,,,,,,,,,,,213,2022-05-10_14h05.15.101,FishGame,2022.1.1,60.00452434114982,
,28,넌 영리해,2,Orange,A,6,4.033333333333333,ScrollDown,ScrollUp,Orange.png,1,Positive,Congruent,0,0,0,0,,,,,,,,,,,,,0,27,27,27,,,,,,,,,,,,,,,,,,,,,,,,,,,,,,,,,,,,,,,,,,,,,,,,,,,,,,,,,,,,,,,,,,,,,,,,,,,,,,,,,,,,,1.276234577099482,0.854908400000113,201.68028060000006,None,ScrollDown,정답입니다,201.68028060000006,None,201.68028060000006,None,201.68028060000006,None,201.68028060000006,None,202.40356310000016,None,202.40356310000016,202.91035899999997,,,,,,,,,,,,,,,,213,2022-05-10_14h05.15.101,FishGame,2022.1.1,60.00452434114982,
,29,넌 열심이야,1,Green,B,6.041666666666667,5.833333333333333,ScrollUp,ScrollDown,Green.png,1,Positive,Incongruent,0,0,0,0,,,,,,,,,,,,,0,28,28,28,,,,,,,,,,,,,,,,,,,,,,,,,,,,,,,,,,,,,,,,,,,,,,,,,,,,,,,,,,,,,,,,,,,,,,,,,,,,,,,,,,,,,2,0.8455811999997422,203.56751980000035,None,ScrollUp,정답입니다,203.56751980000035,None,203.56751980000035,None,203.56751980000035,None,203.56751980000035,None,204.27703480000037,None,204.27703480000037,204.77670650000027,,,,,,,,,,,,,,,,213,2022-05-10_14h05.15.101,FishGame,2022.1.1,60.00452434114982,
,30,넌 인기없어,4,Green,B,3,3.3,ScrollUp,ScrollDown,Green.png,1,Negative,Congruent,0,0,0,0,,,,,,,,,,,,,0,29,29,29,,,,,,,,,,,,,,,,,,,,,,,,,,,,,,,,,,,,,,,,,,,,,,,,,,,,,,,,,,,,,,,,,,,,,,,,,,,,,,,,,,,,,1.6851851865649223,0.7417626000001292,205.43128380000007,None,ScrollUp,정답입니다,205.43128380000007,None,205.43128380000007,None,205.43128380000007,None,205.43128380000007,None,206.04050050000023,None,206.04050050000023,206.54315670000005,,,,,,,,,,,,,,,,213,2022-05-10_14h05.15.101,FishGame,2022.1.1,60.00452434114982,
,31,넌 익살스러워,3,Orange,A,4.708333333333334,4.833333333333333,ScrollDown,ScrollUp,Orange.png,1,Neutral,Neutral,0,0,0,0,,,,,,,,,,,,,0,30,30,30,,,,,,,,,,,,,,,,,,,,,,,,,,,,,,,,,,,,,,,,,,,,,,,,,,,,,,,,,,,,,,,,,,,,,,,,,,,,,,,,,,,,,1.3132715995113053,0.8717894999999771,207.20777270000008,None,ScrollDown,정답입니다,207.20777270000008,None,207.20777270000008,None,207.20777270000008,None,207.20777270000008,None,207.93543799999998,None,207.93543799999998,208.44321360000004,,,,,,,,,,,,,,,,213,2022-05-10_14h05.15.101,FishGame,2022.1.1,60.00452434114982,
,32,넌 이기적이야,5,Green,B,2.291666666666667,2.333333333333333,ScrollUp,ScrollDown,Green.png,1,Negative,Congruent,0,0,0,0,,,,,,,,,,,,,0,31,31,31,,,,,,,,,,,,,,,,,,,,,,,,,,,,,,,,,,,,,,,,,,,,,,,,,,,,,,,,,,,,,,,,,,,,,,,,,,,,,,,,,,,,,1.8549382835626602,0.8129339000001892,209.08750020000025,None,ScrollUp,정답입니다,209.08750020000025,None,209.08750020000025,None,209.08750020000025,None,209.08750020000025,None,209.77771780000012,None,209.77771780000012,210.2929178000004,,,,,,,,,,,,,,,,213,2022-05-10_14h05.15.101,FishGame,2022.1.1,60.00452434114982,
,33,나를 데려가줘,6,Green,B,0,0,ScrollDown,ScrollUp,Green.png,1,NonTarget,NonTarget,0,0,0,0,,,,,,,,,,,,,0,32,32,32,,,,,,,,,,,,,,,,,,,,,,,,,,,,,,,,,,,,,,,,,,,,,,,,,,,,,,,,,,,,,,,,,,,,,,,,,,,,,,,,,,,,,1.1666666616996129,0.967559600000186,210.93736810000019,None,ScrollDown,정답입니다,210.93736810000019,None,210.93736810000019,None,210.93736810000019,None,210.93736810000019,None,211.7820469000003,None,211.7820469000003,212.2924753000002,,,,,,,,,,,,,,,,213,2022-05-10_14h05.15.101,FishGame,2022.1.1,60.00452434114982,
,34,넌 기회주의자야,5,Orange,A,2.875,2.133333333333333,ScrollDown,ScrollUp,Orange.png,1,Negative,Incongruent,0,0,0,0,,,,,,,,,,,,,0,33,33,33,,,,,,,,,,,,,,,,,,,,,,,,,,,,,,,,,,,,,,,,,,,,,,,,,,,,,,,,,,,,,,,,,,,,,,,,,,,,,,,,,,,,,1.1558641890684764,0.9442498999997042,212.9563688000003,None,ScrollDown,정답입니다,212.9563688000003,None,212.9563688000003,None,212.9563688000003,None,212.9563688000003,None,213.75897840000016,None,213.75897840000016,214.25890690000006,,,,,,,,,,,,,,,,213,2022-05-10_14h05.15.101,FishGame,2022.1.1,60.00452434114982,
,1,넌 미성숙해,4,Orange,A,3,3.2,ScrollDown,ScrollUp,Orange.png,2,Negative,Incongruent,0,0,0,0,,,,,,,,,,,,,,,,,0,0,0,0,,,,,,,,,,,,,,,,,,,,,,,,,,,,,,,,,,,,,,,,248.73796970000012,250.2376795,250.27098030000025,251.22092030000022,251.27083840000023,252.22078200000033,252.22078200000033,None,,,,,,,,,,,,,,,,,,,,,,,,,,,,,,,,,,1.2438271592060726,1.0503488999997899,253.4093653,None,ScrollDown,정답입니다,253.4093653,None,253.4093653,None,253.4093653,None,253.4093653,None,254.28130320000037,None,254.28130320000037,254.7869929000003,214.7587749000004,None,214.7587749000004,None,0.098148145,-0.098148145,1,0,0,0.016013829999792506,None,244.77166420000003,None,,,213,2022-05-10_14h05.15.101,FishGame,2022.1.1,60.00452434114982,
,2,넌 반사회적이야,5,Green,B,2.416666666666667,2.033333333333333,ScrollUp,ScrollDown,Green.png,2,Negative,Congruent,0,0,0,0,,,,,,,,,,,,,,,,,0,1,1,1,,,,,,,,,,,,,,,,,,,,,,,,,,,,,,,,,,,,,,,,,,,,,,,,,,,,,,,,,,,,,,,,,,,,,,,,,,,,,,,,,1.6388888930281005,0.8977682999998251,255.44276870000022,None,ScrollUp,정답입니다,255.44276870000022,None,255.44276870000022,None,255.44276870000022,None,255.44276870000022,None,256.2074617000003,None,256.2074617000003,256.7200965000002,,,,,,,,,,,,,,,,213,2022-05-10_14h05.15.101,FishGame,2022.1.1,60.00452434114982,
,3,넌 유능해,2,Orange,A,6.208333333333333,4.433333333333334,ScrollDown,ScrollUp,Orange.png,2,Positive,Congruent,0,0,0,0,,,,,,,,,,,,,,,,,0,2,2,2,,,,,,,,,,,,,,,,,,,,,,,,,,,,,,,,,,,,,,,,,,,,,,,,,,,,,,,,,,,,,,,,,,,,,,,,,,,,,,,,,1.214506169160207,0.8511869000003571,257.38367610000023,None,ScrollDown,정답입니다,257.38367610000023,None,257.38367610000023,None,257.38367610000023,None,257.38367610000023,None,258.09359510000013,None,258.09359510000013,258.6032421,,,,,,,,,,,,,,,,213,2022-05-10_14h05.15.101,FishGame,2022.1.1,60.00452434114982,
,4,넌 능숙해,2,Green,B,5.666666666666667,4.733333333333333,ScrollUp,ScrollDown,Green.png,2,Positive,Incongruent,0,0,0,0,,,,,,,,,,,,,,,,,0,3,3,3,,,,,,,,,,,,,,,,,,,,,,,,,,,,,,,,,,,,,,,,,,,,,,,,,,,,,,,,,,,,,,,,,,,,,,,,,,,,,,,,,1.5293209869414568,0.8661558999997396,259.25194790000023,None,NoResponse,무응답입니다,259.25194790000023,None,259.25194790000023,None,259.25194790000023,None,259.25194790000023,None,259.9969062,None,259.9969062,260.5029093000003,,,,,,,,,,,,,,,,213,2022-05-10_14h05.15.101,FishGame,2022.1.1,60.00452434114982,
,5,넌 진부해,4,Green,B,2.458333333333333,3.166666666666667,ScrollUp,ScrollDown,Green.png,2,Negative,Congruent,0,0,0,0,,,,,,,,,,,,,,,,,0,4,4,4,,,,,,,,,,,,,,,,,,,,,,,,,,,,,,,,,,,,,,,,,,,,,,,,,,,,,,,,,,,,,,,,,,,,,,,,,,,,,,,,,1.6666666691501937,0.9153584000000592,261.15944290000016,None,ScrollUp,정답입니다,261.15944290000016,None,261.15944290000016,None,261.15944290000016,None,261.15944290000016,None,261.9420722,None,261.9420722,262.4526863000001,,,,,,,,,,,,,,,,213,2022-05-10_14h05.15.101,FishGame,2022.1.1,60.00452434114982,
,6,나를 보내줘,6,Orange,A,0,0,ScrollUp,ScrollDown,Orange.png,2,NonTarget,NonTarget,0,0,0,0,,,,,,,,,,,,,,,,,0,5,5,5,,,,,,,,,,,,,,,,,,,,,,,,,,,,,,,,,,,,,,,,,,,,,,,,,,,,,,,,,,,,,,,,,,,,,,,,,,,,,,,,,1.5771604912976422,1.092866999999842,263.1074601,None,ScrollUp,정답입니다,263.1074601,None,263.1074601,None,263.1074601,None,263.1074601,None,264.06572240000014,None,264.06572240000014,264.5690525,,,,,,,,,,,,,,,,213,2022-05-10_14h05.15.101,FishGame,2022.1.1,60.00452434114982,
,7,넌 엄격해,3,Orange,A,4.166666666666666,4.1,ScrollDown,ScrollUp,Orange.png,2,Neutral,Neutral,0,0,0,0,,,,,,,,,,,,,,,,,0,6,6,6,,,,,,,,,,,,,,,,,,,,,,,,,,,,,,,,,,,,,,,,,,,,,,,,,,,,,,,,,,,,,,,,,,,,,,,,,,,,,,,,,1.2407407313585281,0.8665073000001939,265.23153960000036,None,ScrollDown,정답입니다,265.23153960000036,None,265.23153960000036,None,265.23153960000036,None,265.23153960000036,None,265.95754190000025,None,265.95754190000025,266.4688698,,,,,,,,,,,,,,,,213,2022-05-10_14h05.15.101,FishGame,2022.1.1,60.00452434114982,
,8,나를 보내줘,6,Orange,A,0,0,ScrollUp,ScrollDown,Orange.png,2,NonTarget,NonTarget,0,0,0,0,,,,,,,,,,,,,,,,,0,7,7,7,,,,,,,,,,,,,,,,,,,,,,,,,,,,,,,,,,,,,,,,,,,,,,,,,,,,,,,,,,,,,,,,,,,,,,,,,,,,,,,,,1.8302469104528427,0.896125100000063,267.1228519000001,None,ScrollUp,정답입니다,267.1228519000001,None,267.1228519000001,None,267.1228519000001,None,267.1228519000001,None,267.8862803000002,None,267.8862803000002,268.40192000000025,,,,,,,,,,,,,,,,213,2022-05-10_14h05.15.101,FishGame,2022.1.1,60.00452434114982,
,9,넌 대담해,3,Green,B,4.875,4.866666666666666,ScrollUp,ScrollDown,Green.png,2,Neutral,Neutral,0,0,0,0,,,,,,,,,,,,,,,,,0,8,8,8,,,,,,,,,,,,,,,,,,,,,,,,,,,,,,,,,,,,,,,,,,,,,,,,,,,,,,,,,,,,,,,,,,,,,,,,,,,,,,,,,1.7098765472571054,0.9025368000002345,269.0577171,None,ScrollUp,정답입니다,269.0577171,None,269.0577171,None,269.0577171,None,269.0577171,None,269.8250161000001,None,269.8250161000001,270.3350327000003,,,,,,,,,,,,,,,,213,2022-05-10_14h05.15.101,FishGame,2022.1.1,60.00452434114982,
,10,넌 꾸준해,1,Orange,A,5.916666666666668,5.8,ScrollDown,ScrollUp,Orange.png,2,Positive,Congruent,0,0,0,0,,,,,,,,,,,,,,,,,0,9,9,9,,,,,,,,,,,,,,,,,,,,,,,,,,,,,,,,,,,,,,,,,,,,,,,,,,,,,,,,,,,,,,,,,,,,,,,,,,,,,,,,,1.2067901243766148,0.8797192999995787,270.9952062000002,None,ScrollDown,정답입니다,270.9952062000002,None,270.9952062000002,None,270.9952062000002,None,270.9952062000002,None,271.7368955000002,None,271.7368955000002,272.2515542000001,,,,,,,,,,,,,,,,213,2022-05-10_14h05.15.101,FishGame,2022.1.1,60.00452434114982,
,11,나를 데려가줘,6,Green,B,0,0,ScrollDown,ScrollUp,Green.png,2,NonTarget,NonTarget,0,0,0,0,,,,,,,,,,,,,,,,,0,10,10,10,,,,,,,,,,,,,,,,,,,,,,,,,,,,,,,,,,,,,,,,,,,,,,,,,,,,,,,,,,,,,,,,,,,,,,,,,,,,,,,,,1.3333333308498063,1.012153799999851,272.90113980000024,None,ScrollDown,정답입니다,272.90113980000024,None,272.90113980000024,None,272.90113980000024,None,272.90113980000024,None,273.78723360000004,None,273.78723360000004,274.3012764,,,,,,,,,,,,,,,,213,2022-05-10_14h05.15.101,FishGame,2022.1.1,60.00452434114982,
,12,넌 독선적이야,5,Orange,A,2.458333333333333,1.933333333333333,ScrollDown,ScrollUp,Orange.png,2,Negative,Incongruent,0,0,0,0,,,,,,,,,,,,,,,,,0,11,11,11,,,,,,,,,,,,,,,,,,,,,,,,,,,,,,,,,,,,,,,,,,,,,,,,,,,,,,,,,,,,,,,,,,,,,,,,,,,,,,,,,1.2098765522241592,0.9303807999999663,274.9678210000002,None,ScrollDown,정답입니다,274.9678210000002,None,274.9678210000002,None,274.9678210000002,None,274.9678210000002,None,275.7548646,None,275.7548646,276.2676547000001,,,,,,,,,,,,,,,,213,2022-05-10_14h05.15.101,FishGame,2022.1.1,60.00452434114982,
,13,나를 보내줘,6,Orange,A,0,0,ScrollUp,ScrollDown,Orange.png,2,NonTarget,NonTarget,0,0,0,0,,,,,,,,,,,,,,,,,0,12,12,12,,,,,,,,,,,,,,,,,,,,,,,,,,,,,,,,,,,,,,,,,,,,,,,,,,,,,,,,,,,,,,,,,,,,,,,,,,,,,,,,,1.6574074104428291,0.8346641999996791,276.92188350000015,None,ScrollUp,정답입니다,276.92188350000015,None,276.92188350000015,None,276.92188350000015,None,276.92188350000015,None,277.6267012000003,None,277.6267012000003,278.1341027000003,,,,,,,,,,,,,,,,213,2022-05-10_14h05.15.101,FishGame,2022.1.1,60.00452434114982,
,14,넌 책임감있어,1,Green,B,6.347826086956522,6,ScrollUp,ScrollDown,Green.png,2,Positive,Incongruent,0,0,0,0,,,,,,,,,,,,,,,,,0,13,13,13,,,,,,,,,,,,,,,,,,,,,,,,,,,,,,,,,,,,,,,,,,,,,,,,,,,,,,,,,,,,,,,,,,,,,,,,,,,,,,,,,1.56944444651405,1.5260208999998213,278.79205760000013,None,ScrollUp,정답입니다,278.79205760000013,None,278.79205760000013,None,278.79205760000013,None,278.79205760000013,None,280.1787524000001,None,280.1787524000001,280.6837247000003,,,,,,,,,,,,,,,,213,2022-05-10_14h05.15.101,FishGame,2022.1.1,60.00452434114982,
,15,넌 문학적이야,3,Orange,A,4.708333333333334,4.333333333333333,ScrollDown,ScrollUp,Orange.png,2,Neutral,Neutral,0,0,0,0,,,,,,,,,,,,,,,,,0,14,14,14,,,,,,,,,,,,,,,,,,,,,,,,,,,,,,,,,,,,,,,,,,,,,,,,,,,,,,,,,,,,,,,,,,,,,,,,,,,,,,,,,1.1635802586873372,0.8953260999996928,281.3483259000004,None,ScrollDown,정답입니다,281.3483259000004,None,281.3483259000004,None,281.3483259000004,None,281.3483259000004,None,282.10211100000015,None,282.10211100000015,282.6167369,,,,,,,,,,,,,,,,213,2022-05-10_14h05.15.101,FishGame,2022.1.1,60.00452434114982,
,16,넌 재미있어,1,Green,B,5.875,5.7,ScrollUp,ScrollDown,Green.png,2,Positive,Incongruent,0,0,0,0,,,,,,,,,,,,,,,,,0,15,15,15,,,,,,,,,,,,,,,,,,,,,,,,,,,,,,,,,,,,,,,,,,,,,,,,,,,,,,,,,,,,,,,,,,,,,,,,,,,,,,,,,2,0.8454251000002841,283.26521200000025,None,ScrollUp,정답입니다,283.26521200000025,None,283.26521200000025,None,283.26521200000025,None,283.26521200000025,None,283.9841203000001,None,283.9841203000001,284.4832957000003,,,,,,,,,,,,,,,,213,2022-05-10_14h05.15.101,FishGame,2022.1.1,60.00452434114982,
,17,나를 데려가줘,6,Green,B,0,0,ScrollDown,ScrollUp,Green.png,2,NonTarget,NonTarget,0,0,0,0,,,,,,,,,,,,,,,,,0,16,16,16,,,,,,,,,,,,,,,,,,,,,,,,,,,,,,,,,,,,,,,,,,,,,,,,,,,,,,,,,,,,,,,,,,,,,,,,,,,,,,,,,1.1527777860562007,0.9061056999998982,285.1518850000002,None,ScrollDown,정답입니다,285.1518850000002,None,285.1518850000002,None,285.1518850000002,None,285.1518850000002,None,285.93291580000005,None,285.93291580000005,286.43287280000004,,,,,,,,,,,,,,,,213,2022-05-10_14h05.15.101,FishGame,2022.1.1,60.00452434114982,
,18,넌 협력적이야,1,Orange,A,5.625,5.633333333333334,ScrollDown,ScrollUp,Orange.png,2,Positive,Congruent,0,0,0,0,,,,,,,,,,,,,,,,,0,17,17,17,,,,,,,,,,,,,,,,,,,,,,,,,,,,,,,,,,,,,,,,,,,,,,,,,,,,,,,,,,,,,,,,,,,,,,,,,,,,,,,,,1.0385802288850148,0.8319255999999768,287.0940147000001,None,ScrollDown,정답입니다,287.0940147000001,None,287.0940147000001,None,287.0940147000001,None,287.0940147000001,None,287.7877517000002,None,287.7877517000002,288.29938119999997,,,,,,,,,,,,,,,,213,2022-05-10_14h05.15.101,FishGame,2022.1.1,60.00452434114982,
,19,넌 평범해,3,Green,B,4.333333333333332,4.233333333333333,ScrollUp,ScrollDown,Green.png,2,Neutral,Neutral,0,0,0,0,,,,,,,,,,,,,,,,,0,18,18,18,,,,,,,,,,,,,,,,,,,,,,,,,,,,,,,,,,,,,,,,,,,,,,,,,,,,,,,,,,,,,,,,,,,,,,,,,,,,,,,,,1.8287036965290706,0.8537311000000045,288.9541842000003,None,ScrollUp,정답입니다,288.9541842000003,None,288.9541842000003,None,288.9541842000003,None,288.9541842000003,None,289.6749850000001,None,289.6749850000001,290.1826771000001,,,,,,,,,,,,,,,,213,2022-05-10_14h05.15.101,FishGame,2022.1.1,60.00452434114982,
,20,넌 오만해,5,Orange,A,2.333333333333333,2,ScrollDown,ScrollUp,Orange.png,2,Negative,Incongruent,0,0,0,0,,,,,,,,,,,,,,,,,0,19,19,19,,,,,,,,,,,,,,,,,,,,,,,,,,,,,,,,,,,,,,,,,,,,,,,,,,,,,,,,,,,,,,,,,,,,,,,,,,,,,,,,,1.2052469104528427,0.7644307999999,290.83420490000026,None,ScrollDown,정답입니다,290.83420490000026,None,290.83420490000026,None,290.83420490000026,None,290.83420490000026,None,291.4696025000003,None,291.4696025000003,291.9821826000002,,,,,,,,,,,,,,,,213,2022-05-10_14h05.15.101,FishGame,2022.1.1,60.00452434114982,
,21,넌 운이없어,4,Green,B,3,3.466666666666667,ScrollUp,ScrollDown,Green.png,2,Negative,Congruent,0,0,0,0,,,,,,,,,,,,,,,,,0,20,20,20,,,,,,,,,,,,,,,,,,,,,,,,,,,,,,,,,,,,,,,,,,,,,,,,,,,,,,,,,,,,,,,,,,,,,,,,,,,,,,,,,1.766975313425064,0.855025399999704,292.6330435,None,ScrollUp,정답입니다,292.6330435,None,292.6330435,None,292.6330435,None,292.6330435,None,293.3585581000002,None,293.3585581000002,293.8653124000002,,,,,,,,,,,,,,,,213,2022-05-10_14h05.15.101,FishGame,2022.1.1,60.00452434114982,
,22,넌 창조적이야,2,Green,B,6.125,4.633333333333334,ScrollUp,ScrollDown,Green.png,2,Positive,Incongruent,0,0,0,0,,,,,,,,,,,,,,,,,0,21,21,21,,,,,,,,,,,,,,,,,,,,,,,,,,,,,,,,,,,,,,,,,,,,,,,,,,,,,,,,,,,,,,,,,,,,,,,,,,,,,,,,,1.7098765472571054,0.8158840999999484,294.5185800000004,None,ScrollUp,정답입니다,294.5185800000004,None,294.5185800000004,None,294.5185800000004,None,294.5185800000004,None,295.2033680000004,None,295.2033680000004,295.71517140000014,,,,,,,,,,,,,,,,213,2022-05-10_14h05.15.101,FishGame,2022.1.1,60.00452434114982,
,23,나를 보내줘,6,Orange,A,0,0,ScrollUp,ScrollDown,Orange.png,2,NonTarget,NonTarget,0,0,0,0,,,,,,,,,,,,,,,,,0,22,22,22,,,,,,,,,,,,,,,,,,,,,,,,,,,,,,,,,,,,,,,,,,,,,,,,,,,,,,,,,,,,,,,,,,,,,,,,,,,,,,,,,1.6003086442748704,0.9117584000000534,296.3625855,None,ScrollUp,정답입니다,296.3625855,None,296.3625855,None,296.3625855,None,296.3625855,None,297.1488651000004,None,297.1488651000004,297.6481073,,,,,,,,,,,,,,,,213,2022-05-10_14h05.15.101,FishGame,2022.1.1,60.00452434114982,
,24,넌 통찰력있어,2,Orange,A,6.5,4.8,ScrollDown,ScrollUp,Orange.png,2,Positive,Congruent,0,0,0,0,,,,,,,,,,,,,,,,,0,23,23,23,,,,,,,,,,,,,,,,,,,,,,,,,,,,,,,,,,,,,,,,,,,,,,,,,,,,,,,,,,,,,,,,,,,,,,,,,,,,,,,,,1.2793209801117578,0.8354251000000659,298.30429790000017,None,ScrollDown,정답입니다,298.30429790000017,None,298.30429790000017,None,298.30429790000017,None,298.30429790000017,None,299.0051755000004,None,299.0051755000004,299.5146923000002,,,,,,,,,,,,,,,,213,2022-05-10_14h05.15.101,FishGame,2022.1.1,60.00452434114982,
,25,넌 경솔해,5,Green,B,2.458333333333333,2.266666666666667,ScrollUp,ScrollDown,Green.png,2,Negative,Congruent,0,0,0,0,,,,,,,,,,,,,,,,,0,24,24,24,,,,,,,,,,,,,,,,,,,,,,,,,,,,,,,,,,,,,,,,,,,,,,,,,,,,,,,,,,,,,,,,,,,,,,,,,,,,,,,,,1.6851851865649223,0.7576921999998376,300.1575633000002,None,ScrollUp,정답입니다,300.1575633000002,None,300.1575633000002,None,300.1575633000002,None,300.1575633000002,None,300.79772760000014,None,300.79772760000014,301.29770770000005,,,,,,,,,,,,,,,,213,2022-05-10_14h05.15.101,FishGame,2022.1.1,60.00452434114982,
,26,넌 초조해,4,Orange,A,2.916666666666667,3.133333333333333,ScrollDown,ScrollUp,Orange.png,2,Negative,Incongruent,0,0,0,0,,,,,,,,,,,,,,,,,0,25,25,25,,,,,,,,,,,,,,,,,,,,,,,,,,,,,,,,,,,,,,,,,,,,,,,,,,,,,,,,,,,,,,,,,,,,,,,,,,,,,,,,,1.2253086417913437,0.8284105999996427,301.95689100000027,None,ScrollDown,정답입니다,301.95689100000027,None,301.95689100000027,None,301.95689100000027,None,301.95689100000027,None,302.6494533,None,302.6494533,303.16426150000007,,,,,,,,,,,,,,,,213,2022-05-10_14h05.15.101,FishGame,2022.1.1,60.00452434114982,
,27,넌 무관심해,4,Green,B,2.833333333333333,2.9,ScrollUp,ScrollDown,Green.png,2,Negative,Congruent,0,0,0,0,,,,,,,,,,,,,,,,,0,26,26,26,,,,,,,,,,,,,,,,,,,,,,,,,,,,,,,,,,,,,,,,,,,,,,,,,,,,,,,,,,,,,,,,,,,,,,,,,,,,,,,,,1.632716049750646,0.7066899999999805,303.8086438,None,ScrollUp,정답입니다,303.8086438,None,303.8086438,None,303.8086438,None,303.8086438,None,304.3935346000003,None,304.3935346000003,304.8972163000003,,,,,,,,,,,,,,,,213,2022-05-10_14h05.15.101,FishGame,2022.1.1,60.00452434114982,
,28,넌 감성적이야,3,Green,B,4.125,4.166666666666667,ScrollUp,ScrollDown,Green.png,2,Neutral,Neutral,0,0,0,0,,,,,,,,,,,,,,,,,0,27,27,27,,,,,,,,,,,,,,,,,,,,,,,,,,,,,,,,,,,,,,,,,,,,,,,,,,,,,,,,,,,,,,,,,,,,,,,,,,,,,,,,,1.5432098750025034,0.7310109999998531,305.54728490000025,None,NoResponse,무응답입니다,305.54728490000025,None,305.54728490000025,None,305.54728490000025,None,305.54728490000025,None,306.1537864000002,None,306.1537864000002,306.6637291000002,,,,,,,,,,,,,,,,213,2022-05-10_14h05.15.101,FishGame,2022.1.1,60.00452434114982,
,29,넌 배려심있어,1,Orange,A,6.083333333333333,5.5,ScrollDown,ScrollUp,Orange.png,2,Positive,Congruent,0,0,0,0,,,,,,,,,,,,,,,,,0,28,28,28,,,,,,,,,,,,,,,,,,,,,,,,,,,,,,,,,,,,,,,,,,,,,,,,,,,,,,,,,,,,,,,,,,,,,,,,,,,,,,,,,1.1574074029922485,0.8340024999997695,307.3187823000003,None,ScrollDown,정답입니다,307.3187823000003,None,307.3187823000003,None,307.3187823000003,None,307.3187823000003,None,308.02193460000035,None,308.02193460000035,308.5300792000003,,,,,,,,,,,,,,,,213,2022-05-10_14h05.15.101,FishGame,2022.1.1,60.00452434114982,
,30,넌 숨김없어,3,Orange,A,4.5,4.933333333333334,ScrollDown,ScrollUp,Orange.png,2,Neutral,Neutral,0,0,0,0,,,,,,,,,,,,,,,,,0,29,29,29,,,,,,,,,,,,,,,,,,,,,,,,,,,,,,,,,,,,,,,,,,,,,,,,,,,,,,,,,,,,,,,,,,,,,,,,,,,,,,,,,1.3040123408039412,0.7848612000002504,309.18977780000023,None,ScrollDown,정답입니다,309.18977780000023,None,309.18977780000023,None,309.18977780000023,None,309.18977780000023,None,309.8376433000003,None,309.8376433000003,310.34667420000005,,,,,,,,,,,,,,,,213,2022-05-10_14h05.15.101,FishGame,2022.1.1,60.00452434114982,
,31,넌 훌륭해,2,Green,B,5.916666666666667,4.033333333333333,ScrollUp,ScrollDown,Green.png,2,Positive,Incongruent,0,0,0,0,,,,,,,,,,,,,,,,,0,30,30,30,,,,,,,,,,,,,,,,,,,,,,,,,,,,,,,,,,,,,,,,,,,,,,,,,,,,,,,,,,,,,,,,,,,,,,,,,,,,,,,,,2,0.7945301000004292,310.9980508000003,None,ScrollUp,정답입니다,310.9980508000003,None,310.9980508000003,None,310.9980508000003,None,310.9980508000003,None,311.66318040000033,None,311.66318040000033,312.1629914,,,,,,,,,,,,,,,,213,2022-05-10_14h05.15.101,FishGame,2022.1.1,60.00452434114982,
,32,넌 슬기로워,2,Orange,A,6.166666666666667,4.1,ScrollDown,ScrollUp,Orange.png,2,Positive,Congruent,0,0,0,0,,,,,,,,,,,,,,,,,0,31,31,31,,,,,,,,,,,,,,,,,,,,,,,,,,,,,,,,,,,,,,,,,,,,,,,,,,,,,,,,,,,,,,,,,,,,,,,,,,,,,,,,,1.0231481393178303,0.8540344999996705,312.8107325000001,None,ScrollDown,정답입니다,312.8107325000001,None,312.8107325000001,None,312.8107325000001,None,312.8107325000001,None,313.5382748000002,None,313.5382748000002,314.0459698000004,,,,,,,,,,,,,,,,213,2022-05-10_14h05.15.101,FishGame,2022.1.1,60.00452434114982,
,33,넌 냉혹해,5,Orange,A,2.583333333333333,2.1,ScrollDown,ScrollUp,Orange.png,2,Negative,Incongruent,0,0,0,0,,,,,,,,,,,,,,,,,0,32,32,32,,,,,,,,,,,,,,,,,,,,,,,,,,,,,,,,,,,,,,,,,,,,,,,,,,,,,,,,,,,,,,,,,,,,,,,,,,,,,,,,,1.1033950646718342,0.7173397999999906,314.7045270000003,None,ScrollDown,정답입니다,314.7045270000003,None,314.7045270000003,None,314.7045270000003,None,314.7045270000003,None,315.2859678,None,315.2859678,315.7959734000001,,,,,,,,,,,,,,,,213,2022-05-10_14h05.15.101,FishGame,2022.1.1,60.00452434114982,
,34,나를 데려가줘,6,Green,B,0,0,ScrollDown,ScrollUp,Green.png,2,NonTarget,NonTarget,0,0,0,0,,,,,,,,,,,,,,,,,0,33,33,33,,,,,,,,,,,,,,,,,,,,,,,,,,,,,,,,,,,,,,,,,,,,,,,,,,,,,,,,,,,,,,,,,,,,,,,,,,,,,,,,,1.1697530895471573,1.0722017999996751,316.43806040000027,None,ScrollDown,정답입니다,316.43806040000027,None,316.43806040000027,None,316.43806040000027,None,316.43806040000027,None,317.39568340000005,None,317.39568340000005,317.89554180000005,,,,,,,,,,,,,,,,213,2022-05-10_14h05.15.101,FishGame,2022.1.1,60.00452434114982,
,35,넌 편파적이야,5,Green,B,2.125,2,ScrollUp,ScrollDown,Green.png,2,Negative,Congruent,0,0,0,0,,,,,,,,,,,,,,,,,0,34,34,34,,,,,,,,,,,,,,,,,,,,,,,,,,,,,,,,,,,,,,,,,,,,,,,,,,,,,,,,,,,,,,,,,,,,,,,,,,,,,,,,,1.9104938358068466,0.9020222999997713,318.54529760000014,None,ScrollUp,정답입니다,318.54529760000014,None,318.54529760000014,None,318.54529760000014,None,318.54529760000014,None,319.3183680000002,None,319.3183680000002,319.8288711,,,,,,,,,,,,,,,,213,2022-05-10_14h05.15.101,FishGame,2022.1.1,60.00452434114982,
,36,넌 슬퍼,4,Orange,A,2.583333333333333,3.066666666666667,ScrollDown,ScrollUp,Orange.png,2,Negative,Incongruent,0,0,0,0,,,,,,,,,,,,,,,,,0,35,35,35,,,,,,,,,,,,,,,,,,,,,,,,,,,,,,,,,,,,,,,,,,,,,,,,,,,,,,,,,,,,,,,,,,,,,,,,,,,,,,,,,1.0231481393178303,0.8059229999998934,320.47754680000025,None,ScrollDown,정답입니다,320.47754680000025,None,320.47754680000025,None,320.47754680000025,None,320.47754680000025,None,321.1545006000001,None,321.1545006000001,321.66173630000003,,,,,,,,,,,,,,,,213,2022-05-10_14h05.15.101,FishGame,2022.1.1,60.00452434114982,
,37,나를 데려가줘,6,Green,B,0,0,ScrollDown,ScrollUp,Green.png,2,NonTarget,NonTarget,0,0,0,0,,,,,,,,,,,,,,,,,0,36,36,36,,,,,,,,,,,,,,,,,,,,,,,,,,,,,,,,,,,,,,,,,,,,,,,,,,,,,,,,,,,,,,,,,,,,,,,,,,,,,,,,,1.1635802586873372,0.8499068000000989,322.30454450000025,None,ScrollDown,정답입니다,322.30454450000025,None,322.30454450000025,None,322.30454450000025,None,322.30454450000025,None,323.03403960000014,None,323.03403960000014,323.5449652000002,,,,,,,,,,,,,,,,213,2022-05-10_14h05.15.101,FishGame,2022.1.1,60.00452434114982,
,38,넌 친절해,1,Green,B,6.041666666666667,5.533333333333333,ScrollUp,ScrollDown,Green.png,2,Positive,Incongruent,0,0,0,0,,,,,,,,,,,,,,,,,0,37,37,37,,,,,,,,,,,,,,,,,,,,,,,,,,,,,,,,,,,,,,,,,,,,,,,,,,,,,,,,,,,,,,,,,,,,,,,,,,,,,,,,,1.6898148159186044,0.8829007999997884,324.1994982000001,None,ScrollUp,정답입니다,324.1994982000001,None,324.1994982000001,None,324.1994982000001,None,324.1994982000001,None,324.9507960000001,None,324.9507960000001,325.4612202000003,,,,,,,,,,,,,,,,213,2022-05-10_14h05.15.101,FishGame,2022.1.1,60.00452434114982,
,1,넌 엉성해,4,Orange,A,3,3.3,ScrollDown,ScrollUp,Orange.png,3,Negative,Incongruent,0,0,0,0,,,,,,,,,,,,,,,,,,,,,0,0,0,0,,,,,,,,,,,,,,,,,,,,,,,,,,,,,,,,,,,,357.7071079000002,359.2068967,359.24036790000036,360.1902279000001,360.24014990000023,361.19002130000035,361.19002130000035,None,,,,,,,,,,,,,,,,,,,,,,,,,,,,,,,,,,1.0447530845801036,1.0287798999997904,362.3871656000001,None,ScrollDown,정답입니다,362.3871656000001,None,362.3871656000001,None,362.3871656000001,None,362.3871656000001,None,363.2296333000004,None,363.2296333000004,363.73961080000026,325.96117890000005,None,325.96117890000005,None,0.15648147,-0.08796296,1,0,0,0.01619213000003583,None,355.9740385,None,,,213,2022-05-10_14h05.15.101,FishGame,2022.1.1,60.00452434114982,
,2,나를 보내줘,6,Orange,A,0,0,ScrollUp,ScrollDown,Orange.png,3,NonTarget,NonTarget,0,0,0,0,,,,,,,,,,,,,,,,,,,,,0,1,1,1,,,,,,,,,,,,,,,,,,,,,,,,,,,,,,,,,,,,,,,,,,,,,,,,,,,,,,,,,,,,,,,,,,,,,,,,,,,,,1.8024691343307495,0.93498690000024,364.3891442000004,None,ScrollUp,정답입니다,364.3891442000004,None,364.3891442000004,None,364.3891442000004,None,364.3891442000004,None,365.1957730000004,None,365.1957730000004,365.7060987,,,,,,,,,,,,,,,,213,2022-05-10_14h05.15.101,FishGame,2022.1.1,60.00452434114982,
,3,넌 활발해,1,Green,B,5.666666666666667,5.6,ScrollUp,ScrollDown,Green.png,3,Positive,Incongruent,0,0,0,0,,,,,,,,,,,,,,,,,,,,,0,2,2,2,,,,,,,,,,,,,,,,,,,,,,,,,,,,,,,,,,,,,,,,,,,,,,,,,,,,,,,,,,,,,,,,,,,,,,,,,,,,,1.8503086417913437,0.8561381999998048,366.3572108000003,None,ScrollUp,정답입니다,366.3572108000003,None,366.3572108000003,None,366.3572108000003,None,366.3572108000003,None,367.0890657,None,367.0890657,367.58912690000034,,,,,,,,,,,,,,,,213,2022-05-10_14h05.15.101,FishGame,2022.1.1,60.00452434114982,
,4,넌 논리적이야,2,Orange,A,5.666666666666666,4.633333333333334,ScrollDown,ScrollUp,Orange.png,3,Positive,Congruent,0,0,0,0,,,,,,,,,,,,,,,,,,,,,0,3,3,3,,,,,,,,,,,,,,,,,,,,,,,,,,,,,,,,,,,,,,,,,,,,,,,,,,,,,,,,,,,,,,,,,,,,,,,,,,,,,1,0.9142266999997446,368.2516631000003,None,ScrollDown,정답입니다,368.2516631000003,None,368.2516631000003,None,368.2516631000003,None,368.2516631000003,None,369.0266931000001,None,369.0266931000001,369.5388554000001,,,,,,,,,,,,,,,,213,2022-05-10_14h05.15.101,FishGame,2022.1.1,60.00452434114982,
,5,넌 과묵해,3,Orange,A,3.875,4.4,ScrollDown,ScrollUp,Orange.png,3,Neutral,Neutral,0,0,0,0,,,,,,,,,,,,,,,,,,,,,0,4,4,4,,,,,,,,,,,,,,,,,,,,,,,,,,,,,,,,,,,,,,,,,,,,,,,,,,,,,,,,,,,,,,,,,,,,,,,,,,,,,1.0478395124276478,0.8608770999999251,370.1932164,None,ScrollDown,정답입니다,370.1932164,None,370.1932164,None,370.1932164,None,370.1932164,None,370.9221445000003,None,370.9221445000003,371.4218917000003,,,,,,,,,,,,,,,,213,2022-05-10_14h05.15.101,FishGame,2022.1.1,60.00452434114982,
,6,나를 데려가줘,6,Green,B,0,0,ScrollDown,ScrollUp,Green.png,3,NonTarget,NonTarget,0,0,0,0,,,,,,,,,,,,,,,,,,,,,0,5,5,5,,,,,,,,,,,,,,,,,,,,,,,,,,,,,,,,,,,,,,,,,,,,,,,,,,,,,,,,,,,,,,,,,,,,,,,,,,,,,1.0123456915219624,0.9366156999999475,372.0682925000001,None,ScrollDown,정답입니다,372.0682925000001,None,372.0682925000001,None,372.0682925000001,None,372.0682925000001,None,372.8792460000004,None,372.8792460000004,373.38856550000037,,,,,,,,,,,,,,,,213,2022-05-10_14h05.15.101,FishGame,2022.1.1,60.00452434114982,
,7,넌 미숙해,4,Green,B,3,3,ScrollUp,ScrollDown,Green.png,3,Negative,Congruent,0,0,0,0,,,,,,,,,,,,,,,,,,,,,0,6,6,6,,,,,,,,,,,,,,,,,,,,,,,,,,,,,,,,,,,,,,,,,,,,,,,,,,,,,,,,,,,,,,,,,,,,,,,,,,,,,2,0.8690416000004006,374.0302267000002,None,ScrollUp,정답입니다,374.0302267000002,None,374.0302267000002,None,374.0302267000002,None,374.0302267000002,None,374.78647500000034,None,374.78647500000034,375.28830940000034,,,,,,,,,,,,,,,,213,2022-05-10_14h05.15.101,FishGame,2022.1.1,60.00452434114982,
,8,나를 보내줘,6,Orange,A,0,0,ScrollUp,ScrollDown,Orange.png,3,NonTarget,NonTarget,0,0,0,0,,,,,,,,,,,,,,,,,,,,,0,7,7,7,,,,,,,,,,,,,,,,,,,,,,,,,,,,,,,,,,,,,,,,,,,,,,,,,,,,,,,,,,,,,,,,,,,,,,,,,,,,,1.71296297510465,0.8669442999998864,375.9326188,None,ScrollUp,정답입니다,375.9326188,None,375.9326188,None,375.9326188,None,375.9326188,None,376.6766349000004,None,376.6766349000004,377.1878920000004,,,,,,,,,,,,,,,,213,2022-05-10_14h05.15.101,FishGame,2022.1.1,60.00452434114982,
,9,넌 자신만만해,3,Green,B,4.833333333333334,4.333333333333333,ScrollUp,ScrollDown,Green.png,3,Neutral,Neutral,0,0,0,0,,,,,,,,,,,,,,,,,,,,,0,8,8,8,,,,,,,,,,,,,,,,,,,,,,,,,,,,,,,,,,,,,,,,,,,,,,,,,,,,,,,,,,,,,,,,,,,,,,,,,,,,,1.7314814925193787,0.9573992000000544,377.8374296000002,None,ScrollUp,정답입니다,377.8374296000002,None,377.8374296000002,None,377.8374296000002,None,377.8374296000002,None,378.67131400000017,None,378.67131400000017,379.1712086000002,,,,,,,,,,,,,,,,213,2022-05-10_14h05.15.101,FishGame,2022.1.1,60.00452434114982,
,10,넌 탐욕스러워,5,Orange,A,2.25,2.1,ScrollDown,ScrollUp,Orange.png,3,Negative,Incongruent,0,0,0,0,,,,,,,,,,,,,,,,,,,,,0,9,9,9,,,,,,,,,,,,,,,,,,,,,,,,,,,,,,,,,,,,,,,,,,,,,,,,,,,,,,,,,,,,,,,,,,,,,,,,,,,,,1.162037044763565,0.8828942999998617,379.82607750000034,None,ScrollDown,정답입니다,379.82607750000034,None,379.82607750000034,None,379.82607750000034,None,379.82607750000034,None,380.5769925000004,None,380.5769925000004,381.08737040000005,,,,,,,,,,,,,,,,213,2022-05-10_14h05.15.101,FishGame,2022.1.1,60.00452434114982,
,11,넌 인기있어,2,Orange,A,5.458333333333333,4.5,ScrollDown,ScrollUp,Orange.png,3,Positive,Congruent,0,0,0,0,,,,,,,,,,,,,,,,,,,,,0,10,10,10,,,,,,,,,,,,,,,,,,,,,,,,,,,,,,,,,,,,,,,,,,,,,,,,,,,,,,,,,,,,,,,,,,,,,,,,,,,,,1.080246905485789,0.7608549000001403,381.7407382000001,None,ScrollDown,정답입니다,381.7407382000001,None,381.7407382000001,None,381.7407382000001,None,381.7407382000001,None,382.3708252000001,None,382.3708252000001,382.8704931000002,,,,,,,,,,,,,,,,213,2022-05-10_14h05.15.101,FishGame,2022.1.1,60.00452434114982,
,12,나를 데려가줘,6,Green,B,0,0,ScrollDown,ScrollUp,Green.png,3,NonTarget,NonTarget,0,0,0,0,,,,,,,,,,,,,,,,,,,,,0,11,11,11,,,,,,,,,,,,,,,,,,,,,,,,,,,,,,,,,,,,,,,,,,,,,,,,,,,,,,,,,,,,,,,,,,,,,,,,,,,,,1.214506169160207,0.905611399999998,383.51421830000027,None,ScrollDown,정답입니다,383.51421830000027,None,383.51421830000027,None,383.51421830000027,None,383.51421830000027,None,384.30387010000004,None,384.30387010000004,384.8038369000001,,,,,,,,,,,,,,,,213,2022-05-10_14h05.15.101,FishGame,2022.1.1,60.00452434114982,
,13,넌 뛰어나,2,Green,B,6.166666666666667,4,ScrollUp,ScrollDown,Green.png,3,Positive,Incongruent,0,0,0,0,,,,,,,,,,,,,,,,,,,,,0,12,12,12,,,,,,,,,,,,,,,,,,,,,,,,,,,,,,,,,,,,,,,,,,,,,,,,,,,,,,,,,,,,,,,,,,,,,,,,,,,,,2,0.8508022999999412,385.4570298000003,None,ScrollUp,정답입니다,385.4570298000003,None,385.4570298000003,None,385.4570298000003,None,385.4570298000003,None,386.17505770000025,None,386.17505770000025,386.68671510000013,,,,,,,,,,,,,,,,213,2022-05-10_14h05.15.101,FishGame,2022.1.1,60.00452434114982,
,14,넌 낙관적이야,1,Orange,A,5.75,5.8,ScrollDown,ScrollUp,Orange.png,3,Positive,Congruent,0,0,0,0,,,,,,,,,,,,,,,,,,,,,0,13,13,13,,,,,,,,,,,,,,,,,,,,,,,,,,,,,,,,,,,,,,,,,,,,,,,,,,,,,,,,,,,,,,,,,,,,,,,,,,,,,1.0694444576899211,0.8890904999998384,387.3460444000002,None,ScrollDown,정답입니다,387.3460444000002,None,387.3460444000002,None,387.3460444000002,None,387.3460444000002,None,388.1031932000001,None,388.1031932000001,388.6030111,,,,,,,,,,,,,,,,213,2022-05-10_14h05.15.101,FishGame,2022.1.1,60.00452434114982,
,15,넌 산만해,4,Green,B,2.695652173913043,3.033333333333333,ScrollUp,ScrollDown,Green.png,3,Negative,Congruent,0,0,0,0,,,,,,,,,,,,,,,,,,,,,0,14,14,14,,,,,,,,,,,,,,,,,,,,,,,,,,,,,,,,,,,,,,,,,,,,,,,,,,,,,,,,,,,,,,,,,,,,,,,,,,,,,1.6666666691501937,0.8072311999999329,389.2534519000001,None,ScrollUp,정답입니다,389.2534519000001,None,389.2534519000001,None,389.2534519000001,None,389.2534519000001,None,389.9300978000001,None,389.9300978000001,390.43615530000034,,,,,,,,,,,,,,,,213,2022-05-10_14h05.15.101,FishGame,2022.1.1,60.00452434114982,
,16,나를 보내줘,6,Orange,A,0,0,ScrollUp,ScrollDown,Orange.png,3,NonTarget,NonTarget,0,0,0,0,,,,,,,,,,,,,,,,,,,,,0,15,15,15,,,,,,,,,,,,,,,,,,,,,,,,,,,,,,,,,,,,,,,,,,,,,,,,,,,,,,,,,,,,,,,,,,,,,,,,,,,,,1.8503086417913437,0.9169038,391.0874584000003,None,ScrollUp,정답입니다,391.0874584000003,None,391.0874584000003,None,391.0874584000003,None,391.0874584000003,None,391.8742803,None,391.8742803,392.3860765000004,,,,,,,,,,,,,,,,213,2022-05-10_14h05.15.101,FishGame,2022.1.1,60.00452434114982,
,17,넌 교활해,5,Green,B,2.333333333333333,2.133333333333333,ScrollUp,ScrollDown,Green.png,3,Negative,Congruent,0,0,0,0,,,,,,,,,,,,,,,,,,,,,0,16,16,16,,,,,,,,,,,,,,,,,,,,,,,,,,,,,,,,,,,,,,,,,,,,,,,,,,,,,,,,,,,,,,,,,,,,,,,,,,,,,1.873456800977389,1.0484151999999085,393.03289700000005,None,ScrollUp,정답입니다,393.03289700000005,None,393.03289700000005,None,393.03289700000005,None,393.03289700000005,None,393.9569399000002,None,393.9569399000002,394.46926870000016,,,,,,,,,,,,,,,,213,2022-05-10_14h05.15.101,FishGame,2022.1.1,60.00452434114982,
,18,나를 보내줘,6,Orange,A,0,0,ScrollUp,ScrollDown,Orange.png,3,NonTarget,NonTarget,0,0,0,0,,,,,,,,,,,,,,,,,,,,,0,17,17,17,,,,,,,,,,,,,,,,,,,,,,,,,,,,,,,,,,,,,,,,,,,,,,,,,,,,,,,,,,,,,,,,,,,,,,,,,,,,,1.9645061492919922,0.9229839999998148,395.11438620000035,None,ScrollUp,정답입니다,395.11438620000035,None,395.11438620000035,None,395.11438620000035,None,395.11438620000035,None,395.91202820000035,None,395.91202820000035,396.41869110000016,,,,,,,,,,,,,,,,213,2022-05-10_14h05.15.101,FishGame,2022.1.1,60.00452434114982,
,19,넌 불친절해,5,Green,B,2.208333333333333,2.033333333333333,ScrollUp,ScrollDown,Green.png,3,Negative,Congruent,0,0,0,0,,,,,,,,,,,,,,,,,,,,,0,18,18,18,,,,,,,,,,,,,,,,,,,,,,,,,,,,,,,,,,,,,,,,,,,,,,,,,,,,,,,,,,,,,,,,,,,,,,,,,,,,,1.9367283980051677,0.8839828000000125,397.0736657000002,None,ScrollUp,정답입니다,397.0736657000002,None,397.0736657000002,None,397.0736657000002,None,397.0736657000002,None,397.8235566000003,None,397.8235566000003,398.3352986,,,,,,,,,,,,,,,,213,2022-05-10_14h05.15.101,FishGame,2022.1.1,60.00452434114982,
,20,넌 지적이야,2,Green,B,5.75,4.366666666666666,ScrollUp,ScrollDown,Green.png,3,Positive,Incongruent,0,0,0,0,,,,,,,,,,,,,,,,,,,,,0,19,19,19,,,,,,,,,,,,,,,,,,,,,,,,,,,,,,,,,,,,,,,,,,,,,,,,,,,,,,,,,,,,,,,,,,,,,,,,,,,,,2,0.9063750999998774,398.9798006000001,None,ScrollUp,정답입니다,398.9798006000001,None,398.9798006000001,None,398.9798006000001,None,398.9798006000001,None,399.76192200000014,None,399.76192200000014,400.2685088000003,,,,,,,,,,,,,,,,213,2022-05-10_14h05.15.101,FishGame,2022.1.1,60.00452434114982,
,21,넌 우유부단해,4,Orange,A,2.666666666666667,3.166666666666667,ScrollDown,ScrollUp,Orange.png,3,Negative,Incongruent,0,0,0,0,,,,,,,,,,,,,,,,,,,,,0,20,20,20,,,,,,,,,,,,,,,,,,,,,,,,,,,,,,,,,,,,,,,,,,,,,,,,,,,,,,,,,,,,,,,,,,,,,,,,,,,,,1.140432099501292,0.8176298999997016,400.92073210000035,None,ScrollDown,정답입니다,400.92073210000035,None,400.92073210000035,None,400.92073210000035,None,400.92073210000035,None,401.6075781000004,None,401.6075781000004,402.11823730000015,,,,,,,,,,,,,,,,213,2022-05-10_14h05.15.101,FishGame,2022.1.1,60.00452434114982,
,22,나를 데려가줘,6,Green,B,0,0,ScrollDown,ScrollUp,Green.png,3,NonTarget,NonTarget,0,0,0,0,,,,,,,,,,,,,,,,,,,,,0,21,21,21,,,,,,,,,,,,,,,,,,,,,,,,,,,,,,,,,,,,,,,,,,,,,,,,,,,,,,,,,,,,,,,,,,,,,,,,,,,,,1.1543209999799728,0.8681142000000364,402.7611377000003,None,ScrollDown,정답입니다,402.7611377000003,None,402.7611377000003,None,402.7611377000003,None,402.7611377000003,None,403.50862350000034,None,403.50862350000034,404.0178753,,,,,,,,,,,,,,,,213,2022-05-10_14h05.15.101,FishGame,2022.1.1,60.00452434114982,
,23,넌 성실해,1,Green,B,6.041666666666666,5.7,ScrollUp,ScrollDown,Green.png,3,Positive,Incongruent,0,0,0,0,,,,,,,,,,,,,,,,,,,,,0,22,22,22,,,,,,,,,,,,,,,,,,,,,,,,,,,,,,,,,,,,,,,,,,,,,,,,,,,,,,,,,,,,,,,,,,,,,,,,,,,,,2,0.882889299999988,404.6624859000003,None,ScrollUp,정답입니다,404.6624859000003,None,404.6624859000003,None,404.6624859000003,None,404.6624859000003,None,405.4227896000002,None,405.4227896000002,405.9342893000003,,,,,,,,,,,,,,,,213,2022-05-10_14h05.15.101,FishGame,2022.1.1,60.00452434114982,
,24,넌 현실주의적이야,3,Orange,A,4.625,4.4,ScrollDown,ScrollUp,Orange.png,3,Neutral,Neutral,0,0,0,0,,,,,,,,,,,,,,,,,,,,,0,23,23,23,,,,,,,,,,,,,,,,,,,,,,,,,,,,,,,,,,,,,,,,,,,,,,,,,,,,,,,,,,,,,,,,,,,,,,,,,,,,,1.0617283880710602,0.8325778000003083,406.58848190000026,None,ScrollDown,정답입니다,406.58848190000026,None,406.58848190000026,None,406.58848190000026,None,406.58848190000026,None,407.28910210000004,None,407.28910210000004,407.80056200000035,,,,,,,,,,,,,,,,213,2022-05-10_14h05.15.101,FishGame,2022.1.1,60.00452434114982,
,25,넌 진실돼,1,Orange,A,6.625,5.566666666666666,ScrollDown,ScrollUp,Orange.png,3,Positive,Congruent,0,0,0,0,,,,,,,,,,,,,,,,,,,,,0,24,24,24,,,,,,,,,,,,,,,,,,,,,,,,,,,,,,,,,,,,,,,,,,,,,,,,,,,,,,,,,,,,,,,,,,,,,,,,,,,,,1.0138889054457347,0.792404599999827,408.46054600000025,None,ScrollDown,정답입니다,408.46054600000025,None,408.46054600000025,None,408.46054600000025,None,408.46054600000025,None,409.1170892,None,409.1170892,409.61693540000033,,,,,,,,,,,,,,,,213,2022-05-10_14h05.15.101,FishGame,2022.1.1,60.00452434114982,
,26,넌 천진난만해,3,Green,B,4.958333333333334,4.833333333333333,ScrollUp,ScrollDown,Green.png,3,Neutral,Neutral,0,0,0,0,,,,,,,,,,,,,,,,,,,,,0,25,25,25,,,,,,,,,,,,,,,,,,,,,,,,,,,,,,,,,,,,,,,,,,,,,,,,,,,,,,,,,,,,,,,,,,,,,,,,,,,,,2,0.9380037000000812,410.2709850000001,None,ScrollUp,정답입니다,410.2709850000001,None,410.2709850000001,None,410.2709850000001,None,410.2709850000001,None,411.0760700000001,None,411.0760700000001,411.5834166000004,,,,,,,,,,,,,,,,213,2022-05-10_14h05.15.101,FishGame,2022.1.1,60.00452434114982,
,27,넌 교양없어,5,Orange,A,2.416666666666667,2.2,ScrollDown,ScrollUp,Orange.png,3,Negative,Incongruent,0,0,0,0,,,,,,,,,,,,,,,,,,,,,0,26,26,26,,,,,,,,,,,,,,,,,,,,,,,,,,,,,,,,,,,,,,,,,,,,,,,,,,,,,,,,,,,,,,,,,,,,,,,,,,,,,1.1049382785956066,0.8040720000003603,412.24167560000024,None,ScrollDown,정답입니다,412.24167560000024,None,412.24167560000024,None,412.24167560000024,None,412.24167560000024,None,412.9098626,None,412.9098626,413.4165393000003,,,,,,,,,,,,,,,,213,2022-05-10_14h05.15.101,FishGame,2022.1.1,60.00452434114982,
,28,나를 보내줘,6,Orange,A,0,0,ScrollUp,ScrollDown,Orange.png,3,NonTarget,NonTarget,0,0,0,0,,,,,,,,,,,,,,,,,,,,,0,27,27,27,,,,,,,,,,,,,,,,,,,,,,,,,,,,,,,,,,,,,,,,,,,,,,,,,,,,,,,,,,,,,,,,,,,,,,,,,,,,,2,0.7697323000002143,414.0680073000003,None,ScrollUp,정답입니다,414.0680073000003,None,414.0680073000003,None,414.0680073000003,None,414.0680073000003,None,414.71465350000017,None,414.71465350000017,415.216308,,,,,,,,,,,,,,,,213,2022-05-10_14h05.15.101,FishGame,2022.1.1,60.00452434114982,
,29,넌 엉뚱스러워,3,Orange,A,4.166666666666667,4.133333333333334,ScrollDown,ScrollUp,Orange.png,3,Neutral,Neutral,0,0,0,0,,,,,,,,,,,,,,,,,,,,,0,28,28,28,,,,,,,,,,,,,,,,,,,,,,,,,,,,,,,,,,,,,,,,,,,,,,,,,,,,,,,,,,,,,,,,,,,,,,,,,,,,,1.060185174147288,0.9069077999997717,415.87392020000016,None,ScrollDown,정답입니다,415.87392020000016,None,415.87392020000016,None,415.87392020000016,None,415.87392020000016,None,416.6429363000002,None,416.6429363000002,417.1493273000001,,,,,,,,,,,,,,,,213,2022-05-10_14h05.15.101,FishGame,2022.1.1,60.00452434114982,
,30,넌 무지해,4,Green,B,2.541666666666667,3.066666666666667,ScrollUp,ScrollDown,Green.png,3,Negative,Congruent,0,0,0,0,,,,,,,,,,,,,,,,,,,,,0,29,29,29,,,,,,,,,,,,,,,,,,,,,,,,,,,,,,,,,,,,,,,,,,,,,,,,,,,,,,,,,,,,,,,,,,,,,,,,,,,,,1.9907407363255818,0.7903470999999627,417.8004181000001,None,ScrollUp,정답입니다,417.8004181000001,None,417.8004181000001,None,417.8004181000001,None,417.8004181000001,None,418.46596190000037,None,418.46596190000037,418.965741,,,,,,,,,,,,,,,,213,2022-05-10_14h05.15.101,FishGame,2022.1.1,60.00452434114982,
,31,넌 음울해,5,Green,B,2.25,2.233333333333333,ScrollUp,ScrollDown,Green.png,3,Negative,Congruent,0,0,0,0,,,,,,,,,,,,,,,,,,,,,0,30,30,30,,,,,,,,,,,,,,,,,,,,,,,,,,,,,,,,,,,,,,,,,,,,,,,,,,,,,,,,,,,,,,,,,,,,,,,,,,,,,2,0.7519102000001112,419.61884450000025,None,ScrollUp,정답입니다,419.61884450000025,None,419.61884450000025,None,419.61884450000025,None,419.61884450000025,None,420.2383883000002,None,420.2383883000002,420.7489364000003,,,,,,,,,,,,,,,,213,2022-05-10_14h05.15.101,FishGame,2022.1.1,60.00452434114982,
,32,넌 냉소적이야,5,Orange,A,2.916666666666667,2.4,ScrollDown,ScrollUp,Orange.png,3,Negative,Incongruent,0,0,0,0,,,,,,,,,,,,,,,,,,,,,0,31,31,31,,,,,,,,,,,,,,,,,,,,,,,,,,,,,,,,,,,,,,,,,,,,,,,,,,,,,,,,,,,,,,,,,,,,,,,,,,,,,1.1311728407939274,0.7908704000001308,421.4055765000003,None,ScrollDown,정답입니다,421.4055765000003,None,421.4055765000003,None,421.4055765000003,None,421.4055765000003,None,422.0654642000004,None,422.0654642000004,422.56531240000004,,,,,,,,,,,,,,,,213,2022-05-10_14h05.15.101,FishGame,2022.1.1,60.00452434114982,
,33,나를 데려가줘,6,Green,B,0,0,ScrollDown,ScrollUp,Green.png,3,NonTarget,NonTarget,0,0,0,0,,,,,,,,,,,,,,,,,,,,,0,32,32,32,,,,,,,,,,,,,,,,,,,,,,,,,,,,,,,,,,,,,,,,,,,,,,,,,,,,,,,,,,,,,,,,,,,,,,,,,,,,,1.3533950621883073,0.9385313000002498,423.2094751000004,None,ScrollDown,정답입니다,423.2094751000004,None,423.2094751000004,None,423.2094751000004,None,423.2094751000004,None,424.0248740000002,None,424.0248740000002,424.5320671000004,,,,,,,,,,,,,,,,213,2022-05-10_14h05.15.101,FishGame,2022.1.1,60.00452434114982,
,34,넌 쾌활해,1,Orange,A,5.541666666666666,5.733333333333333,ScrollDown,ScrollUp,Orange.png,3,Positive,Congruent,0,0,0,0,,,,,,,,,,,,,,,,,,,,,0,33,33,33,,,,,,,,,,,,,,,,,,,,,,,,,,,,,,,,,,,,,,,,,,,,,,,,,,,,,,,,,,,,,,,,,,,,,,,,,,,,,1.0416666567325592,0.8794512999998005,425.1861302000002,None,ScrollDown,정답입니다,425.1861302000002,None,425.1861302000002,None,425.1861302000002,None,425.1861302000002,None,425.93507210000007,None,425.93507210000007,426.4481833,,,,,,,,,,,,,,,,213,2022-05-10_14h05.15.101,FishGame,2022.1.1,60.00452434114982,
,35,나를 보내줘,6,Orange,A,0,0,ScrollUp,ScrollDown,Orange.png,3,NonTarget,NonTarget,0,0,0,0,,,,,,,,,,,,,,,,,,,,,0,34,34,34,,,,,,,,,,,,,,,,,,,,,,,,,,,,,,,,,,,,,,,,,,,,,,,,,,,,,,,,,,,,,,,,,,,,,,,,,,,,,1.9706790049870808,0.8629836000000068,427.1022723000001,None,ScrollUp,정답입니다,427.1022723000001,None,427.1022723000001,None,427.1022723000001,None,427.1022723000001,None,427.8362752000003,None,427.8362752000003,428.3479505,,,,,,,,,,,,,,,,213,2022-05-10_14h05.15.101,FishGame,2022.1.1,60.00452434114982,
,36,넌 명랑해,1,Green,B,5.739130434782609,5.666666666666667,ScrollUp,ScrollDown,Green.png,3,Positive,Incongruent,0,0,0,0,,,,,,,,,,,,,,,,,,,,,0,35,35,35,,,,,,,,,,,,,,,,,,,,,,,,,,,,,,,,,,,,,,,,,,,,,,,,,,,,,,,,,,,,,,,,,,,,,,,,,,,,,2,0.8952951999999641,428.9964301,None,ScrollUp,정답입니다,428.9964301,None,428.9964301,None,428.9964301,None,428.9964301,None,429.7644981000003,None,429.7644981000003,430.2644326000004,,,,,,,,,,,,,,,,213,2022-05-10_14h05.15.101,FishGame,2022.1.1,60.00452434114982,
,37,넌 멍해,4,Orange,A,2.833333333333333,3.4,ScrollDown,ScrollUp,Orange.png,3,Negative,Incongruent,0,0,0,0,,,,,,,,,,,,,,,,,,,,,0,36,36,36,,,,,,,,,,,,,,,,,,,,,,,,,,,,,,,,,,,,,,,,,,,,,,,,,,,,,,,,,,,,,,,,,,,,,,,,,,,,,1.0246913532416027,0.8941789000000426,430.91968940000015,None,ScrollDown,정답입니다,430.91968940000015,None,430.91968940000015,None,430.91968940000015,None,430.91968940000015,None,431.67778150000004,None,431.67778150000004,432.18061780000016,,,,,,,,,,,,,,,,213,2022-05-10_14h05.15.101,FishGame,2022.1.1,60.00452434114982,
,38,나를 데려가줘,6,Green,B,0,0,ScrollDown,ScrollUp,Green.png,3,NonTarget,NonTarget,0,0,0,0,,,,,,,,,,,,,,,,,,,,,0,37,37,37,,,,,,,,,,,,,,,,,,,,,,,,,,,,,,,,,,,,,,,,,,,,,,,,,,,,,,,,,,,,,,,,,,,,,,,,,,,,,1.0524691541989644,0.8654552000002695,432.83437520000007,None,ScrollDown,정답입니다,432.83437520000007,None,432.83437520000007,None,432.83437520000007,None,432.83437520000007,None,433.56865130000006,None,433.56865130000006,434.08073390000027,,,,,,,,,,,,,,,,213,2022-05-10_14h05.15.101,FishGame,2022.1.1,60.00452434114982,
,39,넌 현명해,2,Orange,A,6.541666666666666,4.533333333333333,ScrollDown,ScrollUp,Orange.png,3,Positive,Congruent,0,0,0,0,,,,,,,,,,,,,,,,,,,,,0,38,38,38,,,,,,,,,,,,,,,,,,,,,,,,,,,,,,,,,,,,,,,,,,,,,,,,,,,,,,,,,,,,,,,,,,,,,,,,,,,,,1.1759259204069774,0.8330485999999837,434.72800350000034,None,ScrollDown,정답입니다,434.72800350000034,None,434.72800350000034,None,434.72800350000034,None,434.72800350000034,None,435.43670410000004,None,435.43670410000004,435.9468932,,,,,,,,,,,,,,,,213,2022-05-10_14h05.15.101,FishGame,2022.1.1,60.00452434114982,
,40,넌 수줍어,3,Green,B,3.541666666666666,4.366666666666666,ScrollUp,ScrollDown,Green.png,3,Neutral,Neutral,0,0,0,0,,,,,,,,,,,,,,,,,,,,,0,39,39,39,,,,,,,,,,,,,,,,,,,,,,,,,,,,,,,,,,,,,,,,,,,,,,,,,,,,,,,,,,,,,,,,,,,,,,,,,,,,,1.983024666706721,0.8853411000000051,436.60061640000004,None,ScrollUp,정답입니다,436.60061640000004,None,436.60061640000004,None,436.60061640000004,None,436.60061640000004,None,437.3543132,None,437.3543132,437.8633162000001,,,,,,,,,,,,,,,,213,2022-05-10_14h05.15.101,FishGame,2022.1.1,60.00452434114982,
,41,나를 데려가줘,6,Green,B,0,0,ScrollDown,ScrollUp,Green.png,3,NonTarget,NonTarget,0,0,0,0,,,,,,,,,,,,,,,,,,,,,0,40,40,40,,,,,,,,,,,,,,,,,,,,,,,,,,,,,,,,,,,,,,,,,,,,,,,,,,,,,,,,,,,,,,,,,,,,,,,,,,,,,1.141975313425064,1.1144579000001613,438.51058190000003,None,ScrollDown,정답입니다,438.51058190000003,None,438.51058190000003,None,438.51058190000003,None,438.51058190000003,None,439.50105980000035,None,439.50105980000035,440.01329450000003,,,,,,,,,,,,,,,,213,2022-05-10_14h05.15.101,FishGame,2022.1.1,60.00452434114982,
,42,넌 성숙해,2,Green,B,5.833333333333333,4.533333333333333,ScrollUp,ScrollDown,Green.png,3,Positive,Incongruent,0,0,0,0,,,,,,,,,,,,,,,,,,,,,0,41,41,41,,,,,,,,,,,,,,,,,,,,,,,,,,,,,,,,,,,,,,,,,,,,,,,,,,,,,,,,,,,,,,,,,,,,,,,,,,,,,2,1.0059438000002956,440.6550833000001,None,ScrollUp,정답입니다,440.6550833000001,None,440.6550833000001,None,440.6550833000001,None,440.6550833000001,None,441.539851,None,441.539851,442.04610360000015,,,,,,,,,,,,,,,,213,2022-05-10_14h05.15.101,FishGame,2022.1.1,60.00452434114982,
,1,넌 매력적이야,2,Green,B,6.125,4.666666666666667,ScrollUp,ScrollDown,Green.png,4,Positive,Incongruent,0,0,0,0,,,,,,,,,,,,,,,,,,,,,,,,,0,0,0,0,,,,,,,,,,,,,,,,,,,,,,,,,,,,,,,,474.35880970000017,475.85865160000003,475.8918166000003,476.8417846000002,476.8917242000002,477.8415686000003,477.8415686000003,None,,,,,,,,,,,,,,,,,,,,,,,,,,,,,,,,,,2,0.9629985999999917,479.0374780000002,None,ScrollUp,정답입니다,479.0374780000002,None,479.0374780000002,None,479.0374780000002,None,479.0374780000002,None,479.81789500000014,None,479.81789500000014,480.3248173000002,442.5461624000004,None,442.5461624000004,None,0.15,-0.10185185,1,0,0,0.016197330000068177,None,472.5589067000001,None,,,213,2022-05-10_14h05.15.101,FishGame,2022.1.1,60.00452434114982,
,2,나를 보내줘,6,Orange,A,0,0,ScrollUp,ScrollDown,Orange.png,4,NonTarget,NonTarget,0,0,0,0,,,,,,,,,,,,,,,,,,,,,,,,,0,1,1,1,,,,,,,,,,,,,,,,,,,,,,,,,,,,,,,,,,,,,,,,,,,,,,,,,,,,,,,,,,,,,,,,,,,,,,,,,2,0.9390616999999111,480.9696197000003,None,ScrollUp,정답입니다,480.9696197000003,None,480.9696197000003,None,480.9696197000003,None,480.9696197000003,None,481.78439730000036,None,481.78439730000036,482.2909888000004,,,,,,,,,,,,,,,,213,2022-05-10_14h05.15.101,FishGame,2022.1.1,60.00452434114982,
,3,넌 조심스러워,3,Orange,A,4.791666666666666,4.666666666666667,ScrollDown,ScrollUp,Orange.png,4,Neutral,Neutral,0,0,0,0,,,,,,,,,,,,,,,,,,,,,,,,,0,2,2,2,,,,,,,,,,,,,,,,,,,,,,,,,,,,,,,,,,,,,,,,,,,,,,,,,,,,,,,,,,,,,,,,,,,,,,,,,1,0.8815157000003637,482.9455521,None,ScrollDown,정답입니다,482.9455521,None,482.9455521,None,482.9455521,None,482.9455521,None,483.6954780000001,None,483.6954780000001,484.2073458,,,,,,,,,,,,,,,,213,2022-05-10_14h05.15.101,FishGame,2022.1.1,60.00452434114982,
,4,넌 철학적이야,3,Green,B,4.5,4.266666666666667,ScrollUp,ScrollDown,Green.png,4,Neutral,Neutral,0,0,0,0,,,,,,,,,,,,,,,,,,,,,,,,,0,3,3,3,,,,,,,,,,,,,,,,,,,,,,,,,,,,,,,,,,,,,,,,,,,,,,,,,,,,,,,,,,,,,,,,,,,,,,,,,1.733024681607882,0.7832232999999178,484.8652194000001,None,ScrollUp,정답입니다,484.8652194000001,None,484.8652194000001,None,484.8652194000001,None,484.8652194000001,None,485.5139814000004,None,485.5139814000004,486.0239032000004,,,,,,,,,,,,,,,,213,2022-05-10_14h05.15.101,FishGame,2022.1.1,60.00452434114982,
,5,넌 쩨쩨해,5,Orange,A,2.375,2.133333333333333,ScrollDown,ScrollUp,Orange.png,4,Negative,Incongruent,0,0,0,0,,,,,,,,,,,,,,,,,,,,,,,,,0,4,4,4,,,,,,,,,,,,,,,,,,,,,,,,,,,,,,,,,,,,,,,,,,,,,,,,,,,,,,,,,,,,,,,,,,,,,,,,,1.0895061641931534,0.8345659000001433,486.6781715000002,None,ScrollDown,정답입니다,486.6781715000002,None,486.6781715000002,None,486.6781715000002,None,486.6781715000002,None,487.38012640000034,None,487.38012640000034,487.8901864000004,,,,,,,,,,,,,,,,213,2022-05-10_14h05.15.101,FishGame,2022.1.1,60.00452434114982,
,6,나를 데려가줘,6,Green,B,0,0,ScrollDown,ScrollUp,Green.png,4,NonTarget,NonTarget,0,0,0,0,,,,,,,,,,,,,,,,,,,,,,,,,0,5,5,5,,,,,,,,,,,,,,,,,,,,,,,,,,,,,,,,,,,,,,,,,,,,,,,,,,,,,,,,,,,,,,,,,,,,,,,,,1.1141975373029709,0.9511514000000716,488.5415777000003,None,ScrollDown,정답입니다,488.5415777000003,None,488.5415777000003,None,488.5415777000003,None,488.5415777000003,None,489.3630506000004,None,489.3630506000004,489.8734088000001,,,,,,,,,,,,,,,,213,2022-05-10_14h05.15.101,FishGame,2022.1.1,60.00452434114982,
,7,넌 고집불통이야,5,Green,B,2.875,2,ScrollUp,ScrollDown,Green.png,4,Negative,Congruent,0,0,0,0,,,,,,,,,,,,,,,,,,,,,,,,,0,6,6,6,,,,,,,,,,,,,,,,,,,,,,,,,,,,,,,,,,,,,,,,,,,,,,,,,,,,,,,,,,,,,,,,,,,,,,,,,2,0.8521837000002961,490.5275345,None,ScrollUp,정답입니다,490.5275345,None,490.5275345,None,490.5275345,None,490.5275345,None,491.24673600000006,None,491.24673600000006,491.7566187000002,,,,,,,,,,,,,,,,213,2022-05-10_14h05.15.101,FishGame,2022.1.1,60.00452434114982,
,8,넌 무심해,4,Orange,A,2.875,3.2,ScrollDown,ScrollUp,Orange.png,4,Negative,Incongruent,0,0,0,0,,,,,,,,,,,,,,,,,,,,,,,,,0,7,7,7,,,,,,,,,,,,,,,,,,,,,,,,,,,,,,,,,,,,,,,,,,,,,,,,,,,,,,,,,,,,,,,,,,,,,,,,,1.141975313425064,0.7914964000001419,492.4039436000003,None,ScrollDown,정답입니다,492.4039436000003,None,492.4039436000003,None,492.4039436000003,None,492.4039436000003,None,493.0733346000002,None,493.0733346000002,493.5728782000001,,,,,,,,,,,,,,,,213,2022-05-10_14h05.15.101,FishGame,2022.1.1,60.00452434114982,
,9,넌 정겨워,1,Orange,A,5.791666666666667,5.666666666666667,ScrollDown,ScrollUp,Orange.png,4,Positive,Congruent,0,0,0,0,,,,,,,,,,,,,,,,,,,,,,,,,0,8,8,8,,,,,,,,,,,,,,,,,,,,,,,,,,,,,,,,,,,,,,,,,,,,,,,,,,,,,,,,,,,,,,,,,,,,,,,,,1.0709876716136932,0.8060483000003842,494.24591290000035,None,ScrollDown,정답입니다,494.24591290000035,None,494.24591290000035,None,494.24591290000035,None,494.24591290000035,None,494.90619530000004,None,494.90619530000004,495.40618280000035,,,,,,,,,,,,,,,,213,2022-05-10_14h05.15.101,FishGame,2022.1.1,60.00452434114982,
,10,나를 데려가줘,6,Green,B,0,0,ScrollDown,ScrollUp,Green.png,4,NonTarget,NonTarget,0,0,0,0,,,,,,,,,,,,,,,,,,,,,,,,,0,9,9,9,,,,,,,,,,,,,,,,,,,,,,,,,,,,,,,,,,,,,,,,,,,,,,,,,,,,,,,,,,,,,,,,,,,,,,,,,1.2716049353281655,0.8443341000001965,496.04565490000005,None,ScrollDown,정답입니다,496.04565490000005,None,496.04565490000005,None,496.04565490000005,None,496.04565490000005,None,496.77531210000006,None,496.77531210000006,497.2890335000002,,,,,,,,,,,,,,,,213,2022-05-10_14h05.15.101,FishGame,2022.1.1,60.00452434114982,
,11,넌 체제순응적이야,4,Green,B,3,3.6,ScrollUp,ScrollDown,Green.png,4,Negative,Congruent,0,0,0,0,,,,,,,,,,,,,,,,,,,,,,,,,0,10,10,10,,,,,,,,,,,,,,,,,,,,,,,,,,,,,,,,,,,,,,,,,,,,,,,,,,,,,,,,,,,,,,,,,,,,,,,,,1.9475308458010356,0.8207244999998693,497.9548493000002,None,ScrollUp,정답입니다,497.9548493000002,None,497.9548493000002,None,497.9548493000002,None,497.9548493000002,None,498.6303071000002,None,498.6303071000002,499.138813,,,,,,,,,,,,,,,,213,2022-05-10_14h05.15.101,FishGame,2022.1.1,60.00452434114982,
,12,나를 보내줘,6,Orange,A,0,0,ScrollUp,ScrollDown,Orange.png,4,NonTarget,NonTarget,0,0,0,0,,,,,,,,,,,,,,,,,,,,,,,,,0,11,11,11,,,,,,,,,,,,,,,,,,,,,,,,,,,,,,,,,,,,,,,,,,,,,,,,,,,,,,,,,,,,,,,,,,,,,,,,,1.919753094514211,0.8584356000001208,499.7923023000003,None,ScrollUp,정답입니다,499.7923023000003,None,499.7923023000003,None,499.7923023000003,None,499.7923023000003,None,500.52201920000016,None,500.52201920000016,501.0218519,,,,,,,,,,,,,,,,213,2022-05-10_14h05.15.101,FishGame,2022.1.1,60.00452434114982,
,13,넌 박식해,2,Orange,A,5.625,3.933333333333333,ScrollDown,ScrollUp,Orange.png,4,Positive,Congruent,0,0,0,0,,,,,,,,,,,,,,,,,,,,,,,,,0,12,12,12,,,,,,,,,,,,,,,,,,,,,,,,,,,,,,,,,,,,,,,,,,,,,,,,,,,,,,,,,,,,,,,,,,,,,,,,,1.1836419651905696,0.8153881999996884,501.68035480000026,None,ScrollDown,정답입니다,501.68035480000026,None,501.68035480000026,None,501.68035480000026,None,501.68035480000026,None,502.35989480000035,None,502.35989480000035,502.87162400000034,,,,,,,,,,,,,,,,213,2022-05-10_14h05.15.101,FishGame,2022.1.1,60.00452434114982,
,14,나를 보내줘,6,Orange,A,0,0,ScrollUp,ScrollDown,Orange.png,4,NonTarget,NonTarget,0,0,0,0,,,,,,,,,,,,,,,,,,,,,,,,,0,13,13,13,,,,,,,,,,,,,,,,,,,,,,,,,,,,,,,,,,,,,,,,,,,,,,,,,,,,,,,,,,,,,,,,,,,,,,,,,2,0.953458099999807,503.52438970000003,None,ScrollUp,정답입니다,503.52438970000003,None,503.52438970000003,None,503.52438970000003,None,503.52438970000003,None,504.34676400000035,None,504.34676400000035,504.85470380000015,,,,,,,,,,,,,,,,213,2022-05-10_14h05.15.101,FishGame,2022.1.1,60.00452434114982,
,15,넌 침착해,1,Green,B,5.458333333333333,5.566666666666666,ScrollUp,ScrollDown,Green.png,4,Positive,Incongruent,0,0,0,0,,,,,,,,,,,,,,,,,,,,,,,,,0,14,14,14,,,,,,,,,,,,,,,,,,,,,,,,,,,,,,,,,,,,,,,,,,,,,,,,,,,,,,,,,,,,,,,,,,,,,,,,,1.785493830839793,0.9177261999998336,505.50587140000016,None,ScrollUp,정답입니다,505.50587140000016,None,505.50587140000016,None,505.50587140000016,None,505.50587140000016,None,506.29509270000017,None,506.29509270000017,506.8044888000004,,,,,,,,,,,,,,,,213,2022-05-10_14h05.15.101,FishGame,2022.1.1,60.00452434114982,
,16,나를 데려가줘,6,Green,B,0,0,ScrollDown,ScrollUp,Green.png,4,NonTarget,NonTarget,0,0,0,0,,,,,,,,,,,,,,,,,,,,,,,,,0,15,15,15,,,,,,,,,,,,,,,,,,,,,,,,,,,,,,,,,,,,,,,,,,,,,,,,,,,,,,,,,,,,,,,,,,,,,,,,,1.1898148208856583,0.8927972999999838,507.45240250000006,None,ScrollDown,정답입니다,507.45240250000006,None,507.45240250000006,None,507.45240250000006,None,507.45240250000006,None,508.2164689000001,None,508.2164689000001,508.7208992000001,,,,,,,,,,,,,,,,213,2022-05-10_14h05.15.101,FishGame,2022.1.1,60.00452434114982,
,17,넌 행복해,1,Orange,A,6.416666666666666,6.166666666666667,ScrollDown,ScrollUp,Orange.png,4,Positive,Congruent,0,0,0,0,,,,,,,,,,,,,,,,,,,,,,,,,0,16,16,16,,,,,,,,,,,,,,,,,,,,,,,,,,,,,,,,,,,,,,,,,,,,,,,,,,,,,,,,,,,,,,,,,,,,,,,,,1.1558641890684764,0.8108557000000474,509.38209570000026,None,ScrollDown,정답입니다,509.38209570000026,None,509.38209570000026,None,509.38209570000026,None,509.38209570000026,None,510.0538200000001,None,510.0538200000001,510.5542031,,,,,,,,,,,,,,,,213,2022-05-10_14h05.15.101,FishGame,2022.1.1,60.00452434114982,
,18,넌 겸손해,2,Green,B,5.791666666666667,4.766666666666667,ScrollUp,ScrollDown,Green.png,4,Positive,Incongruent,0,0,0,0,,,,,,,,,,,,,,,,,,,,,,,,,0,17,17,17,,,,,,,,,,,,,,,,,,,,,,,,,,,,,,,,,,,,,,,,,,,,,,,,,,,,,,,,,,,,,,,,,,,,,,,,,1.4984567901507642,0.9696837000001324,511.2216591000001,None,NoResponse,무응답입니다,511.2216591000001,None,511.2216591000001,None,511.2216591000001,None,511.2216591000001,None,512.0497457000001,None,512.0497457000001,512.5538771000001,,,,,,,,,,,,,,,,213,2022-05-10_14h05.15.101,FishGame,2022.1.1,60.00452434114982,
,19,나를 보내줘,6,Orange,A,0,0,ScrollUp,ScrollDown,Orange.png,4,NonTarget,NonTarget,0,0,0,0,,,,,,,,,,,,,,,,,,,,,,,,,0,18,18,18,,,,,,,,,,,,,,,,,,,,,,,,,,,,,,,,,,,,,,,,,,,,,,,,,,,,,,,,,,,,,,,,,,,,,,,,,1.9645061492919922,0.9381227999997463,513.2129178,None,ScrollUp,정답입니다,513.2129178,None,513.2129178,None,513.2129178,None,513.2129178,None,514.0233532000002,None,514.0233532000002,514.5369373000003,,,,,,,,,,,,,,,,213,2022-05-10_14h05.15.101,FishGame,2022.1.1,60.00452434114982,
,20,넌 의심없어,3,Orange,A,4.166666666666667,4.6,ScrollDown,ScrollUp,Orange.png,4,Neutral,Neutral,0,0,0,0,,,,,,,,,,,,,,,,,,,,,,,,,0,19,19,19,,,,,,,,,,,,,,,,,,,,,,,,,,,,,,,,,,,,,,,,,,,,,,,,,,,,,,,,,,,,,,,,,,,,,,,,,1.1759259204069774,0.9004116999999496,515.1935910000002,None,ScrollDown,정답입니다,515.1935910000002,None,515.1935910000002,None,515.1935910000002,None,515.1935910000002,None,515.9607846000004,None,515.9607846000004,516.4698870000002,,,,,,,,,,,,,,,,213,2022-05-10_14h05.15.101,FishGame,2022.1.1,60.00452434114982,
,21,넌 시시해,4,Orange,A,2.666666666666667,2.966666666666667,ScrollDown,ScrollUp,Orange.png,4,Negative,Incongruent,0,0,0,0,,,,,,,,,,,,,,,,,,,,,,,,,0,20,20,20,,,,,,,,,,,,,,,,,,,,,,,,,,,,,,,,,,,,,,,,,,,,,,,,,,,,,,,,,,,,,,,,,,,,,,,,,1.0848765472571056,0.8578725000002123,517.1336645000001,None,ScrollDown,정답입니다,517.1336645000001,None,517.1336645000001,None,517.1336645000001,None,517.1336645000001,None,517.8529535000002,None,517.8529535000002,518.3530448000001,,,,,,,,,,,,,,,,213,2022-05-10_14h05.15.101,FishGame,2022.1.1,60.00452434114982,
,22,나를 데려가줘,6,Green,B,0,0,ScrollDown,ScrollUp,Green.png,4,NonTarget,NonTarget,0,0,0,0,,,,,,,,,,,,,,,,,,,,,,,,,0,21,21,21,,,,,,,,,,,,,,,,,,,,,,,,,,,,,,,,,,,,,,,,,,,,,,,,,,,,,,,,,,,,,,,,,,,,,,,,,1.0509259402751923,0.9847657999998773,519.0227531,None,ScrollDown,정답입니다,519.0227531,None,519.0227531,None,519.0227531,None,519.0227531,None,519.8627849000004,None,519.8627849000004,520.3693993000002,,,,,,,,,,,,,,,,213,2022-05-10_14h05.15.101,FishGame,2022.1.1,60.00452434114982,
,23,넌 무정해,5,Orange,A,2.5,2.2,ScrollDown,ScrollUp,Orange.png,4,Negative,Incongruent,0,0,0,0,,,,,,,,,,,,,,,,,,,,,,,,,0,22,22,22,,,,,,,,,,,,,,,,,,,,,,,,,,,,,,,,,,,,,,,,,,,,,,,,,,,,,,,,,,,,,,,,,,,,,,,,,1,0.9557018000000426,521.0418065000003,None,ScrollDown,정답입니다,521.0418065000003,None,521.0418065000003,None,521.0418065000003,None,521.0418065000003,None,521.8525247000002,None,521.8525247000002,522.35248,,,,,,,,,,,,,,,,213,2022-05-10_14h05.15.101,FishGame,2022.1.1,60.00452434114982,
,24,넌 긍정적이야,1,Green,B,6.041666666666667,6.066666666666666,ScrollUp,ScrollDown,Green.png,4,Positive,Incongruent,0,0,0,0,,,,,,,,,,,,,,,,,,,,,,,,,0,23,23,23,,,,,,,,,,,,,,,,,,,,,,,,,,,,,,,,,,,,,,,,,,,,,,,,,,,,,,,,,,,,,,,,,,,,,,,,,2,0.991462799999681,523.0180596,None,ScrollUp,정답입니다,523.0180596,None,523.0180596,None,523.0180596,None,523.0180596,None,523.8661544000001,None,523.8661544000001,524.3689378000004,,,,,,,,,,,,,,,,213,2022-05-10_14h05.15.101,FishGame,2022.1.1,60.00452434114982,
,25,나를 보내줘,6,Orange,A,0,0,ScrollUp,ScrollDown,Orange.png,4,NonTarget,NonTarget,0,0,0,0,,,,,,,,,,,,,,,,,,,,,,,,,0,24,24,24,,,,,,,,,,,,,,,,,,,,,,,,,,,,,,,,,,,,,,,,,,,,,,,,,,,,,,,,,,,,,,,,,,,,,,,,,1.9861110945542653,0.8385998999997355,525.0207905000002,None,ScrollUp,정답입니다,525.0207905000002,None,525.0207905000002,None,525.0207905000002,None,525.0207905000002,None,525.7278741,None,525.7278741,526.2353136000002,,,,,,,,,,,,,,,,213,2022-05-10_14h05.15.101,FishGame,2022.1.1,60.00452434114982,
,26,넌 시기심이 많아,5,Green,B,2.458333333333333,2.233333333333333,ScrollUp,ScrollDown,Green.png,4,Negative,Congruent,0,0,0,0,,,,,,,,,,,,,,,,,,,,,,,,,0,25,25,25,,,,,,,,,,,,,,,,,,,,,,,,,,,,,,,,,,,,,,,,,,,,,,,,,,,,,,,,,,,,,,,,,,,,,,,,,1.9845678806304932,0.9491903999996794,526.8893115000001,None,ScrollUp,정답입니다,526.8893115000001,None,526.8893115000001,None,526.8893115000001,None,526.8893115000001,None,527.7066542000002,None,527.7066542000002,528.2183759000004,,,,,,,,,,,,,,,,213,2022-05-10_14h05.15.101,FishGame,2022.1.1,60.00452434114982,
,27,넌 탁월해,2,Orange,A,5.708333333333334,4.5,ScrollDown,ScrollUp,Orange.png,4,Positive,Congruent,0,0,0,0,,,,,,,,,,,,,,,,,,,,,,,,,0,26,26,26,,,,,,,,,,,,,,,,,,,,,,,,,,,,,,,,,,,,,,,,,,,,,,,,,,,,,,,,,,,,,,,,,,,,,,,,,1.0277777810891469,0.9276056000003337,528.8800172000001,None,ScrollDown,정답입니다,528.8800172000001,None,528.8800172000001,None,528.8800172000001,None,528.8800172000001,None,529.6682112000003,None,529.6682112000003,530.1681596000003,,,,,,,,,,,,,,,,213,2022-05-10_14h05.15.101,FishGame,2022.1.1,60.00452434114982,
,28,나를 데려가줘,6,Green,B,0,0,ScrollDown,ScrollUp,Green.png,4,NonTarget,NonTarget,0,0,0,0,,,,,,,,,,,,,,,,,,,,,,,,,0,27,27,27,,,,,,,,,,,,,,,,,,,,,,,,,,,,,,,,,,,,,,,,,,,,,,,,,,,,,,,,,,,,,,,,,,,,,,,,,1.1373456716537476,0.8755880000003344,530.8117890000003,None,ScrollDown,정답입니다,530.8117890000003,None,530.8117890000003,None,530.8117890000003,None,530.8117890000003,None,531.5680817000002,None,531.5680817000002,532.0678938000001,,,,,,,,,,,,,,,,213,2022-05-10_14h05.15.101,FishGame,2022.1.1,60.00452434114982,
,29,넌 조용해,3,Green,B,4.333333333333333,4.166666666666667,ScrollUp,ScrollDown,Green.png,4,Neutral,Neutral,0,0,0,0,,,,,,,,,,,,,,,,,,,,,,,,,0,28,28,28,,,,,,,,,,,,,,,,,,,,,,,,,,,,,,,,,,,,,,,,,,,,,,,,,,,,,,,,,,,,,,,,,,,,,,,,,1.3024691392978034,0.8335683999998764,532.7175562000002,None,ScrollDown,오답입니다,532.7175562000002,None,532.7175562000002,None,532.7175562000002,None,532.7175562000002,None,533.4262625000001,None,533.4262625000001,533.9343688000004,,,,,,,,,,,,,,,,213,2022-05-10_14h05.15.101,FishGame,2022.1.1,60.00452434114982,
,30,넌 다정해,1,Orange,A,5.833333333333334,5.7,ScrollDown,ScrollUp,Orange.png,4,Positive,Congruent,0,0,0,0,,,,,,,,,,,,,,,,,,,,,,,,,0,29,29,29,,,,,,,,,,,,,,,,,,,,,,,,,,,,,,,,,,,,,,,,,,,,,,,,,,,,,,,,,,,,,,,,,,,,,,,,,1.2098765522241592,1.078612400000111,534.5927828000004,None,ScrollDown,정답입니다,534.5927828000004,None,534.5927828000004,None,534.5927828000004,None,534.5927828000004,None,535.5372324,None,535.5372324,536.0509032,,,,,,,,,,,,,,,,213,2022-05-10_14h05.15.101,FishGame,2022.1.1,60.00452434114982,
,31,넌 능력있어,2,Green,B,6.166666666666666,4.6,ScrollUp,ScrollDown,Green.png,4,Positive,Incongruent,0,0,0,0,,,,,,,,,,,,,,,,,,,,,,,,,0,30,30,30,,,,,,,,,,,,,,,,,,,,,,,,,,,,,,,,,,,,,,,,,,,,,,,,,,,,,,,,,,,,,,,,,,,,,,,,,2,0.8886185999999725,536.6896411000002,None,ScrollUp,정답입니다,536.6896411000002,None,536.6896411000002,None,536.6896411000002,None,536.6896411000002,None,537.4612138000002,None,537.4612138000002,537.9672646000004,,,,,,,,,,,,,,,,213,2022-05-10_14h05.15.101,FishGame,2022.1.1,60.00452434114982,
,32,넌 불쾌해,5,Orange,A,2.125,1.933333333333333,ScrollDown,ScrollUp,Orange.png,4,Negative,Incongruent,0,0,0,0,,,,,,,,,,,,,,,,,,,,,,,,,0,31,31,31,,,,,,,,,,,,,,,,,,,,,,,,,,,,,,,,,,,,,,,,,,,,,,,,,,,,,,,,,,,,,,,,,,,,,,,,,1.1064814925193787,0.8649983999998767,538.6184977000003,None,ScrollDown,정답입니다,538.6184977000003,None,538.6184977000003,None,538.6184977000003,None,538.6184977000003,None,539.356037,None,539.356037,539.8668927000003,,,,,,,,,,,,,,,,213,2022-05-10_14h05.15.101,FishGame,2022.1.1,60.00452434114982,
,33,나를 데려가줘,6,Green,B,0,0,ScrollDown,ScrollUp,Green.png,4,NonTarget,NonTarget,0,0,0,0,,,,,,,,,,,,,,,,,,,,,,,,,0,32,32,32,,,,,,,,,,,,,,,,,,,,,,,,,,,,,,,,,,,,,,,,,,,,,,,,,,,,,,,,,,,,,,,,,,,,,,,,,1,0.8642196999999214,540.5179864000002,None,ScrollDown,정답입니다,540.5179864000002,None,540.5179864000002,None,540.5179864000002,None,540.5179864000002,None,541.2541621,None,541.2541621,541.7666822000001,,,,,,,,,,,,,,,,213,2022-05-10_14h05.15.101,FishGame,2022.1.1,60.00452434114982,
,34,넌 유순해,3,Orange,A,4.458333333333333,5,ScrollDown,ScrollUp,Orange.png,4,Neutral,Neutral,0,0,0,0,,,,,,,,,,,,,,,,,,,,,,,,,0,33,33,33,,,,,,,,,,,,,,,,,,,,,,,,,,,,,,,,,,,,,,,,,,,,,,,,,,,,,,,,,,,,,,,,,,,,,,,,,1.0370370149612427,0.8656295000000682,542.4180498000001,None,ScrollDown,정답입니다,542.4180498000001,None,542.4180498000001,None,542.4180498000001,None,542.4180498000001,None,543.1548014,None,543.1548014,543.6664185000004,,,,,,,,,,,,,,,,213,2022-05-10_14h05.15.101,FishGame,2022.1.1,60.00452434114982,
,35,넌 근심스러워,4,Green,B,2.708333333333333,3.133333333333333,ScrollUp,ScrollDown,Green.png,4,Negative,Congruent,0,0,0,0,,,,,,,,,,,,,,,,,,,,,,,,,0,34,34,34,,,,,,,,,,,,,,,,,,,,,,,,,,,,,,,,,,,,,,,,,,,,,,,,,,,,,,,,,,,,,,,,,,,,,,,,,2,0.9221717000000353,544.3218295000001,None,ScrollUp,정답입니다,544.3218295000001,None,544.3218295000001,None,544.3218295000001,None,544.3218295000001,None,545.1143873000001,None,545.1143873000001,545.6164480000002,,,,,,,,,,,,,,,,213,2022-05-10_14h05.15.101,FishGame,2022.1.1,60.00452434114982,
,36,넌 세련되었어,2,Orange,A,5.5,4.6,ScrollDown,ScrollUp,Orange.png,4,Positive,Congruent,0,0,0,0,,,,,,,,,,,,,,,,,,,,,,,,,0,35,35,35,,,,,,,,,,,,,,,,,,,,,,,,,,,,,,,,,,,,,,,,,,,,,,,,,,,,,,,,,,,,,,,,,,,,,,,,,1.1280864129463832,0.8874167999997553,546.2815333000003,None,ScrollDown,정답입니다,546.2815333000003,None,546.2815333000003,None,546.2815333000003,None,546.2815333000003,None,547.0329104000002,None,547.0329104000002,547.5326222000003,,,,,,,,,,,,,,,,213,2022-05-10_14h05.15.101,FishGame,2022.1.1,60.00452434114982,
,37,나를 보내줘,6,Orange,A,0,0,ScrollUp,ScrollDown,Orange.png,4,NonTarget,NonTarget,0,0,0,0,,,,,,,,,,,,,,,,,,,,,,,,,0,36,36,36,,,,,,,,,,,,,,,,,,,,,,,,,,,,,,,,,,,,,,,,,,,,,,,,,,,,,,,,,,,,,,,,,,,,,,,,,2,0.9543247000001429,548.1830278000002,None,ScrollUp,정답입니다,548.1830278000002,None,548.1830278000002,None,548.1830278000002,None,548.1830278000002,None,549.0077891000001,None,549.0077891000001,549.5156553000002,,,,,,,,,,,,,,,,213,2022-05-10_14h05.15.101,FishGame,2022.1.1,60.00452434114982,
,38,넌 확고해,3,Green,B,4.708333333333334,4.566666666666666,ScrollUp,ScrollDown,Green.png,4,Neutral,Neutral,0,0,0,0,,,,,,,,,,,,,,,,,,,,,,,,,0,37,37,37,,,,,,,,,,,,,,,,,,,,,,,,,,,,,,,,,,,,,,,,,,,,,,,,,,,,,,,,,,,,,,,,,,,,,,,,,1.9938271641731262,0.8625470000001769,550.1669489000001,None,ScrollUp,정답입니다,550.1669489000001,None,550.1669489000001,None,550.1669489000001,None,550.1669489000001,None,550.9018574000002,None,550.9018574000002,551.4153783000002,,,,,,,,,,,,,,,,213,2022-05-10_14h05.15.101,FishGame,2022.1.1,60.00452434114982,
,39,넌 이해심이 많아,1,Green,B,6.041666666666668,5.533333333333333,ScrollUp,ScrollDown,Green.png,4,Positive,Incongruent,0,0,0,0,,,,,,,,,,,,,,,,,,,,,,,,,0,38,38,38,,,,,,,,,,,,,,,,,,,,,,,,,,,,,,,,,,,,,,,,,,,,,,,,,,,,,,,,,,,,,,,,,,,,,,,,,2,0.910906999999952,552.0627927,None,ScrollUp,정답입니다,552.0627927,None,552.0627927,None,552.0627927,None,552.0627927,None,552.8486024000003,None,552.8486024000003,553.3484377,,,,,,,,,,,,,,,,213,2022-05-10_14h05.15.101,FishGame,2022.1.1,60.00452434114982,
,40,나를 보내줘,6,Orange,A,0,0,ScrollUp,ScrollDown,Orange.png,4,NonTarget,NonTarget,0,0,0,0,,,,,,,,,,,,,,,,,,,,,,,,,0,39,39,39,,,,,,,,,,,,,,,,,,,,,,,,,,,,,,,,,,,,,,,,,,,,,,,,,,,,,,,,,,,,,,,,,,,,,,,,,1.9537037014961243,0.8791127000004053,554.0005458,None,ScrollUp,정답입니다,554.0005458,None,554.0005458,None,554.0005458,None,554.0005458,None,554.7483982000003,None,554.7483982000003,555.2482021000001,,,,,,,,,,,,,,,,213,2022-05-10_14h05.15.101,FishGame,2022.1.1,60.00452434114982,
,41,넌 거칠어,4,Orange,A,2.625,3.033333333333333,ScrollDown,ScrollUp,Orange.png,4,Negative,Incongruent,0,0,0,0,,,,,,,,,,,,,,,,,,,,,,,,,0,40,40,40,,,,,,,,,,,,,,,,,,,,,,,,,,,,,,,,,,,,,,,,,,,,,,,,,,,,,,,,,,,,,,,,,,,,,,,,,1.2283950696388881,0.9990012999996907,555.9047311000004,None,ScrollDown,정답입니다,555.9047311000004,None,555.9047311000004,None,555.9047311000004,None,555.9047311000004,None,556.770266,None,556.770266,557.2812868000001,,,,,,,,,,,,,,,,213,2022-05-10_14h05.15.101,FishGame,2022.1.1,60.00452434114982,
,42,넌 변덕맞아,5,Green,B,2.75,2.166666666666667,ScrollUp,ScrollDown,Green.png,4,Negative,Congruent,0,0,0,0,,,,,,,,,,,,,,,,,,,,,,,,,0,41,41,41,,,,,,,,,,,,,,,,,,,,,,,,,,,,,,,,,,,,,,,,,,,,,,,,,,,,,,,,,,,,,,,,,,,,,,,,,2,0.8538358999999218,557.9399488000004,None,ScrollUp,정답입니다,557.9399488000004,None,557.9399488000004,None,557.9399488000004,None,557.9399488000004,None,558.6555725000003,None,558.6555725000003,559.1645942,,,,,,,,,,,,,,,,213,2022-05-10_14h05.15.101,FishGame,2022.1.1,60.00452434114982,
,43,나를 데려가줘,6,Green,B,0,0,ScrollDown,ScrollUp,Green.png,4,NonTarget,NonTarget,0,0,0,0,,,,,,,,,,,,,,,,,,,,,,,,,0,42,42,42,,,,,,,,,,,,,,,,,,,,,,,,,,,,,,,,,,,,,,,,,,,,,,,,,,,,,,,,,,,,,,,,,,,,,,,,,1,0.9369074000001092,559.8076592000002,None,ScrollDown,정답입니다,559.8076592000002,None,559.8076592000002,None,559.8076592000002,None,559.8076592000002,None,560.6212650000002,None,560.6212650000002,561.1307852,,,,,,,,,,,,,,,,213,2022-05-10_14h05.15.101,FishGame,2022.1.1,60.00452434114982,
,44,넌 외로워,4,Green,B,2.833333333333333,3.3,ScrollUp,ScrollDown,Green.png,4,Negative,Congruent,0,0,0,0,,,,,,,,,,,,,,,,,,,,,,,,,0,43,43,43,,,,,,,,,,,,,,,,,,,,,,,,,,,,,,,,,,,,,,,,,,,,,,,,,,,,,,,,,,,,,,,,,,,,,,,,,2,1.0507728999996289,561.7810479,None,ScrollUp,정답입니다,561.7810479,None,561.7810479,None,561.7810479,None,561.7810479,None,562.7025128,None,562.7025128,563.2139380000003,,,,,,,,,,,,,,,,213,2022-05-10_14h05.15.101,FishGame,2022.1.1,60.00452434114982,
,1,넌 불평스러워,5,Orange,A,2.25,2.066666666666667,ScrollDown,ScrollUp,Orange.png,5,Negative,Incongruent,0,0,0,0,,,,,,,,,,,,,,,,,,,,,,,,,,,,,0,0,0,0,,,,,,,,,,,,,,,,,,,,,,,,,,,,597.6429939000004,599.1425960000001,599.1759464000002,600.1258580000003,600.1757123000002,601.1257158000003,601.1257158000003,None,,,,,,,,,,,,,,,,,,,,,,,,,,,,,,,,,,1.1435185273488362,0.9811952000000019,602.3164628000004,None,ScrollDown,정답입니다,602.3164628000004,None,602.3164628000004,None,602.3164628000004,None,602.3164628000004,None,603.1186320000002,None,603.1186320000002,603.6252676000004,563.7138332000004,None,563.7138332000004,None,0.20555556,-0.09074074,1,0,0,0.016208330000154092,None,593.7099303,None,,,213,2022-05-10_14h05.15.101,FishGame,2022.1.1,60.00452434114982,
,2,나를 보내줘,6,Orange,A,0,0,ScrollUp,ScrollDown,Orange.png,5,NonTarget,NonTarget,0,0,0,0,,,,,,,,,,,,,,,,,,,,,,,,,,,,,0,1,1,1,,,,,,,,,,,,,,,,,,,,,,,,,,,,,,,,,,,,,,,,,,,,,,,,,,,,,,,,,,,,,,,,,,,,,1.8302469104528427,0.9776034999999865,604.2755070000003,None,ScrollUp,정답입니다,604.2755070000003,None,604.2755070000003,None,604.2755070000003,None,604.2755070000003,None,605.1252080000004,None,605.1252080000004,605.6251023,,,,,,,,,,,,,,,,213,2022-05-10_14h05.15.101,FishGame,2022.1.1,60.00452434114982,
,3,넌 다재다능해,2,Green,B,6.208333333333333,4.5,ScrollUp,ScrollDown,Green.png,5,Positive,Incongruent,0,0,0,0,,,,,,,,,,,,,,,,,,,,,,,,,,,,,0,2,2,2,,,,,,,,,,,,,,,,,,,,,,,,,,,,,,,,,,,,,,,,,,,,,,,,,,,,,,,,,,,,,,,,,,,,,2,0.8466261000003215,606.2756116,None,ScrollUp,정답입니다,606.2756116,None,606.2756116,None,606.2756116,None,606.2756116,None,606.9944595000002,None,606.9944595000002,607.5081301,,,,,,,,,,,,,,,,213,2022-05-10_14h05.15.101,FishGame,2022.1.1,60.00452434114982,
,4,넌 과감해,3,Orange,A,4.833333333333334,4.6,ScrollDown,ScrollUp,Orange.png,5,Neutral,Neutral,0,0,0,0,,,,,,,,,,,,,,,,,,,,,,,,,,,,,0,3,3,3,,,,,,,,,,,,,,,,,,,,,,,,,,,,,,,,,,,,,,,,,,,,,,,,,,,,,,,,,,,,,,,,,,,,,1.120370368162791,0.8608348999996451,608.1589929000002,None,ScrollDown,정답입니다,608.1589929000002,None,608.1589929000002,None,608.1589929000002,None,608.1589929000002,None,608.8918807,None,608.8918807,609.3912909000001,,,,,,,,,,,,,,,,213,2022-05-10_14h05.15.101,FishGame,2022.1.1,60.00452434114982,
,5,넌 고분고분해,3,Green,B,3.75,4.033333333333333,ScrollUp,ScrollDown,Green.png,5,Neutral,Neutral,0,0,0,0,,,,,,,,,,,,,,,,,,,,,,,,,,,,,0,4,4,4,,,,,,,,,,,,,,,,,,,,,,,,,,,,,,,,,,,,,,,,,,,,,,,,,,,,,,,,,,,,,,,,,,,,,2,0.8070541000001867,610.0486891,None,ScrollUp,정답입니다,610.0486891,None,610.0486891,None,610.0486891,None,610.0486891,None,610.7244849000003,None,610.7244849000003,611.2243873000002,,,,,,,,,,,,,,,,213,2022-05-10_14h05.15.101,FishGame,2022.1.1,60.00452434114982,
,6,나를 보내줘,6,Orange,A,0,0,ScrollUp,ScrollDown,Orange.png,5,NonTarget,NonTarget,0,0,0,0,,,,,,,,,,,,,,,,,,,,,,,,,,,,,0,5,5,5,,,,,,,,,,,,,,,,,,,,,,,,,,,,,,,,,,,,,,,,,,,,,,,,,,,,,,,,,,,,,,,,,,,,,2,0.8786200999998073,611.8755997000003,None,ScrollUp,정답입니다,611.8755997000003,None,611.8755997000003,None,611.8755997000003,None,611.8755997000003,None,612.6241961000001,None,612.6241961000001,613.1242654000002,,,,,,,,,,,,,,,,213,2022-05-10_14h05.15.101,FishGame,2022.1.1,60.00452434114982,
,7,넌 잘 잊어,4,Orange,A,3,3.7,ScrollDown,ScrollUp,Orange.png,5,Negative,Incongruent,0,0,0,0,,,,,,,,,,,,,,,,,,,,,,,,,,,,,0,6,6,6,,,,,,,,,,,,,,,,,,,,,,,,,,,,,,,,,,,,,,,,,,,,,,,,,,,,,,,,,,,,,,,,,,,,,1.0555555323759716,0.8619085000000268,613.7825944000001,None,ScrollDown,정답입니다,613.7825944000001,None,613.7825944000001,None,613.7825944000001,None,613.7825944000001,None,614.5079506000002,None,614.5079506000002,615.0071695000001,,,,,,,,,,,,,,,,213,2022-05-10_14h05.15.101,FishGame,2022.1.1,60.00452434114982,
,8,넌 탐구심이없어,4,Green,B,2.833333333333333,3.066666666666667,ScrollUp,ScrollDown,Green.png,5,Negative,Congruent,0,0,0,0,,,,,,,,,,,,,,,,,,,,,,,,,,,,,0,7,7,7,,,,,,,,,,,,,,,,,,,,,,,,,,,,,,,,,,,,,,,,,,,,,,,,,,,,,,,,,,,,,,,,,,,,,1.9706790049870808,0.8870714999998199,615.7327566000004,None,ScrollUp,정답입니다,615.7327566000004,None,615.7327566000004,None,615.7327566000004,None,615.7327566000004,None,616.4148952,None,616.4148952,616.9236770000002,,,,,,,,,,,,,,,,213,2022-05-10_14h05.15.101,FishGame,2022.1.1,60.00452434114982,
,9,나를 데려가줘,6,Green,B,0,0,ScrollDown,ScrollUp,Green.png,5,NonTarget,NonTarget,0,0,0,0,,,,,,,,,,,,,,,,,,,,,,,,,,,,,0,8,8,8,,,,,,,,,,,,,,,,,,,,,,,,,,,,,,,,,,,,,,,,,,,,,,,,,,,,,,,,,,,,,,,,,,,,,1.1095678955316544,1.2807217999998102,617.5645772000003,None,ScrollDown,정답입니다,617.5645772000003,None,617.5645772000003,None,617.5645772000003,None,617.5645772000003,None,618.7275300000001,None,618.7275300000001,619.2399828000002,,,,,,,,,,,,,,,,213,2022-05-10_14h05.15.101,FishGame,2022.1.1,60.00452434114982,
,10,넌 참되어,2,Orange,A,6.041666666666664,4.733333333333333,ScrollDown,ScrollUp,Orange.png,5,Positive,Congruent,0,0,0,0,,,,,,,,,,,,,,,,,,,,,,,,,,,,,0,9,9,9,,,,,,,,,,,,,,,,,,,,,,,,,,,,,,,,,,,,,,,,,,,,,,,,,,,,,,,,,,,,,,,,,,,,,1.1280864129463832,0.9348046999998587,619.8958656,None,ScrollDown,정답입니다,619.8958656,None,619.8958656,None,619.8958656,None,619.8958656,None,620.6965652000004,None,620.6965652000004,621.2063791,,,,,,,,,,,,,,,,213,2022-05-10_14h05.15.101,FishGame,2022.1.1,60.00452434114982,
,11,넌 생기있어,1,Green,B,5.875,5.633333333333334,ScrollUp,ScrollDown,Green.png,5,Positive,Incongruent,0,0,0,0,,,,,,,,,,,,,,,,,,,,,,,,,,,,,0,10,10,10,,,,,,,,,,,,,,,,,,,,,,,,,,,,,,,,,,,,,,,,,,,,,,,,,,,,,,,,,,,,,,,,,,,,,1.8981481492519379,0.7699035000000549,621.8565885000003,None,ScrollUp,정답입니다,621.8565885000003,None,621.8565885000003,None,621.8565885000003,None,621.8565885000003,None,622.497073,None,622.497073,623.0061478000002,,,,,,,,,,,,,,,,213,2022-05-10_14h05.15.101,FishGame,2022.1.1,60.00452434114982,
,12,넌 비사교적이야,4,Green,B,2.875,2.9,ScrollUp,ScrollDown,Green.png,5,Negative,Congruent,0,0,0,0,,,,,,,,,,,,,,,,,,,,,,,,,,,,,0,11,11,11,,,,,,,,,,,,,,,,,,,,,,,,,,,,,,,,,,,,,,,,,,,,,,,,,,,,,,,,,,,,,,,,,,,,,1.8873456766208012,0.8098248000001149,623.6523804000003,None,ScrollUp,정답입니다,623.6523804000003,None,623.6523804000003,None,623.6523804000003,None,623.6523804000003,None,624.3393509000002,None,624.3393509000002,624.8392239,,,,,,,,,,,,,,,,213,2022-05-10_14h05.15.101,FishGame,2022.1.1,60.00452434114982,
,13,나를 데려가줘,6,Green,B,0,0,ScrollDown,ScrollUp,Green.png,5,NonTarget,NonTarget,0,0,0,0,,,,,,,,,,,,,,,,,,,,,,,,,,,,,0,12,12,12,,,,,,,,,,,,,,,,,,,,,,,,,,,,,,,,,,,,,,,,,,,,,,,,,,,,,,,,,,,,,,,,,,,,,1.1342592686414719,0.909056899999996,625.4840765000004,None,ScrollDown,정답입니다,625.4840765000004,None,625.4840765000004,None,625.4840765000004,None,625.4840765000004,None,626.2727115000002,None,626.2727115000002,626.7724561,,,,,,,,,,,,,,,,213,2022-05-10_14h05.15.101,FishGame,2022.1.1,60.00452434114982,
,14,넌 고독해,4,Orange,A,2.916666666666667,3.233333333333333,ScrollDown,ScrollUp,Orange.png,5,Negative,Incongruent,0,0,0,0,,,,,,,,,,,,,,,,,,,,,,,,,,,,,0,13,13,13,,,,,,,,,,,,,,,,,,,,,,,,,,,,,,,,,,,,,,,,,,,,,,,,,,,,,,,,,,,,,,,,,,,,,1.496913580301528,0.29426539999985835,627.4343202,None,NoResponse,무응답입니다,627.4343202,None,627.4343202,None,627.4343202,None,627.4343202,None,627.5950357000002,None,627.5950357000002,628.1055109000004,,,,,,,,,,,,,,,,213,2022-05-10_14h05.15.101,FishGame,2022.1.1,60.00452434114982,
,15,넌 신경질적이야,5,Green,B,2.375,2.233333333333333,ScrollUp,ScrollDown,Green.png,5,Negative,Congruent,0,0,0,0,,,,,,,,,,,,,,,,,,,,,,,,,,,,,0,14,14,14,,,,,,,,,,,,,,,,,,,,,,,,,,,,,,,,,,,,,,,,,,,,,,,,,,,,,,,,,,,,,,,,,,,,,1.9861110945542653,1.0973635999998805,628.7623184000004,None,ScrollUp,정답입니다,628.7623184000004,None,628.7623184000004,None,628.7623184000004,None,628.7623184000004,None,629.7266469000001,None,629.7266469000001,630.2385903000004,,,,,,,,,,,,,,,,213,2022-05-10_14h05.15.101,FishGame,2022.1.1,60.00452434114982,
,16,넌 똑똑해,2,Green,B,5.666666666666667,3.966666666666667,ScrollUp,ScrollDown,Green.png,5,Positive,Incongruent,0,0,0,0,,,,,,,,,,,,,,,,,,,,,,,,,,,,,0,15,15,15,,,,,,,,,,,,,,,,,,,,,,,,,,,,,,,,,,,,,,,,,,,,,,,,,,,,,,,,,,,,,,,,,,,,,2,0.9125424999997449,630.8869788000002,None,ScrollUp,정답입니다,630.8869788000002,None,630.8869788000002,None,630.8869788000002,None,630.8869788000002,None,631.6719351000002,None,631.6719351000002,632.1716564000003,,,,,,,,,,,,,,,,213,2022-05-10_14h05.15.101,FishGame,2022.1.1,60.00452434114982,
,17,나를 보내줘,6,Orange,A,0,0,ScrollUp,ScrollDown,Orange.png,5,NonTarget,NonTarget,0,0,0,0,,,,,,,,,,,,,,,,,,,,,,,,,,,,,0,16,16,16,,,,,,,,,,,,,,,,,,,,,,,,,,,,,,,,,,,,,,,,,,,,,,,,,,,,,,,,,,,,,,,,,,,,,2,0.9309344000002966,632.8178601000004,None,ScrollUp,정답입니다,632.8178601000004,None,632.8178601000004,None,632.8178601000004,None,632.8178601000004,None,633.6247736,None,633.6247736,634.1379987,,,,,,,,,,,,,,,,213,2022-05-10_14h05.15.101,FishGame,2022.1.1,60.00452434114982,
,18,넌 협조적이야,1,Orange,A,5.625,5.666666666666667,ScrollDown,ScrollUp,Orange.png,5,Positive,Congruent,0,0,0,0,,,,,,,,,,,,,,,,,,,,,,,,,,,,,0,17,17,17,,,,,,,,,,,,,,,,,,,,,,,,,,,,,,,,,,,,,,,,,,,,,,,,,,,,,,,,,,,,,,,,,,,,,1.0617283880710602,0.8646080000003167,634.7943707000004,None,ScrollDown,정답입니다,634.7943707000004,None,634.7943707000004,None,634.7943707000004,None,634.7943707000004,None,635.5249199,None,635.5249199,636.0377210000001,,,,,,,,,,,,,,,,213,2022-05-10_14h05.15.101,FishGame,2022.1.1,60.00452434114982,
,19,나를 데려가줘,6,Green,B,0,0,ScrollDown,ScrollUp,Green.png,5,NonTarget,NonTarget,0,0,0,0,,,,,,,,,,,,,,,,,,,,,,,,,,,,,0,18,18,18,,,,,,,,,,,,,,,,,,,,,,,,,,,,,,,,,,,,,,,,,,,,,,,,,,,,,,,,,,,,,,,,,,,,,1.1064814925193787,1.1230910999997832,636.6808530000003,None,ScrollDown,정답입니다,636.6808530000003,None,636.6808530000003,None,636.6808530000003,None,636.6808530000003,None,637.6875716000004,None,637.6875716000004,638.1875467,,,,,,,,,,,,,,,,213,2022-05-10_14h05.15.101,FishGame,2022.1.1,60.00452434114982,
,20,넌 몰인정해,5,Green,B,2.541666666666667,2.066666666666667,ScrollUp,ScrollDown,Green.png,5,Negative,Congruent,0,0,0,0,,,,,,,,,,,,,,,,,,,,,,,,,,,,,0,19,19,19,,,,,,,,,,,,,,,,,,,,,,,,,,,,,,,,,,,,,,,,,,,,,,,,,,,,,,,,,,,,,,,,,,,,,2,0.962286899999981,638.8452727000004,None,ScrollUp,정답입니다,638.8452727000004,None,638.8452727000004,None,638.8452727000004,None,638.8452727000004,None,639.6717891000003,None,639.6717891000003,640.1707512000003,,,,,,,,,,,,,,,,213,2022-05-10_14h05.15.101,FishGame,2022.1.1,60.00452434114982,
,21,나를 데려가줘,6,Green,B,0,0,ScrollDown,ScrollUp,Green.png,5,NonTarget,NonTarget,0,0,0,0,,,,,,,,,,,,,,,,,,,,,,,,,,,,,0,20,20,20,,,,,,,,,,,,,,,,,,,,,,,,,,,,,,,,,,,,,,,,,,,,,,,,,,,,,,,,,,,,,,,,,,,,,1.1574074029922485,1.0712828000000627,640.8382380000003,None,ScrollDown,정답입니다,640.8382380000003,None,640.8382380000003,None,640.8382380000003,None,640.8382380000003,None,641.7806400000004,None,641.7806400000004,642.2871020000002,,,,,,,,,,,,,,,,213,2022-05-10_14h05.15.101,FishGame,2022.1.1,60.00452434114982,
,22,넌 순진해,3,Green,B,4.125,4.166666666666667,ScrollUp,ScrollDown,Green.png,5,Neutral,Neutral,0,0,0,0,,,,,,,,,,,,,,,,,,,,,,,,,,,,,0,21,21,21,,,,,,,,,,,,,,,,,,,,,,,,,,,,,,,,,,,,,,,,,,,,,,,,,,,,,,,,,,,,,,,,,,,,,2,0.9396442999995998,642.9253055000004,None,ScrollUp,정답입니다,642.9253055000004,None,642.9253055000004,None,642.9253055000004,None,642.9253055000004,None,643.7470481,None,643.7470481,644.2537585,,,,,,,,,,,,,,,,213,2022-05-10_14h05.15.101,FishGame,2022.1.1,60.00452434114982,
,23,넌 신뢰할만해,1,Orange,A,6.625,5.533333333333333,ScrollDown,ScrollUp,Orange.png,5,Positive,Congruent,0,0,0,0,,,,,,,,,,,,,,,,,,,,,,,,,,,,,0,22,22,22,,,,,,,,,,,,,,,,,,,,,,,,,,,,,,,,,,,,,,,,,,,,,,,,,,,,,,,,,,,,,,,,,,,,,1.388888883093993,0.8988569000002826,644.9077240000001,None,ScrollDown,정답입니다,644.9077240000001,None,644.9077240000001,None,644.9077240000001,None,644.9077240000001,None,645.6758002000001,None,645.6758002000001,646.1864281000003,,,,,,,,,,,,,,,,213,2022-05-10_14h05.15.101,FishGame,2022.1.1,60.00452434114982,
,24,나를 보내줘,6,Orange,A,0,0,ScrollUp,ScrollDown,Orange.png,5,NonTarget,NonTarget,0,0,0,0,,,,,,,,,,,,,,,,,,,,,,,,,,,,,0,23,23,23,,,,,,,,,,,,,,,,,,,,,,,,,,,,,,,,,,,,,,,,,,,,,,,,,,,,,,,,,,,,,,,,,,,,,1.699074074625969,1.0787718999999925,646.8348762,None,ScrollUp,정답입니다,646.8348762,None,646.8348762,None,646.8348762,None,646.8348762,None,647.7831576000003,None,647.7831576000003,648.2862388000003,,,,,,,,,,,,,,,,213,2022-05-10_14h05.15.101,FishGame,2022.1.1,60.00452434114982,
