name,TrialNum,Word,WordCategory,FishType,WordList,WordValence,WordReputation,CorrectResp,IncorrectResp,FishTypeFile,Round,WordType,Condition,LoopforOrange.thisRepN,LoopforOrange.thisTrialN,LoopforOrange.thisN,LoopforOrange.thisIndex,LoopForGreen.thisRepN,LoopForGreen.thisTrialN,LoopForGreen.thisN,LoopForGreen.thisIndex,GreenInstLoop.thisRepN,GreenInstLoop.thisTrialN,GreenInstLoop.thisN,GreenInstLoop.thisIndex,GreenPrac.thisRepN,GreenPrac.thisTrialN,GreenPrac.thisN,GreenPrac.thisIndex,trials_2.thisRepN,trials_2.thisTrialN,trials_2.thisN,trials_2.thisIndex,GreenRound1.thisRepN,GreenRound1.thisTrialN,GreenRound1.thisN,GreenRound1.thisIndex,GreenRound2.thisRepN,GreenRound2.thisTrialN,GreenRound2.thisN,GreenRound2.thisIndex,GreenRound3.thisRepN,GreenRound3.thisTrialN,GreenRound3.thisN,GreenRound3.thisIndex,GreenRound4.thisRepN,GreenRound4.thisTrialN,GreenRound4.thisN,GreenRound4.thisIndex,GreenRound5.thisRepN,GreenRound5.thisTrialN,GreenRound5.thisN,GreenRound5.thisIndex,text_2.started,text_2.stopped,text_3.started,text_3.stopped,key_resp.keys,key_resp.rt,key_resp.started,key_resp.stopped,PassI.started,PassI.stopped,PassInst.keys,PassInst.rt,PassInst.started,PassInst.stopped,mouse_2.x,mouse_2.y,mouse_2.leftButton,mouse_2.midButton,mouse_2.rightButton,mouse_2.started,mouse_2.stopped,image.started,image.stopped,text_5.started,text_5.stopped,text_6.started,text_6.stopped,text_7.started,text_7.stopped,text_8.started,text_8.stopped,slider_3.response,slider_3.rt,slider_3.started,slider_3.stopped,Response_3,Feedback_3,BackGround_3.started,BackGround_3.stopped,Fish_3.started,Fish_3.stopped,WordBox_3.started,WordBox_3.stopped,Words_3.started,Words_3.stopped,BackGround_Feedback_3.started,BackGround_Feedback_3.stopped,Feedbacks_3.started,Feedbacks_3.stopped,Continue_or_not_2.keys,Continue_or_not_2.rt,Continue_or_not_2.started,Continue_or_not_2.stopped,image_4.started,image_4.stopped,mouse_3.x,mouse_3.y,mouse_3.leftButton,mouse_3.midButton,mouse_3.rightButton,mouse_3.started,mouse_3.stopped,startmain.started,startmain.stopped,slider_4.response,slider_4.rt,slider_4.started,slider_4.stopped,Response_4,Feedback_4,BackGround_4.started,BackGround_4.stopped,Fish_4.started,Fish_4.stopped,WordBox_4.started,WordBox_4.stopped,Words_4.started,Words_4.stopped,BackGround_Feedback_4.started,BackGround_Feedback_4.stopped,Feedbacks_4.started,Feedbacks_4.stopped,text.started,text.stopped,break_interval.started,break_interval.stopped,mouse.x,mouse.y,mouse.leftButton,mouse.midButton,mouse.rightButton,mouse.started,mouse.stopped,stratnextround.started,stratnextround.stopped,endgame.started,endgame.stopped,participant,date,expName,psychopyVersion,frameRate,
,,,,,,,,,,,,,,,,,,,,,,,,,,,,,,,,,,,,,,,,,,,,,,,,,,,,,,19.671575199998188,None,19.671575199998188,None,space,4.598940900003072,20.155412699998124,None,,,,,,,,,,,,,,,,,,,,,,,,,,,,,,,,,,,,,,,,,,,,,,,,,,,,,,,,,,,,,,,,,,,,,,,,,,,,,,,,,,,,,,,,,,214,2022-05-10_18h15.11.718,FishGame,2022.1.1,59.9641893861045,
물고기과제_instruction(참가자용)GreenVersion.mp4,,,,,,,,,,,,,,,,,,0,0,0,0,0,0,0,0,,,,,,,,,,,,,,,,,,,,,,,,,,,,,,,,,,,,,91.56938199999786,None,n,4.040553599999839,91.56938199999786,None,,,,,,,,,,,,,,,,,,,,,,,,,,,,,,,,,,,,,,,,,,,,,,,,,,,,,,,,,,,,,,,,,,,,,,,,,,,,,,,,,,,,214,2022-05-10_18h15.11.718,FishGame,2022.1.1,59.9641893861045,
,1,넌 교활해,5,Orange,B,2.333333333333333,2.133333333333333,ScrollUp,ScrollDown,Orange.png,practice,,,,,,,0,0,0,0,,,,,0,0,0,0,0,0,0,0,,,,,,,,,,,,,,,,,,,,,,,,,,,,,,,,,,,0.025925925,-0.22037037,1,0,0,0.5133517599970219,None,95.62858259999848,None,102.66147360000105,104.16101060000074,104.1942143999986,105.14415419999932,105.19959540000127,106.16074099999969,106.1438238999981,None,2,1.5857251000015822,107.34290350000083,None,ScrollUp,정답입니다,107.34290350000083,None,107.34290350000083,None,107.34290350000083,None,107.34290350000083,None,108.74352050000016,None,108.74352050000016,109.24349470000016,,,,,,,,,,,,,,,,,,,,,,,,,,,,,,,,,,,,,,,,,,,,,,,,,214,2022-05-10_18h15.11.718,FishGame,2022.1.1,59.9641893861045,
,2,넌 슬기로워,2,Green,A,6.166666666666667,4.1,ScrollDown,ScrollUp,Green.png,practice,,,,,,,0,0,0,0,,,,,0,0,0,0,0,1,1,1,,,,,,,,,,,,,,,,,,,,,,,,,,,,,,,,,,,,,,,,,,,,,,,,,,,,1.2299382835626602,1.3852303999992728,109.90855839999858,None,ScrollDown,정답입니다,109.90855839999858,None,109.90855839999858,None,109.90855839999858,None,109.90855839999858,None,111.15220100000079,None,111.15220100000079,111.65979909999805,,,,,,,,,,,,,,,,,,,,,,,,,,,,,,,,,,,,,,,,,,,,,,,,,214,2022-05-10_18h15.11.718,FishGame,2022.1.1,59.9641893861045,
,3,나를 보내줘,6,Green,A,0,0,ScrollUp,ScrollDown,Green.png,practice,,,,,,,0,0,0,0,,,,,0,0,0,0,0,2,2,2,,,,,,,,,,,,,,,,,,,,,,,,,,,,,,,,,,,,,,,,,,,,,,,,,,,,1.0632716019948323,0.9822238000015204,112.31393190000017,None,ScrollDown,오답입니다,112.31393190000017,None,112.31393190000017,None,112.31393190000017,None,112.31393190000017,None,113.1692722000007,None,113.1692722000007,113.67632339999909,,,,,,,,,,,,,,,,,,,,,,,,,,,,,,,,,,,,,,,,,,,,,,,,,214,2022-05-10_18h15.11.718,FishGame,2022.1.1,59.9641893861045,
,4,나를 데려가줘,6,Orange,B,0,0,ScrollDown,ScrollUp,Orange.png,practice,,,,,,,0,0,0,0,,,,,0,0,0,0,0,3,3,3,,,,,,,,,,,,,,,,,,,,,,,,,,,,,,,,,,,,,,,,,,,,,,,,,,,,1,1.650735999999597,114.33392169999934,None,ScrollDown,정답입니다,114.33392169999934,None,114.33392169999934,None,114.33392169999934,None,114.33392169999934,None,115.85182770000029,None,115.85182770000029,116.35918980000133,,,,,,,,,,,,,,,,,,,,,,,,,,,,,,,,,,,,,,,,,,,,,,,,,214,2022-05-10_18h15.11.718,FishGame,2022.1.1,59.9641893861045,
,1,넌 교활해,5,Orange,B,2.333333333333333,2.133333333333333,ScrollUp,ScrollDown,Orange.png,practice,,,,,,,0,0,0,0,,,,,0,0,0,0,,,,,,,,,,,,,,,,,,,,,,,,,,,,,,,,,,,,,,,,,,,,,,,,,,,,,,,,,,,,,,,,,,,,,,,,,,n,4.6266560000003665,116.85908159999963,None,116.85908159999963,None,,,,,,,,,,,,,,,,,,,,,,,,,,,,,,,,,,,,,,,,,,,214,2022-05-10_18h15.11.718,FishGame,2022.1.1,59.9641893861045,
,1,넌 따뜻해,1,Orange,B,6.083333333333333,5.6,ScrollUp,ScrollDown,Orange.png,1,Positive,Incongruent,,,,,0,0,0,0,,,,,,,,,,,,,0,0,0,0,,,,,,,,,,,,,,,,,,,,,,,,,,,,,,,,,,,,,,,,127.50785090000136,129.00758309999947,129.04092540000056,129.99089430000095,130.04080009999961,130.99074159999873,130.99074159999873,None,,,,,,,,,,,,,,,,,,,,,,,,,0.010185185,-0.098148145,1,0,0,0.313572959999874,None,121.50853339999958,None,1.8811728457609813,1.4939758000000438,132.20323500000086,None,ScrollUp,정답입니다,132.20323500000086,None,132.20323500000086,None,132.20323500000086,None,132.20323500000086,None,133.49775220000083,None,133.49775220000083,134.00694959999964,,,,,,,,,,,,,,,,214,2022-05-10_18h15.11.718,FishGame,2022.1.1,59.9641893861045,
,2,넌 기품있어,2,Orange,B,5.791666666666668,4.5,ScrollUp,ScrollDown,Orange.png,1,Positive,Incongruent,,,,,0,0,0,0,,,,,,,,,,,,,0,1,1,1,,,,,,,,,,,,,,,,,,,,,,,,,,,,,,,,,,,,,,,,,,,,,,,,,,,,,,,,,,,,,,,,,,,,,,,,,,,,,,,,,1.9845678806304932,1.3337914000003366,134.6807762999997,None,ScrollUp,정답입니다,134.6807762999997,None,134.6807762999997,None,134.6807762999997,None,134.6807762999997,None,135.86315639999884,None,135.86315639999884,136.37315959999978,,,,,,,,,,,,,,,,214,2022-05-10_18h15.11.718,FishGame,2022.1.1,59.9641893861045,
,3,나를 보내줘,6,Green,A,0,0,ScrollUp,ScrollDown,Green.png,1,NonTarget,NonTarget,,,,,0,0,0,0,,,,,,,,,,,,,0,2,2,2,,,,,,,,,,,,,,,,,,,,,,,,,,,,,,,,,,,,,,,,,,,,,,,,,,,,,,,,,,,,,,,,,,,,,,,,,,,,,,,,,1.9182098805904388,1.438969899998483,137.03880729999946,None,ScrollUp,정답입니다,137.03880729999946,None,137.03880729999946,None,137.03880729999946,None,137.03880729999946,None,138.3334137999991,None,138.3334137999991,138.83957609999925,,,,,,,,,,,,,,,,214,2022-05-10_18h15.11.718,FishGame,2022.1.1,59.9641893861045,
,4,넌 수동적이야,4,Green,A,2.833333333333333,2.933333333333333,ScrollDown,ScrollUp,Green.png,1,Negative,Incongruent,,,,,0,0,0,0,,,,,,,,,,,,,0,3,3,3,,,,,,,,,,,,,,,,,,,,,,,,,,,,,,,,,,,,,,,,,,,,,,,,,,,,,,,,,,,,,,,,,,,,,,,,,,,,,,,,,1.0277777810891469,1.049463300001662,139.51535489999878,None,ScrollDown,정답입니다,139.51535489999878,None,139.51535489999878,None,139.51535489999878,None,139.51535489999878,None,140.41291959999944,None,140.41291959999944,140.9227095999995,,,,,,,,,,,,,,,,214,2022-05-10_18h15.11.718,FishGame,2022.1.1,59.9641893861045,
,5,넌 사심이 없어,3,Orange,B,4.916666666666666,4.333333333333333,ScrollUp,ScrollDown,Orange.png,1,Neutral,Neutral,,,,,0,0,0,0,,,,,,,,,,,,,0,4,4,4,,,,,,,,,,,,,,,,,,,,,,,,,,,,,,,,,,,,,,,,,,,,,,,,,,,,,,,,,,,,,,,,,,,,,,,,,,,,,,,,,1.9629629850387573,1.165113900002325,141.59447739999814,None,ScrollUp,정답입니다,141.59447739999814,None,141.59447739999814,None,141.59447739999814,None,141.59447739999814,None,142.60982030000014,None,142.60982030000014,143.12241630000062,,,,,,,,,,,,,,,,214,2022-05-10_18h15.11.718,FishGame,2022.1.1,59.9641893861045,
,6,넌 헤퍼,5,Green,A,2.458333333333334,2.233333333333333,ScrollDown,ScrollUp,Green.png,1,Negative,Incongruent,,,,,0,0,0,0,,,,,,,,,,,,,0,5,5,5,,,,,,,,,,,,,,,,,,,,,,,,,,,,,,,,,,,,,,,,,,,,,,,,,,,,,,,,,,,,,,,,,,,,,,,,,,,,,,,,,1.1898148208856583,1.0736768999995547,143.78224480000063,None,ScrollDown,정답입니다,143.78224480000063,None,143.78224480000063,None,143.78224480000063,None,143.78224480000063,None,144.7169733999981,None,144.7169733999981,145.22237139999925,,,,,,,,,,,,,,,,214,2022-05-10_18h15.11.718,FishGame,2022.1.1,59.9641893861045,
,7,넌 말쑥해,3,Green,A,4.833333333333334,4.333333333333333,ScrollDown,ScrollUp,Green.png,1,Neutral,Neutral,,,,,0,0,0,0,,,,,,,,,,,,,0,6,6,6,,,,,,,,,,,,,,,,,,,,,,,,,,,,,,,,,,,,,,,,,,,,,,,,,,,,,,,,,,,,,,,,,,,,,,,,,,,,,,,,,1.0648148159186046,1.0890155000015511,145.8831218000014,None,ScrollDown,정답입니다,145.8831218000014,None,145.8831218000014,None,145.8831218000014,None,145.8831218000014,None,146.832558099999,None,146.832558099999,147.33870730000126,,,,,,,,,,,,,,,,214,2022-05-10_18h15.11.718,FishGame,2022.1.1,59.9641893861045,
,8,넌 투덜거려,5,Orange,B,2.541666666666667,2.266666666666667,ScrollUp,ScrollDown,Orange.png,1,Negative,Congruent,,,,,0,0,0,0,,,,,,,,,,,,,0,7,7,7,,,,,,,,,,,,,,,,,,,,,,,,,,,,,,,,,,,,,,,,,,,,,,,,,,,,,,,,,,,,,,,,,,,,,,,,,,,,,,,,,1.9367283980051677,1.0521724999998696,148.01015840000036,None,ScrollUp,정답입니다,148.01015840000036,None,148.01015840000036,None,148.01015840000036,None,148.01015840000036,None,148.91277419999824,None,148.91277419999824,149.42172439999922,,,,,,,,,,,,,,,,214,2022-05-10_18h15.11.718,FishGame,2022.1.1,59.9641893861045,
,9,넌 적극적이야,1,Green,A,5.708333333333333,5.533333333333333,ScrollDown,ScrollUp,Green.png,1,Positive,Congruent,,,,,0,0,0,0,,,,,,,,,,,,,0,8,8,8,,,,,,,,,,,,,,,,,,,,,,,,,,,,,,,,,,,,,,,,,,,,,,,,,,,,,,,,,,,,,,,,,,,,,,,,,,,,,,,,,1.0540123681227367,1.015895399999863,150.08173850000094,None,ScrollDown,정답입니다,150.08173850000094,None,150.08173850000094,None,150.08173850000094,None,150.08173850000094,None,150.95971859999918,None,150.95971859999918,151.47123160000046,,,,,,,,,,,,,,,,214,2022-05-10_18h15.11.718,FishGame,2022.1.1,59.9641893861045,
,10,넌 재미없어,4,Orange,B,2.625,2.966666666666667,ScrollUp,ScrollDown,Orange.png,1,Negative,Congruent,,,,,0,0,0,0,,,,,,,,,,,,,0,9,9,9,,,,,,,,,,,,,,,,,,,,,,,,,,,,,,,,,,,,,,,,,,,,,,,,,,,,,,,,,,,,,,,,,,,,,,,,,,,,,,,,,1.6959876591960588,0.9988759999978356,152.13993299999856,None,ScrollUp,정답입니다,152.13993299999856,None,152.13993299999856,None,152.13993299999856,None,152.13993299999856,None,152.994503599999,None,152.994503599999,153.50481170000057,,,,,,,,,,,,,,,,214,2022-05-10_18h15.11.718,FishGame,2022.1.1,59.9641893861045,
,11,넌 명석해,2,Green,A,5.875,4.033333333333333,ScrollDown,ScrollUp,Green.png,1,Positive,Congruent,,,,,0,0,0,0,,,,,,,,,,,,,0,10,10,10,,,,,,,,,,,,,,,,,,,,,,,,,,,,,,,,,,,,,,,,,,,,,,,,,,,,,,,,,,,,,,,,,,,,,,,,,,,,,,,,,1.0231481393178303,1.0052561999982572,154.16404229999898,None,ScrollDown,정답입니다,154.16404229999898,None,154.16404229999898,None,154.16404229999898,None,154.16404229999898,None,155.03174249999938,None,155.03174249999938,155.53748890000134,,,,,,,,,,,,,,,,214,2022-05-10_18h15.11.718,FishGame,2022.1.1,59.9641893861045,
,12,나를 데려가줘,6,Orange,B,0,0,ScrollDown,ScrollUp,Orange.png,1,NonTarget,NonTarget,,,,,0,0,0,0,,,,,,,,,,,,,0,11,11,11,,,,,,,,,,,,,,,,,,,,,,,,,,,,,,,,,,,,,,,,,,,,,,,,,,,,,,,,,,,,,,,,,,,,,,,,,,,,,,,,,1.0879629751046498,1.1505585000013525,156.20325890000095,None,ScrollDown,정답입니다,156.20325890000095,None,156.20325890000095,None,156.20325890000095,None,156.20325890000095,None,157.21178439999858,None,157.21178439999858,157.72050709999894,,,,,,,,,,,,,,,,214,2022-05-10_18h15.11.718,FishGame,2022.1.1,59.9641893861045,
,13,넌 소심해,4,Green,A,3,3.1,ScrollDown,ScrollUp,Green.png,1,Negative,Incongruent,,,,,0,0,0,0,,,,,,,,,,,,,0,12,12,12,,,,,,,,,,,,,,,,,,,,,,,,,,,,,,,,,,,,,,,,,,,,,,,,,,,,,,,,,,,,,,,,,,,,,,,,,,,,,,,,,1.0046296219031017,1.068069099997956,158.37827879999895,None,ScrollDown,정답입니다,158.37827879999895,None,158.37827879999895,None,158.37827879999895,None,158.37827879999895,None,159.31077169999844,None,159.31077169999844,159.8202111999999,,,,,,,,,,,,,,,,214,2022-05-10_18h15.11.718,FishGame,2022.1.1,59.9641893861045,
,14,넌 합리적이야,2,Green,A,5.583333333333333,4.733333333333333,ScrollDown,ScrollUp,Green.png,1,Positive,Congruent,,,,,0,0,0,0,,,,,,,,,,,,,0,13,13,13,,,,,,,,,,,,,,,,,,,,,,,,,,,,,,,,,,,,,,,,,,,,,,,,,,,,,,,,,,,,,,,,,,,,,,,,,,,,,,,,,1.0679012437661488,1.01913820000118,160.48832109999785,None,ScrollDown,정답입니다,160.48832109999785,None,160.48832109999785,None,160.48832109999785,None,160.48832109999785,None,161.36231449999832,None,161.36231449999832,161.87022230000002,,,,,,,,,,,,,,,,214,2022-05-10_18h15.11.718,FishGame,2022.1.1,59.9641893861045,
,15,넌 무자비해,5,Orange,B,2.333333333333333,2.1,ScrollUp,ScrollDown,Orange.png,1,Negative,Congruent,,,,,0,0,0,0,,,,,,,,,,,,,0,14,14,14,,,,,,,,,,,,,,,,,,,,,,,,,,,,,,,,,,,,,,,,,,,,,,,,,,,,,,,,,,,,,,,,,,,,,,,,,,,,,,,,,1.7345678955316544,1.1356794999992417,162.53819949999888,None,ScrollUp,정답입니다,162.53819949999888,None,162.53819949999888,None,162.53819949999888,None,162.53819949999888,None,163.52929550000044,None,163.52929550000044,164.03652429999784,,,,,,,,,,,,,,,,214,2022-05-10_18h15.11.718,FishGame,2022.1.1,59.9641893861045,
,16,나를 보내줘,6,Green,A,0,0,ScrollUp,ScrollDown,Green.png,1,NonTarget,NonTarget,,,,,0,0,0,0,,,,,,,,,,,,,0,15,15,15,,,,,,,,,,,,,,,,,,,,,,,,,,,,,,,,,,,,,,,,,,,,,,,,,,,,,,,,,,,,,,,,,,,,,,,,,,,,,,,,,1.7839506169160206,1.20497769999929,164.69258759999866,None,ScrollUp,정답입니다,164.69258759999866,None,164.69258759999866,None,164.69258759999866,None,164.69258759999866,None,165.76384770000004,None,165.76384770000004,166.26933759999883,,,,,,,,,,,,,,,,214,2022-05-10_18h15.11.718,FishGame,2022.1.1,59.9641893861045,
,17,넌 현실적이야,3,Orange,B,4.608695652173913,4.766666666666667,ScrollUp,ScrollDown,Orange.png,1,Neutral,Neutral,,,,,0,0,0,0,,,,,,,,,,,,,0,16,16,16,,,,,,,,,,,,,,,,,,,,,,,,,,,,,,,,,,,,,,,,,,,,,,,,,,,,,,,,,,,,,,,,,,,,,,,,,,,,,,,,,1.8672839452823002,1.2392202999981237,166.9359943999989,None,ScrollUp,정답입니다,166.9359943999989,None,166.9359943999989,None,166.9359943999989,None,166.9359943999989,None,168.03611309999906,None,168.03611309999906,168.5358844000002,,,,,,,,,,,,,,,,214,2022-05-10_18h15.11.718,FishGame,2022.1.1,59.9641893861045,
,18,넌 의리있어,1,Orange,B,5.833333333333334,5.633333333333334,ScrollUp,ScrollDown,Orange.png,1,Positive,Incongruent,,,,,0,0,0,0,,,,,,,,,,,,,0,17,17,17,,,,,,,,,,,,,,,,,,,,,,,,,,,,,,,,,,,,,,,,,,,,,,,,,,,,,,,,,,,,,,,,,,,,,,,,,,,,,,,,,2,1.1285552000008465,169.20010909999837,None,ScrollUp,정답입니다,169.20010909999837,None,169.20010909999837,None,169.20010909999837,None,169.20010909999837,None,170.18837549999807,None,170.18837549999807,170.70227180000074,,,,,,,,,,,,,,,,214,2022-05-10_18h15.11.718,FishGame,2022.1.1,59.9641893861045,
,19,넌 신경과민이야,5,Green,A,2.541666666666667,2.166666666666667,ScrollDown,ScrollUp,Green.png,1,Negative,Incongruent,,,,,0,0,0,0,,,,,,,,,,,,,0,18,18,18,,,,,,,,,,,,,,,,,,,,,,,,,,,,,,,,,,,,,,,,,,,,,,,,,,,,,,,,,,,,,,,,,,,,,,,,,,,,,,,,,1.0324074228604634,1.113975299998856,171.37204310000016,None,ScrollDown,정답입니다,171.37204310000016,None,171.37204310000016,None,171.37204310000016,None,171.37204310000016,None,172.34048600000096,None,172.34048600000096,172.85194689999844,,,,,,,,,,,,,,,,214,2022-05-10_18h15.11.718,FishGame,2022.1.1,59.9641893861045,
,20,넌 편안해,1,Green,A,5.916666666666666,5.866666666666666,ScrollDown,ScrollUp,Green.png,1,Positive,Congruent,,,,,0,0,0,0,,,,,,,,,,,,,0,19,19,19,,,,,,,,,,,,,,,,,,,,,,,,,,,,,,,,,,,,,,,,,,,,,,,,,,,,,,,,,,,,,,,,,,,,,,,,,,,,,,,,,1.0015431940555573,0.963625200001843,173.51247969999895,None,ScrollDown,정답입니다,173.51247969999895,None,173.51247969999895,None,173.51247969999895,None,173.51247969999895,None,174.3391999000014,None,174.3391999000014,174.85172170000078,,,,,,,,,,,,,,,,214,2022-05-10_18h15.11.718,FishGame,2022.1.1,59.9641893861045,
,21,넌 품위있어,2,Orange,B,5.291666666666666,4.466666666666667,ScrollUp,ScrollDown,Orange.png,1,Positive,Incongruent,,,,,0,0,0,0,,,,,,,,,,,,,0,20,20,20,,,,,,,,,,,,,,,,,,,,,,,,,,,,,,,,,,,,,,,,,,,,,,,,,,,,,,,,,,,,,,,,,,,,,,,,,,,,,,,,,2,1.0698489000023983,175.51464199999828,None,ScrollUp,정답입니다,175.51464199999828,None,175.51464199999828,None,175.51464199999828,None,175.51464199999828,None,176.4427997999992,None,176.4427997999992,176.9513063000013,,,,,,,,,,,,,,,,214,2022-05-10_18h15.11.718,FishGame,2022.1.1,59.9641893861045,
,22,넌 빈틈없어,3,Green,A,4.833333333333333,3.966666666666667,ScrollDown,ScrollUp,Green.png,1,Neutral,Neutral,,,,,0,0,0,0,,,,,,,,,,,,,0,21,21,21,,,,,,,,,,,,,,,,,,,,,,,,,,,,,,,,,,,,,,,,,,,,,,,,,,,,,,,,,,,,,,,,,,,,,,,,,,,,,,,,,1,1.026109099999303,177.61194129999785,None,ScrollDown,정답입니다,177.61194129999785,None,177.61194129999785,None,177.61194129999785,None,177.61194129999785,None,178.50134059999982,None,178.50134059999982,179.00111040000047,,,,,,,,,,,,,,,,214,2022-05-10_18h15.11.718,FishGame,2022.1.1,59.9641893861045,
,23,넌 상상력없어,4,Orange,B,2.833333333333333,3.133333333333333,ScrollUp,ScrollDown,Orange.png,1,Negative,Congruent,,,,,0,0,0,0,,,,,,,,,,,,,0,22,22,22,,,,,,,,,,,,,,,,,,,,,,,,,,,,,,,,,,,,,,,,,,,,,,,,,,,,,,,,,,,,,,,,,,,,,,,,,,,,,,,,,1.9104938358068466,0.961526999999478,179.66714389999834,None,ScrollUp,정답입니다,179.66714389999834,None,179.66714389999834,None,179.66714389999834,None,179.66714389999834,None,180.48491859999922,None,180.48491859999922,180.98414250000133,,,,,,,,,,,,,,,,214,2022-05-10_18h15.11.718,FishGame,2022.1.1,59.9641893861045,
,24,넌 지혜로워,2,Orange,B,6.333333333333334,4.633333333333334,ScrollUp,ScrollDown,Orange.png,1,Positive,Incongruent,,,,,0,0,0,0,,,,,,,,,,,,,0,23,23,23,,,,,,,,,,,,,,,,,,,,,,,,,,,,,,,,,,,,,,,,,,,,,,,,,,,,,,,,,,,,,,,,,,,,,,,,,,,,,,,,,2,0.9983572000019194,181.65472360000058,None,ScrollUp,정답입니다,181.65472360000058,None,181.65472360000058,None,181.65472360000058,None,181.65472360000058,None,182.5050044999989,None,182.5050044999989,183.0172965999991,,,,,,,,,,,,,,,,214,2022-05-10_18h15.11.718,FishGame,2022.1.1,59.9641893861045,
,25,넌 시끄러워,4,Green,A,2.833333333333333,3.033333333333333,ScrollDown,ScrollUp,Green.png,1,Negative,Incongruent,,,,,0,0,0,0,,,,,,,,,,,,,0,24,24,24,,,,,,,,,,,,,,,,,,,,,,,,,,,,,,,,,,,,,,,,,,,,,,,,,,,,,,,,,,,,,,,,,,,,,,,,,,,,,,,,,1,1.217220800001087,183.6817916,None,ScrollDown,정답입니다,183.6817916,None,183.6817916,None,183.6817916,None,183.6817916,None,184.7586287999984,None,184.7586287999984,185.2670247999995,,,,,,,,,,,,,,,,214,2022-05-10_18h15.11.718,FishGame,2022.1.1,59.9641893861045,
,26,넌 만사태평이야,3,Orange,B,4,4.333333333333333,ScrollUp,ScrollDown,Orange.png,1,Neutral,Neutral,,,,,0,0,0,0,,,,,,,,,,,,,0,25,25,25,,,,,,,,,,,,,,,,,,,,,,,,,,,,,,,,,,,,,,,,,,,,,,,,,,,,,,,,,,,,,,,,,,,,,,,,,,,,,,,,,2,0.9994923000012932,185.9370670999997,None,ScrollUp,정답입니다,185.9370670999997,None,185.9370670999997,None,185.9370670999997,None,185.9370670999997,None,186.7895599000003,None,186.7895599000003,187.30006779999894,,,,,,,,,,,,,,,,214,2022-05-10_18h15.11.718,FishGame,2022.1.1,59.9641893861045,
,27,넌 붙임성있어,1,Green,A,5.708333333333333,5.633333333333334,ScrollDown,ScrollUp,Green.png,1,Positive,Congruent,,,,,0,0,0,0,,,,,,,,,,,,,0,26,26,26,,,,,,,,,,,,,,,,,,,,,,,,,,,,,,,,,,,,,,,,,,,,,,,,,,,,,,,,,,,,,,,,,,,,,,,,,,,,,,,,,1.040123442808787,1.2001997000006668,187.97852889999922,None,ScrollDown,정답입니다,187.97852889999922,None,187.97852889999922,None,187.97852889999922,None,187.97852889999922,None,189.0233307999988,None,189.0233307999988,189.53313020000132,,,,,,,,,,,,,,,,214,2022-05-10_18h15.11.718,FishGame,2022.1.1,59.9641893861045,
,28,넌 영리해,2,Green,A,6,4.033333333333333,ScrollDown,ScrollUp,Green.png,1,Positive,Congruent,,,,,0,0,0,0,,,,,,,,,,,,,0,27,27,27,,,,,,,,,,,,,,,,,,,,,,,,,,,,,,,,,,,,,,,,,,,,,,,,,,,,,,,,,,,,,,,,,,,,,,,,,,,,,,,,,1,1.0059816000029969,190.1897699000001,None,ScrollDown,정답입니다,190.1897699000001,None,190.1897699000001,None,190.1897699000001,None,190.1897699000001,None,191.06656089999888,None,191.06656089999888,191.56626210000104,,,,,,,,,,,,,,,,214,2022-05-10_18h15.11.718,FishGame,2022.1.1,59.9641893861045,
,29,넌 열심이야,1,Orange,B,6.041666666666667,5.833333333333333,ScrollUp,ScrollDown,Orange.png,1,Positive,Incongruent,,,,,0,0,0,0,,,,,,,,,,,,,0,28,28,28,,,,,,,,,,,,,,,,,,,,,,,,,,,,,,,,,,,,,,,,,,,,,,,,,,,,,,,,,,,,,,,,,,,,,,,,,,,,,,,,,2,1.039697399999568,192.23049119999996,None,ScrollUp,정답입니다,192.23049119999996,None,192.23049119999996,None,192.23049119999996,None,192.23049119999996,None,193.13274739999906,None,193.13274739999906,193.63250909999988,,,,,,,,,,,,,,,,214,2022-05-10_18h15.11.718,FishGame,2022.1.1,59.9641893861045,
,30,넌 인기없어,4,Orange,B,3,3.3,ScrollUp,ScrollDown,Orange.png,1,Negative,Congruent,,,,,0,0,0,0,,,,,,,,,,,,,0,29,29,29,,,,,,,,,,,,,,,,,,,,,,,,,,,,,,,,,,,,,,,,,,,,,,,,,,,,,,,,,,,,,,,,,,,,,,,,,,,,,,,,,2,1.0017546999988554,194.29558919999909,None,ScrollUp,정답입니다,194.29558919999909,None,194.29558919999909,None,194.29558919999909,None,194.29558919999909,None,195.1578578999979,None,195.1578578999979,195.6657226999996,,,,,,,,,,,,,,,,214,2022-05-10_18h15.11.718,FishGame,2022.1.1,59.9641893861045,
,31,넌 익살스러워,3,Green,A,4.708333333333334,4.833333333333333,ScrollDown,ScrollUp,Green.png,1,Neutral,Neutral,,,,,0,0,0,0,,,,,,,,,,,,,0,30,30,30,,,,,,,,,,,,,,,,,,,,,,,,,,,,,,,,,,,,,,,,,,,,,,,,,,,,,,,,,,,,,,,,,,,,,,,,,,,,,,,,,1.0478395124276478,0.9810366000019712,196.33034889999908,None,ScrollDown,정답입니다,196.33034889999908,None,196.33034889999908,None,196.33034889999908,None,196.33034889999908,None,197.17064010000104,None,197.17064010000104,197.68213639999885,,,,,,,,,,,,,,,,214,2022-05-10_18h15.11.718,FishGame,2022.1.1,59.9641893861045,
,32,넌 이기적이야,5,Orange,B,2.291666666666667,2.333333333333333,ScrollUp,ScrollDown,Orange.png,1,Negative,Congruent,,,,,0,0,0,0,,,,,,,,,,,,,0,31,31,31,,,,,,,,,,,,,,,,,,,,,,,,,,,,,,,,,,,,,,,,,,,,,,,,,,,,,,,,,,,,,,,,,,,,,,,,,,,,,,,,,1.8657407313585281,0.9353174999996554,198.3397832999981,None,ScrollUp,정답입니다,198.3397832999981,None,198.3397832999981,None,198.3397832999981,None,198.3397832999981,None,199.14057500000126,None,199.14057500000126,199.6483748999999,,,,,,,,,,,,,,,,214,2022-05-10_18h15.11.718,FishGame,2022.1.1,59.9641893861045,
,33,나를 데려가줘,6,Orange,B,0,0,ScrollDown,ScrollUp,Orange.png,1,NonTarget,NonTarget,,,,,0,0,0,0,,,,,,,,,,,,,0,32,32,32,,,,,,,,,,,,,,,,,,,,,,,,,,,,,,,,,,,,,,,,,,,,,,,,,,,,,,,,,,,,,,,,,,,,,,,,,,,,,,,,,1.2746913631757102,1.1446262999997998,200.30695710000145,None,ScrollDown,정답입니다,200.30695710000145,None,200.30695710000145,None,200.30695710000145,None,200.30695710000145,None,201.31565209999826,None,201.31565209999826,201.81477280000036,,,,,,,,,,,,,,,,214,2022-05-10_18h15.11.718,FishGame,2022.1.1,59.9641893861045,
,34,넌 기회주의자야,5,Green,A,2.875,2.133333333333333,ScrollDown,ScrollUp,Green.png,1,Negative,Incongruent,,,,,0,0,0,0,,,,,,,,,,,,,0,33,33,33,,,,,,,,,,,,,,,,,,,,,,,,,,,,,,,,,,,,,,,,,,,,,,,,,,,,,,,,,,,,,,,,,,,,,,,,,,,,,,,,,1.0910493781169255,1.133364100001927,202.47710590000133,None,ScrollDown,정답입니다,202.47710590000133,None,202.47710590000133,None,202.47710590000133,None,202.47710590000133,None,203.47195699999793,None,203.47195699999793,203.98125459999937,,,,,,,,,,,,,,,,214,2022-05-10_18h15.11.718,FishGame,2022.1.1,59.9641893861045,
,1,넌 미성숙해,4,Green,A,3,3.2,ScrollDown,ScrollUp,Green.png,2,Negative,Incongruent,,,,,0,0,0,0,,,,,,,,,,,,,,,,,0,0,0,0,,,,,,,,,,,,,,,,,,,,,,,,,,,,,,,,,,,,238.27712600000086,239.77680250000049,239.81001399999877,240.75990710000042,240.80990449999808,241.75978609999947,241.75978609999947,None,,,,,,,,,,,,,,,,,,,,,,,,,,,,,,,,,,1,1.222159199998714,242.9591419999997,None,ScrollDown,정답입니다,242.9591419999997,None,242.9591419999997,None,242.9591419999997,None,242.9591419999997,None,243.99291520000043,None,243.99291520000043,244.49271149999913,204.4812099999981,None,204.4812099999981,None,0.18981482,-0.09351852,1,0,0,0.0160351599988644,None,234.49395119999826,None,,,214,2022-05-10_18h15.11.718,FishGame,2022.1.1,59.9641893861045,
,2,넌 반사회적이야,5,Orange,B,2.416666666666667,2.033333333333333,ScrollUp,ScrollDown,Orange.png,2,Negative,Congruent,,,,,0,0,0,0,,,,,,,,,,,,,,,,,0,1,1,1,,,,,,,,,,,,,,,,,,,,,,,,,,,,,,,,,,,,,,,,,,,,,,,,,,,,,,,,,,,,,,,,,,,,,,,,,,,,,1.8749999900658925,1.025936099998944,245.1609169000003,None,ScrollUp,정답입니다,245.1609169000003,None,245.1609169000003,None,245.1609169000003,None,245.1609169000003,None,246.04262799999924,None,246.04262799999924,246.5424239999993,,,,,,,,,,,,,,,,214,2022-05-10_18h15.11.718,FishGame,2022.1.1,59.9641893861045,
,3,넌 유능해,2,Green,A,6.208333333333333,4.433333333333334,ScrollDown,ScrollUp,Green.png,2,Positive,Congruent,,,,,0,0,0,0,,,,,,,,,,,,,,,,,0,2,2,2,,,,,,,,,,,,,,,,,,,,,,,,,,,,,,,,,,,,,,,,,,,,,,,,,,,,,,,,,,,,,,,,,,,,,,,,,,,,,1.0493827263514202,0.9586534000009124,247.20506350000142,None,ScrollDown,정답입니다,247.20506350000142,None,247.20506350000142,None,247.20506350000142,None,247.20506350000142,None,248.02573199999824,None,248.02573199999824,248.52542220000032,,,,,,,,,,,,,,,,214,2022-05-10_18h15.11.718,FishGame,2022.1.1,59.9641893861045,
,4,넌 능숙해,2,Orange,B,5.666666666666667,4.733333333333333,ScrollUp,ScrollDown,Orange.png,2,Positive,Incongruent,,,,,0,0,0,0,,,,,,,,,,,,,,,,,0,3,3,3,,,,,,,,,,,,,,,,,,,,,,,,,,,,,,,,,,,,,,,,,,,,,,,,,,,,,,,,,,,,,,,,,,,,,,,,,,,,,1.817901223897934,1.1273398999983328,249.18106540000008,None,ScrollUp,정답입니다,249.18106540000008,None,249.18106540000008,None,249.18106540000008,None,249.18106540000008,None,250.17563280000104,None,250.17563280000104,250.67515959999946,,,,,,,,,,,,,,,,214,2022-05-10_18h15.11.718,FishGame,2022.1.1,59.9641893861045,
,5,넌 진부해,4,Orange,B,2.458333333333333,3.166666666666667,ScrollUp,ScrollDown,Orange.png,2,Negative,Congruent,,,,,0,0,0,0,,,,,,,,,,,,,,,,,0,4,4,4,,,,,,,,,,,,,,,,,,,,,,,,,,,,,,,,,,,,,,,,,,,,,,,,,,,,,,,,,,,,,,,,,,,,,,,,,,,,,1.9969135920206706,1.0809984000006807,251.3431571000001,None,ScrollUp,정답입니다,251.3431571000001,None,251.3431571000001,None,251.3431571000001,None,251.3431571000001,None,252.27911310000127,None,252.27911310000127,252.7915466000013,,,,,,,,,,,,,,,,214,2022-05-10_18h15.11.718,FishGame,2022.1.1,59.9641893861045,
,6,나를 보내줘,6,Green,A,0,0,ScrollUp,ScrollDown,Green.png,2,NonTarget,NonTarget,,,,,0,0,0,0,,,,,,,,,,,,,,,,,0,5,5,5,,,,,,,,,,,,,,,,,,,,,,,,,,,,,,,,,,,,,,,,,,,,,,,,,,,,,,,,,,,,,,,,,,,,,,,,,,,,,1.8765432039896648,1.0645297999981267,253.44568399999844,None,ScrollUp,정답입니다,253.44568399999844,None,253.44568399999844,None,253.44568399999844,None,253.44568399999844,None,254.3797913999988,None,254.3797913999988,254.89133349999975,,,,,,,,,,,,,,,,214,2022-05-10_18h15.11.718,FishGame,2022.1.1,59.9641893861045,
,7,넌 엄격해,3,Green,A,4.166666666666666,4.1,ScrollDown,ScrollUp,Green.png,2,Neutral,Neutral,,,,,0,0,0,0,,,,,,,,,,,,,,,,,0,6,6,6,,,,,,,,,,,,,,,,,,,,,,,,,,,,,,,,,,,,,,,,,,,,,,,,,,,,,,,,,,,,,,,,,,,,,,,,,,,,,1.1635802586873372,1.0883087000001979,255.55358419999902,None,ScrollDown,정답입니다,255.55358419999902,None,255.55358419999902,None,255.55358419999902,None,255.55358419999902,None,256.50061410000126,None,256.50061410000126,257.0077115999993,,,,,,,,,,,,,,,,214,2022-05-10_18h15.11.718,FishGame,2022.1.1,59.9641893861045,
,8,나를 보내줘,6,Green,A,0,0,ScrollUp,ScrollDown,Green.png,2,NonTarget,NonTarget,,,,,0,0,0,0,,,,,,,,,,,,,,,,,0,7,7,7,,,,,,,,,,,,,,,,,,,,,,,,,,,,,,,,,,,,,,,,,,,,,,,,,,,,,,,,,,,,,,,,,,,,,,,,,,,,,1.7808641890684764,1.0609096000007412,257.6569099999979,None,ScrollUp,정답입니다,257.6569099999979,None,257.6569099999979,None,257.6569099999979,None,257.6569099999979,None,258.5910382000002,None,258.5910382000002,259.0908292999993,,,,,,,,,,,,,,,,214,2022-05-10_18h15.11.718,FishGame,2022.1.1,59.9641893861045,
,9,넌 대담해,3,Orange,B,4.875,4.866666666666666,ScrollUp,ScrollDown,Orange.png,2,Neutral,Neutral,,,,,0,0,0,0,,,,,,,,,,,,,,,,,0,8,8,8,,,,,,,,,,,,,,,,,,,,,,,,,,,,,,,,,,,,,,,,,,,,,,,,,,,,,,,,,,,,,,,,,,,,,,,,,,,,,1.9104938358068466,1.1511981999974523,259.7577891000001,None,ScrollUp,정답입니다,259.7577891000001,None,259.7577891000001,None,259.7577891000001,None,259.7577891000001,None,260.7658745999979,None,260.7658745999979,261.2737586000003,,,,,,,,,,,,,,,,214,2022-05-10_18h15.11.718,FishGame,2022.1.1,59.9641893861045,
,10,넌 꾸준해,1,Green,A,5.916666666666668,5.8,ScrollDown,ScrollUp,Green.png,2,Positive,Congruent,,,,,0,0,0,0,,,,,,,,,,,,,,,,,0,9,9,9,,,,,,,,,,,,,,,,,,,,,,,,,,,,,,,,,,,,,,,,,,,,,,,,,,,,,,,,,,,,,,,,,,,,,,,,,,,,,1,1.1944751999981236,261.9344248999987,None,ScrollDown,정답입니다,261.9344248999987,None,261.9344248999987,None,261.9344248999987,None,261.9344248999987,None,262.9920392999993,None,262.9920392999993,263.50691430000006,,,,,,,,,,,,,,,,214,2022-05-10_18h15.11.718,FishGame,2022.1.1,59.9641893861045,
,11,나를 데려가줘,6,Orange,B,0,0,ScrollDown,ScrollUp,Orange.png,2,NonTarget,NonTarget,,,,,0,0,0,0,,,,,,,,,,,,,,,,,0,10,10,10,,,,,,,,,,,,,,,,,,,,,,,,,,,,,,,,,,,,,,,,,,,,,,,,,,,,,,,,,,,,,,,,,,,,,,,,,,,,,1.0046296219031017,1.2056357000001299,264.1654011999999,None,ScrollDown,정답입니다,264.1654011999999,None,264.1654011999999,None,264.1654011999999,None,264.1654011999999,None,265.23332500000106,None,265.23332500000106,265.74002290000135,,,,,,,,,,,,,,,,214,2022-05-10_18h15.11.718,FishGame,2022.1.1,59.9641893861045,
,12,넌 독선적이야,5,Green,A,2.458333333333333,1.933333333333333,ScrollDown,ScrollUp,Green.png,2,Negative,Incongruent,,,,,0,0,0,0,,,,,,,,,,,,,,,,,0,11,11,11,,,,,,,,,,,,,,,,,,,,,,,,,,,,,,,,,,,,,,,,,,,,,,,,,,,,,,,,,,,,,,,,,,,,,,,,,,,,,1.095679019888242,1.4511534000012034,266.39864809999926,None,ScrollDown,정답입니다,266.39864809999926,None,266.39864809999926,None,266.39864809999926,None,266.39864809999926,None,267.71558780000123,None,267.71558780000123,268.22287190000134,,,,,,,,,,,,,,,,214,2022-05-10_18h15.11.718,FishGame,2022.1.1,59.9641893861045,
,13,나를 보내줘,6,Green,A,0,0,ScrollUp,ScrollDown,Green.png,2,NonTarget,NonTarget,,,,,0,0,0,0,,,,,,,,,,,,,,,,,0,12,12,12,,,,,,,,,,,,,,,,,,,,,,,,,,,,,,,,,,,,,,,,,,,,,,,,,,,,,,,,,,,,,,,,,,,,,,,,,,,,,1.6959876591960588,1.4593981000034546,268.8751181000007,None,ScrollUp,정답입니다,268.8751181000007,None,268.8751181000007,None,268.8751181000007,None,268.8751181000007,None,270.2011714,None,270.2011714,270.7060031000001,,,,,,,,,,,,,,,,214,2022-05-10_18h15.11.718,FishGame,2022.1.1,59.9641893861045,
,14,넌 책임감있어,1,Orange,B,6.347826086956522,6,ScrollUp,ScrollDown,Orange.png,2,Positive,Incongruent,,,,,0,0,0,0,,,,,,,,,,,,,,,,,0,13,13,13,,,,,,,,,,,,,,,,,,,,,,,,,,,,,,,,,,,,,,,,,,,,,,,,,,,,,,,,,,,,,,,,,,,,,,,,,,,,,2,1.7132294999973965,271.377346199999,None,ScrollUp,정답입니다,271.377346199999,None,271.377346199999,None,271.377346199999,None,271.377346199999,None,272.94286830000055,None,272.94286830000055,273.45568809999895,,,,,,,,,,,,,,,,214,2022-05-10_18h15.11.718,FishGame,2022.1.1,59.9641893861045,
,15,넌 문학적이야,3,Green,A,4.708333333333334,4.333333333333333,ScrollDown,ScrollUp,Green.png,2,Neutral,Neutral,,,,,0,0,0,0,,,,,,,,,,,,,,,,,0,14,14,14,,,,,,,,,,,,,,,,,,,,,,,,,,,,,,,,,,,,,,,,,,,,,,,,,,,,,,,,,,,,,,,,,,,,,,,,,,,,,1.0246913532416027,1.1945618000027025,274.1122475999982,None,ScrollDown,정답입니다,274.1122475999982,None,274.1122475999982,None,274.1122475999982,None,274.1122475999982,None,275.1723564999993,None,275.1723564999993,275.67193399999815,,,,,,,,,,,,,,,,214,2022-05-10_18h15.11.718,FishGame,2022.1.1,59.9641893861045,
,16,넌 재미있어,1,Orange,B,5.875,5.7,ScrollUp,ScrollDown,Orange.png,2,Positive,Incongruent,,,,,0,0,0,0,,,,,,,,,,,,,,,,,0,15,15,15,,,,,,,,,,,,,,,,,,,,,,,,,,,,,,,,,,,,,,,,,,,,,,,,,,,,,,,,,,,,,,,,,,,,,,,,,,,,,2,1.0687526000001526,276.33085700000083,None,ScrollUp,정답입니다,276.33085700000083,None,276.33085700000083,None,276.33085700000083,None,276.33085700000083,None,277.26400659999854,None,277.26400659999854,277.771670099999,,,,,,,,,,,,,,,,214,2022-05-10_18h15.11.718,FishGame,2022.1.1,59.9641893861045,
,17,나를 데려가줘,6,Orange,B,0,0,ScrollDown,ScrollUp,Orange.png,2,NonTarget,NonTarget,,,,,0,0,0,0,,,,,,,,,,,,,,,,,0,16,16,16,,,,,,,,,,,,,,,,,,,,,,,,,,,,,,,,,,,,,,,,,,,,,,,,,,,,,,,,,,,,,,,,,,,,,,,,,,,,,1,1.4014845000019704,278.43203390000053,None,ScrollDown,정답입니다,278.43203390000053,None,278.43203390000053,None,278.43203390000053,None,278.43203390000053,None,279.6963270999986,None,279.6963270999986,280.2048944999988,,,,,,,,,,,,,,,,214,2022-05-10_18h15.11.718,FishGame,2022.1.1,59.9641893861045,
,18,넌 협력적이야,1,Green,A,5.625,5.633333333333334,ScrollDown,ScrollUp,Green.png,2,Positive,Congruent,,,,,0,0,0,0,,,,,,,,,,,,,,,,,0,17,17,17,,,,,,,,,,,,,,,,,,,,,,,,,,,,,,,,,,,,,,,,,,,,,,,,,,,,,,,,,,,,,,,,,,,,,,,,,,,,,1.1141975373029709,1.0941562999978487,280.86568270000134,None,ScrollDown,정답입니다,280.86568270000134,None,280.86568270000134,None,280.86568270000134,None,280.86568270000134,None,281.824893099998,None,281.824893099998,282.3378578000011,,,,,,,,,,,,,,,,214,2022-05-10_18h15.11.718,FishGame,2022.1.1,59.9641893861045,
,19,넌 평범해,3,Orange,B,4.333333333333332,4.233333333333333,ScrollUp,ScrollDown,Orange.png,2,Neutral,Neutral,,,,,0,0,0,0,,,,,,,,,,,,,,,,,0,18,18,18,,,,,,,,,,,,,,,,,,,,,,,,,,,,,,,,,,,,,,,,,,,,,,,,,,,,,,,,,,,,,,,,,,,,,,,,,,,,,1.8271604826052983,1.185642699998425,282.9953553999985,None,ScrollUp,정답입니다,282.9953553999985,None,282.9953553999985,None,282.9953553999985,None,282.9953553999985,None,284.04699640000035,None,284.04699640000035,284.55427860000054,,,,,,,,,,,,,,,,214,2022-05-10_18h15.11.718,FishGame,2022.1.1,59.9641893861045,
,20,넌 오만해,5,Green,A,2.333333333333333,2,ScrollDown,ScrollUp,Green.png,2,Negative,Incongruent,,,,,0,0,0,0,,,,,,,,,,,,,,,,,0,19,19,19,,,,,,,,,,,,,,,,,,,,,,,,,,,,,,,,,,,,,,,,,,,,,,,,,,,,,,,,,,,,,,,,,,,,,,,,,,,,,1.2623456766208014,1.21142189999955,285.21859969999787,None,ScrollDown,정답입니다,285.21859969999787,None,285.21859969999787,None,285.21859969999787,None,285.21859969999787,None,286.28873159999785,None,286.28873159999785,286.8038822999988,,,,,,,,,,,,,,,,214,2022-05-10_18h15.11.718,FishGame,2022.1.1,59.9641893861045,
,21,넌 운이없어,4,Orange,B,3,3.466666666666667,ScrollUp,ScrollDown,Orange.png,2,Negative,Congruent,,,,,0,0,0,0,,,,,,,,,,,,,,,,,0,20,20,20,,,,,,,,,,,,,,,,,,,,,,,,,,,,,,,,,,,,,,,,,,,,,,,,,,,,,,,,,,,,,,,,,,,,,,,,,,,,,1.8858024626970291,1.6174131999978272,287.4656919000008,None,ScrollUp,정답입니다,287.4656919000008,None,287.4656919000008,None,287.4656919000008,None,287.4656919000008,None,288.94343149999986,None,288.94343149999986,289.4534879999992,,,,,,,,,,,,,,,,214,2022-05-10_18h15.11.718,FishGame,2022.1.1,59.9641893861045,
,22,넌 창조적이야,2,Orange,B,6.125,4.633333333333334,ScrollUp,ScrollDown,Orange.png,2,Positive,Incongruent,,,,,0,0,0,0,,,,,,,,,,,,,,,,,0,21,21,21,,,,,,,,,,,,,,,,,,,,,,,,,,,,,,,,,,,,,,,,,,,,,,,,,,,,,,,,,,,,,,,,,,,,,,,,,,,,,2,1.0509242999978596,290.12129490000007,None,ScrollUp,정답입니다,290.12129490000007,None,290.12129490000007,None,290.12129490000007,None,290.12129490000007,None,291.02660090000063,None,291.02660090000063,291.5367049999986,,,,,,,,,,,,,,,,214,2022-05-10_18h15.11.718,FishGame,2022.1.1,59.9641893861045,
,23,나를 보내줘,6,Green,A,0,0,ScrollUp,ScrollDown,Green.png,2,NonTarget,NonTarget,,,,,0,0,0,0,,,,,,,,,,,,,,,,,0,22,22,22,,,,,,,,,,,,,,,,,,,,,,,,,,,,,,,,,,,,,,,,,,,,,,,,,,,,,,,,,,,,,,,,,,,,,,,,,,,,,2,1.074294900001405,292.1942404000001,None,ScrollUp,정답입니다,292.1942404000001,None,292.1942404000001,None,292.1942404000001,None,292.1942404000001,None,293.1365872999995,None,293.1365872999995,293.63648000000103,,,,,,,,,,,,,,,,214,2022-05-10_18h15.11.718,FishGame,2022.1.1,59.9641893861045,
,24,넌 통찰력있어,2,Green,A,6.5,4.8,ScrollDown,ScrollUp,Green.png,2,Positive,Congruent,,,,,0,0,0,0,,,,,,,,,,,,,,,,,0,23,23,23,,,,,,,,,,,,,,,,,,,,,,,,,,,,,,,,,,,,,,,,,,,,,,,,,,,,,,,,,,,,,,,,,,,,,,,,,,,,,1.0339506367842357,1.0764806999977736,294.29879679999794,None,ScrollDown,정답입니다,294.29879679999794,None,294.29879679999794,None,294.29879679999794,None,294.29879679999794,None,295.23606559999826,None,295.23606559999826,295.7362214999994,,,,,,,,,,,,,,,,214,2022-05-10_18h15.11.718,FishGame,2022.1.1,59.9641893861045,
,25,넌 경솔해,5,Orange,B,2.458333333333333,2.266666666666667,ScrollUp,ScrollDown,Orange.png,2,Negative,Congruent,,,,,0,0,0,0,,,,,,,,,,,,,,,,,0,24,24,24,,,,,,,,,,,,,,,,,,,,,,,,,,,,,,,,,,,,,,,,,,,,,,,,,,,,,,,,,,,,,,,,,,,,,,,,,,,,,2,1.0123950000015611,296.4033923999996,None,ScrollUp,정답입니다,296.4033923999996,None,296.4033923999996,None,296.4033923999996,None,296.4033923999996,None,297.2693002999986,None,297.2693002999986,297.769000100001,,,,,,,,,,,,,,,,214,2022-05-10_18h15.11.718,FishGame,2022.1.1,59.9641893861045,
,26,넌 초조해,4,Green,A,2.916666666666667,3.133333333333333,ScrollDown,ScrollUp,Green.png,2,Negative,Incongruent,,,,,0,0,0,0,,,,,,,,,,,,,,,,,0,25,25,25,,,,,,,,,,,,,,,,,,,,,,,,,,,,,,,,,,,,,,,,,,,,,,,,,,,,,,,,,,,,,,,,,,,,,,,,,,,,,1.0077160497506459,1.151803500000824,298.4212370999994,None,ScrollDown,정답입니다,298.4212370999994,None,298.4212370999994,None,298.4212370999994,None,298.4212370999994,None,299.44419429999834,None,299.44419429999834,299.95214000000124,,,,,,,,,,,,,,,,214,2022-05-10_18h15.11.718,FishGame,2022.1.1,59.9641893861045,
,27,넌 무관심해,4,Orange,B,2.833333333333333,2.9,ScrollUp,ScrollDown,Orange.png,2,Negative,Congruent,,,,,0,0,0,0,,,,,,,,,,,,,,,,,0,26,26,26,,,,,,,,,,,,,,,,,,,,,,,,,,,,,,,,,,,,,,,,,,,,,,,,,,,,,,,,,,,,,,,,,,,,,,,,,,,,,1.8626543283462524,1.105802300000505,300.61507920000076,None,ScrollUp,정답입니다,300.61507920000076,None,300.61507920000076,None,300.61507920000076,None,300.61507920000076,None,301.585626600001,None,301.585626600001,302.0852163999989,,,,,,,,,,,,,,,,214,2022-05-10_18h15.11.718,FishGame,2022.1.1,59.9641893861045,
,28,넌 감성적이야,3,Orange,B,4.125,4.166666666666667,ScrollUp,ScrollDown,Orange.png,2,Neutral,Neutral,,,,,0,0,0,0,,,,,,,,,,,,,,,,,0,27,27,27,,,,,,,,,,,,,,,,,,,,,,,,,,,,,,,,,,,,,,,,,,,,,,,,,,,,,,,,,,,,,,,,,,,,,,,,,,,,,1.9629629850387573,1.0668455999984872,302.74796290000086,None,ScrollUp,정답입니다,302.74796290000086,None,302.74796290000086,None,302.74796290000086,None,302.74796290000086,None,303.67544429999907,None,303.67544429999907,304.1850913999988,,,,,,,,,,,,,,,,214,2022-05-10_18h15.11.718,FishGame,2022.1.1,59.9641893861045,
,29,넌 배려심있어,1,Green,A,6.083333333333333,5.5,ScrollDown,ScrollUp,Green.png,2,Positive,Congruent,,,,,0,0,0,0,,,,,,,,,,,,,,,,,0,28,28,28,,,,,,,,,,,,,,,,,,,,,,,,,,,,,,,,,,,,,,,,,,,,,,,,,,,,,,,,,,,,,,,,,,,,,,,,,,,,,1.0725308855374653,1.099506399998063,304.8438821999989,None,ScrollDown,정답입니다,304.8438821999989,None,304.8438821999989,None,304.8438821999989,None,304.8438821999989,None,305.80876609999905,None,305.80876609999905,306.3178928999987,,,,,,,,,,,,,,,,214,2022-05-10_18h15.11.718,FishGame,2022.1.1,59.9641893861045,
,30,넌 숨김없어,3,Green,A,4.5,4.933333333333334,ScrollDown,ScrollUp,Green.png,2,Neutral,Neutral,,,,,0,0,0,0,,,,,,,,,,,,,,,,,0,29,29,29,,,,,,,,,,,,,,,,,,,,,,,,,,,,,,,,,,,,,,,,,,,,,,,,,,,,,,,,,,,,,,,,,,,,,,,,,,,,,1,1.0438470000008238,306.97473549999995,None,ScrollDown,정답입니다,306.97473549999995,None,306.97473549999995,None,306.97473549999995,None,306.97473549999995,None,307.8847843000003,None,307.8847843000003,308.3845086000001,,,,,,,,,,,,,,,,214,2022-05-10_18h15.11.718,FishGame,2022.1.1,59.9641893861045,
,31,넌 훌륭해,2,Orange,B,5.916666666666667,4.033333333333333,ScrollUp,ScrollDown,Orange.png,2,Positive,Incongruent,,,,,0,0,0,0,,,,,,,,,,,,,,,,,0,30,30,30,,,,,,,,,,,,,,,,,,,,,,,,,,,,,,,,,,,,,,,,,,,,,,,,,,,,,,,,,,,,,,,,,,,,,,,,,,,,,1.7145061641931534,1.019886400001269,309.04906330000085,None,ScrollUp,정답입니다,309.04906330000085,None,309.04906330000085,None,309.04906330000085,None,309.04906330000085,None,309.9283585000012,None,309.9283585000012,310.43418999999994,,,,,,,,,,,,,,,,214,2022-05-10_18h15.11.718,FishGame,2022.1.1,59.9641893861045,
,32,넌 슬기로워,2,Green,A,6.166666666666667,4.1,ScrollDown,ScrollUp,Green.png,2,Positive,Congruent,,,,,0,0,0,0,,,,,,,,,,,,,,,,,0,31,31,31,,,,,,,,,,,,,,,,,,,,,,,,,,,,,,,,,,,,,,,,,,,,,,,,,,,,,,,,,,,,,,,,,,,,,,,,,,,,,1.060185174147288,1.0669997000004514,311.0916636000002,None,ScrollDown,정답입니다,311.0916636000002,None,311.0916636000002,None,311.0916636000002,None,311.0916636000002,None,312.02461290000065,None,312.02461290000065,312.5338651999991,,,,,,,,,,,,,,,,214,2022-05-10_18h15.11.718,FishGame,2022.1.1,59.9641893861045,
,33,넌 냉혹해,5,Green,A,2.583333333333333,2.1,ScrollDown,ScrollUp,Green.png,2,Negative,Incongruent,,,,,0,0,0,0,,,,,,,,,,,,,,,,,0,32,32,32,,,,,,,,,,,,,,,,,,,,,,,,,,,,,,,,,,,,,,,,,,,,,,,,,,,,,,,,,,,,,,,,,,,,,,,,,,,,,1.266975318392118,1.0281701999992947,313.19790459999786,None,ScrollDown,정답입니다,313.19790459999786,None,313.19790459999786,None,313.19790459999786,None,313.19790459999786,None,314.0839484999997,None,314.0839484999997,314.58360360000006,,,,,,,,,,,,,,,,214,2022-05-10_18h15.11.718,FishGame,2022.1.1,59.9641893861045,
,34,나를 데려가줘,6,Orange,B,0,0,ScrollDown,ScrollUp,Orange.png,2,NonTarget,NonTarget,,,,,0,0,0,0,,,,,,,,,,,,,,,,,0,33,33,33,,,,,,,,,,,,,,,,,,,,,,,,,,,,,,,,,,,,,,,,,,,,,,,,,,,,,,,,,,,,,,,,,,,,,,,,,,,,,1.2283950696388881,1.038569299998926,315.242306199998,None,ScrollDown,정답입니다,315.242306199998,None,315.242306199998,None,315.242306199998,None,315.242306199998,None,316.14319279999836,None,316.14319279999836,316.65003159999833,,,,,,,,,,,,,,,,214,2022-05-10_18h15.11.718,FishGame,2022.1.1,59.9641893861045,
,35,넌 편파적이야,5,Orange,B,2.125,2,ScrollUp,ScrollDown,Orange.png,2,Negative,Congruent,,,,,0,0,0,0,,,,,,,,,,,,,,,,,0,34,34,34,,,,,,,,,,,,,,,,,,,,,,,,,,,,,,,,,,,,,,,,,,,,,,,,,,,,,,,,,,,,,,,,,,,,,,,,,,,,,1.8641975422700245,0.9594372999999905,317.31486980000045,None,ScrollUp,정답입니다,317.31486980000045,None,317.31486980000045,None,317.31486980000045,None,317.31486980000045,None,318.13332309999896,None,318.13332309999896,318.6331496999992,,,,,,,,,,,,,,,,214,2022-05-10_18h15.11.718,FishGame,2022.1.1,59.9641893861045,
,36,넌 슬퍼,4,Green,A,2.583333333333333,3.066666666666667,ScrollDown,ScrollUp,Green.png,2,Negative,Incongruent,,,,,0,0,0,0,,,,,,,,,,,,,,,,,0,35,35,35,,,,,,,,,,,,,,,,,,,,,,,,,,,,,,,,,,,,,,,,,,,,,,,,,,,,,,,,,,,,,,,,,,,,,,,,,,,,,1,1.0326671000002534,319.28805170000123,None,ScrollDown,정답입니다,319.28805170000123,None,319.28805170000123,None,319.28805170000123,None,319.28805170000123,None,320.1899716000007,None,320.1899716000007,320.69951690000016,,,,,,,,,,,,,,,,214,2022-05-10_18h15.11.718,FishGame,2022.1.1,59.9641893861045,
,37,나를 데려가줘,6,Orange,B,0,0,ScrollDown,ScrollUp,Orange.png,2,NonTarget,NonTarget,,,,,0,0,0,0,,,,,,,,,,,,,,,,,0,36,36,36,,,,,,,,,,,,,,,,,,,,,,,,,,,,,,,,,,,,,,,,,,,,,,,,,,,,,,,,,,,,,,,,,,,,,,,,,,,,,1.0787036915620167,1.084870900001988,321.35798520000026,None,ScrollDown,정답입니다,321.35798520000026,None,321.35798520000026,None,321.35798520000026,None,321.35798520000026,None,322.3074299,None,322.3074299,322.8158465999986,,,,,,,,,,,,,,,,214,2022-05-10_18h15.11.718,FishGame,2022.1.1,59.9641893861045,
,38,넌 친절해,1,Orange,B,6.041666666666667,5.533333333333333,ScrollUp,ScrollDown,Orange.png,2,Positive,Incongruent,,,,,0,0,0,0,,,,,,,,,,,,,,,,,0,37,37,37,,,,,,,,,,,,,,,,,,,,,,,,,,,,,,,,,,,,,,,,,,,,,,,,,,,,,,,,,,,,,,,,,,,,,,,,,,,,,1.787037044763565,1.2472490999971342,323.4785374999992,None,ScrollUp,정답입니다,323.4785374999992,None,323.4785374999992,None,323.4785374999992,None,323.4785374999992,None,324.5875782000003,None,324.5875782000003,325.09886370000095,,,,,,,,,,,,,,,,214,2022-05-10_18h15.11.718,FishGame,2022.1.1,59.9641893861045,
,1,넌 엉성해,4,Green,A,3,3.3,ScrollDown,ScrollUp,Green.png,3,Negative,Incongruent,,,,,0,0,0,0,,,,,,,,,,,,,,,,,,,,,0,0,0,0,,,,,,,,,,,,,,,,,,,,,,,,,,,,,,,,356.9954171999998,358.4945028000002,358.5280783999988,359.477883399999,359.527930799999,360.47768089999954,360.47768089999954,None,,,,,,,,,,,,,,,,,,,,,,,,,,,,,,,,,,1.0987654229005177,1.2225727000004554,361.67518479999853,None,ScrollDown,정답입니다,361.67518479999853,None,361.67518479999853,None,361.67518479999853,None,361.67518479999853,None,362.7055474000008,None,362.7055474000008,363.21062529999836,325.5988620999997,None,325.5988620999997,None,0.16111112,-0.09351852,1,0,0,0.016218559998378623,None,355.5948796999983,None,,,214,2022-05-10_18h15.11.718,FishGame,2022.1.1,59.9641893861045,
,2,나를 보내줘,6,Green,A,0,0,ScrollUp,ScrollDown,Green.png,3,NonTarget,NonTarget,,,,,0,0,0,0,,,,,,,,,,,,,,,,,,,,,0,1,1,1,,,,,,,,,,,,,,,,,,,,,,,,,,,,,,,,,,,,,,,,,,,,,,,,,,,,,,,,,,,,,,,,,,,,,,,,,2,1.1234307999984594,363.8593897999999,None,ScrollUp,정답입니다,363.8593897999999,None,363.8593897999999,None,363.8593897999999,None,363.8593897999999,None,364.8606546999981,None,364.8606546999981,365.36035619999893,,,,,,,,,,,,,,,,214,2022-05-10_18h15.11.718,FishGame,2022.1.1,59.9641893861045,
,3,넌 활발해,1,Orange,B,5.666666666666667,5.6,ScrollUp,ScrollDown,Orange.png,3,Positive,Incongruent,,,,,0,0,0,0,,,,,,,,,,,,,,,,,,,,,0,2,2,2,,,,,,,,,,,,,,,,,,,,,,,,,,,,,,,,,,,,,,,,,,,,,,,,,,,,,,,,,,,,,,,,,,,,,,,,,1.7453703681627908,1.116996199998539,366.0341234000007,None,ScrollUp,정답입니다,366.0341234000007,None,366.0341234000007,None,366.0341234000007,None,366.0341234000007,None,367.00041860000056,None,367.00041860000056,367.510197399999,,,,,,,,,,,,,,,,214,2022-05-10_18h15.11.718,FishGame,2022.1.1,59.9641893861045,
,4,넌 논리적이야,2,Green,A,5.666666666666666,4.633333333333334,ScrollDown,ScrollUp,Green.png,3,Positive,Congruent,,,,,0,0,0,0,,,,,,,,,,,,,,,,,,,,,0,3,3,3,,,,,,,,,,,,,,,,,,,,,,,,,,,,,,,,,,,,,,,,,,,,,,,,,,,,,,,,,,,,,,,,,,,,,,,,,1.2283950696388881,1.0523070999988704,368.17057009999917,None,ScrollDown,정답입니다,368.17057009999917,None,368.17057009999917,None,368.17057009999917,None,368.17057009999917,None,369.0861068000013,None,369.0861068000013,369.5931368999991,,,,,,,,,,,,,,,,214,2022-05-10_18h15.11.718,FishGame,2022.1.1,59.9641893861045,
,5,넌 과묵해,3,Green,A,3.875,4.4,ScrollDown,ScrollUp,Green.png,3,Neutral,Neutral,,,,,0,0,0,0,,,,,,,,,,,,,,,,,,,,,0,4,4,4,,,,,,,,,,,,,,,,,,,,,,,,,,,,,,,,,,,,,,,,,,,,,,,,,,,,,,,,,,,,,,,,,,,,,,,,,1,1.0138577000034275,370.25209370000084,None,ScrollDown,정답입니다,370.25209370000084,None,370.25209370000084,None,370.25209370000084,None,370.25209370000084,None,371.1306479999985,None,371.1306479999985,371.64297969999825,,,,,,,,,,,,,,,,214,2022-05-10_18h15.11.718,FishGame,2022.1.1,59.9641893861045,
,6,나를 데려가줘,6,Orange,B,0,0,ScrollDown,ScrollUp,Orange.png,3,NonTarget,NonTarget,,,,,0,0,0,0,,,,,,,,,,,,,,,,,,,,,0,5,5,5,,,,,,,,,,,,,,,,,,,,,,,,,,,,,,,,,,,,,,,,,,,,,,,,,,,,,,,,,,,,,,,,,,,,,,,,,1,1.0437898000018322,372.2966783000011,None,ScrollDown,정답입니다,372.2966783000011,None,372.2966783000011,None,372.2966783000011,None,372.2966783000011,None,373.2065159999984,None,373.2065159999984,373.7094259000005,,,,,,,,,,,,,,,,214,2022-05-10_18h15.11.718,FishGame,2022.1.1,59.9641893861045,
,7,넌 미숙해,4,Orange,B,3,3,ScrollUp,ScrollDown,Orange.png,3,Negative,Congruent,,,,,0,0,0,0,,,,,,,,,,,,,,,,,,,,,0,6,6,6,,,,,,,,,,,,,,,,,,,,,,,,,,,,,,,,,,,,,,,,,,,,,,,,,,,,,,,,,,,,,,,,,,,,,,,,,1.9722222189108531,1.0519957999968028,374.36784279999847,None,ScrollUp,정답입니다,374.36784279999847,None,374.36784279999847,None,374.36784279999847,None,374.36784279999847,None,375.2840079999987,None,375.2840079999987,375.7924383999998,,,,,,,,,,,,,,,,214,2022-05-10_18h15.11.718,FishGame,2022.1.1,59.9641893861045,
,8,나를 보내줘,6,Green,A,0,0,ScrollUp,ScrollDown,Green.png,3,NonTarget,NonTarget,,,,,0,0,0,0,,,,,,,,,,,,,,,,,,,,,0,7,7,7,,,,,,,,,,,,,,,,,,,,,,,,,,,,,,,,,,,,,,,,,,,,,,,,,,,,,,,,,,,,,,,,,,,,,,,,,1.7777777860562007,1.08621139999741,376.44342569999935,None,ScrollUp,정답입니다,376.44342569999935,None,376.44342569999935,None,376.44342569999935,None,376.44342569999935,None,377.40135400000145,None,377.40135400000145,377.9090327999984,,,,,,,,,,,,,,,,214,2022-05-10_18h15.11.718,FishGame,2022.1.1,59.9641893861045,
,9,넌 자신만만해,3,Orange,B,4.833333333333334,4.333333333333333,ScrollUp,ScrollDown,Orange.png,3,Neutral,Neutral,,,,,0,0,0,0,,,,,,,,,,,,,,,,,,,,,0,8,8,8,,,,,,,,,,,,,,,,,,,,,,,,,,,,,,,,,,,,,,,,,,,,,,,,,,,,,,,,,,,,,,,,,,,,,,,,,1.6373456791043282,1.2599804999990738,378.59267329999784,None,ScrollUp,정답입니다,378.59267329999784,None,378.59267329999784,None,378.59267329999784,None,378.59267329999784,None,379.6999939999987,None,379.6999939999987,380.2087102000005,,,,,,,,,,,,,,,,214,2022-05-10_18h15.11.718,FishGame,2022.1.1,59.9641893861045,
,10,넌 탐욕스러워,5,Green,A,2.25,2.1,ScrollDown,ScrollUp,Green.png,3,Negative,Incongruent,,,,,0,0,0,0,,,,,,,,,,,,,,,,,,,,,0,9,9,9,,,,,,,,,,,,,,,,,,,,,,,,,,,,,,,,,,,,,,,,,,,,,,,,,,,,,,,,,,,,,,,,,,,,,,,,,1.0015431940555573,1.0524511999974493,380.86926400000084,None,ScrollDown,정답입니다,380.86926400000084,None,380.86926400000084,None,380.86926400000084,None,380.86926400000084,None,381.7847703000007,None,381.7847703000007,382.29157119999945,,,,,,,,,,,,,,,,214,2022-05-10_18h15.11.718,FishGame,2022.1.1,59.9641893861045,
,11,넌 인기있어,2,Green,A,5.458333333333333,4.5,ScrollDown,ScrollUp,Green.png,3,Positive,Congruent,,,,,0,0,0,0,,,,,,,,,,,,,,,,,,,,,0,10,10,10,,,,,,,,,,,,,,,,,,,,,,,,,,,,,,,,,,,,,,,,,,,,,,,,,,,,,,,,,,,,,,,,,,,,,,,,,1.1126543233791988,0.9658022000003257,382.9800181999999,None,ScrollDown,정답입니다,382.9800181999999,None,382.9800181999999,None,382.9800181999999,None,382.9800181999999,None,383.7823396999993,None,383.7823396999993,384.29160820000106,,,,,,,,,,,,,,,,214,2022-05-10_18h15.11.718,FishGame,2022.1.1,59.9641893861045,
,12,나를 데려가줘,6,Orange,B,0,0,ScrollDown,ScrollUp,Orange.png,3,NonTarget,NonTarget,,,,,0,0,0,0,,,,,,,,,,,,,,,,,,,,,0,11,11,11,,,,,,,,,,,,,,,,,,,,,,,,,,,,,,,,,,,,,,,,,,,,,,,,,,,,,,,,,,,,,,,,,,,,,,,,,1.2361111144224803,1.2514763999970455,384.9467126999989,None,ScrollDown,정답입니다,384.9467126999989,None,384.9467126999989,None,384.9467126999989,None,384.9467126999989,None,386.06920829999945,None,386.06920829999945,386.57473449999816,,,,,,,,,,,,,,,,214,2022-05-10_18h15.11.718,FishGame,2022.1.1,59.9641893861045,
,13,넌 뛰어나,2,Orange,B,6.166666666666667,4,ScrollUp,ScrollDown,Orange.png,3,Positive,Incongruent,,,,,0,0,0,0,,,,,,,,,,,,,,,,,,,,,0,12,12,12,,,,,,,,,,,,,,,,,,,,,,,,,,,,,,,,,,,,,,,,,,,,,,,,,,,,,,,,,,,,,,,,,,,,,,,,,1.939814825852712,1.0065604000010353,387.25768320000134,None,ScrollUp,정답입니다,387.25768320000134,None,387.25768320000134,None,387.25768320000134,None,387.25768320000134,None,388.10754720000114,None,388.10754720000114,388.60746519999884,,,,,,,,,,,,,,,,214,2022-05-10_18h15.11.718,FishGame,2022.1.1,59.9641893861045,
,14,넌 낙관적이야,1,Green,A,5.75,5.8,ScrollDown,ScrollUp,Green.png,3,Positive,Congruent,,,,,0,0,0,0,,,,,,,,,,,,,,,,,,,,,0,13,13,13,,,,,,,,,,,,,,,,,,,,,,,,,,,,,,,,,,,,,,,,,,,,,,,,,,,,,,,,,,,,,,,,,,,,,,,,,1.0030864079793294,1.0895091999991564,389.26306079999995,None,ScrollDown,정답입니다,389.26306079999995,None,389.26306079999995,None,389.26306079999995,None,389.26306079999995,None,390.2234303000005,None,390.2234303000005,390.7237832999999,,,,,,,,,,,,,,,,214,2022-05-10_18h15.11.718,FishGame,2022.1.1,59.9641893861045,
,15,넌 산만해,4,Orange,B,2.695652173913043,3.033333333333333,ScrollUp,ScrollDown,Orange.png,3,Negative,Congruent,,,,,0,0,0,0,,,,,,,,,,,,,,,,,,,,,0,14,14,14,,,,,,,,,,,,,,,,,,,,,,,,,,,,,,,,,,,,,,,,,,,,,,,,,,,,,,,,,,,,,,,,,,,,,,,,,1.8950617214043934,1.3553204999989248,391.3866429000009,None,ScrollUp,정답입니다,391.3866429000009,None,391.3866429000009,None,391.3866429000009,None,391.3866429000009,None,392.6069258999996,None,392.6069258999996,393.1067418999992,,,,,,,,,,,,,,,,214,2022-05-10_18h15.11.718,FishGame,2022.1.1,59.9641893861045,
,16,나를 보내줘,6,Green,A,0,0,ScrollUp,ScrollDown,Green.png,3,NonTarget,NonTarget,,,,,0,0,0,0,,,,,,,,,,,,,,,,,,,,,0,15,15,15,,,,,,,,,,,,,,,,,,,,,,,,,,,,,,,,,,,,,,,,,,,,,,,,,,,,,,,,,,,,,,,,,,,,,,,,,1.8302469104528427,1.1160799999997835,393.7600772000005,None,ScrollUp,정답입니다,393.7600772000005,None,393.7600772000005,None,393.7600772000005,None,393.7600772000005,None,394.7463940999987,None,394.7463940999987,395.2566239999978,,,,,,,,,,,,,,,,214,2022-05-10_18h15.11.718,FishGame,2022.1.1,59.9641893861045,
,17,넌 교활해,5,Orange,B,2.333333333333333,2.133333333333333,ScrollUp,ScrollDown,Orange.png,3,Negative,Congruent,,,,,0,0,0,0,,,,,,,,,,,,,,,,,,,,,0,16,16,16,,,,,,,,,,,,,,,,,,,,,,,,,,,,,,,,,,,,,,,,,,,,,,,,,,,,,,,,,,,,,,,,,,,,,,,,,1.9737654328346252,1.0674565999979677,395.9171196999996,None,ScrollUp,정답입니다,395.9171196999996,None,395.9171196999996,None,395.9171196999996,None,395.9171196999996,None,396.84629289999793,None,396.84629289999793,397.3563695999983,,,,,,,,,,,,,,,,214,2022-05-10_18h15.11.718,FishGame,2022.1.1,59.9641893861045,
,18,나를 보내줘,6,Green,A,0,0,ScrollUp,ScrollDown,Green.png,3,NonTarget,NonTarget,,,,,0,0,0,0,,,,,,,,,,,,,,,,,,,,,0,17,17,17,,,,,,,,,,,,,,,,,,,,,,,,,,,,,,,,,,,,,,,,,,,,,,,,,,,,,,,,,,,,,,,,,,,,,,,,,1.7098765472571054,1.050834700003179,398.0249048000005,None,ScrollUp,정답입니다,398.0249048000005,None,398.0249048000005,None,398.0249048000005,None,398.0249048000005,None,398.9298122,None,398.9298122,399.4394027999988,,,,,,,,,,,,,,,,214,2022-05-10_18h15.11.718,FishGame,2022.1.1,59.9641893861045,
,19,넌 불친절해,5,Orange,B,2.208333333333333,2.033333333333333,ScrollUp,ScrollDown,Orange.png,3,Negative,Congruent,,,,,0,0,0,0,,,,,,,,,,,,,,,,,,,,,0,18,18,18,,,,,,,,,,,,,,,,,,,,,,,,,,,,,,,,,,,,,,,,,,,,,,,,,,,,,,,,,,,,,,,,,,,,,,,,,1.8858024626970291,1.128931500003091,400.10396449999826,None,ScrollUp,정답입니다,400.10396449999826,None,400.10396449999826,None,400.10396449999826,None,400.10396449999826,None,401.08925309999904,None,401.08925309999904,401.5890096000003,,,,,,,,,,,,,,,,214,2022-05-10_18h15.11.718,FishGame,2022.1.1,59.9641893861045,
,20,넌 지적이야,2,Orange,B,5.75,4.366666666666666,ScrollUp,ScrollDown,Orange.png,3,Positive,Incongruent,,,,,0,0,0,0,,,,,,,,,,,,,,,,,,,,,0,19,19,19,,,,,,,,,,,,,,,,,,,,,,,,,,,,,,,,,,,,,,,,,,,,,,,,,,,,,,,,,,,,,,,,,,,,,,,,,1.7299382785956063,1.0790610000003653,402.2493684000001,None,ScrollUp,정답입니다,402.2493684000001,None,402.2493684000001,None,402.2493684000001,None,402.2493684000001,None,403.1922912000009,None,403.1922912000009,403.70543030000044,,,,,,,,,,,,,,,,214,2022-05-10_18h15.11.718,FishGame,2022.1.1,59.9641893861045,
,21,넌 우유부단해,4,Green,A,2.666666666666667,3.166666666666667,ScrollDown,ScrollUp,Green.png,3,Negative,Incongruent,,,,,0,0,0,0,,,,,,,,,,,,,,,,,,,,,0,20,20,20,,,,,,,,,,,,,,,,,,,,,,,,,,,,,,,,,,,,,,,,,,,,,,,,,,,,,,,,,,,,,,,,,,,,,,,,,1.1172839403152466,0.9468971999995119,404.3655445000004,None,ScrollDown,정답입니다,404.3655445000004,None,404.3655445000004,None,404.3655445000004,None,404.3655445000004,None,405.17598449999787,None,405.17598449999787,405.68857379999827,,,,,,,,,,,,,,,,214,2022-05-10_18h15.11.718,FishGame,2022.1.1,59.9641893861045,
,22,나를 데려가줘,6,Orange,B,0,0,ScrollDown,ScrollUp,Orange.png,3,NonTarget,NonTarget,,,,,0,0,0,0,,,,,,,,,,,,,,,,,,,,,0,21,21,21,,,,,,,,,,,,,,,,,,,,,,,,,,,,,,,,,,,,,,,,,,,,,,,,,,,,,,,,,,,,,,,,,,,,,,,,,1.2515432039896646,1.181928499998321,406.34457620000103,None,ScrollDown,정답입니다,406.34457620000103,None,406.34457620000103,None,406.34457620000103,None,406.34457620000103,None,407.39485369999966,None,407.39485369999966,407.90535660000023,,,,,,,,,,,,,,,,214,2022-05-10_18h15.11.718,FishGame,2022.1.1,59.9641893861045,
,23,넌 성실해,1,Orange,B,6.041666666666666,5.7,ScrollUp,ScrollDown,Orange.png,3,Positive,Incongruent,,,,,0,0,0,0,,,,,,,,,,,,,,,,,,,,,0,22,22,22,,,,,,,,,,,,,,,,,,,,,,,,,,,,,,,,,,,,,,,,,,,,,,,,,,,,,,,,,,,,,,,,,,,,,,,,,1.674382713933786,0.9891326999968442,408.56576979999954,None,ScrollUp,정답입니다,408.56576979999954,None,408.56576979999954,None,408.56576979999954,None,408.56576979999954,None,409.41545739999856,None,409.41545739999856,409.92145059999893,,,,,,,,,,,,,,,,214,2022-05-10_18h15.11.718,FishGame,2022.1.1,59.9641893861045,
,24,넌 현실주의적이야,3,Green,A,4.625,4.4,ScrollDown,ScrollUp,Green.png,3,Neutral,Neutral,,,,,0,0,0,0,,,,,,,,,,,,,,,,,,,,,0,23,23,23,,,,,,,,,,,,,,,,,,,,,,,,,,,,,,,,,,,,,,,,,,,,,,,,,,,,,,,,,,,,,,,,,,,,,,,,,1.060185174147288,1.0127867000010156,410.5800022000003,None,ScrollDown,정답입니다,410.5800022000003,None,410.5800022000003,None,410.5800022000003,None,410.5800022000003,None,411.45931589999964,None,411.45931589999964,411.97112489999927,,,,,,,,,,,,,,,,214,2022-05-10_18h15.11.718,FishGame,2022.1.1,59.9641893861045,
,25,넌 진실돼,1,Green,A,6.625,5.566666666666666,ScrollDown,ScrollUp,Green.png,3,Positive,Congruent,,,,,0,0,0,0,,,,,,,,,,,,,,,,,,,,,0,24,24,24,,,,,,,,,,,,,,,,,,,,,,,,,,,,,,,,,,,,,,,,,,,,,,,,,,,,,,,,,,,,,,,,,,,,,,,,,1.0138889054457347,1.0518157000005885,412.6303831000005,None,ScrollDown,정답입니다,412.6303831000005,None,412.6303831000005,None,412.6303831000005,None,412.6303831000005,None,413.5455108999995,None,413.5455108999995,414.05408109999917,,,,,,,,,,,,,,,,214,2022-05-10_18h15.11.718,FishGame,2022.1.1,59.9641893861045,
,26,넌 천진난만해,3,Orange,B,4.958333333333334,4.833333333333333,ScrollUp,ScrollDown,Orange.png,3,Neutral,Neutral,,,,,0,0,0,0,,,,,,,,,,,,,,,,,,,,,0,25,25,25,,,,,,,,,,,,,,,,,,,,,,,,,,,,,,,,,,,,,,,,,,,,,,,,,,,,,,,,,,,,,,,,,,,,,,,,,1.8163580348094304,0.9855470000002242,414.7179419999993,None,ScrollUp,정답입니다,414.7179419999993,None,414.7179419999993,None,414.7179419999993,None,414.7179419999993,None,415.5634166999989,None,415.5634166999989,416.07095180000033,,,,,,,,,,,,,,,,214,2022-05-10_18h15.11.718,FishGame,2022.1.1,59.9641893861045,
,27,넌 교양없어,5,Green,A,2.416666666666667,2.2,ScrollDown,ScrollUp,Green.png,3,Negative,Incongruent,,,,,0,0,0,0,,,,,,,,,,,,,,,,,,,,,0,26,26,26,,,,,,,,,,,,,,,,,,,,,,,,,,,,,,,,,,,,,,,,,,,,,,,,,,,,,,,,,,,,,,,,,,,,,,,,,1,1.0779545000004873,416.7306605999984,None,ScrollDown,정답입니다,416.7306605999984,None,416.7306605999984,None,416.7306605999984,None,416.7306605999984,None,417.6729114000009,None,417.6729114000009,418.18699750000087,,,,,,,,,,,,,,,,214,2022-05-10_18h15.11.718,FishGame,2022.1.1,59.9641893861045,
,28,나를 보내줘,6,Green,A,0,0,ScrollUp,ScrollDown,Green.png,3,NonTarget,NonTarget,,,,,0,0,0,0,,,,,,,,,,,,,,,,,,,,,0,27,27,27,,,,,,,,,,,,,,,,,,,,,,,,,,,,,,,,,,,,,,,,,,,,,,,,,,,,,,,,,,,,,,,,,,,,,,,,,1.8626543283462524,0.9991432999995595,418.8400306000003,None,ScrollUp,정답입니다,418.8400306000003,None,418.8400306000003,None,418.8400306000003,None,418.8400306000003,None,419.7088189999995,None,419.7088189999995,420.2200422999995,,,,,,,,,,,,,,,,214,2022-05-10_18h15.11.718,FishGame,2022.1.1,59.9641893861045,
,29,넌 엉뚱스러워,3,Green,A,4.166666666666667,4.133333333333334,ScrollDown,ScrollUp,Green.png,3,Neutral,Neutral,,,,,0,0,0,0,,,,,,,,,,,,,,,,,,,,,0,28,28,28,,,,,,,,,,,,,,,,,,,,,,,,,,,,,,,,,,,,,,,,,,,,,,,,,,,,,,,,,,,,,,,,,,,,,,,,,1.336419758697351,0.9473746999974537,420.88251780000064,None,ScrollDown,정답입니다,420.88251780000064,None,420.88251780000064,None,420.88251780000064,None,420.88251780000064,None,421.69096060000084,None,421.69096060000084,422.2030218,,,,,,,,,,,,,,,,214,2022-05-10_18h15.11.718,FishGame,2022.1.1,59.9641893861045,
,30,넌 무지해,4,Orange,B,2.541666666666667,3.066666666666667,ScrollUp,ScrollDown,Orange.png,3,Negative,Congruent,,,,,0,0,0,0,,,,,,,,,,,,,,,,,,,,,0,29,29,29,,,,,,,,,,,,,,,,,,,,,,,,,,,,,,,,,,,,,,,,,,,,,,,,,,,,,,,,,,,,,,,,,,,,,,,,,1.6651234552264214,0.8035414000005403,422.85916409999845,None,ScrollUp,정답입니다,422.85916409999845,None,422.85916409999845,None,422.85916409999845,None,422.85916409999845,None,423.52851250000094,None,423.52851250000094,424.0361836000011,,,,,,,,,,,,,,,,214,2022-05-10_18h15.11.718,FishGame,2022.1.1,59.9641893861045,
,31,넌 음울해,5,Orange,B,2.25,2.233333333333333,ScrollUp,ScrollDown,Orange.png,3,Negative,Congruent,,,,,0,0,0,0,,,,,,,,,,,,,,,,,,,,,0,30,30,30,,,,,,,,,,,,,,,,,,,,,,,,,,,,,,,,,,,,,,,,,,,,,,,,,,,,,,,,,,,,,,,,,,,,,,,,,1.8333333383003871,1.6109929000012926,424.7159496999993,None,ScrollUp,정답입니다,424.7159496999993,None,424.7159496999993,None,424.7159496999993,None,424.7159496999993,None,426.17090800000005,None,426.17090800000005,426.68598049999855,,,,,,,,,,,,,,,,214,2022-05-10_18h15.11.718,FishGame,2022.1.1,59.9641893861045,
,32,넌 냉소적이야,5,Green,A,2.916666666666667,2.4,ScrollDown,ScrollUp,Green.png,3,Negative,Incongruent,,,,,0,0,0,0,,,,,,,,,,,,,,,,,,,,,0,31,31,31,,,,,,,,,,,,,,,,,,,,,,,,,,,,,,,,,,,,,,,,,,,,,,,,,,,,,,,,,,,,,,,,,,,,,,,,,1,1.0212036999982956,427.3427354000014,None,ScrollDown,정답입니다,427.3427354000014,None,427.3427354000014,None,427.3427354000014,None,427.3427354000014,None,428.229608499998,None,428.229608499998,428.73553940000056,,,,,,,,,,,,,,,,214,2022-05-10_18h15.11.718,FishGame,2022.1.1,59.9641893861045,
,33,나를 데려가줘,6,Orange,B,0,0,ScrollDown,ScrollUp,Orange.png,3,NonTarget,NonTarget,,,,,0,0,0,0,,,,,,,,,,,,,,,,,,,,,0,32,32,32,,,,,,,,,,,,,,,,,,,,,,,,,,,,,,,,,,,,,,,,,,,,,,,,,,,,,,,,,,,,,,,,,,,,,,,,,1.1111111094554265,1.0258556999979191,429.3948856999996,None,ScrollDown,정답입니다,429.3948856999996,None,429.3948856999996,None,429.3948856999996,None,429.3948856999996,None,430.2817767999986,None,430.2817767999986,430.78540599999906,,,,,,,,,,,,,,,,214,2022-05-10_18h15.11.718,FishGame,2022.1.1,59.9641893861045,
,34,넌 쾌활해,1,Green,A,5.541666666666666,5.733333333333333,ScrollDown,ScrollUp,Green.png,3,Positive,Congruent,,,,,0,0,0,0,,,,,,,,,,,,,,,,,,,,,0,33,33,33,,,,,,,,,,,,,,,,,,,,,,,,,,,,,,,,,,,,,,,,,,,,,,,,,,,,,,,,,,,,,,,,,,,,,,,,,1.0879629751046498,0.9956079000003228,431.4400343999987,None,ScrollDown,정답입니다,431.4400343999987,None,431.4400343999987,None,431.4400343999987,None,431.4400343999987,None,432.30536310000025,None,432.30536310000025,432.81832230000146,,,,,,,,,,,,,,,,214,2022-05-10_18h15.11.718,FishGame,2022.1.1,59.9641893861045,
,35,나를 보내줘,6,Green,A,0,0,ScrollUp,ScrollDown,Green.png,3,NonTarget,NonTarget,,,,,0,0,0,0,,,,,,,,,,,,,,,,,,,,,0,34,34,34,,,,,,,,,,,,,,,,,,,,,,,,,,,,,,,,,,,,,,,,,,,,,,,,,,,,,,,,,,,,,,,,,,,,,,,,,1.7530864129463832,1.1186214000008476,433.47083850000126,None,ScrollUp,정답입니다,433.47083850000126,None,433.47083850000126,None,433.47083850000126,None,433.47083850000126,None,434.4606483999996,None,434.4606483999996,434.9682021999979,,,,,,,,,,,,,,,,214,2022-05-10_18h15.11.718,FishGame,2022.1.1,59.9641893861045,
,36,넌 명랑해,1,Orange,B,5.739130434782609,5.666666666666667,ScrollUp,ScrollDown,Orange.png,3,Positive,Incongruent,,,,,0,0,0,0,,,,,,,,,,,,,,,,,,,,,0,35,35,35,,,,,,,,,,,,,,,,,,,,,,,,,,,,,,,,,,,,,,,,,,,,,,,,,,,,,,,,,,,,,,,,,,,,,,,,,2,0.9501144999994722,435.6313700999999,None,ScrollUp,정답입니다,435.6313700999999,None,435.6313700999999,None,435.6313700999999,None,435.6313700999999,None,436.4416256000004,None,436.4416256000004,436.95123479999893,,,,,,,,,,,,,,,,214,2022-05-10_18h15.11.718,FishGame,2022.1.1,59.9641893861045,
,37,넌 멍해,4,Green,A,2.833333333333333,3.4,ScrollDown,ScrollUp,Green.png,3,Negative,Incongruent,,,,,0,0,0,0,,,,,,,,,,,,,,,,,,,,,0,36,36,36,,,,,,,,,,,,,,,,,,,,,,,,,,,,,,,,,,,,,,,,,,,,,,,,,,,,,,,,,,,,,,,,,,,,,,,,,1.0092592636744182,0.9480237999996461,437.6077686999997,None,ScrollDown,정답입니다,437.6077686999997,None,437.6077686999997,None,437.6077686999997,None,437.6077686999997,None,438.42205939999985,None,438.42205939999985,438.93414570000095,,,,,,,,,,,,,,,,214,2022-05-10_18h15.11.718,FishGame,2022.1.1,59.9641893861045,
,38,나를 데려가줘,6,Orange,B,0,0,ScrollDown,ScrollUp,Orange.png,3,NonTarget,NonTarget,,,,,0,0,0,0,,,,,,,,,,,,,,,,,,,,,0,37,37,37,,,,,,,,,,,,,,,,,,,,,,,,,,,,,,,,,,,,,,,,,,,,,,,,,,,,,,,,,,,,,,,,,,,,,,,,,1.2746913631757102,1.014689299998281,439.5889887000012,None,ScrollDown,정답입니다,439.5889887000012,None,439.5889887000012,None,439.5889887000012,None,439.5889887000012,None,440.47245850000036,None,440.47245850000036,440.9840179999992,,,,,,,,,,,,,,,,214,2022-05-10_18h15.11.718,FishGame,2022.1.1,59.9641893861045,
,39,넌 현명해,2,Green,A,6.541666666666666,4.533333333333333,ScrollDown,ScrollUp,Green.png,3,Positive,Congruent,,,,,0,0,0,0,,,,,,,,,,,,,,,,,,,,,0,38,38,38,,,,,,,,,,,,,,,,,,,,,,,,,,,,,,,,,,,,,,,,,,,,,,,,,,,,,,,,,,,,,,,,,,,,,,,,,1.0817901194095612,0.8381226999990758,441.63548629999786,None,ScrollDown,정답입니다,441.63548629999786,None,441.63548629999786,None,441.63548629999786,None,441.63548629999786,None,442.34344989999954,None,442.34344989999954,442.8504839999987,,,,,,,,,,,,,,,,214,2022-05-10_18h15.11.718,FishGame,2022.1.1,59.9641893861045,
,40,넌 수줍어,3,Orange,B,3.541666666666666,4.366666666666666,ScrollUp,ScrollDown,Orange.png,3,Neutral,Neutral,,,,,0,0,0,0,,,,,,,,,,,,,,,,,,,,,0,39,39,39,,,,,,,,,,,,,,,,,,,,,,,,,,,,,,,,,,,,,,,,,,,,,,,,,,,,,,,,,,,,,,,,,,,,,,,,,1.9012345770994823,0.9696818000011262,443.5164694999985,None,ScrollUp,정답입니다,443.5164694999985,None,443.5164694999985,None,443.5164694999985,None,443.5164694999985,None,444.3424061000005,None,444.3424061000005,444.85015009999915,,,,,,,,,,,,,,,,214,2022-05-10_18h15.11.718,FishGame,2022.1.1,59.9641893861045,
,41,나를 데려가줘,6,Orange,B,0,0,ScrollDown,ScrollUp,Orange.png,3,NonTarget,NonTarget,,,,,0,0,0,0,,,,,,,,,,,,,,,,,,,,,0,40,40,40,,,,,,,,,,,,,,,,,,,,,,,,,,,,,,,,,,,,,,,,,,,,,,,,,,,,,,,,,,,,,,,,,,,,,,,,,1.3549382761120796,1.059983999999531,445.51071930000035,None,ScrollDown,정답입니다,445.51071930000035,None,445.51071930000035,None,445.51071930000035,None,445.51071930000035,None,446.4383299000001,None,446.4383299000001,446.9499453999997,,,,,,,,,,,,,,,,214,2022-05-10_18h15.11.718,FishGame,2022.1.1,59.9641893861045,
,42,넌 성숙해,2,Orange,B,5.833333333333333,4.533333333333333,ScrollUp,ScrollDown,Orange.png,3,Positive,Incongruent,,,,,0,0,0,0,,,,,,,,,,,,,,,,,,,,,0,41,41,41,,,,,,,,,,,,,,,,,,,,,,,,,,,,,,,,,,,,,,,,,,,,,,,,,,,,,,,,,,,,,,,,,,,,,,,,,1.5679012325902781,1.050769699999364,447.6055235999993,None,ScrollUp,정답입니다,447.6055235999993,None,447.6055235999993,None,447.6055235999993,None,447.6055235999993,None,448.52482260000033,None,448.52482260000033,449.03303999999844,,,,,,,,,,,,,,,,214,2022-05-10_18h15.11.718,FishGame,2022.1.1,59.9641893861045,
,1,넌 매력적이야,2,Orange,B,6.125,4.666666666666667,ScrollUp,ScrollDown,Orange.png,4,Positive,Incongruent,,,,,0,0,0,0,,,,,,,,,,,,,,,,,,,,,,,,,0,0,0,0,,,,,,,,,,,,,,,,,,,,,,,,,,,,480.8625272999998,482.36197280000124,482.3953723000013,483.34519379999983,483.3951797000009,484.3450879999982,484.3450879999982,None,,,,,,,,,,,,,,,,,,,,,,,,,,,,,,,,,,1.785493830839793,1.1938846000011836,485.53136749999976,None,ScrollUp,정답입니다,485.53136749999976,None,485.53136749999976,None,485.53136749999976,None,485.53136749999976,None,486.55253000000084,None,486.55253000000084,487.06140740000046,449.5328879000008,None,449.5328879000008,None,0.15185185,-0.10092592,1,0,0,0.016230760000325972,None,479.5458203999988,None,,,214,2022-05-10_18h15.11.718,FishGame,2022.1.1,59.9641893861045,
,2,나를 보내줘,6,Green,A,0,0,ScrollUp,ScrollDown,Green.png,4,NonTarget,NonTarget,,,,,0,0,0,0,,,,,,,,,,,,,,,,,,,,,,,,,0,1,1,1,,,,,,,,,,,,,,,,,,,,,,,,,,,,,,,,,,,,,,,,,,,,,,,,,,,,,,,,,,,,,,,,,,,,,1.9444444676240284,1.0780496999977913,487.7079156,None,ScrollUp,정답입니다,487.7079156,None,487.7079156,None,487.7079156,None,487.7079156,None,488.6613126000011,None,488.6613126000011,489.1611722999987,,,,,,,,,,,,,,,,214,2022-05-10_18h15.11.718,FishGame,2022.1.1,59.9641893861045,
,3,넌 조심스러워,3,Green,A,4.791666666666666,4.666666666666667,ScrollDown,ScrollUp,Green.png,4,Neutral,Neutral,,,,,0,0,0,0,,,,,,,,,,,,,,,,,,,,,,,,,0,2,2,2,,,,,,,,,,,,,,,,,,,,,,,,,,,,,,,,,,,,,,,,,,,,,,,,,,,,,,,,,,,,,,,,,,,,,1,0.992534799999703,489.81336010000086,None,ScrollDown,정답입니다,489.81336010000086,None,489.81336010000086,None,489.81336010000086,None,489.81336010000086,None,490.67298070000106,None,490.67298070000106,491.17756160000135,,,,,,,,,,,,,,,,214,2022-05-10_18h15.11.718,FishGame,2022.1.1,59.9641893861045,
,4,넌 철학적이야,3,Orange,B,4.5,4.266666666666667,ScrollUp,ScrollDown,Orange.png,4,Neutral,Neutral,,,,,0,0,0,0,,,,,,,,,,,,,,,,,,,,,,,,,0,3,3,3,,,,,,,,,,,,,,,,,,,,,,,,,,,,,,,,,,,,,,,,,,,,,,,,,,,,,,,,,,,,,,,,,,,,,2,1.005561599999055,491.85317809999833,None,ScrollUp,정답입니다,491.85317809999833,None,491.85317809999833,None,491.85317809999833,None,491.85317809999833,None,492.7108343,None,492.7108343,493.21051689999877,,,,,,,,,,,,,,,,214,2022-05-10_18h15.11.718,FishGame,2022.1.1,59.9641893861045,
,5,넌 쩨쩨해,5,Green,A,2.375,2.133333333333333,ScrollDown,ScrollUp,Green.png,4,Negative,Incongruent,,,,,0,0,0,0,,,,,,,,,,,,,,,,,,,,,,,,,0,4,4,4,,,,,,,,,,,,,,,,,,,,,,,,,,,,,,,,,,,,,,,,,,,,,,,,,,,,,,,,,,,,,,,,,,,,,1.0493827263514202,0.9829892000016116,493.86792910000077,None,ScrollDown,정답입니다,493.86792910000077,None,493.86792910000077,None,493.86792910000077,None,493.86792910000077,None,494.7183531999981,None,494.7183531999981,495.2269966999993,,,,,,,,,,,,,,,,214,2022-05-10_18h15.11.718,FishGame,2022.1.1,59.9641893861045,
,6,나를 데려가줘,6,Orange,B,0,0,ScrollDown,ScrollUp,Orange.png,4,NonTarget,NonTarget,,,,,0,0,0,0,,,,,,,,,,,,,,,,,,,,,,,,,0,5,5,5,,,,,,,,,,,,,,,,,,,,,,,,,,,,,,,,,,,,,,,,,,,,,,,,,,,,,,,,,,,,,,,,,,,,,1.0617283880710602,1.0118473999973503,495.88449019999825,None,ScrollDown,정답입니다,495.88449019999825,None,495.88449019999825,None,495.88449019999825,None,495.88449019999825,None,496.76045539999905,None,496.76045539999905,497.2600940000011,,,,,,,,,,,,,,,,214,2022-05-10_18h15.11.718,FishGame,2022.1.1,59.9641893861045,
,7,넌 고집불통이야,5,Orange,B,2.875,2,ScrollUp,ScrollDown,Orange.png,4,Negative,Congruent,,,,,0,0,0,0,,,,,,,,,,,,,,,,,,,,,,,,,0,6,6,6,,,,,,,,,,,,,,,,,,,,,,,,,,,,,,,,,,,,,,,,,,,,,,,,,,,,,,,,,,,,,,,,,,,,,1.8425925970077515,0.8957449000008637,497.92806070000006,None,ScrollUp,정답입니다,497.92806070000006,None,497.92806070000006,None,497.92806070000006,None,497.92806070000006,None,498.6798596999979,None,498.6798596999979,499.1932077999991,,,,,,,,,,,,,,,,214,2022-05-10_18h15.11.718,FishGame,2022.1.1,59.9641893861045,
,8,넌 무심해,4,Green,A,2.875,3.2,ScrollDown,ScrollUp,Green.png,4,Negative,Incongruent,,,,,0,0,0,0,,,,,,,,,,,,,,,,,,,,,,,,,0,7,7,7,,,,,,,,,,,,,,,,,,,,,,,,,,,,,,,,,,,,,,,,,,,,,,,,,,,,,,,,,,,,,,,,,,,,,1.1018518507480621,0.9921051999990596,499.8404989999981,None,ScrollDown,정답입니다,499.8404989999981,None,499.8404989999981,None,499.8404989999981,None,499.8404989999981,None,500.7106031000003,None,500.7106031000003,501.2262797000003,,,,,,,,,,,,,,,,214,2022-05-10_18h15.11.718,FishGame,2022.1.1,59.9641893861045,
,9,넌 정겨워,1,Green,A,5.791666666666667,5.666666666666667,ScrollDown,ScrollUp,Green.png,4,Positive,Congruent,,,,,0,0,0,0,,,,,,,,,,,,,,,,,,,,,,,,,0,8,8,8,,,,,,,,,,,,,,,,,,,,,,,,,,,,,,,,,,,,,,,,,,,,,,,,,,,,,,,,,,,,,,,,,,,,,1.0709876716136932,0.912285400001565,501.88282809999873,None,ScrollDown,정답입니다,501.88282809999873,None,501.88282809999873,None,501.88282809999873,None,501.88282809999873,None,502.6621406000013,None,502.6621406000013,503.1760714999982,,,,,,,,,,,,,,,,214,2022-05-10_18h15.11.718,FishGame,2022.1.1,59.9641893861045,
,10,나를 데려가줘,6,Orange,B,0,0,ScrollDown,ScrollUp,Orange.png,4,NonTarget,NonTarget,,,,,0,0,0,0,,,,,,,,,,,,,,,,,,,,,,,,,0,9,9,9,,,,,,,,,,,,,,,,,,,,,,,,,,,,,,,,,,,,,,,,,,,,,,,,,,,,,,,,,,,,,,,,,,,,,1.2592592487732568,1.0451527999975951,503.82946470000024,None,ScrollDown,정답입니다,503.82946470000024,None,503.82946470000024,None,503.82946470000024,None,503.82946470000024,None,504.74271260000023,None,504.74271260000023,505.24237979999816,,,,,,,,,,,,,,,,214,2022-05-10_18h15.11.718,FishGame,2022.1.1,59.9641893861045,
,11,넌 체제순응적이야,4,Orange,B,3,3.6,ScrollUp,ScrollDown,Orange.png,4,Negative,Congruent,,,,,0,0,0,0,,,,,,,,,,,,,,,,,,,,,,,,,0,10,10,10,,,,,,,,,,,,,,,,,,,,,,,,,,,,,,,,,,,,,,,,,,,,,,,,,,,,,,,,,,,,,,,,,,,,,1.7175925920406976,1.1977299000027415,505.9149347999992,None,ScrollUp,정답입니다,505.9149347999992,None,505.9149347999992,None,505.9149347999992,None,505.9149347999992,None,506.96465499999977,None,506.96465499999977,507.4754924000008,,,,,,,,,,,,,,,,214,2022-05-10_18h15.11.718,FishGame,2022.1.1,59.9641893861045,
,12,나를 보내줘,6,Green,A,0,0,ScrollUp,ScrollDown,Green.png,4,NonTarget,NonTarget,,,,,0,0,0,0,,,,,,,,,,,,,,,,,,,,,,,,,0,11,11,11,,,,,,,,,,,,,,,,,,,,,,,,,,,,,,,,,,,,,,,,,,,,,,,,,,,,,,,,,,,,,,,,,,,,,1.7407407512267432,1.1313384999994014,508.13194759999897,None,ScrollUp,정답입니다,508.13194759999897,None,508.13194759999897,None,508.13194759999897,None,508.13194759999897,None,509.1300932999984,None,509.1300932999984,509.6416667000012,,,,,,,,,,,,,,,,214,2022-05-10_18h15.11.718,FishGame,2022.1.1,59.9641893861045,
,13,넌 박식해,2,Green,A,5.625,3.933333333333333,ScrollDown,ScrollUp,Green.png,4,Positive,Congruent,,,,,0,0,0,0,,,,,,,,,,,,,,,,,,,,,,,,,0,12,12,12,,,,,,,,,,,,,,,,,,,,,,,,,,,,,,,,,,,,,,,,,,,,,,,,,,,,,,,,,,,,,,,,,,,,,1.2253086417913437,1.0901360000025306,510.2991355000013,None,ScrollDown,정답입니다,510.2991355000013,None,510.2991355000013,None,510.2991355000013,None,510.2991355000013,None,511.25966029999836,None,511.25966029999836,511.77495160000035,,,,,,,,,,,,,,,,214,2022-05-10_18h15.11.718,FishGame,2022.1.1,59.9641893861045,
,14,나를 보내줘,6,Green,A,0,0,ScrollUp,ScrollDown,Green.png,4,NonTarget,NonTarget,,,,,0,0,0,0,,,,,,,,,,,,,,,,,,,,,,,,,0,13,13,13,,,,,,,,,,,,,,,,,,,,,,,,,,,,,,,,,,,,,,,,,,,,,,,,,,,,,,,,,,,,,,,,,,,,,1.6882716019948325,1.0669202999997651,512.4214455000001,None,ScrollUp,정답입니다,512.4214455000001,None,512.4214455000001,None,512.4214455000001,None,512.4214455000001,None,513.3661022999986,None,513.3661022999986,513.8744716000001,,,,,,,,,,,,,,,,214,2022-05-10_18h15.11.718,FishGame,2022.1.1,59.9641893861045,
,15,넌 침착해,1,Orange,B,5.458333333333333,5.566666666666666,ScrollUp,ScrollDown,Orange.png,4,Positive,Incongruent,,,,,0,0,0,0,,,,,,,,,,,,,,,,,,,,,,,,,0,14,14,14,,,,,,,,,,,,,,,,,,,,,,,,,,,,,,,,,,,,,,,,,,,,,,,,,,,,,,,,,,,,,,,,,,,,,2,1.168280699999741,514.5353131999982,None,ScrollUp,정답입니다,514.5353131999982,None,514.5353131999982,None,514.5353131999982,None,514.5353131999982,None,515.5652846000012,None,515.5652846000012,516.0743163000006,,,,,,,,,,,,,,,,214,2022-05-10_18h15.11.718,FishGame,2022.1.1,59.9641893861045,
,16,나를 데려가줘,6,Orange,B,0,0,ScrollDown,ScrollUp,Orange.png,4,NonTarget,NonTarget,,,,,0,0,0,0,,,,,,,,,,,,,,,,,,,,,,,,,0,15,15,15,,,,,,,,,,,,,,,,,,,,,,,,,,,,,,,,,,,,,,,,,,,,,,,,,,,,,,,,,,,,,,,,,,,,,1,1.3589524999988498,516.7291353,None,ScrollDown,정답입니다,516.7291353,None,516.7291353,None,516.7291353,None,516.7291353,None,517.9576018999978,None,517.9576018999978,518.4573199000006,,,,,,,,,,,,,,,,214,2022-05-10_18h15.11.718,FishGame,2022.1.1,59.9641893861045,
,17,넌 행복해,1,Green,A,6.416666666666666,6.166666666666667,ScrollDown,ScrollUp,Green.png,4,Positive,Congruent,,,,,0,0,0,0,,,,,,,,,,,,,,,,,,,,,,,,,0,16,16,16,,,,,,,,,,,,,,,,,,,,,,,,,,,,,,,,,,,,,,,,,,,,,,,,,,,,,,,,,,,,,,,,,,,,,1.0015431940555573,1.1976474000002781,519.1181752000011,None,ScrollDown,정답입니다,519.1181752000011,None,519.1181752000011,None,519.1181752000011,None,519.1181752000011,None,520.1788754000008,None,520.1788754000008,520.6903937999996,,,,,,,,,,,,,,,,214,2022-05-10_18h15.11.718,FishGame,2022.1.1,59.9641893861045,
,18,넌 겸손해,2,Orange,B,5.791666666666667,4.766666666666667,ScrollUp,ScrollDown,Orange.png,4,Positive,Incongruent,,,,,0,0,0,0,,,,,,,,,,,,,,,,,,,,,,,,,0,17,17,17,,,,,,,,,,,,,,,,,,,,,,,,,,,,,,,,,,,,,,,,,,,,,,,,,,,,,,,,,,,,,,,,,,,,,2,1.3936491000022215,521.3493271000007,None,ScrollUp,정답입니다,521.3493271000007,None,521.3493271000007,None,521.3493271000007,None,521.3493271000007,None,522.6069171999989,None,522.6069171999989,523.106859200001,,,,,,,,,,,,,,,,214,2022-05-10_18h15.11.718,FishGame,2022.1.1,59.9641893861045,
,19,나를 보내줘,6,Green,A,0,0,ScrollUp,ScrollDown,Green.png,4,NonTarget,NonTarget,,,,,0,0,0,0,,,,,,,,,,,,,,,,,,,,,,,,,0,18,18,18,,,,,,,,,,,,,,,,,,,,,,,,,,,,,,,,,,,,,,,,,,,,,,,,,,,,,,,,,,,,,,,,,,,,,2,1.173329699999158,523.7525162999991,None,ScrollUp,정답입니다,523.7525162999991,None,523.7525162999991,None,523.7525162999991,None,523.7525162999991,None,524.8067378000014,None,524.8067378000014,525.3066461999988,,,,,,,,,,,,,,,,214,2022-05-10_18h15.11.718,FishGame,2022.1.1,59.9641893861045,
,20,넌 의심없어,3,Green,A,4.166666666666667,4.6,ScrollDown,ScrollUp,Green.png,4,Neutral,Neutral,,,,,0,0,0,0,,,,,,,,,,,,,,,,,,,,,,,,,0,19,19,19,,,,,,,,,,,,,,,,,,,,,,,,,,,,,,,,,,,,,,,,,,,,,,,,,,,,,,,,,,,,,,,,,,,,,1.1141975373029709,1.1160094999977446,525.9575455000013,None,ScrollDown,정답입니다,525.9575455000013,None,525.9575455000013,None,525.9575455000013,None,525.9575455000013,None,526.9463718000006,None,526.9463718000006,527.4564114999994,,,,,,,,,,,,,,,,214,2022-05-10_18h15.11.718,FishGame,2022.1.1,59.9641893861045,
,21,넌 시시해,4,Green,A,2.666666666666667,2.966666666666667,ScrollDown,ScrollUp,Green.png,4,Negative,Incongruent,,,,,0,0,0,0,,,,,,,,,,,,,,,,,,,,,,,,,0,20,20,20,,,,,,,,,,,,,,,,,,,,,,,,,,,,,,,,,,,,,,,,,,,,,,,,,,,,,,,,,,,,,,,,,,,,,1,0.9178490999984206,528.1016421999993,None,ScrollDown,정답입니다,528.1016421999993,None,528.1016421999993,None,528.1016421999993,None,528.1016421999993,None,528.8968215999994,None,528.8968215999994,529.4059654999983,,,,,,,,,,,,,,,,214,2022-05-10_18h15.11.718,FishGame,2022.1.1,59.9641893861045,
,22,나를 데려가줘,6,Orange,B,0,0,ScrollDown,ScrollUp,Orange.png,4,NonTarget,NonTarget,,,,,0,0,0,0,,,,,,,,,,,,,,,,,,,,,,,,,0,21,21,21,,,,,,,,,,,,,,,,,,,,,,,,,,,,,,,,,,,,,,,,,,,,,,,,,,,,,,,,,,,,,,,,,,,,,1,1.2273601999986568,530.0612088999987,None,ScrollDown,정답입니다,530.0612088999987,None,530.0612088999987,None,530.0612088999987,None,530.0612088999987,None,531.1556664999989,None,531.1556664999989,531.6555896999998,,,,,,,,,,,,,,,,214,2022-05-10_18h15.11.718,FishGame,2022.1.1,59.9641893861045,
,23,넌 무정해,5,Green,A,2.5,2.2,ScrollDown,ScrollUp,Green.png,4,Negative,Incongruent,,,,,0,0,0,0,,,,,,,,,,,,,,,,,,,,,,,,,0,22,22,22,,,,,,,,,,,,,,,,,,,,,,,,,,,,,,,,,,,,,,,,,,,,,,,,,,,,,,,,,,,,,,,,,,,,,1.1126543233791988,1.011659600000712,532.3033978999993,None,ScrollDown,정답입니다,532.3033978999993,None,532.3033978999993,None,532.3033978999993,None,532.3033978999993,None,533.1916958000002,None,533.1916958000002,533.7054940999988,,,,,,,,,,,,,,,,214,2022-05-10_18h15.11.718,FishGame,2022.1.1,59.9641893861045,
,24,넌 긍정적이야,1,Orange,B,6.041666666666667,6.066666666666666,ScrollUp,ScrollDown,Orange.png,4,Positive,Incongruent,,,,,0,0,0,0,,,,,,,,,,,,,,,,,,,,,,,,,0,23,23,23,,,,,,,,,,,,,,,,,,,,,,,,,,,,,,,,,,,,,,,,,,,,,,,,,,,,,,,,,,,,,,,,,,,,,1.8425925970077515,1.3451902000015252,534.3681743999987,None,ScrollUp,정답입니다,534.3681743999987,None,534.3681743999987,None,534.3681743999987,None,534.3681743999987,None,535.5724317999993,None,535.5724317999993,536.0717861000012,,,,,,,,,,,,,,,,214,2022-05-10_18h15.11.718,FishGame,2022.1.1,59.9641893861045,
,25,나를 보내줘,6,Green,A,0,0,ScrollUp,ScrollDown,Green.png,4,NonTarget,NonTarget,,,,,0,0,0,0,,,,,,,,,,,,,,,,,,,,,,,,,0,24,24,24,,,,,,,,,,,,,,,,,,,,,,,,,,,,,,,,,,,,,,,,,,,,,,,,,,,,,,,,,,,,,,,,,,,,,1.6820987711350122,1.027842999999848,536.7242345999985,None,ScrollUp,정답입니다,536.7242345999985,None,536.7242345999985,None,536.7242345999985,None,536.7242345999985,None,537.6215548,None,537.6215548,538.1215052000007,,,,,,,,,,,,,,,,214,2022-05-10_18h15.11.718,FishGame,2022.1.1,59.9641893861045,
,26,넌 시기심이 많아,5,Orange,B,2.458333333333333,2.233333333333333,ScrollUp,ScrollDown,Orange.png,4,Negative,Congruent,,,,,0,0,0,0,,,,,,,,,,,,,,,,,,,,,,,,,0,25,25,25,,,,,,,,,,,,,,,,,,,,,,,,,,,,,,,,,,,,,,,,,,,,,,,,,,,,,,,,,,,,,,,,,,,,,1.8503086417913437,1.1336306000011973,538.7840383000002,None,ScrollUp,정답입니다,538.7840383000002,None,538.7840383000002,None,538.7840383000002,None,538.7840383000002,None,539.7780405000012,None,539.7780405000012,540.2879909000003,,,,,,,,,,,,,,,,214,2022-05-10_18h15.11.718,FishGame,2022.1.1,59.9641893861045,
,27,넌 탁월해,2,Green,A,5.708333333333334,4.5,ScrollDown,ScrollUp,Green.png,4,Positive,Congruent,,,,,0,0,0,0,,,,,,,,,,,,,,,,,,,,,,,,,0,26,26,26,,,,,,,,,,,,,,,,,,,,,,,,,,,,,,,,,,,,,,,,,,,,,,,,,,,,,,,,,,,,,,,,,,,,,1.1018518507480621,1.0118899999979476,540.942313399999,None,ScrollDown,정답입니다,540.942313399999,None,540.942313399999,None,540.942313399999,None,540.942313399999,None,541.8211397999985,None,541.8211397999985,542.3208952999994,,,,,,,,,,,,,,,,214,2022-05-10_18h15.11.718,FishGame,2022.1.1,59.9641893861045,
,28,나를 데려가줘,6,Orange,B,0,0,ScrollDown,ScrollUp,Orange.png,4,NonTarget,NonTarget,,,,,0,0,0,0,,,,,,,,,,,,,,,,,,,,,,,,,0,27,27,27,,,,,,,,,,,,,,,,,,,,,,,,,,,,,,,,,,,,,,,,,,,,,,,,,,,,,,,,,,,,,,,,,,,,,1.1990740795930226,1.1813924000016414,542.9710486000004,None,ScrollDown,정답입니다,542.9710486000004,None,542.9710486000004,None,542.9710486000004,None,542.9710486000004,None,544.0272929999992,None,544.0272929999992,544.5374910999999,,,,,,,,,,,,,,,,214,2022-05-10_18h15.11.718,FishGame,2022.1.1,59.9641893861045,
,29,넌 조용해,3,Orange,B,4.333333333333333,4.166666666666667,ScrollUp,ScrollDown,Orange.png,4,Neutral,Neutral,,,,,0,0,0,0,,,,,,,,,,,,,,,,,,,,,,,,,0,28,28,28,,,,,,,,,,,,,,,,,,,,,,,,,,,,,,,,,,,,,,,,,,,,,,,,,,,,,,,,,,,,,,,,,,,,,1.9753086467583973,1.1140111999993678,545.209611899998,None,ScrollUp,정답입니다,545.209611899998,None,545.209611899998,None,545.209611899998,None,545.209611899998,None,546.1771257,None,546.1771257,546.6872498999983,,,,,,,,,,,,,,,,214,2022-05-10_18h15.11.718,FishGame,2022.1.1,59.9641893861045,
,30,넌 다정해,1,Green,A,5.833333333333334,5.7,ScrollDown,ScrollUp,Green.png,4,Positive,Congruent,,,,,0,0,0,0,,,,,,,,,,,,,,,,,,,,,,,,,0,29,29,29,,,,,,,,,,,,,,,,,,,,,,,,,,,,,,,,,,,,,,,,,,,,,,,,,,,,,,,,,,,,,,,,,,,,,1.2592592487732568,1.092921600000409,547.3461270999978,None,ScrollDown,정답입니다,547.3461270999978,None,547.3461270999978,None,547.3461270999978,None,547.3461270999978,None,548.3062497999999,None,548.3062497999999,548.8200797999998,,,,,,,,,,,,,,,,214,2022-05-10_18h15.11.718,FishGame,2022.1.1,59.9641893861045,
,31,넌 능력있어,2,Orange,B,6.166666666666666,4.6,ScrollUp,ScrollDown,Orange.png,4,Positive,Incongruent,,,,,0,0,0,0,,,,,,,,,,,,,,,,,,,,,,,,,0,30,30,30,,,,,,,,,,,,,,,,,,,,,,,,,,,,,,,,,,,,,,,,,,,,,,,,,,,,,,,,,,,,,,,,,,,,,1.9336419701576233,0.9724165000006906,549.4769462000004,None,ScrollUp,정답입니다,549.4769462000004,None,549.4769462000004,None,549.4769462000004,None,549.4769462000004,None,550.3143859000011,None,550.3143859000011,550.8196844000013,,,,,,,,,,,,,,,,214,2022-05-10_18h15.11.718,FishGame,2022.1.1,59.9641893861045,
,32,넌 불쾌해,5,Green,A,2.125,1.933333333333333,ScrollDown,ScrollUp,Green.png,4,Negative,Incongruent,,,,,0,0,0,0,,,,,,,,,,,,,,,,,,,,,,,,,0,31,31,31,,,,,,,,,,,,,,,,,,,,,,,,,,,,,,,,,,,,,,,,,,,,,,,,,,,,,,,,,,,,,,,,,,,,,1.0709876716136932,0.8877333999989787,551.4677134999984,None,ScrollDown,정답입니다,551.4677134999984,None,551.4677134999984,None,551.4677134999984,None,551.4677134999984,None,552.2364483999991,None,552.2364483999991,552.7364140999998,,,,,,,,,,,,,,,,214,2022-05-10_18h15.11.718,FishGame,2022.1.1,59.9641893861045,
,33,나를 데려가줘,6,Orange,B,0,0,ScrollDown,ScrollUp,Orange.png,4,NonTarget,NonTarget,,,,,0,0,0,0,,,,,,,,,,,,,,,,,,,,,,,,,0,32,32,32,,,,,,,,,,,,,,,,,,,,,,,,,,,,,,,,,,,,,,,,,,,,,,,,,,,,,,,,,,,,,,,,,,,,,1.2854938358068466,1.25063930000033,553.3866689999995,None,ScrollDown,정답입니다,553.3866689999995,None,553.3866689999995,None,553.3866689999995,None,553.3866689999995,None,554.5104863999986,None,554.5104863999986,555.0192623000003,,,,,,,,,,,,,,,,214,2022-05-10_18h15.11.718,FishGame,2022.1.1,59.9641893861045,
,34,넌 유순해,3,Green,A,4.458333333333333,5,ScrollDown,ScrollUp,Green.png,4,Neutral,Neutral,,,,,0,0,0,0,,,,,,,,,,,,,,,,,,,,,,,,,0,33,33,33,,,,,,,,,,,,,,,,,,,,,,,,,,,,,,,,,,,,,,,,,,,,,,,,,,,,,,,,,,,,,,,,,,,,,1.1466049303611119,0.9789228000008734,555.6664326999999,None,ScrollDown,정답입니다,555.6664326999999,None,555.6664326999999,None,555.6664326999999,None,555.6664326999999,None,556.5218767000006,None,556.5218767000006,557.0357483999978,,,,,,,,,,,,,,,,214,2022-05-10_18h15.11.718,FishGame,2022.1.1,59.9641893861045,
,35,넌 근심스러워,4,Orange,B,2.708333333333333,3.133333333333333,ScrollUp,ScrollDown,Orange.png,4,Negative,Congruent,,,,,0,0,0,0,,,,,,,,,,,,,,,,,,,,,,,,,0,34,34,34,,,,,,,,,,,,,,,,,,,,,,,,,,,,,,,,,,,,,,,,,,,,,,,,,,,,,,,,,,,,,,,,,,,,,1.8317901243766148,2.944254500001989,557.6974174999996,None,ScrollUp,정답입니다,557.6974174999996,None,557.6974174999996,None,557.6974174999996,None,557.6974174999996,None,560.5020340999981,None,560.5020340999981,561.0019730999993,,,,,,,,,,,,,,,,214,2022-05-10_18h15.11.718,FishGame,2022.1.1,59.9641893861045,
,36,넌 세련되었어,2,Green,A,5.5,4.6,ScrollDown,ScrollUp,Green.png,4,Positive,Congruent,,,,,0,0,0,0,,,,,,,,,,,,,,,,,,,,,,,,,0,35,35,35,,,,,,,,,,,,,,,,,,,,,,,,,,,,,,,,,,,,,,,,,,,,,,,,,,,,,,,,,,,,,,,,,,,,,1.0185184975465138,1.088911000002554,561.6753031999979,None,ScrollDown,정답입니다,561.6753031999979,None,561.6753031999979,None,561.6753031999979,None,561.6753031999979,None,562.6183458999985,None,562.6183458999985,563.1182251999999,,,,,,,,,,,,,,,,214,2022-05-10_18h15.11.718,FishGame,2022.1.1,59.9641893861045,
,37,나를 보내줘,6,Green,A,0,0,ScrollUp,ScrollDown,Green.png,4,NonTarget,NonTarget,,,,,0,0,0,0,,,,,,,,,,,,,,,,,,,,,,,,,0,36,36,36,,,,,,,,,,,,,,,,,,,,,,,,,,,,,,,,,,,,,,,,,,,,,,,,,,,,,,,,,,,,,,,,,,,,,1.8348765522241592,1.081851299997652,563.7645754000005,None,ScrollUp,정답입니다,563.7645754000005,None,563.7645754000005,None,563.7645754000005,None,563.7645754000005,None,564.7236019000011,None,564.7236019000011,565.234609799998,,,,,,,,,,,,,,,,214,2022-05-10_18h15.11.718,FishGame,2022.1.1,59.9641893861045,
,38,넌 확고해,3,Orange,B,4.708333333333334,4.566666666666666,ScrollUp,ScrollDown,Orange.png,4,Neutral,Neutral,,,,,0,0,0,0,,,,,,,,,,,,,,,,,,,,,,,,,0,37,37,37,,,,,,,,,,,,,,,,,,,,,,,,,,,,,,,,,,,,,,,,,,,,,,,,,,,,,,,,,,,,,,,,,,,,,1.5817901206513247,1.2553369999986899,565.8924155999994,None,ScrollUp,정답입니다,565.8924155999994,None,565.8924155999994,None,565.8924155999994,None,565.8924155999994,None,567.0145802000006,None,567.0145802000006,567.517701599998,,,,,,,,,,,,,,,,214,2022-05-10_18h15.11.718,FishGame,2022.1.1,59.9641893861045,
,39,넌 이해심이 많아,1,Orange,B,6.041666666666668,5.533333333333333,ScrollUp,ScrollDown,Orange.png,4,Positive,Incongruent,,,,,0,0,0,0,,,,,,,,,,,,,,,,,,,,,,,,,0,38,38,38,,,,,,,,,,,,,,,,,,,,,,,,,,,,,,,,,,,,,,,,,,,,,,,,,,,,,,,,,,,,,,,,,,,,,1.787037044763565,1.6604181000002427,568.1755575999996,None,ScrollUp,정답입니다,568.1755575999996,None,568.1755575999996,None,568.1755575999996,None,568.1755575999996,None,569.7009112999986,None,569.7009112999986,570.2006545000004,,,,,,,,,,,,,,,,214,2022-05-10_18h15.11.718,FishGame,2022.1.1,59.9641893861045,
,40,나를 보내줘,6,Green,A,0,0,ScrollUp,ScrollDown,Green.png,4,NonTarget,NonTarget,,,,,0,0,0,0,,,,,,,,,,,,,,,,,,,,,,,,,0,39,39,39,,,,,,,,,,,,,,,,,,,,,,,,,,,,,,,,,,,,,,,,,,,,,,,,,,,,,,,,,,,,,,,,,,,,,1.9814815024534862,1.2821824999991804,570.846319100001,None,ScrollUp,정답입니다,570.846319100001,None,570.846319100001,None,570.846319100001,None,570.846319100001,None,572.0058707999997,None,572.0058707999997,572.5171091000011,,,,,,,,,,,,,,,,214,2022-05-10_18h15.11.718,FishGame,2022.1.1,59.9641893861045,
,41,넌 거칠어,4,Green,A,2.625,3.033333333333333,ScrollDown,ScrollUp,Green.png,4,Negative,Incongruent,,,,,0,0,0,0,,,,,,,,,,,,,,,,,,,,,,,,,0,40,40,40,,,,,,,,,,,,,,,,,,,,,,,,,,,,,,,,,,,,,,,,,,,,,,,,,,,,,,,,,,,,,,,,,,,,,2,1.2727365999999165,573.1749218000004,None,ScrollUp,오답입니다,573.1749218000004,None,573.1749218000004,None,573.1749218000004,None,573.1749218000004,None,574.3125818000008,None,574.3125818000008,574.8169759000011,,,,,,,,,,,,,,,,214,2022-05-10_18h15.11.718,FishGame,2022.1.1,59.9641893861045,
,42,넌 변덕맞아,5,Orange,B,2.75,2.166666666666667,ScrollUp,ScrollDown,Orange.png,4,Negative,Congruent,,,,,0,0,0,0,,,,,,,,,,,,,,,,,,,,,,,,,0,41,41,41,,,,,,,,,,,,,,,,,,,,,,,,,,,,,,,,,,,,,,,,,,,,,,,,,,,,,,,,,,,,,,,,,,,,,1.7824074029922485,1.122411899999861,575.4862222000011,None,ScrollUp,정답입니다,575.4862222000011,None,575.4862222000011,None,575.4862222000011,None,575.4862222000011,None,576.462244899998,None,576.462244899998,576.9665365000001,,,,,,,,,,,,,,,,214,2022-05-10_18h15.11.718,FishGame,2022.1.1,59.9641893861045,
,43,나를 데려가줘,6,Orange,B,0,0,ScrollDown,ScrollUp,Orange.png,4,NonTarget,NonTarget,,,,,0,0,0,0,,,,,,,,,,,,,,,,,,,,,,,,,0,42,42,42,,,,,,,,,,,,,,,,,,,,,,,,,,,,,,,,,,,,,,,,,,,,,,,,,,,,,,,,,,,,,,,,,,,,,1.1141975373029709,1.130225299999438,577.6216840999987,None,ScrollDown,정답입니다,577.6216840999987,None,577.6216840999987,None,577.6216840999987,None,577.6216840999987,None,578.6209659999986,None,578.6209659999986,579.1327452000005,,,,,,,,,,,,,,,,214,2022-05-10_18h15.11.718,FishGame,2022.1.1,59.9641893861045,
,44,넌 외로워,4,Orange,B,2.833333333333333,3.3,ScrollUp,ScrollDown,Orange.png,4,Negative,Congruent,,,,,0,0,0,0,,,,,,,,,,,,,,,,,,,,,,,,,0,43,43,43,,,,,,,,,,,,,,,,,,,,,,,,,,,,,,,,,,,,,,,,,,,,,,,,,,,,,,,,,,,,,,,,,,,,,1.8302469104528427,0.9345704000006663,579.7950187999995,None,ScrollUp,정답입니다,579.7950187999995,None,579.7950187999995,None,579.7950187999995,None,579.7950187999995,None,580.5897459999978,None,580.5897459999978,581.0992832999982,,,,,,,,,,,,,,,,214,2022-05-10_18h15.11.718,FishGame,2022.1.1,59.9641893861045,
,1,넌 불평스러워,5,Green,A,2.25,2.066666666666667,ScrollDown,ScrollUp,Green.png,5,Negative,Incongruent,,,,,0,0,0,0,,,,,,,,,,,,,,,,,,,,,,,,,,,,,0,0,0,0,,,,,,,,,,,,,,,,,,,,,,,,615.2115889999986,616.7113127999983,616.7446434000012,617.6945539999979,617.7445540000008,618.6944134000005,618.6944134000005,None,,,,,,,,,,,,,,,,,,,,,,,,,,,,,,,,,,1.0771604776382446,1.3850941000018793,619.8821079000008,None,ScrollDown,정답입니다,619.8821079000008,None,619.8821079000008,None,619.8821079000008,None,619.8821079000008,None,621.0889495999982,None,621.0889495999982,621.5940211999987,581.5992108999999,None,581.5992108999999,None,0.10277778,-0.1037037,1,0,0,0.016224759998294758,None,611.6118936999992,None,,,214,2022-05-10_18h15.11.718,FishGame,2022.1.1,59.9641893861045,
,2,나를 보내줘,6,Green,A,0,0,ScrollUp,ScrollDown,Green.png,5,NonTarget,NonTarget,,,,,0,0,0,0,,,,,,,,,,,,,,,,,,,,,,,,,,,,,0,1,1,1,,,,,,,,,,,,,,,,,,,,,,,,,,,,,,,,,,,,,,,,,,,,,,,,,,,,,,,,,,,,,,,,,1.9104938358068466,1.1261847000023408,622.2372723000008,None,ScrollUp,정답입니다,622.2372723000008,None,622.2372723000008,None,622.2372723000008,None,622.2372723000008,None,623.2439317999997,None,623.2439317999997,623.7437347999985,,,,,,,,,,,,,,,,214,2022-05-10_18h15.11.718,FishGame,2022.1.1,59.9641893861045,
,3,넌 다재다능해,2,Orange,B,6.208333333333333,4.5,ScrollUp,ScrollDown,Orange.png,5,Positive,Incongruent,,,,,0,0,0,0,,,,,,,,,,,,,,,,,,,,,,,,,,,,,0,2,2,2,,,,,,,,,,,,,,,,,,,,,,,,,,,,,,,,,,,,,,,,,,,,,,,,,,,,,,,,,,,,,,,,,1.7932098756233852,0.9673048999975435,624.3991873000014,None,ScrollUp,정답입니다,624.3991873000014,None,624.3991873000014,None,624.3991873000014,None,624.3991873000014,None,625.2349422000007,None,625.2349422000007,625.7435512000011,,,,,,,,,,,,,,,,214,2022-05-10_18h15.11.718,FishGame,2022.1.1,59.9641893861045,
,4,넌 과감해,3,Green,A,4.833333333333334,4.6,ScrollDown,ScrollUp,Green.png,5,Neutral,Neutral,,,,,0,0,0,0,,,,,,,,,,,,,,,,,,,,,,,,,,,,,0,3,3,3,,,,,,,,,,,,,,,,,,,,,,,,,,,,,,,,,,,,,,,,,,,,,,,,,,,,,,,,,,,,,,,,,1.0493827263514202,0.9430353999996441,626.3950860000004,None,ScrollDown,정답입니다,626.3950860000004,None,626.3950860000004,None,626.3950860000004,None,626.3950860000004,None,627.2099243000011,None,627.2099243000011,627.7099090999982,,,,,,,,,,,,,,,,214,2022-05-10_18h15.11.718,FishGame,2022.1.1,59.9641893861045,
,5,넌 고분고분해,3,Orange,B,3.75,4.033333333333333,ScrollUp,ScrollDown,Orange.png,5,Neutral,Neutral,,,,,0,0,0,0,,,,,,,,,,,,,,,,,,,,,,,,,,,,,0,4,4,4,,,,,,,,,,,,,,,,,,,,,,,,,,,,,,,,,,,,,,,,,,,,,,,,,,,,,,,,,,,,,,,,,1.8040123482545216,0.8504756000002089,628.3737961000006,None,ScrollUp,정답입니다,628.3737961000006,None,628.3737961000006,None,628.3737961000006,None,628.3737961000006,None,629.0839367999979,None,629.0839367999979,629.5929508000008,,,,,,,,,,,,,,,,214,2022-05-10_18h15.11.718,FishGame,2022.1.1,59.9641893861045,
,6,나를 보내줘,6,Green,A,0,0,ScrollUp,ScrollDown,Green.png,5,NonTarget,NonTarget,,,,,0,0,0,0,,,,,,,,,,,,,,,,,,,,,,,,,,,,,0,5,5,5,,,,,,,,,,,,,,,,,,,,,,,,,,,,,,,,,,,,,,,,,,,,,,,,,,,,,,,,,,,,,,,,,1.9459876318772633,0.9603879999995115,630.2685421999995,None,ScrollUp,정답입니다,630.2685421999995,None,630.2685421999995,None,630.2685421999995,None,630.2685421999995,None,631.0764873999979,None,631.0764873999979,631.5761837999999,,,,,,,,,,,,,,,,214,2022-05-10_18h15.11.718,FishGame,2022.1.1,59.9641893861045,
,7,넌 잘 잊어,4,Green,A,3,3.7,ScrollDown,ScrollUp,Green.png,5,Negative,Incongruent,,,,,0,0,0,0,,,,,,,,,,,,,,,,,,,,,,,,,,,,,0,6,6,6,,,,,,,,,,,,,,,,,,,,,,,,,,,,,,,,,,,,,,,,,,,,,,,,,,,,,,,,,,,,,,,,,1.0092592636744182,1.0405965999998443,632.2304595999994,None,ScrollDown,정답입니다,632.2304595999994,None,632.2304595999994,None,632.2304595999994,None,632.2304595999994,None,633.1423704000008,None,633.1423704000008,633.642377600001,,,,,,,,,,,,,,,,214,2022-05-10_18h15.11.718,FishGame,2022.1.1,59.9641893861045,
,8,넌 탐구심이없어,4,Orange,B,2.833333333333333,3.066666666666667,ScrollUp,ScrollDown,Orange.png,5,Negative,Congruent,,,,,0,0,0,0,,,,,,,,,,,,,,,,,,,,,,,,,,,,,0,7,7,7,,,,,,,,,,,,,,,,,,,,,,,,,,,,,,,,,,,,,,,,,,,,,,,,,,,,,,,,,,,,,,,,,1.6080246890584626,0.9191582999992534,634.3022923999997,None,ScrollUp,정답입니다,634.3022923999997,None,634.3022923999997,None,634.3022923999997,None,634.3022923999997,None,635.0852942999991,None,635.0852942999991,635.5923008999998,,,,,,,,,,,,,,,,214,2022-05-10_18h15.11.718,FishGame,2022.1.1,59.9641893861045,
,9,나를 데려가줘,6,Orange,B,0,0,ScrollDown,ScrollUp,Orange.png,5,NonTarget,NonTarget,,,,,0,0,0,0,,,,,,,,,,,,,,,,,,,,,,,,,,,,,0,8,8,8,,,,,,,,,,,,,,,,,,,,,,,,,,,,,,,,,,,,,,,,,,,,,,,,,,,,,,,,,,,,,,,,,1.2577160596847534,1.143487199999072,636.3118752000009,None,ScrollDown,정답입니다,636.3118752000009,None,636.3118752000009,None,636.3118752000009,None,636.3118752000009,None,637.2550477000004,None,637.2550477000004,637.7585319999998,,,,,,,,,,,,,,,,214,2022-05-10_18h15.11.718,FishGame,2022.1.1,59.9641893861045,
,10,넌 참되어,2,Green,A,6.041666666666664,4.733333333333333,ScrollDown,ScrollUp,Green.png,5,Positive,Congruent,,,,,0,0,0,0,,,,,,,,,,,,,,,,,,,,,,,,,,,,,0,9,9,9,,,,,,,,,,,,,,,,,,,,,,,,,,,,,,,,,,,,,,,,,,,,,,,,,,,,,,,,,,,,,,,,,1.0416666567325592,1.0829347999970196,638.4113744999995,None,ScrollDown,정답입니다,638.4113744999995,None,638.4113744999995,None,638.4113744999995,None,638.4113744999995,None,639.3674557999984,None,639.3674557999984,639.8749865999998,,,,,,,,,,,,,,,,214,2022-05-10_18h15.11.718,FishGame,2022.1.1,59.9641893861045,
,11,넌 생기있어,1,Orange,B,5.875,5.633333333333334,ScrollUp,ScrollDown,Orange.png,5,Positive,Incongruent,,,,,0,0,0,0,,,,,,,,,,,,,,,,,,,,,,,,,,,,,0,10,10,10,,,,,,,,,,,,,,,,,,,,,,,,,,,,,,,,,,,,,,,,,,,,,,,,,,,,,,,,,,,,,,,,,1.9537037014961243,1.0454623000005085,640.5331966999984,None,ScrollUp,정답입니다,640.5331966999984,None,640.5331966999984,None,640.5331966999984,None,640.5331966999984,None,641.4415915999998,None,641.4415915999998,641.9413262999988,,,,,,,,,,,,,,,,214,2022-05-10_18h15.11.718,FishGame,2022.1.1,59.9641893861045,
,12,넌 비사교적이야,4,Orange,B,2.875,2.9,ScrollUp,ScrollDown,Orange.png,5,Negative,Congruent,,,,,0,0,0,0,,,,,,,,,,,,,,,,,,,,,,,,,,,,,0,11,11,11,,,,,,,,,,,,,,,,,,,,,,,,,,,,,,,,,,,,,,,,,,,,,,,,,,,,,,,,,,,,,,,,,1.8009259204069774,1.1526406000011775,642.6011141999988,None,ScrollUp,정답입니다,642.6011141999988,None,642.6011141999988,None,642.6011141999988,None,642.6011141999988,None,643.6182225000011,None,643.6182225000011,644.1245252000008,,,,,,,,,,,,,,,,214,2022-05-10_18h15.11.718,FishGame,2022.1.1,59.9641893861045,
,13,나를 데려가줘,6,Orange,B,0,0,ScrollDown,ScrollUp,Orange.png,5,NonTarget,NonTarget,,,,,0,0,0,0,,,,,,,,,,,,,,,,,,,,,,,,,,,,,0,12,12,12,,,,,,,,,,,,,,,,,,,,,,,,,,,,,,,,,,,,,,,,,,,,,,,,,,,,,,,,,,,,,,,,,1.3734567935268083,0.965365700001712,644.779279800001,None,ScrollDown,정답입니다,644.779279800001,None,644.779279800001,None,644.779279800001,None,644.779279800001,None,645.6140618999998,None,645.6140618999998,646.1241451999995,,,,,,,,,,,,,,,,214,2022-05-10_18h15.11.718,FishGame,2022.1.1,59.9641893861045,
,14,넌 고독해,4,Green,A,2.916666666666667,3.233333333333333,ScrollDown,ScrollUp,Green.png,5,Negative,Incongruent,,,,,0,0,0,0,,,,,,,,,,,,,,,,,,,,,,,,,,,,,0,13,13,13,,,,,,,,,,,,,,,,,,,,,,,,,,,,,,,,,,,,,,,,,,,,,,,,,,,,,,,,,,,,,,,,,1.2947530820965767,0.9570019000020693,646.7744536999999,None,ScrollDown,정답입니다,646.7744536999999,None,646.7744536999999,None,646.7744536999999,None,646.7744536999999,None,647.6017666000007,None,647.6017666000007,648.1073453999998,,,,,,,,,,,,,,,,214,2022-05-10_18h15.11.718,FishGame,2022.1.1,59.9641893861045,
,15,넌 신경질적이야,5,Orange,B,2.375,2.233333333333333,ScrollUp,ScrollDown,Orange.png,5,Negative,Congruent,,,,,0,0,0,0,,,,,,,,,,,,,,,,,,,,,,,,,,,,,0,14,14,14,,,,,,,,,,,,,,,,,,,,,,,,,,,,,,,,,,,,,,,,,,,,,,,,,,,,,,,,,,,,,,,,,1.8225308656692505,0.9614278999979433,648.7661717999981,None,ScrollUp,정답입니다,648.7661717999981,None,648.7661717999981,None,648.7661717999981,None,648.7661717999981,None,649.5906036999986,None,649.5906036999986,650.0903217000014,,,,,,,,,,,,,,,,214,2022-05-10_18h15.11.718,FishGame,2022.1.1,59.9641893861045,
,16,넌 똑똑해,2,Orange,B,5.666666666666667,3.966666666666667,ScrollUp,ScrollDown,Orange.png,5,Positive,Incongruent,,,,,0,0,0,0,,,,,,,,,,,,,,,,,,,,,,,,,,,,,0,15,15,15,,,,,,,,,,,,,,,,,,,,,,,,,,,,,,,,,,,,,,,,,,,,,,,,,,,,,,,,,,,,,,,,,1.8333333383003871,1.5142185000004247,650.7480442000015,None,ScrollUp,정답입니다,650.7480442000015,None,650.7480442000015,None,650.7480442000015,None,650.7480442000015,None,652.1277163000013,None,652.1277163000013,652.6400300999994,,,,,,,,,,,,,,,,214,2022-05-10_18h15.11.718,FishGame,2022.1.1,59.9641893861045,
,17,나를 보내줘,6,Green,A,0,0,ScrollUp,ScrollDown,Green.png,5,NonTarget,NonTarget,,,,,0,0,0,0,,,,,,,,,,,,,,,,,,,,,,,,,,,,,0,16,16,16,,,,,,,,,,,,,,,,,,,,,,,,,,,,,,,,,,,,,,,,,,,,,,,,,,,,,,,,,,,,,,,,,1.7592592686414719,0.9802450000024692,653.2906822000004,None,ScrollUp,정답입니다,653.2906822000004,None,653.2906822000004,None,653.2906822000004,None,653.2906822000004,None,654.1433159999979,None,654.1433159999979,654.6565454999982,,,,,,,,,,,,,,,,214,2022-05-10_18h15.11.718,FishGame,2022.1.1,59.9641893861045,
,18,넌 협조적이야,1,Green,A,5.625,5.666666666666667,ScrollDown,ScrollUp,Green.png,5,Positive,Congruent,,,,,0,0,0,0,,,,,,,,,,,,,,,,,,,,,,,,,,,,,0,17,17,17,,,,,,,,,,,,,,,,,,,,,,,,,,,,,,,,,,,,,,,,,,,,,,,,,,,,,,,,,,,,,,,,,1.192901223897934,0.9931623000011314,655.3061061000008,None,ScrollDown,정답입니다,655.3061061000008,None,655.3061061000008,None,655.3061061000008,None,655.3061061000008,None,656.1755331999993,None,656.1755331999993,656.6895264999985,,,,,,,,,,,,,,,,214,2022-05-10_18h15.11.718,FishGame,2022.1.1,59.9641893861045,
,19,나를 데려가줘,6,Orange,B,0,0,ScrollDown,ScrollUp,Orange.png,5,NonTarget,NonTarget,,,,,0,0,0,0,,,,,,,,,,,,,,,,,,,,,,,,,,,,,0,18,18,18,,,,,,,,,,,,,,,,,,,,,,,,,,,,,,,,,,,,,,,,,,,,,,,,,,,,,,,,,,,,,,,,,1.1527777860562007,1.1108052999989013,657.3495824999991,None,ScrollDown,정답입니다,657.3495824999991,None,657.3495824999991,None,657.3495824999991,None,657.3495824999991,None,658.3226799000004,None,658.3226799000004,658.8225746999997,,,,,,,,,,,,,,,,214,2022-05-10_18h15.11.718,FishGame,2022.1.1,59.9641893861045,
,20,넌 몰인정해,5,Orange,B,2.541666666666667,2.066666666666667,ScrollUp,ScrollDown,Orange.png,5,Negative,Congruent,,,,,0,0,0,0,,,,,,,,,,,,,,,,,,,,,,,,,,,,,0,19,19,19,,,,,,,,,,,,,,,,,,,,,,,,,,,,,,,,,,,,,,,,,,,,,,,,,,,,,,,,,,,,,,,,,1.9351851840813954,1.0485288000018045,659.4872737000005,None,ScrollUp,정답입니다,659.4872737000005,None,659.4872737000005,None,659.4872737000005,None,659.4872737000005,None,660.3962485000011,None,660.3962485000011,660.9056540999991,,,,,,,,,,,,,,,,214,2022-05-10_18h15.11.718,FishGame,2022.1.1,59.9641893861045,
,21,나를 데려가줘,6,Orange,B,0,0,ScrollDown,ScrollUp,Orange.png,5,NonTarget,NonTarget,,,,,0,0,0,0,,,,,,,,,,,,,,,,,,,,,,,,,,,,,0,20,20,20,,,,,,,,,,,,,,,,,,,,,,,,,,,,,,,,,,,,,,,,,,,,,,,,,,,,,,,,,,,,,,,,,1.751543199022611,1.9334532000029867,661.557864800001,None,ScrollUp,오답입니다,661.557864800001,None,661.557864800001,None,661.557864800001,None,661.557864800001,None,663.3637089000003,None,663.3637089000003,663.8717924999983,,,,,,,,,,,,,,,,214,2022-05-10_18h15.11.718,FishGame,2022.1.1,59.9641893861045,
,22,넌 순진해,3,Orange,B,4.125,4.166666666666667,ScrollUp,ScrollDown,Orange.png,5,Neutral,Neutral,,,,,0,0,0,0,,,,,,,,,,,,,,,,,,,,,,,,,,,,,0,21,21,21,,,,,,,,,,,,,,,,,,,,,,,,,,,,,,,,,,,,,,,,,,,,,,,,,,,,,,,,,,,,,,,,,1.7391975373029709,1.128475299999991,664.5299572000004,None,ScrollUp,정답입니다,664.5299572000004,None,664.5299572000004,None,664.5299572000004,None,664.5299572000004,None,665.5228552999979,None,665.5228552999979,666.0383239000003,,,,,,,,,,,,,,,,214,2022-05-10_18h15.11.718,FishGame,2022.1.1,59.9641893861045,
