name,TrialNum,Word,WordCategory,FishType,WordList,WordValence,WordReputation,CorrectResp,IncorrectResp,FishTypeFile,Round,WordType,Condition,LoopforOrange.thisRepN,LoopforOrange.thisTrialN,LoopforOrange.thisN,LoopforOrange.thisIndex,OrangeInstLoop.thisRepN,OrangeInstLoop.thisTrialN,OrangeInstLoop.thisN,OrangeInstLoop.thisIndex,OrangePrac.thisRepN,OrangePrac.thisTrialN,OrangePrac.thisN,OrangePrac.thisIndex,temp1.thisRepN,temp1.thisTrialN,temp1.thisN,temp1.thisIndex,OrangeRound1.thisRepN,OrangeRound1.thisTrialN,OrangeRound1.thisN,OrangeRound1.thisIndex,OrangeRound2.thisRepN,OrangeRound2.thisTrialN,OrangeRound2.thisN,OrangeRound2.thisIndex,OrangeRound3.thisRepN,OrangeRound3.thisTrialN,OrangeRound3.thisN,OrangeRound3.thisIndex,OrangeRound4.thisRepN,OrangeRound4.thisTrialN,OrangeRound4.thisN,OrangeRound4.thisIndex,OrangeRound5.thisRepN,OrangeRound5.thisTrialN,OrangeRound5.thisN,OrangeRound5.thisIndex,LoopForGreen.thisRepN,LoopForGreen.thisTrialN,LoopForGreen.thisN,LoopForGreen.thisIndex,text_2.started,text_2.stopped,text_3.started,text_3.stopped,key_resp.keys,key_resp.rt,key_resp.started,key_resp.stopped,PassI_2.started,PassI_2.stopped,PassInst_2.keys,PassInst_2.rt,PassInst_2.started,PassInst_2.stopped,mouse_2.x,mouse_2.y,mouse_2.leftButton,mouse_2.midButton,mouse_2.rightButton,mouse_2.started,mouse_2.stopped,image.started,image.stopped,text_5.started,text_5.stopped,text_6.started,text_6.stopped,text_7.started,text_7.stopped,text_8.started,text_8.stopped,slider_2.response,slider_2.rt,slider_2.started,slider_2.stopped,Response_2,Feedback_2,BackGround_2.started,BackGround_2.stopped,Fish_2.started,Fish_2.stopped,WordBox_2.started,WordBox_2.stopped,Words_2.started,Words_2.stopped,BackGround_Feedback_2.started,BackGround_Feedback_2.stopped,Feedbacks_2.started,Feedbacks_2.stopped,Continue_or_not.keys,Continue_or_not.rt,Continue_or_not.started,Continue_or_not.stopped,image_3.started,image_3.stopped,mouse_3.x,mouse_3.y,mouse_3.leftButton,mouse_3.midButton,mouse_3.rightButton,mouse_3.started,mouse_3.stopped,startmain.started,startmain.stopped,slider.response,slider.rt,slider.started,slider.stopped,Response,Feedback,BackGround.started,BackGround.stopped,Fish.started,Fish.stopped,WordBox.started,WordBox.stopped,Words.started,Words.stopped,BackGround_Feedback.started,BackGround_Feedback.stopped,Feedbacks.started,Feedbacks.stopped,text.started,text.stopped,break_interval.started,break_interval.stopped,mouse.x,mouse.y,mouse.leftButton,mouse.midButton,mouse.rightButton,mouse.started,mouse.stopped,stratnextround.started,stratnextround.stopped,endgame.started,endgame.stopped,participant,date,expName,psychopyVersion,frameRate,
,,,,,,,,,,,,,,,,,,,,,,,,,,,,,,,,,,,,,,,,,,,,,,,,,,,,,,19.660160800000085,None,19.660160800000085,None,space,10.186949799999638,20.135434199999963,None,,,,,,,,,,,,,,,,,,,,,,,,,,,,,,,,,,,,,,,,,,,,,,,,,,,,,,,,,,,,,,,,,,,,,,,,,,,,,,,,,,,,,,,,,,215,2022-05-11_16h38.07.809,FishGame,2022.1.1,60.06911552427202,
물고기과제_instruction(참가자용)OrangeVersion.mp4,,,,,,,,,,,,,,0,0,0,0,0,0,0,0,,,,,,,,,,,,,,,,,,,,,,,,,,,,,,,,,,,,,,,,,97.20497370000021,None,n,13.79497149999952,97.20497370000021,None,,,,,,,,,,,,,,,,,,,,,,,,,,,,,,,,,,,,,,,,,,,,,,,,,,,,,,,,,,,,,,,,,,,,,,,,,,,,,,,,,,,,215,2022-05-11_16h38.07.809,FishGame,2022.1.1,60.06911552427202,
,1,넌 교활해,5,Green,B,2.333333333333333,2.133333333333333,ScrollUp,ScrollDown,Green.png,practice,,,0,0,0,0,,,,,0,0,0,0,0,0,0,0,,,,,,,,,,,,,,,,,,,,,,,,,,,,,,,,,,,,,,,-0.04537037,-0.26759258,1,0,0,0.5137547399999676,None,111.02365060000011,None,123.38886020000018,124.88852910000014,124.92185800000016,125.8717845000001,125.92180170000029,126.87168220000012,126.87168220000012,None,1.7916666616996129,1.668985899999825,128.02969800000028,None,ScrollUp,정답입니다,128.02969800000028,None,128.02969800000028,None,128.02969800000028,None,128.02969800000028,None,129.55093810000017,None,129.55093810000017,130.05484130000013,,,,,,,,,,,,,,,,,,,,,,,,,,,,,,,,,,,,,,,,,,,,,,,,,215,2022-05-11_16h38.07.809,FishGame,2022.1.1,60.06911552427202,
,2,넌 슬기로워,2,Orange,A,6.166666666666667,4.1,ScrollDown,ScrollUp,Orange.png,practice,,,0,0,0,0,,,,,0,0,0,0,0,1,1,1,,,,,,,,,,,,,,,,,,,,,,,,,,,,,,,,,,,,,,,,,,,,,,,,,,,,,,,,1,1.828704800000196,130.71790020000026,None,ScrollDown,정답입니다,130.71790020000026,None,130.71790020000026,None,130.71790020000026,None,130.71790020000026,None,132.4042754000002,None,132.4042754000002,132.9042703,,,,,,,,,,,,,,,,,,,,,,,,,,,,,,,,,,,,,,,,,,,,,,,,,215,2022-05-11_16h38.07.809,FishGame,2022.1.1,60.06911552427202,
,3,나를 보내줘,6,Orange,A,0,0,ScrollUp,ScrollDown,Orange.png,practice,,,0,0,0,0,,,,,0,0,0,0,0,2,2,2,,,,,,,,,,,,,,,,,,,,,,,,,,,,,,,,,,,,,,,,,,,,,,,,,,,,,,,,1.6512345671653748,1.3057620999998107,133.55933200000027,None,ScrollUp,정답입니다,133.55933200000027,None,133.55933200000027,None,133.55933200000027,None,133.55933200000027,None,134.73750820000032,None,134.73750820000032,135.23748870000009,,,,,,,,,,,,,,,,,,,,,,,,,,,,,,,,,,,,,,,,,,,,,,,,,215,2022-05-11_16h38.07.809,FishGame,2022.1.1,60.06911552427202,
,4,나를 데려가줘,6,Green,B,0,0,ScrollDown,ScrollUp,Green.png,practice,,,0,0,0,0,,,,,0,0,0,0,0,3,3,3,,,,,,,,,,,,,,,,,,,,,,,,,,,,,,,,,,,,,,,,,,,,,,,,,,,,,,,,1.120370368162791,1.9974225000000843,135.88062960000025,None,ScrollDown,정답입니다,135.88062960000025,None,135.88062960000025,None,135.88062960000025,None,135.88062960000025,None,137.7560251,None,137.7560251,138.27029540000012,,,,,,,,,,,,,,,,,,,,,,,,,,,,,,,,,,,,,,,,,,,,,,,,,215,2022-05-11_16h38.07.809,FishGame,2022.1.1,60.06911552427202,
,1,넌 교활해,5,Green,B,2.333333333333333,2.133333333333333,ScrollUp,ScrollDown,Green.png,practice,,,0,0,0,0,,,,,0,0,0,0,,,,,,,,,,,,,,,,,,,,,,,,,,,,,,,,,,,,,,,,,,,,,,,,,,,,,,,,,,,,,,,,,,,,,,,,,,,,,,n,2.807077699999809,138.7702287000002,None,138.7702287000002,None,,,,,,,,,,,,,,,,,,,,,,,,,,,,,,,,,,,,,,,,,,,215,2022-05-11_16h38.07.809,FishGame,2022.1.1,60.06911552427202,
,1,넌 따뜻해,1,Green,B,6.083333333333333,5.6,ScrollUp,ScrollDown,Green.png,1,Positive,Incongruent,0,0,0,0,,,,,,,,,,,,,0,0,0,0,,,,,,,,,,,,,,,,,,,,,,,,,,,,,,,,,,,,,,,,,,,,142.8697728000002,144.3694657000001,144.40277890000016,145.35290669999995,145.40292829999999,146.35272860000032,146.35272860000032,None,,,,,,,,,,,,,,,,,,,,,,,,,-0.21944444,-0.2,1,0,0,0.3140203399998427,None,141.6030928,None,1.5154320988804102,1.550982500000373,147.54360870000028,None,NoResponse,무응답입니다,147.54360870000028,None,147.54360870000028,None,147.54360870000028,None,147.54360870000028,None,148.91735940000035,None,148.91735940000035,149.4188905000001,,,,,,,,,,,,,,,,215,2022-05-11_16h38.07.809,FishGame,2022.1.1,60.06911552427202,
,2,넌 기품있어,2,Green,B,5.791666666666668,4.5,ScrollUp,ScrollDown,Green.png,1,Positive,Incongruent,0,0,0,0,,,,,,,,,,,,,0,1,1,1,,,,,,,,,,,,,,,,,,,,,,,,,,,,,,,,,,,,,,,,,,,,,,,,,,,,,,,,,,,,,,,,,,,,,,,,,,,,,,,,,,,,,1.6929012313485146,1.5152186999998776,150.07537790000015,None,ScrollUp,정답입니다,150.07537790000015,None,150.07537790000015,None,150.07537790000015,None,150.07537790000015,None,151.4584718000001,None,151.4584718000001,151.96867490000022,,,,,,,,,,,,,,,,215,2022-05-11_16h38.07.809,FishGame,2022.1.1,60.06911552427202,
,3,나를 보내줘,6,Orange,A,0,0,ScrollUp,ScrollDown,Orange.png,1,NonTarget,NonTarget,0,0,0,0,,,,,,,,,,,,,0,2,2,2,,,,,,,,,,,,,,,,,,,,,,,,,,,,,,,,,,,,,,,,,,,,,,,,,,,,,,,,,,,,,,,,,,,,,,,,,,,,,,,,,,,,,1.8040123482545216,1.2326169000002665,152.62990230000014,None,ScrollUp,정답입니다,152.62990230000014,None,152.62990230000014,None,152.62990230000014,None,152.62990230000014,None,153.72197640000013,None,153.72197640000013,154.2347850000001,,,,,,,,,,,,,,,,215,2022-05-11_16h38.07.809,FishGame,2022.1.1,60.06911552427202,
,4,넌 수동적이야,4,Orange,A,2.833333333333333,2.933333333333333,ScrollDown,ScrollUp,Orange.png,1,Negative,Incongruent,0,0,0,0,,,,,,,,,,,,,0,3,3,3,,,,,,,,,,,,,,,,,,,,,,,,,,,,,,,,,,,,,,,,,,,,,,,,,,,,,,,,,,,,,,,,,,,,,,,,,,,,,,,,,,,,,1.126543199022611,1.5286873000000014,154.89692550000018,None,ScrollDown,정답입니다,154.89692550000018,None,154.89692550000018,None,154.89692550000018,None,154.89692550000018,None,156.28441109999994,None,156.28441109999994,156.78460900000027,,,,,,,,,,,,,,,,215,2022-05-11_16h38.07.809,FishGame,2022.1.1,60.06911552427202,
,5,넌 사심이 없어,3,Green,B,4.916666666666666,4.333333333333333,ScrollUp,ScrollDown,Green.png,1,Neutral,Neutral,0,0,0,0,,,,,,,,,,,,,0,4,4,4,,,,,,,,,,,,,,,,,,,,,,,,,,,,,,,,,,,,,,,,,,,,,,,,,,,,,,,,,,,,,,,,,,,,,,,,,,,,,,,,,,,,,1.7391975373029709,1.227676099999826,157.43720930000018,None,ScrollUp,정답입니다,157.43720930000018,None,157.43720930000018,None,157.43720930000018,None,157.43720930000018,None,158.5342211000002,None,158.5342211000002,159.0342214000002,,,,,,,,,,,,,,,,215,2022-05-11_16h38.07.809,FishGame,2022.1.1,60.06911552427202,
,6,넌 헤퍼,5,Orange,A,2.458333333333334,2.233333333333333,ScrollDown,ScrollUp,Orange.png,1,Negative,Incongruent,0,0,0,0,,,,,,,,,,,,,0,5,5,5,,,,,,,,,,,,,,,,,,,,,,,,,,,,,,,,,,,,,,,,,,,,,,,,,,,,,,,,,,,,,,,,,,,,,,,,,,,,,,,,,,,,,1.1095678955316544,1.1845837000000756,159.69539190000023,None,ScrollDown,정답입니다,159.69539190000023,None,159.69539190000023,None,159.69539190000023,None,159.69539190000023,None,160.73897590000024,None,160.73897590000024,161.2506555,,,,,,,,,,,,,,,,215,2022-05-11_16h38.07.809,FishGame,2022.1.1,60.06911552427202,
,7,넌 말쑥해,3,Orange,A,4.833333333333334,4.333333333333333,ScrollDown,ScrollUp,Orange.png,1,Neutral,Neutral,0,0,0,0,,,,,,,,,,,,,0,6,6,6,,,,,,,,,,,,,,,,,,,,,,,,,,,,,,,,,,,,,,,,,,,,,,,,,,,,,,,,,,,,,,,,,,,,,,,,,,,,,,,,,,,,,1.28086419403553,0.9331550000001698,161.90518900000006,None,ScrollDown,정답입니다,161.90518900000006,None,161.90518900000006,None,161.90518900000006,None,161.90518900000006,None,162.70469830000002,None,162.70469830000002,163.21709180000016,,,,,,,,,,,,,,,,215,2022-05-11_16h38.07.809,FishGame,2022.1.1,60.06911552427202,
,8,넌 투덜거려,5,Green,B,2.541666666666667,2.266666666666667,ScrollUp,ScrollDown,Green.png,1,Negative,Congruent,0,0,0,0,,,,,,,,,,,,,0,7,7,7,,,,,,,,,,,,,,,,,,,,,,,,,,,,,,,,,,,,,,,,,,,,,,,,,,,,,,,,,,,,,,,,,,,,,,,,,,,,,,,,,,,,,1.7577160547176998,1.0400238000001991,163.87151730000005,None,ScrollUp,정답입니다,163.87151730000005,None,163.87151730000005,None,163.87151730000005,None,163.87151730000005,None,164.78324330000032,None,164.78324330000032,165.28338570000005,,,,,,,,,,,,,,,,215,2022-05-11_16h38.07.809,FishGame,2022.1.1,60.06911552427202,
,9,넌 적극적이야,1,Orange,A,5.708333333333333,5.533333333333333,ScrollDown,ScrollUp,Orange.png,1,Positive,Congruent,0,0,0,0,,,,,,,,,,,,,0,8,8,8,,,,,,,,,,,,,,,,,,,,,,,,,,,,,,,,,,,,,,,,,,,,,,,,,,,,,,,,,,,,,,,,,,,,,,,,,,,,,,,,,,,,,1.0509259402751923,1.3199843000002147,165.94902850000017,None,ScrollDown,정답입니다,165.94902850000017,None,165.94902850000017,None,165.94902850000017,None,165.94902850000017,None,167.1235700000002,None,167.1235700000002,167.63309590000017,,,,,,,,,,,,,,,,215,2022-05-11_16h38.07.809,FishGame,2022.1.1,60.06911552427202,
,10,넌 재미없어,4,Green,B,2.625,2.966666666666667,ScrollUp,ScrollDown,Green.png,1,Negative,Congruent,0,0,0,0,,,,,,,,,,,,,0,9,9,9,,,,,,,,,,,,,,,,,,,,,,,,,,,,,,,,,,,,,,,,,,,,,,,,,,,,,,,,,,,,,,,,,,,,,,,,,,,,,,,,,,,,,1.9444444676240284,0.971912699999848,168.2840315000003,None,ScrollUp,정답입니다,168.2840315000003,None,168.2840315000003,None,168.2840315000003,None,168.2840315000003,None,169.1308008000001,None,169.1308008000001,169.6330167000001,,,,,,,,,,,,,,,,215,2022-05-11_16h38.07.809,FishGame,2022.1.1,60.06911552427202,
,11,넌 명석해,2,Orange,A,5.875,4.033333333333333,ScrollDown,ScrollUp,Orange.png,1,Positive,Congruent,0,0,0,0,,,,,,,,,,,,,0,10,10,10,,,,,,,,,,,,,,,,,,,,,,,,,,,,,,,,,,,,,,,,,,,,,,,,,,,,,,,,,,,,,,,,,,,,,,,,,,,,,,,,,,,,,1,1.155972600000041,170.28918290000001,None,ScrollDown,정답입니다,170.28918290000001,None,170.28918290000001,None,170.28918290000001,None,170.28918290000001,None,171.31596910000007,None,171.31596910000007,171.81589900000017,,,,,,,,,,,,,,,,215,2022-05-11_16h38.07.809,FishGame,2022.1.1,60.06911552427202,
,12,나를 데려가줘,6,Green,B,0,0,ScrollDown,ScrollUp,Green.png,1,NonTarget,NonTarget,0,0,0,0,,,,,,,,,,,,,0,11,11,11,,,,,,,,,,,,,,,,,,,,,,,,,,,,,,,,,,,,,,,,,,,,,,,,,,,,,,,,,,,,,,,,,,,,,,,,,,,,,,,,,,,,,1.0077160497506459,1.2865280000000894,172.4670159000002,None,ScrollDown,정답입니다,172.4670159000002,None,172.4670159000002,None,172.4670159000002,None,172.4670159000002,None,173.62275920000002,None,173.62275920000002,174.1324582000002,,,,,,,,,,,,,,,,215,2022-05-11_16h38.07.809,FishGame,2022.1.1,60.06911552427202,
,13,넌 소심해,4,Orange,A,3,3.1,ScrollDown,ScrollUp,Orange.png,1,Negative,Incongruent,0,0,0,0,,,,,,,,,,,,,0,12,12,12,,,,,,,,,,,,,,,,,,,,,,,,,,,,,,,,,,,,,,,,,,,,,,,,,,,,,,,,,,,,,,,,,,,,,,,,,,,,,,,,,,,,,1,2.149786199999653,174.78441790000034,None,ScrollDown,정답입니다,174.78441790000034,None,174.78441790000034,None,174.78441790000034,None,174.78441790000034,None,176.8031000000001,None,176.8031000000001,177.31528900000012,,,,,,,,,,,,,,,,215,2022-05-11_16h38.07.809,FishGame,2022.1.1,60.06911552427202,
,14,넌 합리적이야,2,Orange,A,5.583333333333333,4.733333333333333,ScrollDown,ScrollUp,Orange.png,1,Positive,Congruent,0,0,0,0,,,,,,,,,,,,,0,13,13,13,,,,,,,,,,,,,,,,,,,,,,,,,,,,,,,,,,,,,,,,,,,,,,,,,,,,,,,,,,,,,,,,,,,,,,,,,,,,,,,,,,,,,1.1558641890684764,0.9238594999997076,177.9786306000001,None,ScrollDown,정답입니다,177.9786306000001,None,177.9786306000001,None,177.9786306000001,None,177.9786306000001,None,178.76522490000025,None,178.76522490000025,179.2650894000003,,,,,,,,,,,,,,,,215,2022-05-11_16h38.07.809,FishGame,2022.1.1,60.06911552427202,
,15,넌 무자비해,5,Green,B,2.333333333333333,2.1,ScrollUp,ScrollDown,Green.png,1,Negative,Congruent,0,0,0,0,,,,,,,,,,,,,0,14,14,14,,,,,,,,,,,,,,,,,,,,,,,,,,,,,,,,,,,,,,,,,,,,,,,,,,,,,,,,,,,,,,,,,,,,,,,,,,,,,,,,,,,,,1.9413580397764842,0.9060541000003468,179.9186549000001,None,ScrollUp,정답입니다,179.9186549000001,None,179.9186549000001,None,179.9186549000001,None,179.9186549000001,None,180.69060800000034,None,180.69060800000034,181.1981162000002,,,,,,,,,,,,,,,,215,2022-05-11_16h38.07.809,FishGame,2022.1.1,60.06911552427202,
,16,나를 보내줘,6,Orange,A,0,0,ScrollUp,ScrollDown,Orange.png,1,NonTarget,NonTarget,0,0,0,0,,,,,,,,,,,,,0,15,15,15,,,,,,,,,,,,,,,,,,,,,,,,,,,,,,,,,,,,,,,,,,,,,,,,,,,,,,,,,,,,,,,,,,,,,,,,,,,,,,,,,,,,,1.8657407313585281,1.0952186999998048,181.84561070000018,None,ScrollUp,정답입니다,181.84561070000018,None,181.84561070000018,None,181.84561070000018,None,181.84561070000018,None,182.81462809999994,None,182.81462809999994,183.31460900000002,,,,,,,,,,,,,,,,215,2022-05-11_16h38.07.809,FishGame,2022.1.1,60.06911552427202,
,17,넌 현실적이야,3,Green,B,4.608695652173913,4.766666666666667,ScrollUp,ScrollDown,Green.png,1,Neutral,Neutral,0,0,0,0,,,,,,,,,,,,,0,16,16,16,,,,,,,,,,,,,,,,,,,,,,,,,,,,,,,,,,,,,,,,,,,,,,,,,,,,,,,,,,,,,,,,,,,,,,,,,,,,,,,,,,,,,1.7592592686414719,1.1703324000000066,183.96487590000015,None,ScrollUp,정답입니다,183.96487590000015,None,183.96487590000015,None,183.96487590000015,None,183.96487590000015,None,185.00501910000003,None,185.00501910000003,185.51421600000003,,,,,,,,,,,,,,,,215,2022-05-11_16h38.07.809,FishGame,2022.1.1,60.06911552427202,
,18,넌 의리있어,1,Green,B,5.833333333333334,5.633333333333334,ScrollUp,ScrollDown,Green.png,1,Positive,Incongruent,0,0,0,0,,,,,,,,,,,,,0,17,17,17,,,,,,,,,,,,,,,,,,,,,,,,,,,,,,,,,,,,,,,,,,,,,,,,,,,,,,,,,,,,,,,,,,,,,,,,,,,,,,,,,,,,,1.8132716069618862,0.9618024999999761,186.16165,None,ScrollUp,정답입니다,186.16165,None,186.16165,None,186.16165,None,186.16165,None,186.99716930000022,None,186.99716930000022,187.4973745000002,,,,,,,,,,,,,,,,215,2022-05-11_16h38.07.809,FishGame,2022.1.1,60.06911552427202,
,19,넌 신경과민이야,5,Orange,A,2.541666666666667,2.166666666666667,ScrollDown,ScrollUp,Orange.png,1,Negative,Incongruent,0,0,0,0,,,,,,,,,,,,,0,18,18,18,,,,,,,,,,,,,,,,,,,,,,,,,,,,,,,,,,,,,,,,,,,,,,,,,,,,,,,,,,,,,,,,,,,,,,,,,,,,,,,,,,,,,1.1311728407939274,1.0174545999998372,188.15761120000025,None,ScrollDown,정답입니다,188.15761120000025,None,188.15761120000025,None,188.15761120000025,None,188.15761120000025,None,189.03529759999992,None,189.03529759999992,189.54714820000027,,,,,,,,,,,,,,,,215,2022-05-11_16h38.07.809,FishGame,2022.1.1,60.06911552427202,
,20,넌 편안해,1,Orange,A,5.916666666666666,5.866666666666666,ScrollDown,ScrollUp,Orange.png,1,Positive,Congruent,0,0,0,0,,,,,,,,,,,,,0,19,19,19,,,,,,,,,,,,,,,,,,,,,,,,,,,,,,,,,,,,,,,,,,,,,,,,,,,,,,,,,,,,,,,,,,,,,,,,,,,,,,,,,,,,,1.28703702489535,1.021095499999774,190.2007807,None,ScrollDown,정답입니다,190.2007807,None,190.2007807,None,190.2007807,None,190.2007807,None,191.08831540000028,None,191.08831540000028,191.5968385000001,,,,,,,,,,,,,,,,215,2022-05-11_16h38.07.809,FishGame,2022.1.1,60.06911552427202,
,21,넌 품위있어,2,Green,B,5.291666666666666,4.466666666666667,ScrollUp,ScrollDown,Green.png,1,Positive,Incongruent,0,0,0,0,,,,,,,,,,,,,0,20,20,20,,,,,,,,,,,,,,,,,,,,,,,,,,,,,,,,,,,,,,,,,,,,,,,,,,,,,,,,,,,,,,,,,,,,,,,,,,,,,,,,,,,,,1.7484567960103354,0.9603335000001607,192.2433441000003,None,ScrollUp,정답입니다,192.2433441000003,None,192.2433441000003,None,192.2433441000003,None,192.2433441000003,None,193.07966490000035,None,193.07966490000035,193.57999610000024,,,,,,,,,,,,,,,,215,2022-05-11_16h38.07.809,FishGame,2022.1.1,60.06911552427202,
,22,넌 빈틈없어,3,Orange,A,4.833333333333333,3.966666666666667,ScrollDown,ScrollUp,Orange.png,1,Neutral,Neutral,0,0,0,0,,,,,,,,,,,,,0,21,21,21,,,,,,,,,,,,,,,,,,,,,,,,,,,,,,,,,,,,,,,,,,,,,,,,,,,,,,,,,,,,,,,,,,,,,,,,,,,,,,,,,,,,,1.2253086417913437,1.0836899000000813,194.23563360000026,None,ScrollDown,정답입니다,194.23563360000026,None,194.23563360000026,None,194.23563360000026,None,194.23563360000026,None,195.18460649999997,None,195.18460649999997,195.69619000000012,,,,,,,,,,,,,,,,215,2022-05-11_16h38.07.809,FishGame,2022.1.1,60.06911552427202,
,23,넌 상상력없어,4,Green,B,2.833333333333333,3.133333333333333,ScrollUp,ScrollDown,Green.png,1,Negative,Congruent,0,0,0,0,,,,,,,,,,,,,0,22,22,22,,,,,,,,,,,,,,,,,,,,,,,,,,,,,,,,,,,,,,,,,,,,,,,,,,,,,,,,,,,,,,,,,,,,,,,,,,,,,,,,,,,,,1.8503086417913437,1.0830101999999897,196.3555825000003,None,ScrollUp,정답입니다,196.3555825000003,None,196.3555825000003,None,196.3555825000003,None,196.3555825000003,None,197.2998689000001,None,197.2998689000001,197.8127853000001,,,,,,,,,,,,,,,,215,2022-05-11_16h38.07.809,FishGame,2022.1.1,60.06911552427202,
,24,넌 지혜로워,2,Green,B,6.333333333333334,4.633333333333334,ScrollUp,ScrollDown,Green.png,1,Positive,Incongruent,0,0,0,0,,,,,,,,,,,,,0,23,23,23,,,,,,,,,,,,,,,,,,,,,,,,,,,,,,,,,,,,,,,,,,,,,,,,,,,,,,,,,,,,,,,,,,,,,,,,,,,,,,,,,,,,,1.8858024626970291,0.8771114999999554,198.4665989,None,ScrollUp,정답입니다,198.4665989,None,198.4665989,None,198.4665989,None,198.4665989,None,199.21252730000015,None,199.21252730000015,199.71241959999998,,,,,,,,,,,,,,,,215,2022-05-11_16h38.07.809,FishGame,2022.1.1,60.06911552427202,
,25,넌 시끄러워,4,Orange,A,2.833333333333333,3.033333333333333,ScrollDown,ScrollUp,Orange.png,1,Negative,Incongruent,0,0,0,0,,,,,,,,,,,,,0,24,24,24,,,,,,,,,,,,,,,,,,,,,,,,,,,,,,,,,,,,,,,,,,,,,,,,,,,,,,,,,,,,,,,,,,,,,,,,,,,,,,,,,,,,,1.2839506218830743,0.8504708999998911,200.36998360000007,None,ScrollDown,정답입니다,200.36998360000007,None,200.36998360000007,None,200.36998360000007,None,200.36998360000007,None,201.0835863000002,None,201.0835863000002,201.59547500000008,,,,,,,,,,,,,,,,215,2022-05-11_16h38.07.809,FishGame,2022.1.1,60.06911552427202,
,26,넌 만사태평이야,3,Green,B,4,4.333333333333333,ScrollUp,ScrollDown,Green.png,1,Neutral,Neutral,0,0,0,0,,,,,,,,,,,,,0,25,25,25,,,,,,,,,,,,,,,,,,,,,,,,,,,,,,,,,,,,,,,,,,,,,,,,,,,,,,,,,,,,,,,,,,,,,,,,,,,,,,,,,,,,,1.9675925771395366,0.9337976000001618,202.24796240000023,None,ScrollUp,정답입니다,202.24796240000023,None,202.24796240000023,None,202.24796240000023,None,202.24796240000023,None,203.04997120000007,None,203.04997120000007,203.56207489999997,,,,,,,,,,,,,,,,215,2022-05-11_16h38.07.809,FishGame,2022.1.1,60.06911552427202,
,27,넌 붙임성있어,1,Orange,A,5.708333333333333,5.633333333333334,ScrollDown,ScrollUp,Orange.png,1,Positive,Congruent,0,0,0,0,,,,,,,,,,,,,0,26,26,26,,,,,,,,,,,,,,,,,,,,,,,,,,,,,,,,,,,,,,,,,,,,,,,,,,,,,,,,,,,,,,,,,,,,,,,,,,,,,,,,,,,,,1.347222218910853,0.9108778999998322,204.21898480000027,None,ScrollDown,정답입니다,204.21898480000027,None,204.21898480000027,None,204.21898480000027,None,204.21898480000027,None,204.99199820000013,None,204.99199820000013,205.49476570000024,,,,,,,,,,,,,,,,215,2022-05-11_16h38.07.809,FishGame,2022.1.1,60.06911552427202,
,28,넌 영리해,2,Orange,A,6,4.033333333333333,ScrollDown,ScrollUp,Orange.png,1,Positive,Congruent,0,0,0,0,,,,,,,,,,,,,0,27,27,27,,,,,,,,,,,,,,,,,,,,,,,,,,,,,,,,,,,,,,,,,,,,,,,,,,,,,,,,,,,,,,,,,,,,,,,,,,,,,,,,,,,,,1.1481481442848842,0.9282554000001255,206.14685110000028,None,ScrollDown,정답입니다,206.14685110000028,None,206.14685110000028,None,206.14685110000028,None,206.14685110000028,None,206.94469909999998,None,206.94469909999998,207.44479920000003,,,,,,,,,,,,,,,,215,2022-05-11_16h38.07.809,FishGame,2022.1.1,60.06911552427202,
,29,넌 열심이야,1,Green,B,6.041666666666667,5.833333333333333,ScrollUp,ScrollDown,Green.png,1,Positive,Incongruent,0,0,0,0,,,,,,,,,,,,,0,28,28,28,,,,,,,,,,,,,,,,,,,,,,,,,,,,,,,,,,,,,,,,,,,,,,,,,,,,,,,,,,,,,,,,,,,,,,,,,,,,,,,,,,,,,2,0.9331889000000047,208.0930599000003,None,ScrollUp,정답입니다,208.0930599000003,None,208.0930599000003,None,208.0930599000003,None,208.0930599000003,None,208.8989105999999,None,208.8989105999999,209.4110926000003,,,,,,,,,,,,,,,,215,2022-05-11_16h38.07.809,FishGame,2022.1.1,60.06911552427202,
,30,넌 인기없어,4,Green,B,3,3.3,ScrollUp,ScrollDown,Green.png,1,Negative,Congruent,0,0,0,0,,,,,,,,,,,,,0,29,29,29,,,,,,,,,,,,,,,,,,,,,,,,,,,,,,,,,,,,,,,,,,,,,,,,,,,,,,,,,,,,,,,,,,,,,,,,,,,,,,,,,,,,,1.8888888905445735,0.911831699999766,210.0594589000002,None,ScrollUp,정답입니다,210.0594589000002,None,210.0594589000002,None,210.0594589000002,None,210.0594589000002,None,210.84412360000033,None,210.84412360000033,211.3443373,,,,,,,,,,,,,,,,215,2022-05-11_16h38.07.809,FishGame,2022.1.1,60.06911552427202,
,31,넌 익살스러워,3,Orange,A,4.708333333333334,4.833333333333333,ScrollDown,ScrollUp,Orange.png,1,Neutral,Neutral,0,0,0,0,,,,,,,,,,,,,0,30,30,30,,,,,,,,,,,,,,,,,,,,,,,,,,,,,,,,,,,,,,,,,,,,,,,,,,,,,,,,,,,,,,,,,,,,,,,,,,,,,,,,,,,,,1.194444437821706,0.8063979999997173,212.00286640000013,None,ScrollDown,정답입니다,212.00286640000013,None,212.00286640000013,None,212.00286640000013,None,212.00286640000013,None,212.67182500000035,None,212.67182500000035,213.17725550000023,,,,,,,,,,,,,,,,215,2022-05-11_16h38.07.809,FishGame,2022.1.1,60.06911552427202,
,32,넌 이기적이야,5,Green,B,2.291666666666667,2.333333333333333,ScrollUp,ScrollDown,Green.png,1,Negative,Congruent,0,0,0,0,,,,,,,,,,,,,0,31,31,31,,,,,,,,,,,,,,,,,,,,,,,,,,,,,,,,,,,,,,,,,,,,,,,,,,,,,,,,,,,,,,,,,,,,,,,,,,,,,,,,,,,,,1.8472222139437993,0.9723753000002944,213.8195082000002,None,ScrollUp,정답입니다,213.8195082000002,None,213.8195082000002,None,213.8195082000002,None,213.8195082000002,None,214.66962869999998,None,214.66962869999998,215.17727730000024,,,,,,,,,,,,,,,,215,2022-05-11_16h38.07.809,FishGame,2022.1.1,60.06911552427202,
,33,나를 데려가줘,6,Green,B,0,0,ScrollDown,ScrollUp,Green.png,1,NonTarget,NonTarget,0,0,0,0,,,,,,,,,,,,,0,32,32,32,,,,,,,,,,,,,,,,,,,,,,,,,,,,,,,,,,,,,,,,,,,,,,,,,,,,,,,,,,,,,,,,,,,,,,,,,,,,,,,,,,,,,1.0771604776382446,1.2628287999996246,215.82483020000018,None,ScrollDown,정답입니다,215.82483020000018,None,215.82483020000018,None,215.82483020000018,None,215.82483020000018,None,216.96243090000007,None,216.96243090000007,217.47681409999996,,,,,,,,,,,,,,,,215,2022-05-11_16h38.07.809,FishGame,2022.1.1,60.06911552427202,
,34,넌 기회주의자야,5,Orange,A,2.875,2.133333333333333,ScrollDown,ScrollUp,Orange.png,1,Negative,Incongruent,0,0,0,0,,,,,,,,,,,,,0,33,33,33,,,,,,,,,,,,,,,,,,,,,,,,,,,,,,,,,,,,,,,,,,,,,,,,,,,,,,,,,,,,,,,,,,,,,,,,,,,,,,,,,,,,,1.2253086417913437,1.1956442000000607,218.13909890000014,None,ScrollDown,정답입니다,218.13909890000014,None,218.13909890000014,None,218.13909890000014,None,218.13909890000014,None,219.1933071000003,None,219.1933071000003,219.69316580000032,,,,,,,,,,,,,,,,215,2022-05-11_16h38.07.809,FishGame,2022.1.1,60.06911552427202,
,1,넌 미성숙해,4,Orange,A,3,3.2,ScrollDown,ScrollUp,Orange.png,2,Negative,Incongruent,0,0,0,0,,,,,,,,,,,,,,,,,0,0,0,0,,,,,,,,,,,,,,,,,,,,,,,,,,,,,,,,,,,,,,,,252.25568500000008,253.75534880000032,253.78877230000035,254.73872669999992,254.7888266,255.73863130000018,255.73863130000018,None,,,,,,,,,,,,,,,,,,,,,,,,,,,,,,,,,,1.1280864129463832,1.3161362000000736,256.9232030000003,None,ScrollDown,정답입니다,256.9232030000003,None,256.9232030000003,None,256.9232030000003,None,256.9232030000003,None,258.0618493000002,None,258.0618493000002,258.57152780000024,220.19317920000003,None,220.19317920000003,None,-0.09351852,-0.27592593,1,0,0,0.01600614000017231,None,250.20592590000024,None,,,215,2022-05-11_16h38.07.809,FishGame,2022.1.1,60.06911552427202,
,2,넌 반사회적이야,5,Green,B,2.416666666666667,2.033333333333333,ScrollUp,ScrollDown,Green.png,2,Negative,Congruent,0,0,0,0,,,,,,,,,,,,,,,,,0,1,1,1,,,,,,,,,,,,,,,,,,,,,,,,,,,,,,,,,,,,,,,,,,,,,,,,,,,,,,,,,,,,,,,,,,,,,,,,,,,,,,,,,1.8549382835626602,1.1870062999996662,259.22037750000027,None,ScrollUp,정답입니다,259.22037750000027,None,259.22037750000027,None,259.22037750000027,None,259.22037750000027,None,260.2783426000001,None,260.2783426000001,260.7878989999999,,,,,,,,,,,,,,,,215,2022-05-11_16h38.07.809,FishGame,2022.1.1,60.06911552427202,
,3,넌 유능해,2,Orange,A,6.208333333333333,4.433333333333334,ScrollDown,ScrollUp,Orange.png,2,Positive,Congruent,0,0,0,0,,,,,,,,,,,,,,,,,0,2,2,2,,,,,,,,,,,,,,,,,,,,,,,,,,,,,,,,,,,,,,,,,,,,,,,,,,,,,,,,,,,,,,,,,,,,,,,,,,,,,,,,,1.200617293516795,0.848497099999804,261.4430397000001,None,ScrollDown,정답입니다,261.4430397000001,None,261.4430397000001,None,261.4430397000001,None,261.4430397000001,None,262.1574493000003,None,262.1574493000003,262.67094910000014,,,,,,,,,,,,,,,,215,2022-05-11_16h38.07.809,FishGame,2022.1.1,60.06911552427202,
,4,넌 능숙해,2,Green,B,5.666666666666667,4.733333333333333,ScrollUp,ScrollDown,Green.png,2,Positive,Incongruent,0,0,0,0,,,,,,,,,,,,,,,,,0,3,3,3,,,,,,,,,,,,,,,,,,,,,,,,,,,,,,,,,,,,,,,,,,,,,,,,,,,,,,,,,,,,,,,,,,,,,,,,,,,,,,,,,1.7824074029922485,0.8032029999999395,263.3124488000003,None,ScrollUp,정답입니다,263.3124488000003,None,263.3124488000003,None,263.3124488000003,None,263.3124488000003,None,263.9948736000001,None,263.9948736000001,264.5040960000001,,,,,,,,,,,,,,,,215,2022-05-11_16h38.07.809,FishGame,2022.1.1,60.06911552427202,
,5,넌 진부해,4,Green,B,2.458333333333333,3.166666666666667,ScrollUp,ScrollDown,Green.png,2,Negative,Congruent,0,0,0,0,,,,,,,,,,,,,,,,,0,4,4,4,,,,,,,,,,,,,,,,,,,,,,,,,,,,,,,,,,,,,,,,,,,,,,,,,,,,,,,,,,,,,,,,,,,,,,,,,,,,,,,,,1.90586419403553,0.8060699000002387,265.15181150000035,None,ScrollUp,정답입니다,265.15181150000035,None,265.15181150000035,None,265.15181150000035,None,265.15181150000035,None,265.82963670000026,None,265.82963670000026,266.3371993999999,,,,,,,,,,,,,,,,215,2022-05-11_16h38.07.809,FishGame,2022.1.1,60.06911552427202,
,6,나를 보내줘,6,Orange,A,0,0,ScrollUp,ScrollDown,Orange.png,2,NonTarget,NonTarget,0,0,0,0,,,,,,,,,,,,,,,,,0,5,5,5,,,,,,,,,,,,,,,,,,,,,,,,,,,,,,,,,,,,,,,,,,,,,,,,,,,,,,,,,,,,,,,,,,,,,,,,,,,,,,,,,1.5308641977608204,0.9140162999997301,266.98534070000005,None,NoResponse,무응답입니다,266.98534070000005,None,266.98534070000005,None,266.98534070000005,None,266.98534070000005,None,267.7757051000003,None,267.7757051000003,268.28698239999994,,,,,,,,,,,,,,,,215,2022-05-11_16h38.07.809,FishGame,2022.1.1,60.06911552427202,
,7,넌 엄격해,3,Orange,A,4.166666666666666,4.1,ScrollDown,ScrollUp,Orange.png,2,Neutral,Neutral,0,0,0,0,,,,,,,,,,,,,,,,,0,6,6,6,,,,,,,,,,,,,,,,,,,,,,,,,,,,,,,,,,,,,,,,,,,,,,,,,,,,,,,,,,,,,,,,,,,,,,,,,,,,,,,,,1.3796296243866284,1.2006341999999677,268.94254880000017,None,ScrollDown,정답입니다,268.94254880000017,None,268.94254880000017,None,268.94254880000017,None,268.94254880000017,None,270.01001620000034,None,270.01001620000034,270.51996310000004,,,,,,,,,,,,,,,,215,2022-05-11_16h38.07.809,FishGame,2022.1.1,60.06911552427202,
,8,나를 보내줘,6,Orange,A,0,0,ScrollUp,ScrollDown,Orange.png,2,NonTarget,NonTarget,0,0,0,0,,,,,,,,,,,,,,,,,0,7,7,7,,,,,,,,,,,,,,,,,,,,,,,,,,,,,,,,,,,,,,,,,,,,,,,,,,,,,,,,,,,,,,,,,,,,,,,,,,,,,,,,,1.7592592686414719,0.9458706000000348,271.16723950000005,None,ScrollUp,정답입니다,271.16723950000005,None,271.16723950000005,None,271.16723950000005,None,271.16723950000005,None,271.9866956000001,None,271.9866956000001,272.48641580000003,,,,,,,,,,,,,,,,215,2022-05-11_16h38.07.809,FishGame,2022.1.1,60.06911552427202,
,9,넌 대담해,3,Green,B,4.875,4.866666666666666,ScrollUp,ScrollDown,Green.png,2,Neutral,Neutral,0,0,0,0,,,,,,,,,,,,,,,,,0,8,8,8,,,,,,,,,,,,,,,,,,,,,,,,,,,,,,,,,,,,,,,,,,,,,,,,,,,,,,,,,,,,,,,,,,,,,,,,,,,,,,,,,1.6882716019948325,1.0774290999997902,273.1356060000003,None,ScrollUp,정답입니다,273.1356060000003,None,273.1356060000003,None,273.1356060000003,None,273.1356060000003,None,274.08627890000025,None,274.08627890000025,274.5860281,,,,,,,,,,,,,,,,215,2022-05-11_16h38.07.809,FishGame,2022.1.1,60.06911552427202,
,10,넌 꾸준해,1,Orange,A,5.916666666666668,5.8,ScrollDown,ScrollUp,Orange.png,2,Positive,Congruent,0,0,0,0,,,,,,,,,,,,,,,,,0,9,9,9,,,,,,,,,,,,,,,,,,,,,,,,,,,,,,,,,,,,,,,,,,,,,,,,,,,,,,,,,,,,,,,,,,,,,,,,,,,,,,,,,1.3549382761120796,0.9398275999997168,275.2360592,None,ScrollDown,정답입니다,275.2360592,None,275.2360592,None,275.2360592,None,275.2360592,None,276.05280010000024,None,276.05280010000024,276.5525511999999,,,,,,,,,,,,,,,,215,2022-05-11_16h38.07.809,FishGame,2022.1.1,60.06911552427202,
,11,나를 데려가줘,6,Green,B,0,0,ScrollDown,ScrollUp,Green.png,2,NonTarget,NonTarget,0,0,0,0,,,,,,,,,,,,,,,,,0,10,10,10,,,,,,,,,,,,,,,,,,,,,,,,,,,,,,,,,,,,,,,,,,,,,,,,,,,,,,,,,,,,,,,,,,,,,,,,,,,,,,,,,1.276234577099482,1.004946999999902,277.194653,None,ScrollDown,정답입니다,277.194653,None,277.194653,None,277.194653,None,277.194653,None,278.0780606000003,None,278.0780606000003,278.58563060000006,,,,,,,,,,,,,,,,215,2022-05-11_16h38.07.809,FishGame,2022.1.1,60.06911552427202,
,12,넌 독선적이야,5,Orange,A,2.458333333333333,1.933333333333333,ScrollDown,ScrollUp,Orange.png,2,Negative,Incongruent,0,0,0,0,,,,,,,,,,,,,,,,,0,11,11,11,,,,,,,,,,,,,,,,,,,,,,,,,,,,,,,,,,,,,,,,,,,,,,,,,,,,,,,,,,,,,,,,,,,,,,,,,,,,,,,,,1.3734567935268083,1.0097249000000375,279.24190980000003,None,ScrollDown,정답입니다,279.24190980000003,None,279.24190980000003,None,279.24190980000003,None,279.24190980000003,None,280.1151275000002,None,280.1151275000002,280.61867269999993,,,,,,,,,,,,,,,,215,2022-05-11_16h38.07.809,FishGame,2022.1.1,60.06911552427202,
,13,나를 보내줘,6,Orange,A,0,0,ScrollUp,ScrollDown,Orange.png,2,NonTarget,NonTarget,0,0,0,0,,,,,,,,,,,,,,,,,0,12,12,12,,,,,,,,,,,,,,,,,,,,,,,,,,,,,,,,,,,,,,,,,,,,,,,,,,,,,,,,,,,,,,,,,,,,,,,,,,,,,,,,,1.8456790000200272,0.9497405999995863,281.2647492000001,None,ScrollUp,정답입니다,281.2647492000001,None,281.2647492000001,None,281.2647492000001,None,281.2647492000001,None,282.08952679999993,None,282.08952679999993,282.60165510000024,,,,,,,,,,,,,,,,215,2022-05-11_16h38.07.809,FishGame,2022.1.1,60.06911552427202,
,14,넌 책임감있어,1,Green,B,6.347826086956522,6,ScrollUp,ScrollDown,Green.png,2,Positive,Incongruent,0,0,0,0,,,,,,,,,,,,,,,,,0,13,13,13,,,,,,,,,,,,,,,,,,,,,,,,,,,,,,,,,,,,,,,,,,,,,,,,,,,,,,,,,,,,,,,,,,,,,,,,,,,,,,,,,1.8456790000200272,1.0930311000001893,283.24710380000033,None,ScrollUp,정답입니다,283.24710380000033,None,283.24710380000033,None,283.24710380000033,None,283.24710380000033,None,284.2137616,None,284.2137616,284.71817880000026,,,,,,,,,,,,,,,,215,2022-05-11_16h38.07.809,FishGame,2022.1.1,60.06911552427202,
,15,넌 문학적이야,3,Orange,A,4.708333333333334,4.333333333333333,ScrollDown,ScrollUp,Orange.png,2,Neutral,Neutral,0,0,0,0,,,,,,,,,,,,,,,,,0,14,14,14,,,,,,,,,,,,,,,,,,,,,,,,,,,,,,,,,,,,,,,,,,,,,,,,,,,,,,,,,,,,,,,,,,,,,,,,,,,,,,,,,1.2654321044683456,0.8548530000002756,285.37283160000015,None,ScrollDown,정답입니다,285.37283160000015,None,285.37283160000015,None,285.37283160000015,None,285.37283160000015,None,286.0938292999999,None,286.0938292999999,286.6010604000003,,,,,,,,,,,,,,,,215,2022-05-11_16h38.07.809,FishGame,2022.1.1,60.06911552427202,
,16,넌 재미있어,1,Green,B,5.875,5.7,ScrollUp,ScrollDown,Green.png,2,Positive,Incongruent,0,0,0,0,,,,,,,,,,,,,,,,,0,15,15,15,,,,,,,,,,,,,,,,,,,,,,,,,,,,,,,,,,,,,,,,,,,,,,,,,,,,,,,,,,,,,,,,,,,,,,,,,,,,,,,,,1.7376543233791986,0.8786005000001751,287.2424655,None,ScrollUp,정답입니다,287.2424655,None,287.2424655,None,287.2424655,None,287.2424655,None,288.00092570000015,None,288.00092570000015,288.5008135000003,,,,,,,,,,,,,,,,215,2022-05-11_16h38.07.809,FishGame,2022.1.1,60.06911552427202,
,17,나를 데려가줘,6,Green,B,0,0,ScrollDown,ScrollUp,Green.png,2,NonTarget,NonTarget,0,0,0,0,,,,,,,,,,,,,,,,,0,16,16,16,,,,,,,,,,,,,,,,,,,,,,,,,,,,,,,,,,,,,,,,,,,,,,,,,,,,,,,,,,,,,,,,,,,,,,,,,,,,,,,,,1,1.4616477999998096,289.1420436000003,None,ScrollDown,정답입니다,289.1420436000003,None,289.1420436000003,None,289.1420436000003,None,289.1420436000003,None,290.48062389999996,None,290.48062389999996,290.9839240000001,,,,,,,,,,,,,,,,215,2022-05-11_16h38.07.809,FishGame,2022.1.1,60.06911552427202,
,18,넌 협력적이야,1,Orange,A,5.625,5.633333333333334,ScrollDown,ScrollUp,Orange.png,2,Positive,Congruent,0,0,0,0,,,,,,,,,,,,,,,,,0,17,17,17,,,,,,,,,,,,,,,,,,,,,,,,,,,,,,,,,,,,,,,,,,,,,,,,,,,,,,,,,,,,,,,,,,,,,,,,,,,,,,,,,1.1033950646718342,1.106510999999955,291.6465634000001,None,ScrollDown,정답입니다,291.6465634000001,None,291.6465634000001,None,291.6465634000001,None,291.6465634000001,None,292.6173696999999,None,292.6173696999999,293.11707430000024,,,,,,,,,,,,,,,,215,2022-05-11_16h38.07.809,FishGame,2022.1.1,60.06911552427202,
,19,넌 평범해,3,Green,B,4.333333333333332,4.233333333333333,ScrollUp,ScrollDown,Green.png,2,Neutral,Neutral,0,0,0,0,,,,,,,,,,,,,,,,,0,18,18,18,,,,,,,,,,,,,,,,,,,,,,,,,,,,,,,,,,,,,,,,,,,,,,,,,,,,,,,,,,,,,,,,,,,,,,,,,,,,,,,,,1.7361111094554267,0.9298271999996359,293.7657366000003,None,ScrollUp,정답입니다,293.7657366000003,None,293.7657366000003,None,293.7657366000003,None,293.7657366000003,None,294.5687760999999,None,294.5687760999999,295.0835500000003,,,,,,,,,,,,,,,,215,2022-05-11_16h38.07.809,FishGame,2022.1.1,60.06911552427202,
,20,넌 오만해,5,Orange,A,2.333333333333333,2,ScrollDown,ScrollUp,Orange.png,2,Negative,Incongruent,0,0,0,0,,,,,,,,,,,,,,,,,0,19,19,19,,,,,,,,,,,,,,,,,,,,,,,,,,,,,,,,,,,,,,,,,,,,,,,,,,,,,,,,,,,,,,,,,,,,,,,,,,,,,,,,,1.3333333308498063,0.961190699999861,295.73538740000004,None,ScrollDown,정답입니다,295.73538740000004,None,295.73538740000004,None,295.73538740000004,None,295.73538740000004,None,296.56644080000024,None,296.56644080000024,297.0663823,,,,,,,,,,,,,,,,215,2022-05-11_16h38.07.809,FishGame,2022.1.1,60.06911552427202,
,21,넌 운이없어,4,Green,B,3,3.466666666666667,ScrollUp,ScrollDown,Green.png,2,Negative,Congruent,0,0,0,0,,,,,,,,,,,,,,,,,0,20,20,20,,,,,,,,,,,,,,,,,,,,,,,,,,,,,,,,,,,,,,,,,,,,,,,,,,,,,,,,,,,,,,,,,,,,,,,,,,,,,,,,,1.5,1.0468369000000166,297.71551709999994,None,NoResponse,무응답입니다,297.71551709999994,None,297.71551709999994,None,297.71551709999994,None,297.71551709999994,None,298.63621950000015,None,298.63621950000015,299.1495791000002,,,,,,,,,,,,,,,,215,2022-05-11_16h38.07.809,FishGame,2022.1.1,60.06911552427202,
,22,넌 창조적이야,2,Green,B,6.125,4.633333333333334,ScrollUp,ScrollDown,Green.png,2,Positive,Incongruent,0,0,0,0,,,,,,,,,,,,,,,,,0,21,21,21,,,,,,,,,,,,,,,,,,,,,,,,,,,,,,,,,,,,,,,,,,,,,,,,,,,,,,,,,,,,,,,,,,,,,,,,,,,,,,,,,1.5509259259949126,0.8949525000002723,299.8030607999999,None,ScrollUp,정답입니다,299.8030607999999,None,299.8030607999999,None,299.8030607999999,None,299.8030607999999,None,300.56263119999994,None,300.56263119999994,301.0660605000003,,,,,,,,,,,,,,,,215,2022-05-11_16h38.07.809,FishGame,2022.1.1,60.06911552427202,
,23,나를 보내줘,6,Orange,A,0,0,ScrollUp,ScrollDown,Orange.png,2,NonTarget,NonTarget,0,0,0,0,,,,,,,,,,,,,,,,,0,22,22,22,,,,,,,,,,,,,,,,,,,,,,,,,,,,,,,,,,,,,,,,,,,,,,,,,,,,,,,,,,,,,,,,,,,,,,,,,,,,,,,,,1.8009259204069774,1.1452614999998332,301.7138347,None,ScrollUp,정답입니다,301.7138347,None,301.7138347,None,301.7138347,None,301.7138347,None,302.73236510000015,None,302.73236510000015,303.2325278000003,,,,,,,,,,,,,,,,215,2022-05-11_16h38.07.809,FishGame,2022.1.1,60.06911552427202,
,24,넌 통찰력있어,2,Orange,A,6.5,4.8,ScrollDown,ScrollUp,Orange.png,2,Positive,Congruent,0,0,0,0,,,,,,,,,,,,,,,,,0,23,23,23,,,,,,,,,,,,,,,,,,,,,,,,,,,,,,,,,,,,,,,,,,,,,,,,,,,,,,,,,,,,,,,,,,,,,,,,,,,,,,,,,1.28086419403553,1.295936299999994,303.8907664000003,None,ScrollDown,정답입니다,303.8907664000003,None,303.8907664000003,None,303.8907664000003,None,303.8907664000003,None,305.0519969000002,None,305.0519969000002,305.56528890000027,,,,,,,,,,,,,,,,215,2022-05-11_16h38.07.809,FishGame,2022.1.1,60.06911552427202,
,25,넌 경솔해,5,Green,B,2.458333333333333,2.266666666666667,ScrollUp,ScrollDown,Green.png,2,Negative,Congruent,0,0,0,0,,,,,,,,,,,,,,,,,0,24,24,24,,,,,,,,,,,,,,,,,,,,,,,,,,,,,,,,,,,,,,,,,,,,,,,,,,,,,,,,,,,,,,,,,,,,,,,,,,,,,,,,,2,1.0158373000003849,306.2079862999999,None,ScrollUp,정답입니다,306.2079862999999,None,306.2079862999999,None,306.2079862999999,None,306.2079862999999,None,307.10133780000024,None,307.10133780000024,307.6153368,,,,,,,,,,,,,,,,215,2022-05-11_16h38.07.809,FishGame,2022.1.1,60.06911552427202,
,26,넌 초조해,4,Orange,A,2.916666666666667,3.133333333333333,ScrollDown,ScrollUp,Orange.png,2,Negative,Incongruent,0,0,0,0,,,,,,,,,,,,,,,,,0,25,25,25,,,,,,,,,,,,,,,,,,,,,,,,,,,,,,,,,,,,,,,,,,,,,,,,,,,,,,,,,,,,,,,,,,,,,,,,,,,,,,,,,1.0185184975465138,0.9705971999997018,308.26812210000026,None,ScrollDown,정답입니다,308.26812210000026,None,308.26812210000026,None,308.26812210000026,None,308.26812210000026,None,309.1053985000003,None,309.1053985000003,309.6149977,,,,,,,,,,,,,,,,215,2022-05-11_16h38.07.809,FishGame,2022.1.1,60.06911552427202,
,27,넌 무관심해,4,Green,B,2.833333333333333,2.9,ScrollUp,ScrollDown,Green.png,2,Negative,Congruent,0,0,0,0,,,,,,,,,,,,,,,,,0,26,26,26,,,,,,,,,,,,,,,,,,,,,,,,,,,,,,,,,,,,,,,,,,,,,,,,,,,,,,,,,,,,,,,,,,,,,,,,,,,,,,,,,1.9089506218830745,1.038123899999846,310.26270760000034,None,ScrollUp,정답입니다,310.26270760000034,None,310.26270760000034,None,310.26270760000034,None,310.26270760000034,None,311.17294820000006,None,311.17294820000006,311.68132749999995,,,,,,,,,,,,,,,,215,2022-05-11_16h38.07.809,FishGame,2022.1.1,60.06911552427202,
,28,넌 감성적이야,3,Green,B,4.125,4.166666666666667,ScrollUp,ScrollDown,Green.png,2,Neutral,Neutral,0,0,0,0,,,,,,,,,,,,,,,,,0,27,27,27,,,,,,,,,,,,,,,,,,,,,,,,,,,,,,,,,,,,,,,,,,,,,,,,,,,,,,,,,,,,,,,,,,,,,,,,,,,,,,,,,1.9737654328346252,0.9129046000002745,312.3237659000001,None,ScrollUp,정답입니다,312.3237659000001,None,312.3237659000001,None,312.3237659000001,None,312.3237659000001,None,313.11495920000016,None,313.11495920000016,313.61454000000003,,,,,,,,,,,,,,,,215,2022-05-11_16h38.07.809,FishGame,2022.1.1,60.06911552427202,
,29,넌 배려심있어,1,Orange,A,6.083333333333333,5.5,ScrollDown,ScrollUp,Orange.png,2,Positive,Congruent,0,0,0,0,,,,,,,,,,,,,,,,,0,28,28,28,,,,,,,,,,,,,,,,,,,,,,,,,,,,,,,,,,,,,,,,,,,,,,,,,,,,,,,,,,,,,,,,,,,,,,,,,,,,,,,,,1,0.8815264999998362,314.2644740999999,None,ScrollDown,정답입니다,314.2644740999999,None,314.2644740999999,None,314.2644740999999,None,314.2644740999999,None,315.0170312,None,315.0170312,315.5309046000002,,,,,,,,,,,,,,,,215,2022-05-11_16h38.07.809,FishGame,2022.1.1,60.06911552427202,
,30,넌 숨김없어,3,Orange,A,4.5,4.933333333333334,ScrollDown,ScrollUp,Orange.png,2,Neutral,Neutral,0,0,0,0,,,,,,,,,,,,,,,,,0,29,29,29,,,,,,,,,,,,,,,,,,,,,,,,,,,,,,,,,,,,,,,,,,,,,,,,,,,,,,,,,,,,,,,,,,,,,,,,,,,,,,,,,1.1327160547176998,0.91573789999984,316.1859813000001,None,ScrollDown,정답입니다,316.1859813000001,None,316.1859813000001,None,316.1859813000001,None,316.1859813000001,None,316.9676062000003,None,316.9676062000003,317.4806334,,,,,,,,,,,,,,,,215,2022-05-11_16h38.07.809,FishGame,2022.1.1,60.06911552427202,
,31,넌 훌륭해,2,Green,B,5.916666666666667,4.033333333333333,ScrollUp,ScrollDown,Green.png,2,Positive,Incongruent,0,0,0,0,,,,,,,,,,,,,,,,,0,30,30,30,,,,,,,,,,,,,,,,,,,,,,,,,,,,,,,,,,,,,,,,,,,,,,,,,,,,,,,,,,,,,,,,,,,,,,,,,,,,,,,,,1.919753094514211,0.885942100000193,318.1362127000002,None,ScrollUp,정답입니다,318.1362127000002,None,318.1362127000002,None,318.1362127000002,None,318.1362127000002,None,318.8862337999999,None,318.8862337999999,319.39693669999997,,,,,,,,,,,,,,,,215,2022-05-11_16h38.07.809,FishGame,2022.1.1,60.06911552427202,
,32,넌 슬기로워,2,Orange,A,6.166666666666667,4.1,ScrollDown,ScrollUp,Orange.png,2,Positive,Congruent,0,0,0,0,,,,,,,,,,,,,,,,,0,31,31,31,,,,,,,,,,,,,,,,,,,,,,,,,,,,,,,,,,,,,,,,,,,,,,,,,,,,,,,,,,,,,,,,,,,,,,,,,,,,,,,,,1.160493830839793,0.8974923000000672,320.047912,None,ScrollDown,정답입니다,320.047912,None,320.047912,None,320.047912,None,320.047912,None,320.81504600000017,None,320.81504600000017,321.33012959999996,,,,,,,,,,,,,,,,215,2022-05-11_16h38.07.809,FishGame,2022.1.1,60.06911552427202,
,33,넌 냉혹해,5,Orange,A,2.583333333333333,2.1,ScrollDown,ScrollUp,Orange.png,2,Negative,Incongruent,0,0,0,0,,,,,,,,,,,,,,,,,0,32,32,32,,,,,,,,,,,,,,,,,,,,,,,,,,,,,,,,,,,,,,,,,,,,,,,,,,,,,,,,,,,,,,,,,,,,,,,,,,,,,,,,,1.1342592686414719,0.840012999999999,321.9798559999999,None,ScrollDown,정답입니다,321.9798559999999,None,321.9798559999999,None,321.9798559999999,None,321.9798559999999,None,322.6913531,None,322.6913531,323.1967072000002,,,,,,,,,,,,,,,,215,2022-05-11_16h38.07.809,FishGame,2022.1.1,60.06911552427202,
,34,나를 데려가줘,6,Green,B,0,0,ScrollDown,ScrollUp,Green.png,2,NonTarget,NonTarget,0,0,0,0,,,,,,,,,,,,,,,,,0,33,33,33,,,,,,,,,,,,,,,,,,,,,,,,,,,,,,,,,,,,,,,,,,,,,,,,,,,,,,,,,,,,,,,,,,,,,,,,,,,,,,,,,1.121913582086563,1.002852300000086,323.8440237,None,ScrollDown,정답입니다,323.8440237,None,323.8440237,None,323.8440237,None,323.8440237,None,324.7215142,None,324.7215142,325.2296200999999,,,,,,,,,,,,,,,,215,2022-05-11_16h38.07.809,FishGame,2022.1.1,60.06911552427202,
,35,넌 편파적이야,5,Green,B,2.125,2,ScrollUp,ScrollDown,Green.png,2,Negative,Congruent,0,0,0,0,,,,,,,,,,,,,,,,,0,34,34,34,,,,,,,,,,,,,,,,,,,,,,,,,,,,,,,,,,,,,,,,,,,,,,,,,,,,,,,,,,,,,,,,,,,,,,,,,,,,,,,,,1.9475308458010356,0.9387489999999161,325.87758980000035,None,ScrollUp,정답입니다,325.87758980000035,None,325.87758980000035,None,325.87758980000035,None,325.87758980000035,None,326.68824970000014,None,326.68824970000014,327.1958583999999,,,,,,,,,,,,,,,,215,2022-05-11_16h38.07.809,FishGame,2022.1.1,60.06911552427202,
,36,넌 슬퍼,4,Orange,A,2.583333333333333,3.066666666666667,ScrollDown,ScrollUp,Orange.png,2,Negative,Incongruent,0,0,0,0,,,,,,,,,,,,,,,,,0,35,35,35,,,,,,,,,,,,,,,,,,,,,,,,,,,,,,,,,,,,,,,,,,,,,,,,,,,,,,,,,,,,,,,,,,,,,,,,,,,,,,,,,1.2453703731298447,1.0286126999999397,327.84171330000027,None,ScrollDown,정답입니다,327.84171330000027,None,327.84171330000027,None,327.84171330000027,None,327.84171330000027,None,328.7456006000002,None,328.7456006000002,329.2456545,,,,,,,,,,,,,,,,215,2022-05-11_16h38.07.809,FishGame,2022.1.1,60.06911552427202,
,37,나를 데려가줘,6,Green,B,0,0,ScrollDown,ScrollUp,Green.png,2,NonTarget,NonTarget,0,0,0,0,,,,,,,,,,,,,,,,,0,36,36,36,,,,,,,,,,,,,,,,,,,,,,,,,,,,,,,,,,,,,,,,,,,,,,,,,,,,,,,,,,,,,,,,,,,,,,,,,,,,,,,,,1.0262345671653748,0.8855577999997877,329.88538000000017,None,ScrollDown,정답입니다,329.88538000000017,None,329.88538000000017,None,329.88538000000017,None,329.88538000000017,None,330.6508776999999,None,330.6508776999999,331.16211950000024,,,,,,,,,,,,,,,,215,2022-05-11_16h38.07.809,FishGame,2022.1.1,60.06911552427202,
,38,넌 친절해,1,Green,B,6.041666666666667,5.533333333333333,ScrollUp,ScrollDown,Green.png,2,Positive,Incongruent,0,0,0,0,,,,,,,,,,,,,,,,,0,37,37,37,,,,,,,,,,,,,,,,,,,,,,,,,,,,,,,,,,,,,,,,,,,,,,,,,,,,,,,,,,,,,,,,,,,,,,,,,,,,,,,,,1.746913582086563,0.8546654000001581,331.8115679000002,None,ScrollUp,정답입니다,331.8115679000002,None,331.8115679000002,None,331.8115679000002,None,331.8115679000002,None,332.54517480000004,None,332.54517480000004,333.04513769999994,,,,,,,,,,,,,,,,215,2022-05-11_16h38.07.809,FishGame,2022.1.1,60.06911552427202,
,1,넌 엉성해,4,Orange,A,3,3.3,ScrollDown,ScrollUp,Orange.png,3,Negative,Incongruent,0,0,0,0,,,,,,,,,,,,,,,,,,,,,0,0,0,0,,,,,,,,,,,,,,,,,,,,,,,,,,,,,,,,,,,,364.9078632999999,366.4076411000001,366.4408143999999,367.3908728000001,367.4408470000003,368.39073110000027,368.39073110000027,None,,,,,,,,,,,,,,,,,,,,,,,,,,,,,,,,,,1.040123442808787,1.10361550000016,369.56529279999995,None,ScrollDown,정답입니다,369.56529279999995,None,369.56529279999995,None,369.56529279999995,None,369.56529279999995,None,370.4990176000001,None,370.4990176000001,371.00690190000023,333.54546830000027,None,333.54546830000027,None,-0.16018519,-0.28611112,1,0,0,0.01624333999961891,None,363.55796039999996,None,,,215,2022-05-11_16h38.07.809,FishGame,2022.1.1,60.06911552427202,
,2,나를 보내줘,6,Orange,A,0,0,ScrollUp,ScrollDown,Orange.png,3,NonTarget,NonTarget,0,0,0,0,,,,,,,,,,,,,,,,,,,,,0,1,1,1,,,,,,,,,,,,,,,,,,,,,,,,,,,,,,,,,,,,,,,,,,,,,,,,,,,,,,,,,,,,,,,,,,,,,,,,,,,,,1.9907407363255818,1.1064517999998316,371.6507577000002,None,ScrollUp,정답입니다,371.6507577000002,None,371.6507577000002,None,371.6507577000002,None,371.6507577000002,None,372.6327844000002,None,372.6327844000002,373.14015610000024,,,,,,,,,,,,,,,,215,2022-05-11_16h38.07.809,FishGame,2022.1.1,60.06911552427202,
,3,넌 활발해,1,Green,B,5.666666666666667,5.6,ScrollUp,ScrollDown,Green.png,3,Positive,Incongruent,0,0,0,0,,,,,,,,,,,,,,,,,,,,,0,2,2,2,,,,,,,,,,,,,,,,,,,,,,,,,,,,,,,,,,,,,,,,,,,,,,,,,,,,,,,,,,,,,,,,,,,,,,,,,,,,,1.9629629850387573,1.20689799999991,373.79300980000016,None,ScrollUp,정답입니다,373.79300980000016,None,373.79300980000016,None,373.79300980000016,None,373.79300980000016,None,374.8711094,None,374.8711094,375.37309920000007,,,,,,,,,,,,,,,,215,2022-05-11_16h38.07.809,FishGame,2022.1.1,60.06911552427202,
,4,넌 논리적이야,2,Orange,A,5.666666666666666,4.633333333333334,ScrollDown,ScrollUp,Orange.png,3,Positive,Congruent,0,0,0,0,,,,,,,,,,,,,,,,,,,,,0,3,3,3,,,,,,,,,,,,,,,,,,,,,,,,,,,,,,,,,,,,,,,,,,,,,,,,,,,,,,,,,,,,,,,,,,,,,,,,,,,,,1,0.8982203999999001,376.02707250000003,None,ScrollDown,정답입니다,376.02707250000003,None,376.02707250000003,None,376.02707250000003,None,376.02707250000003,None,376.7923748000003,None,376.7923748000003,377.3062064999999,,,,,,,,,,,,,,,,215,2022-05-11_16h38.07.809,FishGame,2022.1.1,60.06911552427202,
,5,넌 과묵해,3,Orange,A,3.875,4.4,ScrollDown,ScrollUp,Orange.png,3,Neutral,Neutral,0,0,0,0,,,,,,,,,,,,,,,,,,,,,0,4,4,4,,,,,,,,,,,,,,,,,,,,,,,,,,,,,,,,,,,,,,,,,,,,,,,,,,,,,,,,,,,,,,,,,,,,,,,,,,,,,1.0246913532416027,0.9007274000000507,377.9592640000001,None,ScrollDown,정답입니다,377.9592640000001,None,377.9592640000001,None,377.9592640000001,None,377.9592640000001,None,378.7277858000002,None,378.7277858000002,379.2393546000003,,,,,,,,,,,,,,,,215,2022-05-11_16h38.07.809,FishGame,2022.1.1,60.06911552427202,
,6,나를 데려가줘,6,Green,B,0,0,ScrollDown,ScrollUp,Green.png,3,NonTarget,NonTarget,0,0,0,0,,,,,,,,,,,,,,,,,,,,,0,5,5,5,,,,,,,,,,,,,,,,,,,,,,,,,,,,,,,,,,,,,,,,,,,,,,,,,,,,,,,,,,,,,,,,,,,,,,,,,,,,,1,0.9674326999997902,379.87703899999997,None,ScrollDown,정답입니다,379.87703899999997,None,379.87703899999997,None,379.87703899999997,None,379.87703899999997,None,380.72724430000017,None,380.72724430000017,381.2390399000001,,,,,,,,,,,,,,,,215,2022-05-11_16h38.07.809,FishGame,2022.1.1,60.06911552427202,
,7,넌 미숙해,4,Green,B,3,3,ScrollUp,ScrollDown,Green.png,3,Negative,Congruent,0,0,0,0,,,,,,,,,,,,,,,,,,,,,0,6,6,6,,,,,,,,,,,,,,,,,,,,,,,,,,,,,,,,,,,,,,,,,,,,,,,,,,,,,,,,,,,,,,,,,,,,,,,,,,,,,1.9459876318772633,0.9840088999999352,381.88074929999993,None,ScrollUp,정답입니다,381.88074929999993,None,381.88074929999993,None,381.88074929999993,None,381.88074929999993,None,382.7430856000001,None,382.7430856000001,383.25550870000006,,,,,,,,,,,,,,,,215,2022-05-11_16h38.07.809,FishGame,2022.1.1,60.06911552427202,
,8,나를 보내줘,6,Orange,A,0,0,ScrollUp,ScrollDown,Orange.png,3,NonTarget,NonTarget,0,0,0,0,,,,,,,,,,,,,,,,,,,,,0,7,7,7,,,,,,,,,,,,,,,,,,,,,,,,,,,,,,,,,,,,,,,,,,,,,,,,,,,,,,,,,,,,,,,,,,,,,,,,,,,,,2,1.0439335999999457,383.9026710000003,None,ScrollUp,정답입니다,383.9026710000003,None,383.9026710000003,None,383.9026710000003,None,383.9026710000003,None,384.82192810000015,None,384.82192810000015,385.32194860000027,,,,,,,,,,,,,,,,215,2022-05-11_16h38.07.809,FishGame,2022.1.1,60.06911552427202,
,9,넌 자신만만해,3,Green,B,4.833333333333334,4.333333333333333,ScrollUp,ScrollDown,Green.png,3,Neutral,Neutral,0,0,0,0,,,,,,,,,,,,,,,,,,,,,0,8,8,8,,,,,,,,,,,,,,,,,,,,,,,,,,,,,,,,,,,,,,,,,,,,,,,,,,,,,,,,,,,,,,,,,,,,,,,,,,,,,2,1.1874731000002612,385.96364280000034,None,ScrollUp,정답입니다,385.96364280000034,None,385.96364280000034,None,385.96364280000034,None,385.96364280000034,None,387.0362302000003,None,387.0362302000003,387.5381884000003,,,,,,,,,,,,,,,,215,2022-05-11_16h38.07.809,FishGame,2022.1.1,60.06911552427202,
,10,넌 탐욕스러워,5,Orange,A,2.25,2.1,ScrollDown,ScrollUp,Orange.png,3,Negative,Incongruent,0,0,0,0,,,,,,,,,,,,,,,,,,,,,0,9,9,9,,,,,,,,,,,,,,,,,,,,,,,,,,,,,,,,,,,,,,,,,,,,,,,,,,,,,,,,,,,,,,,,,,,,,,,,,,,,,1,0.9828026999998656,388.19090069999993,None,ScrollDown,정답입니다,388.19090069999993,None,388.19090069999993,None,388.19090069999993,None,388.19090069999993,None,389.0421303000003,None,389.0421303000003,389.55478040000025,,,,,,,,,,,,,,,,215,2022-05-11_16h38.07.809,FishGame,2022.1.1,60.06911552427202,
,11,넌 인기있어,2,Orange,A,5.458333333333333,4.5,ScrollDown,ScrollUp,Orange.png,3,Positive,Congruent,0,0,0,0,,,,,,,,,,,,,,,,,,,,,0,10,10,10,,,,,,,,,,,,,,,,,,,,,,,,,,,,,,,,,,,,,,,,,,,,,,,,,,,,,,,,,,,,,,,,,,,,,,,,,,,,,1,0.8623367000000144,390.2021466000001,None,ScrollDown,정답입니다,390.2021466000001,None,390.2021466000001,None,390.2021466000001,None,390.2021466000001,None,390.9373344999999,None,390.9373344999999,391.4377521000001,,,,,,,,,,,,,,,,215,2022-05-11_16h38.07.809,FishGame,2022.1.1,60.06911552427202,
,12,나를 데려가줘,6,Green,B,0,0,ScrollDown,ScrollUp,Green.png,3,NonTarget,NonTarget,0,0,0,0,,,,,,,,,,,,,,,,,,,,,0,11,11,11,,,,,,,,,,,,,,,,,,,,,,,,,,,,,,,,,,,,,,,,,,,,,,,,,,,,,,,,,,,,,,,,,,,,,,,,,,,,,1,0.9945855000000847,392.0820083000003,None,ScrollDown,정답입니다,392.0820083000003,None,392.0820083000003,None,392.0820083000003,None,392.0820083000003,None,392.95394430000033,None,392.95394430000033,393.4541918,,,,,,,,,,,,,,,,215,2022-05-11_16h38.07.809,FishGame,2022.1.1,60.06911552427202,
,13,넌 뛰어나,2,Green,B,6.166666666666667,4,ScrollUp,ScrollDown,Green.png,3,Positive,Incongruent,0,0,0,0,,,,,,,,,,,,,,,,,,,,,0,12,12,12,,,,,,,,,,,,,,,,,,,,,,,,,,,,,,,,,,,,,,,,,,,,,,,,,,,,,,,,,,,,,,,,,,,,,,,,,,,,,1.9691357910633087,0.9343082000000322,394.09951720000026,None,ScrollUp,정답입니다,394.09951720000026,None,394.09951720000026,None,394.09951720000026,None,394.09951720000026,None,394.9086649000001,None,394.9086649000001,395.42058910000014,,,,,,,,,,,,,,,,215,2022-05-11_16h38.07.809,FishGame,2022.1.1,60.06911552427202,
,14,넌 낙관적이야,1,Orange,A,5.75,5.8,ScrollDown,ScrollUp,Orange.png,3,Positive,Congruent,0,0,0,0,,,,,,,,,,,,,,,,,,,,,0,13,13,13,,,,,,,,,,,,,,,,,,,,,,,,,,,,,,,,,,,,,,,,,,,,,,,,,,,,,,,,,,,,,,,,,,,,,,,,,,,,,1,0.9115457000002607,396.0684437,None,ScrollDown,정답입니다,396.0684437,None,396.0684437,None,396.0684437,None,396.0684437,None,396.85048300000017,None,396.85048300000017,397.35369230000015,,,,,,,,,,,,,,,,215,2022-05-11_16h38.07.809,FishGame,2022.1.1,60.06911552427202,
,15,넌 산만해,4,Green,B,2.695652173913043,3.033333333333333,ScrollUp,ScrollDown,Green.png,3,Negative,Congruent,0,0,0,0,,,,,,,,,,,,,,,,,,,,,0,14,14,14,,,,,,,,,,,,,,,,,,,,,,,,,,,,,,,,,,,,,,,,,,,,,,,,,,,,,,,,,,,,,,,,,,,,,,,,,,,,,2,1.0698107000002892,398.0029886000002,None,ScrollUp,정답입니다,398.0029886000002,None,398.0029886000002,None,398.0029886000002,None,398.0029886000002,None,398.9515179,None,398.9515179,399.45339379999996,,,,,,,,,,,,,,,,215,2022-05-11_16h38.07.809,FishGame,2022.1.1,60.06911552427202,
,16,나를 보내줘,6,Orange,A,0,0,ScrollUp,ScrollDown,Orange.png,3,NonTarget,NonTarget,0,0,0,0,,,,,,,,,,,,,,,,,,,,,0,15,15,15,,,,,,,,,,,,,,,,,,,,,,,,,,,,,,,,,,,,,,,,,,,,,,,,,,,,,,,,,,,,,,,,,,,,,,,,,,,,,1.9135802388191223,1.1005600999997114,400.1025089,None,ScrollUp,정답입니다,400.1025089,None,400.1025089,None,400.1025089,None,400.1025089,None,401.0747045000003,None,401.0747045000003,401.5864781,,,,,,,,,,,,,,,,215,2022-05-11_16h38.07.809,FishGame,2022.1.1,60.06911552427202,
,17,넌 교활해,5,Green,B,2.333333333333333,2.133333333333333,ScrollUp,ScrollDown,Green.png,3,Negative,Congruent,0,0,0,0,,,,,,,,,,,,,,,,,,,,,0,16,16,16,,,,,,,,,,,,,,,,,,,,,,,,,,,,,,,,,,,,,,,,,,,,,,,,,,,,,,,,,,,,,,,,,,,,,,,,,,,,,2,1.0648998000001484,402.23315679999996,None,ScrollUp,정답입니다,402.23315679999996,None,402.23315679999996,None,402.23315679999996,None,402.23315679999996,None,403.17174909999994,None,403.17174909999994,403.6860909000002,,,,,,,,,,,,,,,,215,2022-05-11_16h38.07.809,FishGame,2022.1.1,60.06911552427202,
,18,나를 보내줘,6,Orange,A,0,0,ScrollUp,ScrollDown,Orange.png,3,NonTarget,NonTarget,0,0,0,0,,,,,,,,,,,,,,,,,,,,,0,17,17,17,,,,,,,,,,,,,,,,,,,,,,,,,,,,,,,,,,,,,,,,,,,,,,,,,,,,,,,,,,,,,,,,,,,,,,,,,,,,,1.9243827362855275,0.9997941000001447,404.32995010000013,None,ScrollUp,정답입니다,404.32995010000013,None,404.32995010000013,None,404.32995010000013,None,404.32995010000013,None,405.2066242000001,None,405.2066242000001,405.7191493,,,,,,,,,,,,,,,,215,2022-05-11_16h38.07.809,FishGame,2022.1.1,60.06911552427202,
,19,넌 불친절해,5,Green,B,2.208333333333333,2.033333333333333,ScrollUp,ScrollDown,Green.png,3,Negative,Congruent,0,0,0,0,,,,,,,,,,,,,,,,,,,,,0,18,18,18,,,,,,,,,,,,,,,,,,,,,,,,,,,,,,,,,,,,,,,,,,,,,,,,,,,,,,,,,,,,,,,,,,,,,,,,,,,,,2,1.103247999999894,406.3733463000003,None,ScrollUp,정답입니다,406.3733463000003,None,406.3733463000003,None,406.3733463000003,None,406.3733463000003,None,407.3419103000001,None,407.3419103000001,407.8523124000003,,,,,,,,,,,,,,,,215,2022-05-11_16h38.07.809,FishGame,2022.1.1,60.06911552427202,
,20,넌 지적이야,2,Green,B,5.75,4.366666666666666,ScrollUp,ScrollDown,Green.png,3,Positive,Incongruent,0,0,0,0,,,,,,,,,,,,,,,,,,,,,0,19,19,19,,,,,,,,,,,,,,,,,,,,,,,,,,,,,,,,,,,,,,,,,,,,,,,,,,,,,,,,,,,,,,,,,,,,,,,,,,,,,2,1.0664904000000206,408.4986960000001,None,ScrollUp,정답입니다,408.4986960000001,None,408.4986960000001,None,408.4986960000001,None,408.4986960000001,None,409.43949900000007,None,409.43949900000007,409.9521743,,,,,,,,,,,,,,,,215,2022-05-11_16h38.07.809,FishGame,2022.1.1,60.06911552427202,
,21,넌 우유부단해,4,Orange,A,2.666666666666667,3.166666666666667,ScrollDown,ScrollUp,Orange.png,3,Negative,Incongruent,0,0,0,0,,,,,,,,,,,,,,,,,,,,,0,20,20,20,,,,,,,,,,,,,,,,,,,,,,,,,,,,,,,,,,,,,,,,,,,,,,,,,,,,,,,,,,,,,,,,,,,,,,,,,,,,,1.0339506367842357,1.0618427000003976,410.62587239999993,None,ScrollDown,정답입니다,410.62587239999993,None,410.62587239999993,None,410.62587239999993,None,410.62587239999993,None,411.5422963000001,None,411.5422963000001,412.0520421000001,,,,,,,,,,,,,,,,215,2022-05-11_16h38.07.809,FishGame,2022.1.1,60.06911552427202,
,22,나를 데려가줘,6,Green,B,0,0,ScrollDown,ScrollUp,Green.png,3,NonTarget,NonTarget,0,0,0,0,,,,,,,,,,,,,,,,,,,,,0,21,21,21,,,,,,,,,,,,,,,,,,,,,,,,,,,,,,,,,,,,,,,,,,,,,,,,,,,,,,,,,,,,,,,,,,,,,,,,,,,,,1,1.1220970999997917,412.7048500000001,None,ScrollDown,정답입니다,412.7048500000001,None,412.7048500000001,None,412.7048500000001,None,412.7048500000001,None,413.70144960000016,None,413.70144960000016,414.2014229000001,,,,,,,,,,,,,,,,215,2022-05-11_16h38.07.809,FishGame,2022.1.1,60.06911552427202,
,23,넌 성실해,1,Green,B,6.041666666666666,5.7,ScrollUp,ScrollDown,Green.png,3,Positive,Incongruent,0,0,0,0,,,,,,,,,,,,,,,,,,,,,0,22,22,22,,,,,,,,,,,,,,,,,,,,,,,,,,,,,,,,,,,,,,,,,,,,,,,,,,,,,,,,,,,,,,,,,,,,,,,,,,,,,1.9953703780968983,1.068621500000063,414.84480140000005,None,ScrollUp,정답입니다,414.84480140000005,None,414.84480140000005,None,414.84480140000005,None,414.84480140000005,None,415.7919429000003,None,415.7919429000003,416.3012352999999,,,,,,,,,,,,,,,,215,2022-05-11_16h38.07.809,FishGame,2022.1.1,60.06911552427202,
,24,넌 현실주의적이야,3,Orange,A,4.625,4.4,ScrollDown,ScrollUp,Orange.png,3,Neutral,Neutral,0,0,0,0,,,,,,,,,,,,,,,,,,,,,0,23,23,23,,,,,,,,,,,,,,,,,,,,,,,,,,,,,,,,,,,,,,,,,,,,,,,,,,,,,,,,,,,,,,,,,,,,,,,,,,,,,1,1.0938000000001011,416.9514747000003,None,ScrollDown,정답입니다,416.9514747000003,None,416.9514747000003,None,416.9514747000003,None,416.9514747000003,None,417.9177399,None,417.9177399,418.4176937000002,,,,,,,,,,,,,,,,215,2022-05-11_16h38.07.809,FishGame,2022.1.1,60.06911552427202,
,25,넌 진실돼,1,Orange,A,6.625,5.566666666666666,ScrollDown,ScrollUp,Orange.png,3,Positive,Congruent,0,0,0,0,,,,,,,,,,,,,,,,,,,,,0,24,24,24,,,,,,,,,,,,,,,,,,,,,,,,,,,,,,,,,,,,,,,,,,,,,,,,,,,,,,,,,,,,,,,,,,,,,,,,,,,,,1,1.0280235999998695,419.06472040000017,None,ScrollDown,정답입니다,419.06472040000017,None,419.06472040000017,None,419.06472040000017,None,419.06472040000017,None,419.96690530000024,None,419.96690530000024,420.4673749000003,,,,,,,,,,,,,,,,215,2022-05-11_16h38.07.809,FishGame,2022.1.1,60.06911552427202,
,26,넌 천진난만해,3,Green,B,4.958333333333334,4.833333333333333,ScrollUp,ScrollDown,Green.png,3,Neutral,Neutral,0,0,0,0,,,,,,,,,,,,,,,,,,,,,0,25,25,25,,,,,,,,,,,,,,,,,,,,,,,,,,,,,,,,,,,,,,,,,,,,,,,,,,,,,,,,,,,,,,,,,,,,,,,,,,,,,2,1.0336214999997537,421.11760360000017,None,ScrollUp,정답입니다,421.11760360000017,None,421.11760360000017,None,421.11760360000017,None,421.11760360000017,None,422.0210334000003,None,422.0210334000003,422.53361240000004,,,,,,,,,,,,,,,,215,2022-05-11_16h38.07.809,FishGame,2022.1.1,60.06911552427202,
,27,넌 교양없어,5,Orange,A,2.416666666666667,2.2,ScrollDown,ScrollUp,Orange.png,3,Negative,Incongruent,0,0,0,0,,,,,,,,,,,,,,,,,,,,,0,26,26,26,,,,,,,,,,,,,,,,,,,,,,,,,,,,,,,,,,,,,,,,,,,,,,,,,,,,,,,,,,,,,,,,,,,,,,,,,,,,,1,1.0613978999999745,423.20499610000024,None,ScrollDown,정답입니다,423.20499610000024,None,423.20499610000024,None,423.20499610000024,None,423.20499610000024,None,424.11685650000027,None,424.11685650000027,424.61685050000006,,,,,,,,,,,,,,,,215,2022-05-11_16h38.07.809,FishGame,2022.1.1,60.06911552427202,
,28,나를 보내줘,6,Orange,A,0,0,ScrollUp,ScrollDown,Orange.png,3,NonTarget,NonTarget,0,0,0,0,,,,,,,,,,,,,,,,,,,,,0,27,27,27,,,,,,,,,,,,,,,,,,,,,,,,,,,,,,,,,,,,,,,,,,,,,,,,,,,,,,,,,,,,,,,,,,,,,,,,,,,,,2,1.0956928000000516,425.2601955,None,ScrollUp,정답입니다,425.2601955,None,425.2601955,None,425.2601955,None,425.2601955,None,426.2331360000003,None,426.2331360000003,426.7331376000002,,,,,,,,,,,,,,,,215,2022-05-11_16h38.07.809,FishGame,2022.1.1,60.06911552427202,
,29,넌 엉뚱스러워,3,Orange,A,4.166666666666667,4.133333333333334,ScrollDown,ScrollUp,Orange.png,3,Neutral,Neutral,0,0,0,0,,,,,,,,,,,,,,,,,,,,,0,28,28,28,,,,,,,,,,,,,,,,,,,,,,,,,,,,,,,,,,,,,,,,,,,,,,,,,,,,,,,,,,,,,,,,,,,,,,,,,,,,,1,1.0894745999999031,427.3854002000003,None,ScrollDown,정답입니다,427.3854002000003,None,427.3854002000003,None,427.3854002000003,None,427.3854002000003,None,428.3496055999999,None,428.3496055999999,428.84954340000013,,,,,,,,,,,,,,,,215,2022-05-11_16h38.07.809,FishGame,2022.1.1,60.06911552427202,
,30,넌 무지해,4,Green,B,2.541666666666667,3.066666666666667,ScrollUp,ScrollDown,Green.png,3,Negative,Congruent,0,0,0,0,,,,,,,,,,,,,,,,,,,,,0,29,29,29,,,,,,,,,,,,,,,,,,,,,,,,,,,,,,,,,,,,,,,,,,,,,,,,,,,,,,,,,,,,,,,,,,,,,,,,,,,,,2,0.8852794000003996,429.4849799000003,None,ScrollUp,정답입니다,429.4849799000003,None,429.4849799000003,None,429.4849799000003,None,429.4849799000003,None,430.2540795,None,430.2540795,430.76585300000033,,,,,,,,,,,,,,,,215,2022-05-11_16h38.07.809,FishGame,2022.1.1,60.06911552427202,
,31,넌 음울해,5,Green,B,2.25,2.233333333333333,ScrollUp,ScrollDown,Green.png,3,Negative,Congruent,0,0,0,0,,,,,,,,,,,,,,,,,,,,,0,30,30,30,,,,,,,,,,,,,,,,,,,,,,,,,,,,,,,,,,,,,,,,,,,,,,,,,,,,,,,,,,,,,,,,,,,,,,,,,,,,,2,0.8203700999997636,431.4102538000002,None,ScrollUp,정답입니다,431.4102538000002,None,431.4102538000002,None,431.4102538000002,None,431.4102538000002,None,432.1138718000002,None,432.1138718000002,432.61572079999996,,,,,,,,,,,,,,,,215,2022-05-11_16h38.07.809,FishGame,2022.1.1,60.06911552427202,
,32,넌 냉소적이야,5,Orange,A,2.916666666666667,2.4,ScrollDown,ScrollUp,Orange.png,3,Negative,Incongruent,0,0,0,0,,,,,,,,,,,,,,,,,,,,,0,31,31,31,,,,,,,,,,,,,,,,,,,,,,,,,,,,,,,,,,,,,,,,,,,,,,,,,,,,,,,,,,,,,,,,,,,,,,,,,,,,,1,0.9786054000001059,433.26297079999995,None,ScrollDown,정답입니다,433.26297079999995,None,433.26297079999995,None,433.26297079999995,None,433.26297079999995,None,434.1157129000003,None,434.1157129000003,434.6154730000003,,,,,,,,,,,,,,,,215,2022-05-11_16h38.07.809,FishGame,2022.1.1,60.06911552427202,
,33,나를 데려가줘,6,Green,B,0,0,ScrollDown,ScrollUp,Green.png,3,NonTarget,NonTarget,0,0,0,0,,,,,,,,,,,,,,,,,,,,,0,32,32,32,,,,,,,,,,,,,,,,,,,,,,,,,,,,,,,,,,,,,,,,,,,,,,,,,,,,,,,,,,,,,,,,,,,,,,,,,,,,,1,1.193702999999914,435.2523993,None,ScrollDown,정답입니다,435.2523993,None,435.2523993,None,435.2523993,None,435.2523993,None,436.3318505000002,None,436.3318505000002,436.8318584000003,,,,,,,,,,,,,,,,215,2022-05-11_16h38.07.809,FishGame,2022.1.1,60.06911552427202,
,34,넌 쾌활해,1,Orange,A,5.541666666666666,5.733333333333333,ScrollDown,ScrollUp,Orange.png,3,Positive,Congruent,0,0,0,0,,,,,,,,,,,,,,,,,,,,,0,33,33,33,,,,,,,,,,,,,,,,,,,,,,,,,,,,,,,,,,,,,,,,,,,,,,,,,,,,,,,,,,,,,,,,,,,,,,,,,,,,,1.0185184975465138,1.354132099999788,437.4795964,None,ScrollDown,정답입니다,437.4795964,None,437.4795964,None,437.4795964,None,437.4795964,None,438.70593510000026,None,438.70593510000026,439.21495840000034,,,,,,,,,,,,,,,,215,2022-05-11_16h38.07.809,FishGame,2022.1.1,60.06911552427202,
,35,나를 보내줘,6,Orange,A,0,0,ScrollUp,ScrollDown,Orange.png,3,NonTarget,NonTarget,0,0,0,0,,,,,,,,,,,,,,,,,,,,,0,34,34,34,,,,,,,,,,,,,,,,,,,,,,,,,,,,,,,,,,,,,,,,,,,,,,,,,,,,,,,,,,,,,,,,,,,,,,,,,,,,,1.9274691144625347,0.9977472999999009,439.86090170000034,None,ScrollUp,정답입니다,439.86090170000034,None,439.86090170000034,None,439.86090170000034,None,439.86090170000034,None,440.7326656,None,440.7326656,441.2481952000003,,,,,,,,,,,,,,,,215,2022-05-11_16h38.07.809,FishGame,2022.1.1,60.06911552427202,
,36,넌 명랑해,1,Green,B,5.739130434782609,5.666666666666667,ScrollUp,ScrollDown,Green.png,3,Positive,Incongruent,0,0,0,0,,,,,,,,,,,,,,,,,,,,,0,35,35,35,,,,,,,,,,,,,,,,,,,,,,,,,,,,,,,,,,,,,,,,,,,,,,,,,,,,,,,,,,,,,,,,,,,,,,,,,,,,,2,1.100976400000036,441.8910847000002,None,ScrollUp,정답입니다,441.8910847000002,None,441.8910847000002,None,441.8910847000002,None,441.8910847000002,None,442.8691994999999,None,442.8691994999999,443.3811155000003,,,,,,,,,,,,,,,,215,2022-05-11_16h38.07.809,FishGame,2022.1.1,60.06911552427202,
,37,넌 멍해,4,Orange,A,2.833333333333333,3.4,ScrollDown,ScrollUp,Orange.png,3,Negative,Incongruent,0,0,0,0,,,,,,,,,,,,,,,,,,,,,0,36,36,36,,,,,,,,,,,,,,,,,,,,,,,,,,,,,,,,,,,,,,,,,,,,,,,,,,,,,,,,,,,,,,,,,,,,,,,,,,,,,1,1.1720710999998118,444.0326101999999,None,ScrollDown,정답입니다,444.0326101999999,None,444.0326101999999,None,444.0326101999999,None,444.0326101999999,None,445.0728250000002,None,445.0728250000002,445.58076770000025,,,,,,,,,,,,,,,,215,2022-05-11_16h38.07.809,FishGame,2022.1.1,60.06911552427202,
,38,나를 데려가줘,6,Green,B,0,0,ScrollDown,ScrollUp,Green.png,3,NonTarget,NonTarget,0,0,0,0,,,,,,,,,,,,,,,,,,,,,0,37,37,37,,,,,,,,,,,,,,,,,,,,,,,,,,,,,,,,,,,,,,,,,,,,,,,,,,,,,,,,,,,,,,,,,,,,,,,,,,,,,1.200617293516795,1.0317980999998326,446.2201378,None,ScrollDown,정답입니다,446.2201378,None,446.2201378,None,446.2201378,None,446.2201378,None,447.1338800000003,None,447.1338800000003,447.64718280000034,,,,,,,,,,,,,,,,215,2022-05-11_16h38.07.809,FishGame,2022.1.1,60.06911552427202,
,39,넌 현명해,2,Orange,A,6.541666666666666,4.533333333333333,ScrollDown,ScrollUp,Orange.png,3,Positive,Congruent,0,0,0,0,,,,,,,,,,,,,,,,,,,,,0,38,38,38,,,,,,,,,,,,,,,,,,,,,,,,,,,,,,,,,,,,,,,,,,,,,,,,,,,,,,,,,,,,,,,,,,,,,,,,,,,,,1,0.9836865999996007,448.29077210000014,None,ScrollDown,정답입니다,448.29077210000014,None,448.29077210000014,None,448.29077210000014,None,448.29077210000014,None,449.1519350000003,None,449.1519350000003,449.6634941000002,,,,,,,,,,,,,,,,215,2022-05-11_16h38.07.809,FishGame,2022.1.1,60.06911552427202,
,40,넌 수줍어,3,Green,B,3.541666666666666,4.366666666666666,ScrollUp,ScrollDown,Green.png,3,Neutral,Neutral,0,0,0,0,,,,,,,,,,,,,,,,,,,,,0,39,39,39,,,,,,,,,,,,,,,,,,,,,,,,,,,,,,,,,,,,,,,,,,,,,,,,,,,,,,,,,,,,,,,,,,,,,,,,,,,,,1.9444444676240284,1.1948824999999488,450.31436950000034,None,ScrollUp,정답입니다,450.31436950000034,None,450.31436950000034,None,450.31436950000034,None,450.31436950000034,None,451.3800013,None,451.3800013,451.8799247000002,,,,,,,,,,,,,,,,215,2022-05-11_16h38.07.809,FishGame,2022.1.1,60.06911552427202,
,41,나를 데려가줘,6,Green,B,0,0,ScrollDown,ScrollUp,Green.png,3,NonTarget,NonTarget,0,0,0,0,,,,,,,,,,,,,,,,,,,,,0,40,40,40,,,,,,,,,,,,,,,,,,,,,,,,,,,,,,,,,,,,,,,,,,,,,,,,,,,,,,,,,,,,,,,,,,,,,,,,,,,,,1,1.0011664999997265,452.5172792000003,None,ScrollDown,정답입니다,452.5172792000003,None,452.5172792000003,None,452.5172792000003,None,452.5172792000003,None,453.40122569999994,None,453.40122569999994,453.9129766000001,,,,,,,,,,,,,,,,215,2022-05-11_16h38.07.809,FishGame,2022.1.1,60.06911552427202,
,42,넌 성숙해,2,Green,B,5.833333333333333,4.533333333333333,ScrollUp,ScrollDown,Green.png,3,Positive,Incongruent,0,0,0,0,,,,,,,,,,,,,,,,,,,,,0,41,41,41,,,,,,,,,,,,,,,,,,,,,,,,,,,,,,,,,,,,,,,,,,,,,,,,,,,,,,,,,,,,,,,,,,,,,,,,,,,,,2,1.0123849999999948,454.5489136000001,None,ScrollUp,정답입니다,454.5489136000001,None,454.5489136000001,None,454.5489136000001,None,454.5489136000001,None,455.4461618,None,455.4461618,455.94618579999997,,,,,,,,,,,,,,,,215,2022-05-11_16h38.07.809,FishGame,2022.1.1,60.06911552427202,
,1,넌 매력적이야,2,Green,B,6.125,4.666666666666667,ScrollUp,ScrollDown,Green.png,4,Positive,Incongruent,0,0,0,0,,,,,,,,,,,,,,,,,,,,,,,,,0,0,0,0,,,,,,,,,,,,,,,,,,,,,,,,,,,,,,,,487.79214900000034,489.2919022000001,489.3251226000002,490.2750567000003,490.3250320000002,491.2749127000002,491.2749127000002,None,,,,,,,,,,,,,,,,,,,,,,,,,,,,,,,,,,2,1.1589826999997968,492.4546634000003,None,ScrollUp,정답입니다,492.4546634000003,None,492.4546634000003,None,492.4546634000003,None,492.4546634000003,None,493.4410777000003,None,493.4410777000003,493.9410788,456.4461136,None,456.4461136,None,-0.12314815,-0.25277779,1,0,0,0.016266739999537094,None,486.45882840000013,None,,,215,2022-05-11_16h38.07.809,FishGame,2022.1.1,60.06911552427202,
,2,나를 보내줘,6,Orange,A,0,0,ScrollUp,ScrollDown,Orange.png,4,NonTarget,NonTarget,0,0,0,0,,,,,,,,,,,,,,,,,,,,,,,,,0,1,1,1,,,,,,,,,,,,,,,,,,,,,,,,,,,,,,,,,,,,,,,,,,,,,,,,,,,,,,,,,,,,,,,,,,,,,,,,,2,1.1430297000001701,494.5922190000001,None,ScrollUp,정답입니다,494.5922190000001,None,494.5922190000001,None,494.5922190000001,None,494.5922190000001,None,495.60755180000024,None,495.60755180000024,496.1076922000002,,,,,,,,,,,,,,,,215,2022-05-11_16h38.07.809,FishGame,2022.1.1,60.06911552427202,
,3,넌 조심스러워,3,Orange,A,4.791666666666666,4.666666666666667,ScrollDown,ScrollUp,Orange.png,4,Neutral,Neutral,0,0,0,0,,,,,,,,,,,,,,,,,,,,,,,,,0,2,2,2,,,,,,,,,,,,,,,,,,,,,,,,,,,,,,,,,,,,,,,,,,,,,,,,,,,,,,,,,,,,,,,,,,,,,,,,,1,1.0675919999998769,496.75204410000015,None,ScrollDown,정답입니다,496.75204410000015,None,496.75204410000015,None,496.75204410000015,None,496.75204410000015,None,497.6961974000001,None,497.6961974000001,498.20719439999993,,,,,,,,,,,,,,,,215,2022-05-11_16h38.07.809,FishGame,2022.1.1,60.06911552427202,
,4,넌 철학적이야,3,Green,B,4.5,4.266666666666667,ScrollUp,ScrollDown,Green.png,4,Neutral,Neutral,0,0,0,0,,,,,,,,,,,,,,,,,,,,,,,,,0,3,3,3,,,,,,,,,,,,,,,,,,,,,,,,,,,,,,,,,,,,,,,,,,,,,,,,,,,,,,,,,,,,,,,,,,,,,,,,,1.9768518606821697,0.9141435999999885,498.8550141999999,None,ScrollUp,정답입니다,498.8550141999999,None,498.8550141999999,None,498.8550141999999,None,498.8550141999999,None,499.6424970000003,None,499.6424970000003,500.1570647000003,,,,,,,,,,,,,,,,215,2022-05-11_16h38.07.809,FishGame,2022.1.1,60.06911552427202,
,5,넌 쩨쩨해,5,Orange,A,2.375,2.133333333333333,ScrollDown,ScrollUp,Orange.png,4,Negative,Incongruent,0,0,0,0,,,,,,,,,,,,,,,,,,,,,,,,,0,4,4,4,,,,,,,,,,,,,,,,,,,,,,,,,,,,,,,,,,,,,,,,,,,,,,,,,,,,,,,,,,,,,,,,,,,,,,,,,1,1.0268410999997286,500.8048068000003,None,ScrollDown,정답입니다,500.8048068000003,None,500.8048068000003,None,500.8048068000003,None,500.8048068000003,None,501.7067552000003,None,501.7067552000003,502.20694010000034,,,,,,,,,,,,,,,,215,2022-05-11_16h38.07.809,FishGame,2022.1.1,60.06911552427202,
,6,나를 데려가줘,6,Green,B,0,0,ScrollDown,ScrollUp,Green.png,4,NonTarget,NonTarget,0,0,0,0,,,,,,,,,,,,,,,,,,,,,,,,,0,5,5,5,,,,,,,,,,,,,,,,,,,,,,,,,,,,,,,,,,,,,,,,,,,,,,,,,,,,,,,,,,,,,,,,,,,,,,,,,1,0.9605719999999565,502.8475991,None,ScrollDown,정답입니다,502.8475991,None,502.8475991,None,502.8475991,None,502.8475991,None,503.68989899999997,None,503.68989899999997,504.18984610000007,,,,,,,,,,,,,,,,215,2022-05-11_16h38.07.809,FishGame,2022.1.1,60.06911552427202,
,7,넌 고집불통이야,5,Green,B,2.875,2,ScrollUp,ScrollDown,Green.png,4,Negative,Congruent,0,0,0,0,,,,,,,,,,,,,,,,,,,,,,,,,0,6,6,6,,,,,,,,,,,,,,,,,,,,,,,,,,,,,,,,,,,,,,,,,,,,,,,,,,,,,,,,,,,,,,,,,,,,,,,,,2,0.9987391999998181,504.83535500000016,None,ScrollUp,정답입니다,504.83535500000016,None,504.83535500000016,None,504.83535500000016,None,504.83535500000016,None,505.70936500000016,None,505.70936500000016,506.22302119999995,,,,,,,,,,,,,,,,215,2022-05-11_16h38.07.809,FishGame,2022.1.1,60.06911552427202,
,8,넌 무심해,4,Orange,A,2.875,3.2,ScrollDown,ScrollUp,Orange.png,4,Negative,Incongruent,0,0,0,0,,,,,,,,,,,,,,,,,,,,,,,,,0,7,7,7,,,,,,,,,,,,,,,,,,,,,,,,,,,,,,,,,,,,,,,,,,,,,,,,,,,,,,,,,,,,,,,,,,,,,,,,,1,0.9349637000000257,506.86681350000026,None,ScrollDown,정답입니다,506.86681350000026,None,506.86681350000026,None,506.86681350000026,None,506.86681350000026,None,507.6787890999999,None,507.6787890999999,508.18948320000027,,,,,,,,,,,,,,,,215,2022-05-11_16h38.07.809,FishGame,2022.1.1,60.06911552427202,
,9,넌 정겨워,1,Orange,A,5.791666666666667,5.666666666666667,ScrollDown,ScrollUp,Orange.png,4,Positive,Congruent,0,0,0,0,,,,,,,,,,,,,,,,,,,,,,,,,0,8,8,8,,,,,,,,,,,,,,,,,,,,,,,,,,,,,,,,,,,,,,,,,,,,,,,,,,,,,,,,,,,,,,,,,,,,,,,,,1,0.9566823000000113,508.8440694000001,None,ScrollDown,정답입니다,508.8440694000001,None,508.8440694000001,None,508.8440694000001,None,508.8440694000001,None,509.67242209999995,None,509.67242209999995,510.17248010000003,,,,,,,,,,,,,,,,215,2022-05-11_16h38.07.809,FishGame,2022.1.1,60.06911552427202,
,10,나를 데려가줘,6,Green,B,0,0,ScrollDown,ScrollUp,Green.png,4,NonTarget,NonTarget,0,0,0,0,,,,,,,,,,,,,,,,,,,,,,,,,0,9,9,9,,,,,,,,,,,,,,,,,,,,,,,,,,,,,,,,,,,,,,,,,,,,,,,,,,,,,,,,,,,,,,,,,,,,,,,,,1,1.0037195999998403,510.8094289999999,None,ScrollDown,정답입니다,510.8094289999999,None,510.8094289999999,None,510.8094289999999,None,510.8094289999999,None,511.6967936000001,None,511.6967936000001,512.2055535,,,,,,,,,,,,,,,,215,2022-05-11_16h38.07.809,FishGame,2022.1.1,60.06911552427202,
,11,넌 체제순응적이야,4,Green,B,3,3.6,ScrollUp,ScrollDown,Green.png,4,Negative,Congruent,0,0,0,0,,,,,,,,,,,,,,,,,,,,,,,,,0,10,10,10,,,,,,,,,,,,,,,,,,,,,,,,,,,,,,,,,,,,,,,,,,,,,,,,,,,,,,,,,,,,,,,,,,,,,,,,,2,0.9853536999999051,512.8599515999999,None,ScrollUp,정답입니다,512.8599515999999,None,512.8599515999999,None,512.8599515999999,None,512.8599515999999,None,513.7100359000001,None,513.7100359000001,514.2219841000001,,,,,,,,,,,,,,,,215,2022-05-11_16h38.07.809,FishGame,2022.1.1,60.06911552427202,
,12,나를 보내줘,6,Orange,A,0,0,ScrollUp,ScrollDown,Orange.png,4,NonTarget,NonTarget,0,0,0,0,,,,,,,,,,,,,,,,,,,,,,,,,0,11,11,11,,,,,,,,,,,,,,,,,,,,,,,,,,,,,,,,,,,,,,,,,,,,,,,,,,,,,,,,,,,,,,,,,,,,,,,,,2,1.2096373999997923,514.8690314,None,ScrollUp,정답입니다,514.8690314,None,514.8690314,None,514.8690314,None,514.8690314,None,515.9549776000003,None,515.9549776000003,516.4548692000003,,,,,,,,,,,,,,,,215,2022-05-11_16h38.07.809,FishGame,2022.1.1,60.06911552427202,
,13,넌 박식해,2,Orange,A,5.625,3.933333333333333,ScrollDown,ScrollUp,Orange.png,4,Positive,Congruent,0,0,0,0,,,,,,,,,,,,,,,,,,,,,,,,,0,12,12,12,,,,,,,,,,,,,,,,,,,,,,,,,,,,,,,,,,,,,,,,,,,,,,,,,,,,,,,,,,,,,,,,,,,,,,,,,1.0277777810891469,1.0514278000000559,517.1358422000003,None,ScrollDown,정답입니다,517.1358422000003,None,517.1358422000003,None,517.1358422000003,None,517.1358422000003,None,518.0304324000003,None,518.0304324000003,518.5380838000001,,,,,,,,,,,,,,,,215,2022-05-11_16h38.07.809,FishGame,2022.1.1,60.06911552427202,
,14,나를 보내줘,6,Orange,A,0,0,ScrollUp,ScrollDown,Orange.png,4,NonTarget,NonTarget,0,0,0,0,,,,,,,,,,,,,,,,,,,,,,,,,0,13,13,13,,,,,,,,,,,,,,,,,,,,,,,,,,,,,,,,,,,,,,,,,,,,,,,,,,,,,,,,,,,,,,,,,,,,,,,,,2,0.9929917999997997,519.1848293000003,None,ScrollUp,정답입니다,519.1848293000003,None,519.1848293000003,None,519.1848293000003,None,519.1848293000003,None,520.0545382,None,520.0545382,520.5543035999999,,,,,,,,,,,,,,,,215,2022-05-11_16h38.07.809,FishGame,2022.1.1,60.06911552427202,
,15,넌 침착해,1,Green,B,5.458333333333333,5.566666666666666,ScrollUp,ScrollDown,Green.png,4,Positive,Incongruent,0,0,0,0,,,,,,,,,,,,,,,,,,,,,,,,,0,14,14,14,,,,,,,,,,,,,,,,,,,,,,,,,,,,,,,,,,,,,,,,,,,,,,,,,,,,,,,,,,,,,,,,,,,,,,,,,2,1.0717620999998871,521.2018720000001,None,ScrollUp,정답입니다,521.2018720000001,None,521.2018720000001,None,521.2018720000001,None,521.2018720000001,None,522.1521215000002,None,522.1521215000002,522.6542021,,,,,,,,,,,,,,,,215,2022-05-11_16h38.07.809,FishGame,2022.1.1,60.06911552427202,
,16,나를 데려가줘,6,Green,B,0,0,ScrollDown,ScrollUp,Green.png,4,NonTarget,NonTarget,0,0,0,0,,,,,,,,,,,,,,,,,,,,,,,,,0,15,15,15,,,,,,,,,,,,,,,,,,,,,,,,,,,,,,,,,,,,,,,,,,,,,,,,,,,,,,,,,,,,,,,,,,,,,,,,,1,1.0950410000000375,523.294163,None,ScrollDown,정답입니다,523.294163,None,523.294163,None,523.294163,None,523.294163,None,524.2704400000002,None,524.2704400000002,524.7706515,,,,,,,,,,,,,,,,215,2022-05-11_16h38.07.809,FishGame,2022.1.1,60.06911552427202,
,17,넌 행복해,1,Orange,A,6.416666666666666,6.166666666666667,ScrollDown,ScrollUp,Orange.png,4,Positive,Congruent,0,0,0,0,,,,,,,,,,,,,,,,,,,,,,,,,0,16,16,16,,,,,,,,,,,,,,,,,,,,,,,,,,,,,,,,,,,,,,,,,,,,,,,,,,,,,,,,,,,,,,,,,,,,,,,,,1,1.047866100000192,525.4259963,None,ScrollDown,정답입니다,525.4259963,None,525.4259963,None,525.4259963,None,525.4259963,None,526.3392262000002,None,526.3392262000002,526.8536189000001,,,,,,,,,,,,,,,,215,2022-05-11_16h38.07.809,FishGame,2022.1.1,60.06911552427202,
,18,넌 겸손해,2,Green,B,5.791666666666667,4.766666666666667,ScrollUp,ScrollDown,Green.png,4,Positive,Incongruent,0,0,0,0,,,,,,,,,,,,,,,,,,,,,,,,,0,17,17,17,,,,,,,,,,,,,,,,,,,,,,,,,,,,,,,,,,,,,,,,,,,,,,,,,,,,,,,,,,,,,,,,,,,,,,,,,1.9768518606821697,1.0313251999996282,527.4978254000002,None,ScrollUp,정답입니다,527.4978254000002,None,527.4978254000002,None,527.4978254000002,None,527.4978254000002,None,528.4055456000001,None,528.4055456000001,528.9201301000003,,,,,,,,,,,,,,,,215,2022-05-11_16h38.07.809,FishGame,2022.1.1,60.06911552427202,
,19,나를 보내줘,6,Orange,A,0,0,ScrollUp,ScrollDown,Orange.png,4,NonTarget,NonTarget,0,0,0,0,,,,,,,,,,,,,,,,,,,,,,,,,0,18,18,18,,,,,,,,,,,,,,,,,,,,,,,,,,,,,,,,,,,,,,,,,,,,,,,,,,,,,,,,,,,,,,,,,,,,,,,,,1.8858024626970291,1.1506264999998166,529.5633447,None,ScrollUp,정답입니다,529.5633447,None,529.5633447,None,529.5633447,None,529.5633447,None,530.5910526000002,None,530.5910526000002,531.1031716000002,,,,,,,,,,,,,,,,215,2022-05-11_16h38.07.809,FishGame,2022.1.1,60.06911552427202,
,20,넌 의심없어,3,Orange,A,4.166666666666667,4.6,ScrollDown,ScrollUp,Orange.png,4,Neutral,Neutral,0,0,0,0,,,,,,,,,,,,,,,,,,,,,,,,,0,19,19,19,,,,,,,,,,,,,,,,,,,,,,,,,,,,,,,,,,,,,,,,,,,,,,,,,,,,,,,,,,,,,,,,,,,,,,,,,1.1712963034709294,1.039234100000158,531.7496754000003,None,ScrollDown,정답입니다,531.7496754000003,None,531.7496754000003,None,531.7496754000003,None,531.7496754000003,None,532.6694499,None,532.6694499,533.1693826000001,,,,,,,,,,,,,,,,215,2022-05-11_16h38.07.809,FishGame,2022.1.1,60.06911552427202,
,21,넌 시시해,4,Orange,A,2.666666666666667,2.966666666666667,ScrollDown,ScrollUp,Orange.png,4,Negative,Incongruent,0,0,0,0,,,,,,,,,,,,,,,,,,,,,,,,,0,20,20,20,,,,,,,,,,,,,,,,,,,,,,,,,,,,,,,,,,,,,,,,,,,,,,,,,,,,,,,,,,,,,,,,,,,,,,,,,1,1.076809400000002,533.8120386,None,ScrollDown,정답입니다,533.8120386,None,533.8120386,None,533.8120386,None,533.8120386,None,534.7646749,None,534.7646749,535.2692665,,,,,,,,,,,,,,,,215,2022-05-11_16h38.07.809,FishGame,2022.1.1,60.06911552427202,
,22,나를 데려가줘,6,Green,B,0,0,ScrollDown,ScrollUp,Green.png,4,NonTarget,NonTarget,0,0,0,0,,,,,,,,,,,,,,,,,,,,,,,,,0,21,21,21,,,,,,,,,,,,,,,,,,,,,,,,,,,,,,,,,,,,,,,,,,,,,,,,,,,,,,,,,,,,,,,,,,,,,,,,,1,1.0326507000004312,535.9108000000001,None,ScrollDown,정답입니다,535.9108000000001,None,535.9108000000001,None,535.9108000000001,None,535.9108000000001,None,536.8228041000002,None,536.8228041000002,537.3356272000001,,,,,,,,,,,,,,,,215,2022-05-11_16h38.07.809,FishGame,2022.1.1,60.06911552427202,
,23,넌 무정해,5,Orange,A,2.5,2.2,ScrollDown,ScrollUp,Orange.png,4,Negative,Incongruent,0,0,0,0,,,,,,,,,,,,,,,,,,,,,,,,,0,22,22,22,,,,,,,,,,,,,,,,,,,,,,,,,,,,,,,,,,,,,,,,,,,,,,,,,,,,,,,,,,,,,,,,,,,,,,,,,1,0.9203782999998111,537.976889,None,ScrollDown,정답입니다,537.976889,None,537.976889,None,537.976889,None,537.976889,None,538.7761475000002,None,538.7761475000002,539.2854957,,,,,,,,,,,,,,,,215,2022-05-11_16h38.07.809,FishGame,2022.1.1,60.06911552427202,
,24,넌 긍정적이야,1,Green,B,6.041666666666667,6.066666666666666,ScrollUp,ScrollDown,Green.png,4,Positive,Incongruent,0,0,0,0,,,,,,,,,,,,,,,,,,,,,,,,,0,23,23,23,,,,,,,,,,,,,,,,,,,,,,,,,,,,,,,,,,,,,,,,,,,,,,,,,,,,,,,,,,,,,,,,,,,,,,,,,2,1.0311994999997296,539.9346317,None,ScrollUp,정답입니다,539.9346317,None,539.9346317,None,539.9346317,None,539.9346317,None,540.8366384999999,None,540.8366384999999,541.3519227000002,,,,,,,,,,,,,,,,215,2022-05-11_16h38.07.809,FishGame,2022.1.1,60.06911552427202,
,25,나를 보내줘,6,Orange,A,0,0,ScrollUp,ScrollDown,Orange.png,4,NonTarget,NonTarget,0,0,0,0,,,,,,,,,,,,,,,,,,,,,,,,,0,24,24,24,,,,,,,,,,,,,,,,,,,,,,,,,,,,,,,,,,,,,,,,,,,,,,,,,,,,,,,,,,,,,,,,,,,,,,,,,2,1.05608409999968,541.998192,None,ScrollUp,정답입니다,541.998192,None,541.998192,None,541.998192,None,541.998192,None,542.9329567,None,542.9329567,543.4348871000002,,,,,,,,,,,,,,,,215,2022-05-11_16h38.07.809,FishGame,2022.1.1,60.06911552427202,
,26,넌 시기심이 많아,5,Green,B,2.458333333333333,2.233333333333333,ScrollUp,ScrollDown,Green.png,4,Negative,Congruent,0,0,0,0,,,,,,,,,,,,,,,,,,,,,,,,,0,25,25,25,,,,,,,,,,,,,,,,,,,,,,,,,,,,,,,,,,,,,,,,,,,,,,,,,,,,,,,,,,,,,,,,,,,,,,,,,1.9953703780968983,1.1400166000003082,544.0873145,None,ScrollUp,정답입니다,544.0873145,None,544.0873145,None,544.0873145,None,544.0873145,None,545.0993383,None,545.0993383,545.6010587000001,,,,,,,,,,,,,,,,215,2022-05-11_16h38.07.809,FishGame,2022.1.1,60.06911552427202,
,27,넌 탁월해,2,Orange,A,5.708333333333334,4.5,ScrollDown,ScrollUp,Orange.png,4,Positive,Congruent,0,0,0,0,,,,,,,,,,,,,,,,,,,,,,,,,0,26,26,26,,,,,,,,,,,,,,,,,,,,,,,,,,,,,,,,,,,,,,,,,,,,,,,,,,,,,,,,,,,,,,,,,,,,,,,,,1.1373456716537476,0.9174990999999864,546.2524584000003,None,ScrollDown,정답입니다,546.2524584000003,None,546.2524584000003,None,546.2524584000003,None,546.2524584000003,None,547.0398273000001,None,547.0398273000001,547.5509634,,,,,,,,,,,,,,,,215,2022-05-11_16h38.07.809,FishGame,2022.1.1,60.06911552427202,
,28,나를 데려가줘,6,Green,B,0,0,ScrollDown,ScrollUp,Green.png,4,NonTarget,NonTarget,0,0,0,0,,,,,,,,,,,,,,,,,,,,,,,,,0,27,27,27,,,,,,,,,,,,,,,,,,,,,,,,,,,,,,,,,,,,,,,,,,,,,,,,,,,,,,,,,,,,,,,,,,,,,,,,,1.0663580298423767,1.0338596999999936,548.1959962999999,None,ScrollDown,정답입니다,548.1959962999999,None,548.1959962999999,None,548.1959962999999,None,548.1959962999999,None,549.1056057999999,None,549.1056057999999,549.6174653000003,,,,,,,,,,,,,,,,215,2022-05-11_16h38.07.809,FishGame,2022.1.1,60.06911552427202,
,29,넌 조용해,3,Green,B,4.333333333333333,4.166666666666667,ScrollUp,ScrollDown,Green.png,4,Neutral,Neutral,0,0,0,0,,,,,,,,,,,,,,,,,,,,,,,,,0,28,28,28,,,,,,,,,,,,,,,,,,,,,,,,,,,,,,,,,,,,,,,,,,,,,,,,,,,,,,,,,,,,,,,,,,,,,,,,,2,1.1002386000000115,550.2591595000004,None,ScrollUp,정답입니다,550.2591595000004,None,550.2591595000004,None,550.2591595000004,None,550.2591595000004,None,551.2381511000003,None,551.2381511000003,551.75045,,,,,,,,,,,,,,,,215,2022-05-11_16h38.07.809,FishGame,2022.1.1,60.06911552427202,
,30,넌 다정해,1,Orange,A,5.833333333333334,5.7,ScrollDown,ScrollUp,Orange.png,4,Positive,Congruent,0,0,0,0,,,,,,,,,,,,,,,,,,,,,,,,,0,29,29,29,,,,,,,,,,,,,,,,,,,,,,,,,,,,,,,,,,,,,,,,,,,,,,,,,,,,,,,,,,,,,,,,,,,,,,,,,1.120370368162791,0.9731751999997869,552.4010554000001,None,ScrollDown,정답입니다,552.4010554000001,None,552.4010554000001,None,552.4010554000001,None,552.4010554000001,None,553.2504765000003,None,553.2504765000003,553.7502910000003,,,,,,,,,,,,,,,,215,2022-05-11_16h38.07.809,FishGame,2022.1.1,60.06911552427202,
,31,넌 능력있어,2,Green,B,6.166666666666666,4.6,ScrollUp,ScrollDown,Green.png,4,Positive,Incongruent,0,0,0,0,,,,,,,,,,,,,,,,,,,,,,,,,0,30,30,30,,,,,,,,,,,,,,,,,,,,,,,,,,,,,,,,,,,,,,,,,,,,,,,,,,,,,,,,,,,,,,,,,,,,,,,,,1.9783950746059418,0.9615840000001299,554.3872326999999,None,ScrollUp,정답입니다,554.3872326999999,None,554.3872326999999,None,554.3872326999999,None,554.3872326999999,None,555.2332743000002,None,555.2332743000002,555.7331361000001,,,,,,,,,,,,,,,,215,2022-05-11_16h38.07.809,FishGame,2022.1.1,60.06911552427202,
,32,넌 불쾌해,5,Orange,A,2.125,1.933333333333333,ScrollDown,ScrollUp,Orange.png,4,Negative,Incongruent,0,0,0,0,,,,,,,,,,,,,,,,,,,,,,,,,0,31,31,31,,,,,,,,,,,,,,,,,,,,,,,,,,,,,,,,,,,,,,,,,,,,,,,,,,,,,,,,,,,,,,,,,,,,,,,,,1.0138889054457347,0.9675806000000193,556.3765937000003,None,ScrollDown,정답입니다,556.3765937000003,None,556.3765937000003,None,556.3765937000003,None,556.3765937000003,None,557.2209627000002,None,557.2209627000002,557.7329835,,,,,,,,,,,,,,,,215,2022-05-11_16h38.07.809,FishGame,2022.1.1,60.06911552427202,
,33,나를 데려가줘,6,Green,B,0,0,ScrollDown,ScrollUp,Green.png,4,NonTarget,NonTarget,0,0,0,0,,,,,,,,,,,,,,,,,,,,,,,,,0,32,32,32,,,,,,,,,,,,,,,,,,,,,,,,,,,,,,,,,,,,,,,,,,,,,,,,,,,,,,,,,,,,,,,,,,,,,,,,,1,1.0285211000000345,558.3754075000002,None,ScrollDown,정답입니다,558.3754075000002,None,558.3754075000002,None,558.3754075000002,None,558.3754075000002,None,559.2827645000002,None,559.2827645000002,559.7827289000002,,,,,,,,,,,,,,,,215,2022-05-11_16h38.07.809,FishGame,2022.1.1,60.06911552427202,
,34,넌 유순해,3,Orange,A,4.458333333333333,5,ScrollDown,ScrollUp,Orange.png,4,Neutral,Neutral,0,0,0,0,,,,,,,,,,,,,,,,,,,,,,,,,0,33,33,33,,,,,,,,,,,,,,,,,,,,,,,,,,,,,,,,,,,,,,,,,,,,,,,,,,,,,,,,,,,,,,,,,,,,,,,,,1,1.0653134999997746,560.4242687000001,None,ScrollDown,정답입니다,560.4242687000001,None,560.4242687000001,None,560.4242687000001,None,560.4242687000001,None,561.36897,None,561.36897,561.8825798000003,,,,,,,,,,,,,,,,215,2022-05-11_16h38.07.809,FishGame,2022.1.1,60.06911552427202,
,35,넌 근심스러워,4,Green,B,2.708333333333333,3.133333333333333,ScrollUp,ScrollDown,Green.png,4,Negative,Congruent,0,0,0,0,,,,,,,,,,,,,,,,,,,,,,,,,0,34,34,34,,,,,,,,,,,,,,,,,,,,,,,,,,,,,,,,,,,,,,,,,,,,,,,,,,,,,,,,,,,,,,,,,,,,,,,,,1.9814815024534862,0.9885534000000007,562.5269653,None,ScrollUp,정답입니다,562.5269653,None,562.5269653,None,562.5269653,None,562.5269653,None,563.3906472000003,None,563.3906472000003,563.8988957000001,,,,,,,,,,,,,,,,215,2022-05-11_16h38.07.809,FishGame,2022.1.1,60.06911552427202,
,36,넌 세련되었어,2,Orange,A,5.5,4.6,ScrollDown,ScrollUp,Orange.png,4,Positive,Congruent,0,0,0,0,,,,,,,,,,,,,,,,,,,,,,,,,0,35,35,35,,,,,,,,,,,,,,,,,,,,,,,,,,,,,,,,,,,,,,,,,,,,,,,,,,,,,,,,,,,,,,,,,,,,,,,,,1.0509259402751923,1.2506125999998403,564.5602964,None,ScrollDown,정답입니다,564.5602964,None,564.5602964,None,564.5602964,None,564.5602964,None,565.6717801,None,565.6717801,566.1822119000003,,,,,,,,,,,,,,,,215,2022-05-11_16h38.07.809,FishGame,2022.1.1,60.06911552427202,
,37,나를 보내줘,6,Orange,A,0,0,ScrollUp,ScrollDown,Orange.png,4,NonTarget,NonTarget,0,0,0,0,,,,,,,,,,,,,,,,,,,,,,,,,0,36,36,36,,,,,,,,,,,,,,,,,,,,,,,,,,,,,,,,,,,,,,,,,,,,,,,,,,,,,,,,,,,,,,,,,,,,,,,,,1.9012345770994823,1.1012589000001753,566.8246471000002,None,ScrollUp,정답입니다,566.8246471000002,None,566.8246471000002,None,566.8246471000002,None,566.8246471000002,None,567.8034682000002,None,567.8034682000002,568.3149524,,,,,,,,,,,,,,,,215,2022-05-11_16h38.07.809,FishGame,2022.1.1,60.06911552427202,
,38,넌 확고해,3,Green,B,4.708333333333334,4.566666666666666,ScrollUp,ScrollDown,Green.png,4,Neutral,Neutral,0,0,0,0,,,,,,,,,,,,,,,,,,,,,,,,,0,37,37,37,,,,,,,,,,,,,,,,,,,,,,,,,,,,,,,,,,,,,,,,,,,,,,,,,,,,,,,,,,,,,,,,,,,,,,,,,1.8225308656692505,1.0669196000003467,568.9640695000003,None,ScrollUp,정답입니다,568.9640695000003,None,568.9640695000003,None,568.9640695000003,None,568.9640695000003,None,569.9024192000002,None,569.9024192000002,570.4145887,,,,,,,,,,,,,,,,215,2022-05-11_16h38.07.809,FishGame,2022.1.1,60.06911552427202,
,39,넌 이해심이 많아,1,Green,B,6.041666666666668,5.533333333333333,ScrollUp,ScrollDown,Green.png,4,Positive,Incongruent,0,0,0,0,,,,,,,,,,,,,,,,,,,,,,,,,0,38,38,38,,,,,,,,,,,,,,,,,,,,,,,,,,,,,,,,,,,,,,,,,,,,,,,,,,,,,,,,,,,,,,,,,,,,,,,,,1.9120370248953502,0.9842140999999174,571.0577475,None,ScrollUp,정답입니다,571.0577475,None,571.0577475,None,571.0577475,None,571.0577475,None,571.9194007000001,None,571.9194007000001,572.4311894000002,,,,,,,,,,,,,,,,215,2022-05-11_16h38.07.809,FishGame,2022.1.1,60.06911552427202,
,40,나를 보내줘,6,Orange,A,0,0,ScrollUp,ScrollDown,Orange.png,4,NonTarget,NonTarget,0,0,0,0,,,,,,,,,,,,,,,,,,,,,,,,,0,39,39,39,,,,,,,,,,,,,,,,,,,,,,,,,,,,,,,,,,,,,,,,,,,,,,,,,,,,,,,,,,,,,,,,,,,,,,,,,2,1.0701202000000194,573.0743637,None,ScrollUp,정답입니다,573.0743637,None,573.0743637,None,573.0743637,None,573.0743637,None,574.0289029999999,None,574.0289029999999,574.5311224000002,,,,,,,,,,,,,,,,215,2022-05-11_16h38.07.809,FishGame,2022.1.1,60.06911552427202,
,41,넌 거칠어,4,Orange,A,2.625,3.033333333333333,ScrollDown,ScrollUp,Orange.png,4,Negative,Incongruent,0,0,0,0,,,,,,,,,,,,,,,,,,,,,,,,,0,40,40,40,,,,,,,,,,,,,,,,,,,,,,,,,,,,,,,,,,,,,,,,,,,,,,,,,,,,,,,,,,,,,,,,,,,,,,,,,1,0.9205941000000166,575.1814711000002,None,ScrollDown,정답입니다,575.1814711000002,None,575.1814711000002,None,575.1814711000002,None,575.1814711000002,None,575.9709793000002,None,575.9709793000002,576.4806957000001,,,,,,,,,,,,,,,,215,2022-05-11_16h38.07.809,FishGame,2022.1.1,60.06911552427202,
,42,넌 변덕맞아,5,Green,B,2.75,2.166666666666667,ScrollUp,ScrollDown,Green.png,4,Negative,Congruent,0,0,0,0,,,,,,,,,,,,,,,,,,,,,,,,,0,41,41,41,,,,,,,,,,,,,,,,,,,,,,,,,,,,,,,,,,,,,,,,,,,,,,,,,,,,,,,,,,,,,,,,,,,,,,,,,2,1.0320499999997992,577.1279172,None,ScrollUp,정답입니다,577.1279172,None,577.1279172,None,577.1279172,None,577.1279172,None,578.0329509000003,None,578.0329509000003,578.5471097,,,,,,,,,,,,,,,,215,2022-05-11_16h38.07.809,FishGame,2022.1.1,60.06911552427202,
,43,나를 데려가줘,6,Green,B,0,0,ScrollDown,ScrollUp,Green.png,4,NonTarget,NonTarget,0,0,0,0,,,,,,,,,,,,,,,,,,,,,,,,,0,42,42,42,,,,,,,,,,,,,,,,,,,,,,,,,,,,,,,,,,,,,,,,,,,,,,,,,,,,,,,,,,,,,,,,,,,,,,,,,1,1.1953560000001744,579.1856381000002,None,ScrollDown,정답입니다,579.1856381000002,None,579.1856381000002,None,579.1856381000002,None,579.1856381000002,None,580.2630091999999,None,580.2630091999999,580.7634168,,,,,,,,,,,,,,,,215,2022-05-11_16h38.07.809,FishGame,2022.1.1,60.06911552427202,
,44,넌 외로워,4,Green,B,2.833333333333333,3.3,ScrollUp,ScrollDown,Green.png,4,Negative,Congruent,0,0,0,0,,,,,,,,,,,,,,,,,,,,,,,,,0,43,43,43,,,,,,,,,,,,,,,,,,,,,,,,,,,,,,,,,,,,,,,,,,,,,,,,,,,,,,,,,,,,,,,,,,,,,,,,,1.9768518606821697,1.0053229000000101,581.4098194000003,None,ScrollUp,정답입니다,581.4098194000003,None,581.4098194000003,None,581.4098194000003,None,581.4098194000003,None,582.2880932000003,None,582.2880932000003,582.7965888000003,,,,,,,,,,,,,,,,215,2022-05-11_16h38.07.809,FishGame,2022.1.1,60.06911552427202,
,1,넌 불평스러워,5,Orange,A,2.25,2.066666666666667,ScrollDown,ScrollUp,Orange.png,5,Negative,Incongruent,0,0,0,0,,,,,,,,,,,,,,,,,,,,,,,,,,,,,0,0,0,0,,,,,,,,,,,,,,,,,,,,,,,,,,,,614.5090362000001,616.0088574000001,616.0422391000002,616.9920821000001,617.0421971999999,617.9920264000002,617.9920264000002,None,,,,,,,,,,,,,,,,,,,,,,,,,,,,,,,,,,1,1.185754199999792,619.1745188,None,ScrollDown,정답입니다,619.1745188,None,619.1745188,None,619.1745188,None,619.1745188,None,620.1846117,None,620.1846117,620.6915752,583.2965318000001,None,583.2965318000001,None,-0.19166666,-0.27037036,1,0,0,0.016248039999936736,None,613.3091823,None,,,215,2022-05-11_16h38.07.809,FishGame,2022.1.1,60.06911552427202,
,2,나를 보내줘,6,Orange,A,0,0,ScrollUp,ScrollDown,Orange.png,5,NonTarget,NonTarget,0,0,0,0,,,,,,,,,,,,,,,,,,,,,,,,,,,,,0,1,1,1,,,,,,,,,,,,,,,,,,,,,,,,,,,,,,,,,,,,,,,,,,,,,,,,,,,,,,,,,,,,,,,,,,,,,2,1.0439180000003034,621.3369142000001,None,ScrollUp,정답입니다,621.3369142000001,None,621.3369142000001,None,621.3369142000001,None,621.3369142000001,None,622.2580234000002,None,622.2580234000002,622.7579501,,,,,,,,,,,,,,,,215,2022-05-11_16h38.07.809,FishGame,2022.1.1,60.06911552427202,
,3,넌 다재다능해,2,Green,B,6.208333333333333,4.5,ScrollUp,ScrollDown,Green.png,5,Positive,Incongruent,0,0,0,0,,,,,,,,,,,,,,,,,,,,,,,,,,,,,0,2,2,2,,,,,,,,,,,,,,,,,,,,,,,,,,,,,,,,,,,,,,,,,,,,,,,,,,,,,,,,,,,,,,,,,,,,,1.9907407363255818,1.0265140999999858,623.4025022000001,None,ScrollUp,정답입니다,623.4025022000001,None,623.4025022000001,None,623.4025022000001,None,623.4025022000001,None,624.3074357,None,624.3074357,624.8076251000002,,,,,,,,,,,,,,,,215,2022-05-11_16h38.07.809,FishGame,2022.1.1,60.06911552427202,
,4,넌 과감해,3,Orange,A,4.833333333333334,4.6,ScrollDown,ScrollUp,Orange.png,5,Neutral,Neutral,0,0,0,0,,,,,,,,,,,,,,,,,,,,,,,,,,,,,0,3,3,3,,,,,,,,,,,,,,,,,,,,,,,,,,,,,,,,,,,,,,,,,,,,,,,,,,,,,,,,,,,,,,,,,,,,,1.1635802586873372,1.0068672000002152,625.4516283000003,None,ScrollDown,정답입니다,625.4516283000003,None,625.4516283000003,None,625.4516283000003,None,625.4516283000003,None,626.3408626,None,626.3408626,626.8407946000002,,,,,,,,,,,,,,,,215,2022-05-11_16h38.07.809,FishGame,2022.1.1,60.06911552427202,
,5,넌 고분고분해,3,Green,B,3.75,4.033333333333333,ScrollUp,ScrollDown,Green.png,5,Neutral,Neutral,0,0,0,0,,,,,,,,,,,,,,,,,,,,,,,,,,,,,0,4,4,4,,,,,,,,,,,,,,,,,,,,,,,,,,,,,,,,,,,,,,,,,,,,,,,,,,,,,,,,,,,,,,,,,,,,,2,0.9970598999998401,627.4935393000001,None,ScrollUp,정답입니다,627.4935393000001,None,627.4935393000001,None,627.4935393000001,None,627.4935393000001,None,628.3589241,None,628.3589241,628.8738179000002,,,,,,,,,,,,,,,,215,2022-05-11_16h38.07.809,FishGame,2022.1.1,60.06911552427202,
,6,나를 보내줘,6,Orange,A,0,0,ScrollUp,ScrollDown,Orange.png,5,NonTarget,NonTarget,0,0,0,0,,,,,,,,,,,,,,,,,,,,,,,,,,,,,0,5,5,5,,,,,,,,,,,,,,,,,,,,,,,,,,,,,,,,,,,,,,,,,,,,,,,,,,,,,,,,,,,,,,,,,,,,,2,1.0493327999997746,629.5213147,None,ScrollUp,정답입니다,629.5213147,None,629.5213147,None,629.5213147,None,629.5213147,None,630.4433008000001,None,630.4433008000001,630.9568493000002,,,,,,,,,,,,,,,,215,2022-05-11_16h38.07.809,FishGame,2022.1.1,60.06911552427202,
,7,넌 잘 잊어,4,Orange,A,3,3.7,ScrollDown,ScrollUp,Orange.png,5,Negative,Incongruent,0,0,0,0,,,,,,,,,,,,,,,,,,,,,,,,,,,,,0,6,6,6,,,,,,,,,,,,,,,,,,,,,,,,,,,,,,,,,,,,,,,,,,,,,,,,,,,,,,,,,,,,,,,,,,,,,1,0.9720957000004091,631.6107040000002,None,ScrollDown,정답입니다,631.6107040000002,None,631.6107040000002,None,631.6107040000002,None,631.6107040000002,None,632.4489430000003,None,632.4489430000003,632.9568151000003,,,,,,,,,,,,,,,,215,2022-05-11_16h38.07.809,FishGame,2022.1.1,60.06911552427202,
,8,넌 탐구심이없어,4,Green,B,2.833333333333333,3.066666666666667,ScrollUp,ScrollDown,Green.png,5,Negative,Congruent,0,0,0,0,,,,,,,,,,,,,,,,,,,,,,,,,,,,,0,7,7,7,,,,,,,,,,,,,,,,,,,,,,,,,,,,,,,,,,,,,,,,,,,,,,,,,,,,,,,,,,,,,,,,,,,,,2,0.997642100000121,633.6063568,None,ScrollUp,정답입니다,633.6063568,None,633.6063568,None,633.6063568,None,633.6063568,None,634.4746643000003,None,634.4746643000003,634.9897936000002,,,,,,,,,,,,,,,,215,2022-05-11_16h38.07.809,FishGame,2022.1.1,60.06911552427202,
,9,나를 데려가줘,6,Green,B,0,0,ScrollDown,ScrollUp,Green.png,5,NonTarget,NonTarget,0,0,0,0,,,,,,,,,,,,,,,,,,,,,,,,,,,,,0,8,8,8,,,,,,,,,,,,,,,,,,,,,,,,,,,,,,,,,,,,,,,,,,,,,,,,,,,,,,,,,,,,,,,,,,,,,1,0.9621608000002198,635.6280309000003,None,ScrollDown,정답입니다,635.6280309000003,None,635.6280309000003,None,635.6280309000003,None,635.6280309000003,None,636.4726803000003,None,636.4726803000003,636.9728460000001,,,,,,,,,,,,,,,,215,2022-05-11_16h38.07.809,FishGame,2022.1.1,60.06911552427202,
,10,넌 참되어,2,Orange,A,6.041666666666664,4.733333333333333,ScrollDown,ScrollUp,Orange.png,5,Positive,Congruent,0,0,0,0,,,,,,,,,,,,,,,,,,,,,,,,,,,,,0,9,9,9,,,,,,,,,,,,,,,,,,,,,,,,,,,,,,,,,,,,,,,,,,,,,,,,,,,,,,,,,,,,,,,,,,,,,1,0.9443694000001415,637.6229751000001,None,ScrollDown,정답입니다,637.6229751000001,None,637.6229751000001,None,637.6229751000001,None,637.6229751000001,None,638.4395377999999,None,638.4395377999999,638.9393608,,,,,,,,,,,,,,,,215,2022-05-11_16h38.07.809,FishGame,2022.1.1,60.06911552427202,
,11,넌 생기있어,1,Green,B,5.875,5.633333333333334,ScrollUp,ScrollDown,Green.png,5,Positive,Incongruent,0,0,0,0,,,,,,,,,,,,,,,,,,,,,,,,,,,,,0,10,10,10,,,,,,,,,,,,,,,,,,,,,,,,,,,,,,,,,,,,,,,,,,,,,,,,,,,,,,,,,,,,,,,,,,,,,2,0.933168200000182,639.5885301000003,None,ScrollUp,정답입니다,639.5885301000003,None,639.5885301000003,None,639.5885301000003,None,639.5885301000003,None,640.3930359999999,None,640.3930359999999,640.9055630000003,,,,,,,,,,,,,,,,215,2022-05-11_16h38.07.809,FishGame,2022.1.1,60.06911552427202,
,12,넌 비사교적이야,4,Green,B,2.875,2.9,ScrollUp,ScrollDown,Green.png,5,Negative,Congruent,0,0,0,0,,,,,,,,,,,,,,,,,,,,,,,,,,,,,0,11,11,11,,,,,,,,,,,,,,,,,,,,,,,,,,,,,,,,,,,,,,,,,,,,,,,,,,,,,,,,,,,,,,,,,,,,,2,1.0109342999999171,641.5462487,None,ScrollUp,정답입니다,641.5462487,None,641.5462487,None,641.5462487,None,641.5462487,None,642.4387750999999,None,642.4387750999999,642.9386368,,,,,,,,,,,,,,,,215,2022-05-11_16h38.07.809,FishGame,2022.1.1,60.06911552427202,
,13,나를 데려가줘,6,Green,B,0,0,ScrollDown,ScrollUp,Green.png,5,NonTarget,NonTarget,0,0,0,0,,,,,,,,,,,,,,,,,,,,,,,,,,,,,0,12,12,12,,,,,,,,,,,,,,,,,,,,,,,,,,,,,,,,,,,,,,,,,,,,,,,,,,,,,,,,,,,,,,,,,,,,,1,0.8985867000001235,643.584394,None,ScrollDown,정답입니다,643.584394,None,643.584394,None,643.584394,None,643.584394,None,644.3587759000002,None,644.3587759000002,644.871963,,,,,,,,,,,,,,,,215,2022-05-11_16h38.07.809,FishGame,2022.1.1,60.06911552427202,
,14,넌 고독해,4,Orange,A,2.916666666666667,3.233333333333333,ScrollDown,ScrollUp,Orange.png,5,Negative,Incongruent,0,0,0,0,,,,,,,,,,,,,,,,,,,,,,,,,,,,,0,13,13,13,,,,,,,,,,,,,,,,,,,,,,,,,,,,,,,,,,,,,,,,,,,,,,,,,,,,,,,,,,,,,,,,,,,,,1.0570987462997437,0.927055399999972,645.5157792,None,ScrollDown,정답입니다,645.5157792,None,645.5157792,None,645.5157792,None,645.5157792,None,646.3214384000003,None,646.3214384000003,646.8215598000002,,,,,,,,,,,,,,,,215,2022-05-11_16h38.07.809,FishGame,2022.1.1,60.06911552427202,
,15,넌 신경질적이야,5,Green,B,2.375,2.233333333333333,ScrollUp,ScrollDown,Green.png,5,Negative,Congruent,0,0,0,0,,,,,,,,,,,,,,,,,,,,,,,,,,,,,0,14,14,14,,,,,,,,,,,,,,,,,,,,,,,,,,,,,,,,,,,,,,,,,,,,,,,,,,,,,,,,,,,,,,,,,,,,,1.9984568059444427,0.9812619999997878,647.4695805000001,None,ScrollUp,정답입니다,647.4695805000001,None,647.4695805000001,None,647.4695805000001,None,647.4695805000001,None,648.323367,None,648.323367,648.8378513000002,,,,,,,,,,,,,,,,215,2022-05-11_16h38.07.809,FishGame,2022.1.1,60.06911552427202,
,16,넌 똑똑해,2,Green,B,5.666666666666667,3.966666666666667,ScrollUp,ScrollDown,Green.png,5,Positive,Incongruent,0,0,0,0,,,,,,,,,,,,,,,,,,,,,,,,,,,,,0,15,15,15,,,,,,,,,,,,,,,,,,,,,,,,,,,,,,,,,,,,,,,,,,,,,,,,,,,,,,,,,,,,,,,,,,,,,2,0.8545183999999608,649.4873862,None,ScrollUp,정답입니다,649.4873862,None,649.4873862,None,649.4873862,None,649.4873862,None,650.2190952999999,None,650.2190952999999,650.7212109000002,,,,,,,,,,,,,,,,215,2022-05-11_16h38.07.809,FishGame,2022.1.1,60.06911552427202,
,17,나를 보내줘,6,Orange,A,0,0,ScrollUp,ScrollDown,Orange.png,5,NonTarget,NonTarget,0,0,0,0,,,,,,,,,,,,,,,,,,,,,,,,,,,,,0,16,16,16,,,,,,,,,,,,,,,,,,,,,,,,,,,,,,,,,,,,,,,,,,,,,,,,,,,,,,,,,,,,,,,,,,,,,1.9969135920206706,1.0370752999997421,651.3656144000001,None,ScrollUp,정답입니다,651.3656144000001,None,651.3656144000001,None,651.3656144000001,None,651.3656144000001,None,652.2856019000001,None,652.2856019000001,652.7875411,,,,,,,,,,,,,,,,215,2022-05-11_16h38.07.809,FishGame,2022.1.1,60.06911552427202,
,18,넌 협조적이야,1,Orange,A,5.625,5.666666666666667,ScrollDown,ScrollUp,Orange.png,5,Positive,Congruent,0,0,0,0,,,,,,,,,,,,,,,,,,,,,,,,,,,,,0,17,17,17,,,,,,,,,,,,,,,,,,,,,,,,,,,,,,,,,,,,,,,,,,,,,,,,,,,,,,,,,,,,,,,,,,,,,1.0108024775981903,0.9666935000000194,653.4324368000002,None,ScrollDown,정답입니다,653.4324368000002,None,653.4324368000002,None,653.4324368000002,None,653.4324368000002,None,654.2748940000001,None,654.2748940000001,654.7871124000003,,,,,,,,,,,,,,,,215,2022-05-11_16h38.07.809,FishGame,2022.1.1,60.06911552427202,
,19,나를 데려가줘,6,Green,B,0,0,ScrollDown,ScrollUp,Green.png,5,NonTarget,NonTarget,0,0,0,0,,,,,,,,,,,,,,,,,,,,,,,,,,,,,0,18,18,18,,,,,,,,,,,,,,,,,,,,,,,,,,,,,,,,,,,,,,,,,,,,,,,,,,,,,,,,,,,,,,,,,,,,,1,1.0146300000001247,655.4309974000003,None,ScrollDown,정답입니다,655.4309974000003,None,655.4309974000003,None,655.4309974000003,None,655.4309974000003,None,656.3224068,None,656.3224068,656.8369331000004,,,,,,,,,,,,,,,,215,2022-05-11_16h38.07.809,FishGame,2022.1.1,60.06911552427202,
,20,넌 몰인정해,5,Green,B,2.541666666666667,2.066666666666667,ScrollUp,ScrollDown,Green.png,5,Negative,Congruent,0,0,0,0,,,,,,,,,,,,,,,,,,,,,,,,,,,,,0,19,19,19,,,,,,,,,,,,,,,,,,,,,,,,,,,,,,,,,,,,,,,,,,,,,,,,,,,,,,,,,,,,,,,,,,,,,2,1.0313530999997056,657.4888445000001,None,ScrollUp,정답입니다,657.4888445000001,None,657.4888445000001,None,657.4888445000001,None,657.4888445000001,None,658.3879924000003,None,658.3879924000003,658.9031907000003,,,,,,,,,,,,,,,,215,2022-05-11_16h38.07.809,FishGame,2022.1.1,60.06911552427202,
,21,나를 데려가줘,6,Green,B,0,0,ScrollDown,ScrollUp,Green.png,5,NonTarget,NonTarget,0,0,0,0,,,,,,,,,,,,,,,,,,,,,,,,,,,,,0,20,20,20,,,,,,,,,,,,,,,,,,,,,,,,,,,,,,,,,,,,,,,,,,,,,,,,,,,,,,,,,,,,,,,,,,,,,1,1.0674380000000383,659.5467466,None,ScrollDown,정답입니다,659.5467466,None,659.5467466,None,659.5467466,None,659.5467466,None,660.4914226999999,None,660.4914226999999,661.0031031000003,,,,,,,,,,,,,,,,215,2022-05-11_16h38.07.809,FishGame,2022.1.1,60.06911552427202,
,22,넌 순진해,3,Green,B,4.125,4.166666666666667,ScrollUp,ScrollDown,Green.png,5,Neutral,Neutral,0,0,0,0,,,,,,,,,,,,,,,,,,,,,,,,,,,,,0,21,21,21,,,,,,,,,,,,,,,,,,,,,,,,,,,,,,,,,,,,,,,,,,,,,,,,,,,,,,,,,,,,,,,,,,,,,2,0.9613855000002332,661.6398671000002,None,ScrollUp,정답입니다,661.6398671000002,None,661.6398671000002,None,661.6398671000002,None,661.6398671000002,None,662.4861943999999,None,662.4861943999999,662.9861550999999,,,,,,,,,,,,,,,,215,2022-05-11_16h38.07.809,FishGame,2022.1.1,60.06911552427202,
,23,넌 신뢰할만해,1,Orange,A,6.625,5.533333333333333,ScrollDown,ScrollUp,Orange.png,5,Positive,Congruent,0,0,0,0,,,,,,,,,,,,,,,,,,,,,,,,,,,,,0,22,22,22,,,,,,,,,,,,,,,,,,,,,,,,,,,,,,,,,,,,,,,,,,,,,,,,,,,,,,,,,,,,,,,,,,,,,1,1.0048181000001932,663.6386708,None,ScrollDown,정답입니다,663.6386708,None,663.6386708,None,663.6386708,None,663.6386708,None,664.5112377,None,664.5112377,665.0192268999999,,,,,,,,,,,,,,,,215,2022-05-11_16h38.07.809,FishGame,2022.1.1,60.06911552427202,
,24,나를 보내줘,6,Orange,A,0,0,ScrollUp,ScrollDown,Orange.png,5,NonTarget,NonTarget,0,0,0,0,,,,,,,,,,,,,,,,,,,,,,,,,,,,,0,23,23,23,,,,,,,,,,,,,,,,,,,,,,,,,,,,,,,,,,,,,,,,,,,,,,,,,,,,,,,,,,,,,,,,,,,,,1.9382716119289398,0.9703475999999682,665.6690982,None,ScrollUp,정답입니다,665.6690982,None,665.6690982,None,665.6690982,None,665.6690982,None,666.5168969000001,None,666.5168969000001,667.0190017,,,,,,,,,,,,,,,,215,2022-05-11_16h38.07.809,FishGame,2022.1.1,60.06911552427202,
,25,넌 인색해,5,Orange,A,2.625,2.233333333333333,ScrollDown,ScrollUp,Orange.png,5,Negative,Incongruent,0,0,0,0,,,,,,,,,,,,,,,,,,,,,,,,,,,,,0,24,24,24,,,,,,,,,,,,,,,,,,,,,,,,,,,,,,,,,,,,,,,,,,,,,,,,,,,,,,,,,,,,,,,,,,,,,1,1.1114566000001105,667.666874,None,ScrollDown,정답입니다,667.666874,None,667.666874,None,667.666874,None,667.666874,None,668.6518258000001,None,668.6518258000001,669.1524073,,,,,,,,,,,,,,,,215,2022-05-11_16h38.07.809,FishGame,2022.1.1,60.06911552427202,
,26,넌 유쾌해,1,Green,B,5.833333333333333,5.766666666666667,ScrollUp,ScrollDown,Green.png,5,Positive,Incongruent,0,0,0,0,,,,,,,,,,,,,,,,,,,,,,,,,,,,,0,25,25,25,,,,,,,,,,,,,,,,,,,,,,,,,,,,,,,,,,,,,,,,,,,,,,,,,,,,,,,,,,,,,,,,,,,,,1.884259248773257,0.8447387999999592,669.791119,None,ScrollUp,정답입니다,669.791119,None,669.791119,None,669.791119,None,669.791119,None,670.5185741,None,670.5185741,671.0184140000001,,,,,,,,,,,,,,,,215,2022-05-11_16h38.07.809,FishGame,2022.1.1,60.06911552427202,
,27,나를 보내줘,6,Orange,A,0,0,ScrollUp,ScrollDown,Orange.png,5,NonTarget,NonTarget,0,0,0,0,,,,,,,,,,,,,,,,,,,,,,,,,,,,,0,26,26,26,,,,,,,,,,,,,,,,,,,,,,,,,,,,,,,,,,,,,,,,,,,,,,,,,,,,,,,,,,,,,,,,,,,,,1.8564814726511638,0.9489788000000772,671.6655945000002,None,ScrollUp,정답입니다,671.6655945000002,None,671.6655945000002,None,671.6655945000002,None,671.6655945000002,None,672.4884141000002,None,672.4884141000002,673.0014636000001,,,,,,,,,,,,,,,,215,2022-05-11_16h38.07.809,FishGame,2022.1.1,60.06911552427202,
