name,TrialNum,Word,WordCategory,FishType,WordList,WordValence,WordReputation,CorrectResp,IncorrectResp,FishTypeFile,Round,WordType,Condition,LoopforOrange.thisRepN,LoopforOrange.thisTrialN,LoopforOrange.thisN,LoopforOrange.thisIndex,LoopForGreen.thisRepN,LoopForGreen.thisTrialN,LoopForGreen.thisN,LoopForGreen.thisIndex,GreenInstLoop.thisRepN,GreenInstLoop.thisTrialN,GreenInstLoop.thisN,GreenInstLoop.thisIndex,GreenPrac.thisRepN,GreenPrac.thisTrialN,GreenPrac.thisN,GreenPrac.thisIndex,trials_2.thisRepN,trials_2.thisTrialN,trials_2.thisN,trials_2.thisIndex,GreenRound1.thisRepN,GreenRound1.thisTrialN,GreenRound1.thisN,GreenRound1.thisIndex,GreenRound2.thisRepN,GreenRound2.thisTrialN,GreenRound2.thisN,GreenRound2.thisIndex,GreenRound3.thisRepN,GreenRound3.thisTrialN,GreenRound3.thisN,GreenRound3.thisIndex,GreenRound4.thisRepN,GreenRound4.thisTrialN,GreenRound4.thisN,GreenRound4.thisIndex,GreenRound5.thisRepN,GreenRound5.thisTrialN,GreenRound5.thisN,GreenRound5.thisIndex,text_2.started,text_2.stopped,text_3.started,text_3.stopped,key_resp.keys,key_resp.rt,key_resp.started,key_resp.stopped,PassI.started,PassI.stopped,PassInst.keys,PassInst.rt,PassInst.started,PassInst.stopped,mouse_2.x,mouse_2.y,mouse_2.leftButton,mouse_2.midButton,mouse_2.rightButton,mouse_2.started,mouse_2.stopped,image.started,image.stopped,text_5.started,text_5.stopped,text_6.started,text_6.stopped,text_7.started,text_7.stopped,text_8.started,text_8.stopped,slider_3.response,slider_3.rt,slider_3.started,slider_3.stopped,Response_3,Feedback_3,BackGround_3.started,BackGround_3.stopped,Fish_3.started,Fish_3.stopped,WordBox_3.started,WordBox_3.stopped,Words_3.started,Words_3.stopped,BackGround_Feedback_3.started,BackGround_Feedback_3.stopped,Feedbacks_3.started,Feedbacks_3.stopped,Continue_or_not_2.keys,Continue_or_not_2.rt,Continue_or_not_2.started,Continue_or_not_2.stopped,image_4.started,image_4.stopped,mouse_3.x,mouse_3.y,mouse_3.leftButton,mouse_3.midButton,mouse_3.rightButton,mouse_3.started,mouse_3.stopped,startmain.started,startmain.stopped,slider_4.response,slider_4.rt,slider_4.started,slider_4.stopped,Response_4,Feedback_4,BackGround_4.started,BackGround_4.stopped,Fish_4.started,Fish_4.stopped,WordBox_4.started,WordBox_4.stopped,Words_4.started,Words_4.stopped,BackGround_Feedback_4.started,BackGround_Feedback_4.stopped,Feedbacks_4.started,Feedbacks_4.stopped,text.started,text.stopped,break_interval.started,break_interval.stopped,mouse.x,mouse.y,mouse.leftButton,mouse.midButton,mouse.rightButton,mouse.started,mouse.stopped,stratnextround.started,stratnextround.stopped,endgame.started,endgame.stopped,participant,date,expName,psychopyVersion,frameRate,
,,,,,,,,,,,,,,,,,,,,,,,,,,,,,,,,,,,,,,,,,,,,,,,,,,,,,,21.330017100000077,None,21.330017100000077,None,space,3.083927099999528,21.82312570000022,None,,,,,,,,,,,,,,,,,,,,,,,,,,,,,,,,,,,,,,,,,,,,,,,,,,,,,,,,,,,,,,,,,,,,,,,,,,,,,,,,,,,,,,,,,,216,2022-05-13_13h57.38.890,FishGame,2022.1.1,60.05410875200597,
물고기과제_instruction(참가자용)GreenVersion.mp4,,,,,,,,,,,,,,,,,,0,0,0,0,0,0,0,0,,,,,,,,,,,,,,,,,,,,,,,,,,,,,,,,,,,,,92.22166720000041,None,n,5.509868999999981,92.22166720000041,None,,,,,,,,,,,,,,,,,,,,,,,,,,,,,,,,,,,,,,,,,,,,,,,,,,,,,,,,,,,,,,,,,,,,,,,,,,,,,,,,,,,,216,2022-05-13_13h57.38.890,FishGame,2022.1.1,60.05410875200597,
,1,넌 교활해,5,Orange,B,2.333333333333333,2.133333333333333,ScrollUp,ScrollDown,Orange.png,practice,,,,,,,0,0,0,0,,,,,0,0,0,0,0,0,0,0,,,,,,,,,,,,,,,,,,,,,,,,,,,,,,,,,,,0.018518519,-0.2,1,0,0,0.513762940000106,None,97.76337310000008,None,102.21296230000007,103.71269640000037,103.74580300000025,104.69571330000008,104.7456417000003,105.69554070000004,105.69554070000004,None,2,2.101264700000229,106.87454960000014,None,ScrollUp,정답입니다,106.87454960000014,None,106.87454960000014,None,106.87454960000014,None,106.87454960000014,None,108.80721510000012,None,108.80721510000012,109.31170530000009,,,,,,,,,,,,,,,,,,,,,,,,,,,,,,,,,,,,,,,,,,,,,,,,,216,2022-05-13_13h57.38.890,FishGame,2022.1.1,60.05410875200597,
,2,넌 슬기로워,2,Green,A,6.166666666666667,4.1,ScrollDown,ScrollUp,Green.png,practice,,,,,,,0,0,0,0,,,,,0,0,0,0,0,1,1,1,,,,,,,,,,,,,,,,,,,,,,,,,,,,,,,,,,,,,,,,,,,,,,,,,,,,1,1.5554414000002907,109.97351360000039,None,ScrollDown,정답입니다,109.97351360000039,None,109.97351360000039,None,109.97351360000039,None,109.97351360000039,None,111.38881010000023,None,111.38881010000023,111.89483100000007,,,,,,,,,,,,,,,,,,,,,,,,,,,,,,,,,,,,,,,,,,,,,,,,,216,2022-05-13_13h57.38.890,FishGame,2022.1.1,60.05410875200597,
,3,나를 보내줘,6,Green,A,0,0,ScrollUp,ScrollDown,Green.png,practice,,,,,,,0,0,0,0,,,,,0,0,0,0,0,2,2,2,,,,,,,,,,,,,,,,,,,,,,,,,,,,,,,,,,,,,,,,,,,,,,,,,,,,2,1.4422314000003098,112.54952580000008,None,ScrollUp,정답입니다,112.54952580000008,None,112.54952580000008,None,112.54952580000008,None,112.54952580000008,None,113.86121360000016,None,113.86121360000016,114.36107790000005,,,,,,,,,,,,,,,,,,,,,,,,,,,,,,,,,,,,,,,,,,,,,,,,,216,2022-05-13_13h57.38.890,FishGame,2022.1.1,60.05410875200597,
,4,나를 데려가줘,6,Orange,B,0,0,ScrollDown,ScrollUp,Orange.png,practice,,,,,,,0,0,0,0,,,,,0,0,0,0,0,3,3,3,,,,,,,,,,,,,,,,,,,,,,,,,,,,,,,,,,,,,,,,,,,,,,,,,,,,1,1.3396567999998297,115.01302180000039,None,ScrollDown,정답입니다,115.01302180000039,None,115.01302180000039,None,115.01302180000039,None,115.01302180000039,None,116.22103180000022,None,116.22103180000022,116.72739880000017,,,,,,,,,,,,,,,,,,,,,,,,,,,,,,,,,,,,,,,,,,,,,,,,,216,2022-05-13_13h57.38.890,FishGame,2022.1.1,60.05410875200597,
,1,넌 교활해,5,Orange,B,2.333333333333333,2.133333333333333,ScrollUp,ScrollDown,Orange.png,practice,,,,,,,0,0,0,0,,,,,0,0,0,0,,,,,,,,,,,,,,,,,,,,,,,,,,,,,,,,,,,,,,,,,,,,,,,,,,,,,,,,,,,,,,,,,,,,,,,,,,n,21.761147499999424,117.22736050000003,None,117.22736050000003,None,,,,,,,,,,,,,,,,,,,,,,,,,,,,,,,,,,,,,,,,,,,216,2022-05-13_13h57.38.890,FishGame,2022.1.1,60.05410875200597,
,1,넌 따뜻해,1,Orange,B,6.083333333333333,5.6,ScrollUp,ScrollDown,Orange.png,1,Positive,Incongruent,,,,,0,0,0,0,,,,,,,,,,,,,0,0,0,0,,,,,,,,,,,,,,,,,,,,,,,,,,,,,,,,,,,,,,,,141.39119820000042,142.89083600000004,142.92422960000022,143.87414520000038,143.92398810000032,144.87401980000004,144.87401980000004,None,,,,,,,,,,,,,,,,,,,,,,,,,0.011111111,-0.12222222,1,0,0,0.3132786399996803,None,139.00797690000036,None,2,1.465983999999935,146.0656772000002,None,ScrollUp,정답입니다,146.0656772000002,None,146.0656772000002,None,146.0656772000002,None,146.0656772000002,None,147.35551060000034,None,147.35551060000034,147.85694580000018,,,,,,,,,,,,,,,,216,2022-05-13_13h57.38.890,FishGame,2022.1.1,60.05410875200597,
,2,넌 기품있어,2,Orange,B,5.791666666666668,4.5,ScrollUp,ScrollDown,Orange.png,1,Positive,Incongruent,,,,,0,0,0,0,,,,,,,,,,,,,0,1,1,1,,,,,,,,,,,,,,,,,,,,,,,,,,,,,,,,,,,,,,,,,,,,,,,,,,,,,,,,,,,,,,,,,,,,,,,,,,,,,,,,,2,1.3332294000001639,148.52559920000022,None,ScrollUp,정답입니다,148.52559920000022,None,148.52559920000022,None,148.52559920000022,None,148.52559920000022,None,149.7101918000003,None,149.7101918000003,150.22326470000007,,,,,,,,,,,,,,,,216,2022-05-13_13h57.38.890,FishGame,2022.1.1,60.05410875200597,
,3,나를 보내줘,6,Green,A,0,0,ScrollUp,ScrollDown,Green.png,1,NonTarget,NonTarget,,,,,0,0,0,0,,,,,,,,,,,,,0,2,2,2,,,,,,,,,,,,,,,,,,,,,,,,,,,,,,,,,,,,,,,,,,,,,,,,,,,,,,,,,,,,,,,,,,,,,,,,,,,,,,,,,2,1.4277127000000291,150.88124350000044,None,ScrollUp,정답입니다,150.88124350000044,None,150.88124350000044,None,150.88124350000044,None,150.88124350000044,None,152.16947900000014,None,152.16947900000014,152.6731374000001,,,,,,,,,,,,,,,,216,2022-05-13_13h57.38.890,FishGame,2022.1.1,60.05410875200597,
,4,넌 수동적이야,4,Green,A,2.833333333333333,2.933333333333333,ScrollDown,ScrollUp,Green.png,1,Negative,Incongruent,,,,,0,0,0,0,,,,,,,,,,,,,0,3,3,3,,,,,,,,,,,,,,,,,,,,,,,,,,,,,,,,,,,,,,,,,,,,,,,,,,,,,,,,,,,,,,,,,,,,,,,,,,,,,,,,,1,1.388608799999929,153.32872700000007,None,ScrollDown,정답입니다,153.32872700000007,None,153.32872700000007,None,153.32872700000007,None,153.32872700000007,None,154.58205400000043,None,154.58205400000043,155.0891687000003,,,,,,,,,,,,,,,,216,2022-05-13_13h57.38.890,FishGame,2022.1.1,60.05410875200597,
,5,넌 사심이 없어,3,Orange,B,4.916666666666666,4.333333333333333,ScrollUp,ScrollDown,Orange.png,1,Neutral,Neutral,,,,,0,0,0,0,,,,,,,,,,,,,0,4,4,4,,,,,,,,,,,,,,,,,,,,,,,,,,,,,,,,,,,,,,,,,,,,,,,,,,,,,,,,,,,,,,,,,,,,,,,,,,,,,,,,,2,1.3698999000002914,155.75086290000036,None,ScrollUp,정답입니다,155.75086290000036,None,155.75086290000036,None,155.75086290000036,None,155.75086290000036,None,156.97973440000032,None,156.97973440000032,157.48887840000043,,,,,,,,,,,,,,,,216,2022-05-13_13h57.38.890,FishGame,2022.1.1,60.05410875200597,
,6,넌 헤퍼,5,Green,A,2.458333333333334,2.233333333333333,ScrollDown,ScrollUp,Green.png,1,Negative,Incongruent,,,,,0,0,0,0,,,,,,,,,,,,,0,5,5,5,,,,,,,,,,,,,,,,,,,,,,,,,,,,,,,,,,,,,,,,,,,,,,,,,,,,,,,,,,,,,,,,,,,,,,,,,,,,,,,,,1,1.4089091999999255,158.14742890000025,None,ScrollDown,정답입니다,158.14742890000025,None,158.14742890000025,None,158.14742890000025,None,158.14742890000025,None,159.41621750000013,None,159.41621750000013,159.9221665,,,,,,,,,,,,,,,,216,2022-05-13_13h57.38.890,FishGame,2022.1.1,60.05410875200597,
,7,넌 말쑥해,3,Green,A,4.833333333333334,4.333333333333333,ScrollDown,ScrollUp,Green.png,1,Neutral,Neutral,,,,,0,0,0,0,,,,,,,,,,,,,0,6,6,6,,,,,,,,,,,,,,,,,,,,,,,,,,,,,,,,,,,,,,,,,,,,,,,,,,,,,,,,,,,,,,,,,,,,,,,,,,,,,,,,,1,1.2837533000001713,160.57380140000032,None,ScrollDown,정답입니다,160.57380140000032,None,160.57380140000032,None,160.57380140000032,None,160.57380140000032,None,161.72662770000034,None,161.72662770000034,162.23829780000005,,,,,,,,,,,,,,,,216,2022-05-13_13h57.38.890,FishGame,2022.1.1,60.05410875200597,
,8,넌 투덜거려,5,Orange,B,2.541666666666667,2.266666666666667,ScrollUp,ScrollDown,Orange.png,1,Negative,Congruent,,,,,0,0,0,0,,,,,,,,,,,,,0,7,7,7,,,,,,,,,,,,,,,,,,,,,,,,,,,,,,,,,,,,,,,,,,,,,,,,,,,,,,,,,,,,,,,,,,,,,,,,,,,,,,,,,2,1.2167789999998604,162.9014199000003,None,ScrollUp,정답입니다,162.9014199000003,None,162.9014199000003,None,162.9014199000003,None,162.9014199000003,None,163.97609980000016,None,163.97609980000016,164.48834670000042,,,,,,,,,,,,,,,,216,2022-05-13_13h57.38.890,FishGame,2022.1.1,60.05410875200597,
,9,넌 적극적이야,1,Green,A,5.708333333333333,5.533333333333333,ScrollDown,ScrollUp,Green.png,1,Positive,Congruent,,,,,0,0,0,0,,,,,,,,,,,,,0,8,8,8,,,,,,,,,,,,,,,,,,,,,,,,,,,,,,,,,,,,,,,,,,,,,,,,,,,,,,,,,,,,,,,,,,,,,,,,,,,,,,,,,1,1.3131134999998721,165.14299280000023,None,ScrollDown,정답입니다,165.14299280000023,None,165.14299280000023,None,165.14299280000023,None,165.14299280000023,None,166.3228242,None,166.3228242,166.8376417000004,,,,,,,,,,,,,,,,216,2022-05-13_13h57.38.890,FishGame,2022.1.1,60.05410875200597,
,10,넌 재미없어,4,Orange,B,2.625,2.966666666666667,ScrollUp,ScrollDown,Orange.png,1,Negative,Congruent,,,,,0,0,0,0,,,,,,,,,,,,,0,9,9,9,,,,,,,,,,,,,,,,,,,,,,,,,,,,,,,,,,,,,,,,,,,,,,,,,,,,,,,,,,,,,,,,,,,,,,,,,,,,,,,,,2,1.255128700000114,167.5002298000004,None,ScrollUp,정답입니다,167.5002298000004,None,167.5002298000004,None,167.5002298000004,None,167.5002298000004,None,168.61295520000021,None,168.61295520000021,169.12065150000035,,,,,,,,,,,,,,,,216,2022-05-13_13h57.38.890,FishGame,2022.1.1,60.05410875200597,
,11,넌 명석해,2,Green,A,5.875,4.033333333333333,ScrollDown,ScrollUp,Green.png,1,Positive,Congruent,,,,,0,0,0,0,,,,,,,,,,,,,0,10,10,10,,,,,,,,,,,,,,,,,,,,,,,,,,,,,,,,,,,,,,,,,,,,,,,,,,,,,,,,,,,,,,,,,,,,,,,,,,,,,,,,,1,1.3051870000003873,169.7747359,None,ScrollDown,정답입니다,169.7747359,None,169.7747359,None,169.7747359,None,169.7747359,None,170.94696840000006,None,170.94696840000006,171.45367580000038,,,,,,,,,,,,,,,,216,2022-05-13_13h57.38.890,FishGame,2022.1.1,60.05410875200597,
,12,나를 데려가줘,6,Orange,B,0,0,ScrollDown,ScrollUp,Orange.png,1,NonTarget,NonTarget,,,,,0,0,0,0,,,,,,,,,,,,,0,11,11,11,,,,,,,,,,,,,,,,,,,,,,,,,,,,,,,,,,,,,,,,,,,,,,,,,,,,,,,,,,,,,,,,,,,,,,,,,,,,,,,,,1,1.3777756999998019,172.11365920000026,None,ScrollDown,정답입니다,172.11365920000026,None,172.11365920000026,None,172.11365920000026,None,172.11365920000026,None,173.35329690000026,None,173.35329690000026,173.85347140000022,,,,,,,,,,,,,,,,216,2022-05-13_13h57.38.890,FishGame,2022.1.1,60.05410875200597,
,13,넌 소심해,4,Green,A,3,3.1,ScrollDown,ScrollUp,Green.png,1,Negative,Incongruent,,,,,0,0,0,0,,,,,,,,,,,,,0,12,12,12,,,,,,,,,,,,,,,,,,,,,,,,,,,,,,,,,,,,,,,,,,,,,,,,,,,,,,,,,,,,,,,,,,,,,,,,,,,,,,,,,1,1.3214490999998816,174.50686750000023,None,ScrollDown,정답입니다,174.50686750000023,None,174.50686750000023,None,174.50686750000023,None,174.50686750000023,None,175.6968955000002,None,175.6968955000002,176.20310590000008,,,,,,,,,,,,,,,,216,2022-05-13_13h57.38.890,FishGame,2022.1.1,60.05410875200597,
,14,넌 합리적이야,2,Green,A,5.583333333333333,4.733333333333333,ScrollDown,ScrollUp,Green.png,1,Positive,Congruent,,,,,0,0,0,0,,,,,,,,,,,,,0,13,13,13,,,,,,,,,,,,,,,,,,,,,,,,,,,,,,,,,,,,,,,,,,,,,,,,,,,,,,,,,,,,,,,,,,,,,,,,,,,,,,,,,1,1.2873140000001513,176.8664775000002,None,ScrollDown,정답입니다,176.8664775000002,None,176.8664775000002,None,176.8664775000002,None,176.8664775000002,None,178.01215270000012,None,178.01215270000012,178.51958120000018,,,,,,,,,,,,,,,,216,2022-05-13_13h57.38.890,FishGame,2022.1.1,60.05410875200597,
,15,넌 무자비해,5,Orange,B,2.333333333333333,2.1,ScrollUp,ScrollDown,Orange.png,1,Negative,Congruent,,,,,0,0,0,0,,,,,,,,,,,,,0,14,14,14,,,,,,,,,,,,,,,,,,,,,,,,,,,,,,,,,,,,,,,,,,,,,,,,,,,,,,,,,,,,,,,,,,,,,,,,,,,,,,,,,2,1.120734000000084,179.18154090000007,None,ScrollUp,정답입니다,179.18154090000007,None,179.18154090000007,None,179.18154090000007,None,179.18154090000007,None,180.1673495,None,180.1673495,180.66930140000022,,,,,,,,,,,,,,,,216,2022-05-13_13h57.38.890,FishGame,2022.1.1,60.05410875200597,
,16,나를 보내줘,6,Green,A,0,0,ScrollUp,ScrollDown,Green.png,1,NonTarget,NonTarget,,,,,0,0,0,0,,,,,,,,,,,,,0,15,15,15,,,,,,,,,,,,,,,,,,,,,,,,,,,,,,,,,,,,,,,,,,,,,,,,,,,,,,,,,,,,,,,,,,,,,,,,,,,,,,,,,2,1.2331905999999435,181.31511740000042,None,ScrollUp,정답입니다,181.31511740000042,None,181.31511740000042,None,181.31511740000042,None,181.31511740000042,None,182.42368110000007,None,182.42368110000007,182.9356131000004,,,,,,,,,,,,,,,,216,2022-05-13_13h57.38.890,FishGame,2022.1.1,60.05410875200597,
,17,넌 현실적이야,3,Orange,B,4.608695652173913,4.766666666666667,ScrollUp,ScrollDown,Orange.png,1,Neutral,Neutral,,,,,0,0,0,0,,,,,,,,,,,,,0,16,16,16,,,,,,,,,,,,,,,,,,,,,,,,,,,,,,,,,,,,,,,,,,,,,,,,,,,,,,,,,,,,,,,,,,,,,,,,,,,,,,,,,2,1.1509349000002658,183.59721020000006,None,ScrollUp,정답입니다,183.59721020000006,None,183.59721020000006,None,183.59721020000006,None,183.59721020000006,None,184.6068111000004,None,184.6068111000004,185.11865700000044,,,,,,,,,,,,,,,,216,2022-05-13_13h57.38.890,FishGame,2022.1.1,60.05410875200597,
,18,넌 의리있어,1,Orange,B,5.833333333333334,5.633333333333334,ScrollUp,ScrollDown,Orange.png,1,Positive,Incongruent,,,,,0,0,0,0,,,,,,,,,,,,,0,17,17,17,,,,,,,,,,,,,,,,,,,,,,,,,,,,,,,,,,,,,,,,,,,,,,,,,,,,,,,,,,,,,,,,,,,,,,,,,,,,,,,,,2,1.1153735000002598,185.77727410000034,None,ScrollUp,정답입니다,185.77727410000034,None,185.77727410000034,None,185.77727410000034,None,185.77727410000034,None,186.7566985000003,None,186.7566985000003,187.26836330000015,,,,,,,,,,,,,,,,216,2022-05-13_13h57.38.890,FishGame,2022.1.1,60.05410875200597,
,19,넌 신경과민이야,5,Green,A,2.541666666666667,2.166666666666667,ScrollDown,ScrollUp,Green.png,1,Negative,Incongruent,,,,,0,0,0,0,,,,,,,,,,,,,0,18,18,18,,,,,,,,,,,,,,,,,,,,,,,,,,,,,,,,,,,,,,,,,,,,,,,,,,,,,,,,,,,,,,,,,,,,,,,,,,,,,,,,,1,1.2117694999997184,187.92940590000035,None,ScrollDown,정답입니다,187.92940590000035,None,187.92940590000035,None,187.92940590000035,None,187.92940590000035,None,189.00136150000026,None,189.00136150000026,189.50151370000003,,,,,,,,,,,,,,,,216,2022-05-13_13h57.38.890,FishGame,2022.1.1,60.05410875200597,
,20,넌 편안해,1,Green,A,5.916666666666666,5.866666666666666,ScrollDown,ScrollUp,Green.png,1,Positive,Congruent,,,,,0,0,0,0,,,,,,,,,,,,,0,19,19,19,,,,,,,,,,,,,,,,,,,,,,,,,,,,,,,,,,,,,,,,,,,,,,,,,,,,,,,,,,,,,,,,,,,,,,,,,,,,,,,,,1,1.2205782999999428,190.1541143000004,None,ScrollDown,정답입니다,190.1541143000004,None,190.1541143000004,None,190.1541143000004,None,190.1541143000004,None,191.24407840000003,None,191.24407840000003,191.75108920000002,,,,,,,,,,,,,,,,216,2022-05-13_13h57.38.890,FishGame,2022.1.1,60.05410875200597,
,21,넌 품위있어,2,Orange,B,5.291666666666666,4.466666666666667,ScrollUp,ScrollDown,Orange.png,1,Positive,Incongruent,,,,,0,0,0,0,,,,,,,,,,,,,0,20,20,20,,,,,,,,,,,,,,,,,,,,,,,,,,,,,,,,,,,,,,,,,,,,,,,,,,,,,,,,,,,,,,,,,,,,,,,,,,,,,,,,,2,1.1708083999997143,192.40749440000036,None,ScrollUp,정답입니다,192.40749440000036,None,192.40749440000036,None,192.40749440000036,None,192.40749440000036,None,193.4430610000004,None,193.4430610000004,193.95081600000003,,,,,,,,,,,,,,,,216,2022-05-13_13h57.38.890,FishGame,2022.1.1,60.05410875200597,
,22,넌 빈틈없어,3,Green,A,4.833333333333333,3.966666666666667,ScrollDown,ScrollUp,Green.png,1,Neutral,Neutral,,,,,0,0,0,0,,,,,,,,,,,,,0,21,21,21,,,,,,,,,,,,,,,,,,,,,,,,,,,,,,,,,,,,,,,,,,,,,,,,,,,,,,,,,,,,,,,,,,,,,,,,,,,,,,,,,1,1.2482608999998774,194.60535610000034,None,ScrollDown,정답입니다,194.60535610000034,None,194.60535610000034,None,194.60535610000034,None,194.60535610000034,None,195.72257930000023,None,195.72257930000023,196.23388060000025,,,,,,,,,,,,,,,,216,2022-05-13_13h57.38.890,FishGame,2022.1.1,60.05410875200597,
,23,넌 상상력없어,4,Orange,B,2.833333333333333,3.133333333333333,ScrollUp,ScrollDown,Orange.png,1,Negative,Congruent,,,,,0,0,0,0,,,,,,,,,,,,,0,22,22,22,,,,,,,,,,,,,,,,,,,,,,,,,,,,,,,,,,,,,,,,,,,,,,,,,,,,,,,,,,,,,,,,,,,,,,,,,,,,,,,,,2,1.117672599999878,196.89907390000008,None,ScrollUp,정답입니다,196.89907390000008,None,196.89907390000008,None,196.89907390000008,None,196.89907390000008,None,197.87215490000017,None,197.87215490000017,198.38362860000007,,,,,,,,,,,,,,,,216,2022-05-13_13h57.38.890,FishGame,2022.1.1,60.05410875200597,
,24,넌 지혜로워,2,Orange,B,6.333333333333334,4.633333333333334,ScrollUp,ScrollDown,Orange.png,1,Positive,Incongruent,,,,,0,0,0,0,,,,,,,,,,,,,0,23,23,23,,,,,,,,,,,,,,,,,,,,,,,,,,,,,,,,,,,,,,,,,,,,,,,,,,,,,,,,,,,,,,,,,,,,,,,,,,,,,,,,,2,1.0992310000001453,199.04727150000008,None,ScrollUp,정답입니다,199.04727150000008,None,199.04727150000008,None,199.04727150000008,None,199.04727150000008,None,200.00342590000037,None,200.00342590000037,200.51670330000024,,,,,,,,,,,,,,,,216,2022-05-13_13h57.38.890,FishGame,2022.1.1,60.05410875200597,
,25,넌 시끄러워,4,Green,A,2.833333333333333,3.033333333333333,ScrollDown,ScrollUp,Green.png,1,Negative,Incongruent,,,,,0,0,0,0,,,,,,,,,,,,,0,24,24,24,,,,,,,,,,,,,,,,,,,,,,,,,,,,,,,,,,,,,,,,,,,,,,,,,,,,,,,,,,,,,,,,,,,,,,,,,,,,,,,,,1,1.2291817000000265,201.17200900000034,None,ScrollDown,정답입니다,201.17200900000034,None,201.17200900000034,None,201.17200900000034,None,201.17200900000034,None,202.26731140000038,None,202.26731140000038,202.76654640000015,,,,,,,,,,,,,,,,216,2022-05-13_13h57.38.890,FishGame,2022.1.1,60.05410875200597,
,26,넌 만사태평이야,3,Orange,B,4,4.333333333333333,ScrollUp,ScrollDown,Orange.png,1,Neutral,Neutral,,,,,0,0,0,0,,,,,,,,,,,,,0,25,25,25,,,,,,,,,,,,,,,,,,,,,,,,,,,,,,,,,,,,,,,,,,,,,,,,,,,,,,,,,,,,,,,,,,,,,,,,,,,,,,,,,2,1.1119666000004145,203.42430440000044,None,ScrollUp,정답입니다,203.42430440000044,None,203.42430440000044,None,203.42430440000044,None,203.42430440000044,None,204.39960090000022,None,204.39960090000022,204.89946710000004,,,,,,,,,,,,,,,,216,2022-05-13_13h57.38.890,FishGame,2022.1.1,60.05410875200597,
,27,넌 붙임성있어,1,Green,A,5.708333333333333,5.633333333333334,ScrollDown,ScrollUp,Green.png,1,Positive,Congruent,,,,,0,0,0,0,,,,,,,,,,,,,0,26,26,26,,,,,,,,,,,,,,,,,,,,,,,,,,,,,,,,,,,,,,,,,,,,,,,,,,,,,,,,,,,,,,,,,,,,,,,,,,,,,,,,,1,1.1933609999996406,205.55664520000028,None,ScrollDown,정답입니다,205.55664520000028,None,205.55664520000028,None,205.55664520000028,None,205.55664520000028,None,206.6161986000002,None,206.6161986000002,207.11580220000042,,,,,,,,,,,,,,,,216,2022-05-13_13h57.38.890,FishGame,2022.1.1,60.05410875200597,
,28,넌 영리해,2,Green,A,6,4.033333333333333,ScrollDown,ScrollUp,Green.png,1,Positive,Congruent,,,,,0,0,0,0,,,,,,,,,,,,,0,27,27,27,,,,,,,,,,,,,,,,,,,,,,,,,,,,,,,,,,,,,,,,,,,,,,,,,,,,,,,,,,,,,,,,,,,,,,,,,,,,,,,,,1,1.2723774000000958,207.76792860000023,None,ScrollDown,정답입니다,207.76792860000023,None,207.76792860000023,None,207.76792860000023,None,207.76792860000023,None,208.90940600000022,None,208.90940600000022,209.4154853,,,,,,,,,,,,,,,,216,2022-05-13_13h57.38.890,FishGame,2022.1.1,60.05410875200597,
,29,넌 열심이야,1,Orange,B,6.041666666666667,5.833333333333333,ScrollUp,ScrollDown,Orange.png,1,Positive,Incongruent,,,,,0,0,0,0,,,,,,,,,,,,,0,28,28,28,,,,,,,,,,,,,,,,,,,,,,,,,,,,,,,,,,,,,,,,,,,,,,,,,,,,,,,,,,,,,,,,,,,,,,,,,,,,,,,,,2,1.2492240999999922,210.0734690000004,None,ScrollUp,정답입니다,210.0734690000004,None,210.0734690000004,None,210.0734690000004,None,210.0734690000004,None,211.18692510000028,None,211.18692510000028,211.6985765000004,,,,,,,,,,,,,,,,216,2022-05-13_13h57.38.890,FishGame,2022.1.1,60.05410875200597,
,30,넌 인기없어,4,Orange,B,3,3.3,ScrollUp,ScrollDown,Orange.png,1,Negative,Congruent,,,,,0,0,0,0,,,,,,,,,,,,,0,29,29,29,,,,,,,,,,,,,,,,,,,,,,,,,,,,,,,,,,,,,,,,,,,,,,,,,,,,,,,,,,,,,,,,,,,,,,,,,,,,,,,,,2,1.1377164999998968,212.35522760000003,None,ScrollUp,정답입니다,212.35522760000003,None,212.35522760000003,None,212.35522760000003,None,212.35522760000003,None,213.35658310000008,None,213.35658310000008,213.86495120000018,,,,,,,,,,,,,,,,216,2022-05-13_13h57.38.890,FishGame,2022.1.1,60.05410875200597,
,31,넌 익살스러워,3,Green,A,4.708333333333334,4.833333333333333,ScrollDown,ScrollUp,Green.png,1,Neutral,Neutral,,,,,0,0,0,0,,,,,,,,,,,,,0,30,30,30,,,,,,,,,,,,,,,,,,,,,,,,,,,,,,,,,,,,,,,,,,,,,,,,,,,,,,,,,,,,,,,,,,,,,,,,,,,,,,,,,1,1.1586720000000241,214.5228331000003,None,ScrollDown,정답입니다,214.5228331000003,None,214.5228331000003,None,214.5228331000003,None,214.5228331000003,None,215.54834720000008,None,215.54834720000008,216.0482380000003,,,,,,,,,,,,,,,,216,2022-05-13_13h57.38.890,FishGame,2022.1.1,60.05410875200597,
,32,넌 이기적이야,5,Orange,B,2.291666666666667,2.333333333333333,ScrollUp,ScrollDown,Orange.png,1,Negative,Congruent,,,,,0,0,0,0,,,,,,,,,,,,,0,31,31,31,,,,,,,,,,,,,,,,,,,,,,,,,,,,,,,,,,,,,,,,,,,,,,,,,,,,,,,,,,,,,,,,,,,,,,,,,,,,,,,,,2,1.1264498000000458,216.6979951000003,None,ScrollUp,정답입니다,216.6979951000003,None,216.6979951000003,None,216.6979951000003,None,216.6979951000003,None,217.69788180000023,None,217.69788180000023,218.19776310000043,,,,,,,,,,,,,,,,216,2022-05-13_13h57.38.890,FishGame,2022.1.1,60.05410875200597,
,33,나를 데려가줘,6,Orange,B,0,0,ScrollDown,ScrollUp,Orange.png,1,NonTarget,NonTarget,,,,,0,0,0,0,,,,,,,,,,,,,0,32,32,32,,,,,,,,,,,,,,,,,,,,,,,,,,,,,,,,,,,,,,,,,,,,,,,,,,,,,,,,,,,,,,,,,,,,,,,,,,,,,,,,,1,1.2160586999998486,218.85016160000032,None,ScrollDown,정답입니다,218.85016160000032,None,218.85016160000032,None,218.85016160000032,None,218.85016160000032,None,219.93614920000027,None,219.93614920000027,220.44768440000007,,,,,,,,,,,,,,,,216,2022-05-13_13h57.38.890,FishGame,2022.1.1,60.05410875200597,
,34,넌 기회주의자야,5,Green,A,2.875,2.133333333333333,ScrollDown,ScrollUp,Green.png,1,Negative,Incongruent,,,,,0,0,0,0,,,,,,,,,,,,,0,33,33,33,,,,,,,,,,,,,,,,,,,,,,,,,,,,,,,,,,,,,,,,,,,,,,,,,,,,,,,,,,,,,,,,,,,,,,,,,,,,,,,,,1,1.206674000000021,221.09999200000038,None,ScrollDown,정답입니다,221.09999200000038,None,221.09999200000038,None,221.09999200000038,None,221.09999200000038,None,222.18080650000002,None,222.18080650000002,222.68051760000026,,,,,,,,,,,,,,,,216,2022-05-13_13h57.38.890,FishGame,2022.1.1,60.05410875200597,
,1,넌 미성숙해,4,Green,A,3,3.2,ScrollDown,ScrollUp,Green.png,2,Negative,Incongruent,,,,,0,0,0,0,,,,,,,,,,,,,,,,,0,0,0,0,,,,,,,,,,,,,,,,,,,,,,,,,,,,,,,,,,,,255.3601276000004,256.8597055,256.8929266,257.8428573000001,257.8927874000001,258.8426249000004,258.8426249000004,None,,,,,,,,,,,,,,,,,,,,,,,,,,,,,,,,,,1,1.4197266999999556,260.0081957000002,None,ScrollDown,정답입니다,260.0081957000002,None,260.0081957000002,None,260.0081957000002,None,260.0081957000002,None,261.26971300000014,None,261.26971300000014,261.7754269000002,223.18057800000042,None,223.18057800000042,None,0.05648148,-0.08148148,1,0,0,0.015859739999996236,None,253.19345590000012,None,,,216,2022-05-13_13h57.38.890,FishGame,2022.1.1,60.05410875200597,
,2,넌 반사회적이야,5,Orange,B,2.416666666666667,2.033333333333333,ScrollUp,ScrollDown,Orange.png,2,Negative,Congruent,,,,,0,0,0,0,,,,,,,,,,,,,,,,,0,1,1,1,,,,,,,,,,,,,,,,,,,,,,,,,,,,,,,,,,,,,,,,,,,,,,,,,,,,,,,,,,,,,,,,,,,,,,,,,,,,,2,1.2280238999996982,262.4345410000001,None,ScrollUp,정답입니다,262.4345410000001,None,262.4345410000001,None,262.4345410000001,None,262.4345410000001,None,263.5259232000003,None,263.5259232000003,264.02540550000003,,,,,,,,,,,,,,,,216,2022-05-13_13h57.38.890,FishGame,2022.1.1,60.05410875200597,
,3,넌 유능해,2,Green,A,6.208333333333333,4.433333333333334,ScrollDown,ScrollUp,Green.png,2,Positive,Congruent,,,,,0,0,0,0,,,,,,,,,,,,,,,,,0,2,2,2,,,,,,,,,,,,,,,,,,,,,,,,,,,,,,,,,,,,,,,,,,,,,,,,,,,,,,,,,,,,,,,,,,,,,,,,,,,,,1.0092592636744182,1.1164788000000954,264.6830471000003,None,ScrollDown,정답입니다,264.6830471000003,None,264.6830471000003,None,264.6830471000003,None,264.6830471000003,None,265.6638138000003,None,265.6638138000003,266.1749355000002,,,,,,,,,,,,,,,,216,2022-05-13_13h57.38.890,FishGame,2022.1.1,60.05410875200597,
,4,넌 능숙해,2,Orange,B,5.666666666666667,4.733333333333333,ScrollUp,ScrollDown,Orange.png,2,Positive,Incongruent,,,,,0,0,0,0,,,,,,,,,,,,,,,,,0,3,3,3,,,,,,,,,,,,,,,,,,,,,,,,,,,,,,,,,,,,,,,,,,,,,,,,,,,,,,,,,,,,,,,,,,,,,,,,,,,,,2,1.1165286999998898,266.82538630000045,None,ScrollUp,정답입니다,266.82538630000045,None,266.82538630000045,None,266.82538630000045,None,266.82538630000045,None,267.8120312000001,None,267.8120312000001,268.3247921000002,,,,,,,,,,,,,,,,216,2022-05-13_13h57.38.890,FishGame,2022.1.1,60.05410875200597,
,5,넌 진부해,4,Orange,B,2.458333333333333,3.166666666666667,ScrollUp,ScrollDown,Orange.png,2,Negative,Congruent,,,,,0,0,0,0,,,,,,,,,,,,,,,,,0,4,4,4,,,,,,,,,,,,,,,,,,,,,,,,,,,,,,,,,,,,,,,,,,,,,,,,,,,,,,,,,,,,,,,,,,,,,,,,,,,,,2,1.2776549999998679,268.97763110000005,None,ScrollUp,정답입니다,268.97763110000005,None,268.97763110000005,None,268.97763110000005,None,268.97763110000005,None,270.1243069000002,None,270.1243069000002,270.6242897000002,,,,,,,,,,,,,,,,216,2022-05-13_13h57.38.890,FishGame,2022.1.1,60.05410875200597,
,6,나를 보내줘,6,Green,A,0,0,ScrollUp,ScrollDown,Green.png,2,NonTarget,NonTarget,,,,,0,0,0,0,,,,,,,,,,,,,,,,,0,5,5,5,,,,,,,,,,,,,,,,,,,,,,,,,,,,,,,,,,,,,,,,,,,,,,,,,,,,,,,,,,,,,,,,,,,,,,,,,,,,,2,1.225709100000131,271.2727407000002,None,ScrollUp,정답입니다,271.2727407000002,None,271.2727407000002,None,271.2727407000002,None,271.2727407000002,None,272.37412310000036,None,272.37412310000036,272.8741043,,,,,,,,,,,,,,,,216,2022-05-13_13h57.38.890,FishGame,2022.1.1,60.05410875200597,
,7,넌 엄격해,3,Green,A,4.166666666666666,4.1,ScrollDown,ScrollUp,Green.png,2,Neutral,Neutral,,,,,0,0,0,0,,,,,,,,,,,,,,,,,0,6,6,6,,,,,,,,,,,,,,,,,,,,,,,,,,,,,,,,,,,,,,,,,,,,,,,,,,,,,,,,,,,,,,,,,,,,,,,,,,,,,1,1.2230936999999358,273.52873580000005,None,ScrollDown,정답입니다,273.52873580000005,None,273.52873580000005,None,273.52873580000005,None,273.52873580000005,None,274.6238374000004,None,274.6238374000004,275.1236477000002,,,,,,,,,,,,,,,,216,2022-05-13_13h57.38.890,FishGame,2022.1.1,60.05410875200597,
,8,나를 보내줘,6,Green,A,0,0,ScrollUp,ScrollDown,Green.png,2,NonTarget,NonTarget,,,,,0,0,0,0,,,,,,,,,,,,,,,,,0,7,7,7,,,,,,,,,,,,,,,,,,,,,,,,,,,,,,,,,,,,,,,,,,,,,,,,,,,,,,,,,,,,,,,,,,,,,,,,,,,,,2,1.1768025999999736,275.7690719000002,None,ScrollUp,정답입니다,275.7690719000002,None,275.7690719000002,None,275.7690719000002,None,275.7690719000002,None,276.8190362,None,276.8190362,277.3235128000001,,,,,,,,,,,,,,,,216,2022-05-13_13h57.38.890,FishGame,2022.1.1,60.05410875200597,
,9,넌 대담해,3,Orange,B,4.875,4.866666666666666,ScrollUp,ScrollDown,Orange.png,2,Neutral,Neutral,,,,,0,0,0,0,,,,,,,,,,,,,,,,,0,8,8,8,,,,,,,,,,,,,,,,,,,,,,,,,,,,,,,,,,,,,,,,,,,,,,,,,,,,,,,,,,,,,,,,,,,,,,,,,,,,,2,1.2062129000000823,277.9771528000001,None,ScrollUp,정답입니다,277.9771528000001,None,277.9771528000001,None,277.9771528000001,None,277.9771528000001,None,279.05474090000007,None,279.05474090000007,279.5564664000003,,,,,,,,,,,,,,,,216,2022-05-13_13h57.38.890,FishGame,2022.1.1,60.05410875200597,
,10,넌 꾸준해,1,Green,A,5.916666666666668,5.8,ScrollDown,ScrollUp,Green.png,2,Positive,Congruent,,,,,0,0,0,0,,,,,,,,,,,,,,,,,0,9,9,9,,,,,,,,,,,,,,,,,,,,,,,,,,,,,,,,,,,,,,,,,,,,,,,,,,,,,,,,,,,,,,,,,,,,,,,,,,,,,1,1.19526629999973,280.21388030000026,None,ScrollDown,정답입니다,280.21388030000026,None,280.21388030000026,None,280.21388030000026,None,280.21388030000026,None,281.27380410000023,None,281.27380410000023,281.77292290000014,,,,,,,,,,,,,,,,216,2022-05-13_13h57.38.890,FishGame,2022.1.1,60.05410875200597,
,11,나를 데려가줘,6,Orange,B,0,0,ScrollDown,ScrollUp,Orange.png,2,NonTarget,NonTarget,,,,,0,0,0,0,,,,,,,,,,,,,,,,,0,10,10,10,,,,,,,,,,,,,,,,,,,,,,,,,,,,,,,,,,,,,,,,,,,,,,,,,,,,,,,,,,,,,,,,,,,,,,,,,,,,,1,1.267504800000097,282.42086050000034,None,ScrollDown,정답입니다,282.42086050000034,None,282.42086050000034,None,282.42086050000034,None,282.42086050000034,None,283.56171940000013,None,283.56171940000013,284.0726227,,,,,,,,,,,,,,,,216,2022-05-13_13h57.38.890,FishGame,2022.1.1,60.05410875200597,
,12,넌 독선적이야,5,Green,A,2.458333333333333,1.933333333333333,ScrollDown,ScrollUp,Green.png,2,Negative,Incongruent,,,,,0,0,0,0,,,,,,,,,,,,,,,,,0,11,11,11,,,,,,,,,,,,,,,,,,,,,,,,,,,,,,,,,,,,,,,,,,,,,,,,,,,,,,,,,,,,,,,,,,,,,,,,,,,,,1,1.36016410000002,284.7280549000002,None,ScrollDown,정답입니다,284.7280549000002,None,284.7280549000002,None,284.7280549000002,None,284.7280549000002,None,285.9557848000004,None,285.9557848000004,286.4555809000003,,,,,,,,,,,,,,,,216,2022-05-13_13h57.38.890,FishGame,2022.1.1,60.05410875200597,
,13,나를 보내줘,6,Green,A,0,0,ScrollUp,ScrollDown,Green.png,2,NonTarget,NonTarget,,,,,0,0,0,0,,,,,,,,,,,,,,,,,0,12,12,12,,,,,,,,,,,,,,,,,,,,,,,,,,,,,,,,,,,,,,,,,,,,,,,,,,,,,,,,,,,,,,,,,,,,,,,,,,,,,2,1.1385685000000194,287.1034076000001,None,ScrollUp,정답입니다,287.1034076000001,None,287.1034076000001,None,287.1034076000001,None,287.1034076000001,None,288.11447030000045,None,288.11447030000045,288.6222872000003,,,,,,,,,,,,,,,,216,2022-05-13_13h57.38.890,FishGame,2022.1.1,60.05410875200597,
,14,넌 책임감있어,1,Orange,B,6.347826086956522,6,ScrollUp,ScrollDown,Orange.png,2,Positive,Incongruent,,,,,0,0,0,0,,,,,,,,,,,,,,,,,0,13,13,13,,,,,,,,,,,,,,,,,,,,,,,,,,,,,,,,,,,,,,,,,,,,,,,,,,,,,,,,,,,,,,,,,,,,,,,,,,,,,2,1.3155486000000565,289.2760196000004,None,ScrollUp,정답입니다,289.2760196000004,None,289.2760196000004,None,289.2760196000004,None,289.2760196000004,None,290.4605680000004,None,290.4605680000004,290.9717233000001,,,,,,,,,,,,,,,,216,2022-05-13_13h57.38.890,FishGame,2022.1.1,60.05410875200597,
,15,넌 문학적이야,3,Green,A,4.708333333333334,4.333333333333333,ScrollDown,ScrollUp,Green.png,2,Neutral,Neutral,,,,,0,0,0,0,,,,,,,,,,,,,,,,,0,14,14,14,,,,,,,,,,,,,,,,,,,,,,,,,,,,,,,,,,,,,,,,,,,,,,,,,,,,,,,,,,,,,,,,,,,,,,,,,,,,,1,1.293631600000026,291.6254895000002,None,ScrollDown,정답입니다,291.6254895000002,None,291.6254895000002,None,291.6254895000002,None,291.6254895000002,None,292.78814650000004,None,292.78814650000004,293.28801820000035,,,,,,,,,,,,,,,,216,2022-05-13_13h57.38.890,FishGame,2022.1.1,60.05410875200597,
,16,넌 재미있어,1,Orange,B,5.875,5.7,ScrollUp,ScrollDown,Orange.png,2,Positive,Incongruent,,,,,0,0,0,0,,,,,,,,,,,,,,,,,0,15,15,15,,,,,,,,,,,,,,,,,,,,,,,,,,,,,,,,,,,,,,,,,,,,,,,,,,,,,,,,,,,,,,,,,,,,,,,,,,,,,2,1.3419046000003618,293.9414601000003,None,ScrollUp,정답입니다,293.9414601000003,None,293.9414601000003,None,293.9414601000003,None,293.9414601000003,None,295.1545417000002,None,295.1545417000002,295.6544882000003,,,,,,,,,,,,,,,,216,2022-05-13_13h57.38.890,FishGame,2022.1.1,60.05410875200597,
,17,나를 데려가줘,6,Orange,B,0,0,ScrollDown,ScrollUp,Orange.png,2,NonTarget,NonTarget,,,,,0,0,0,0,,,,,,,,,,,,,,,,,0,16,16,16,,,,,,,,,,,,,,,,,,,,,,,,,,,,,,,,,,,,,,,,,,,,,,,,,,,,,,,,,,,,,,,,,,,,,,,,,,,,,1,1.2810202000000572,296.30692910000016,None,ScrollDown,정답입니다,296.30692910000016,None,296.30692910000016,None,296.30692910000016,None,296.30692910000016,None,297.45714020000014,None,297.45714020000014,297.97076270000025,,,,,,,,,,,,,,,,216,2022-05-13_13h57.38.890,FishGame,2022.1.1,60.05410875200597,
,18,넌 협력적이야,1,Green,A,5.625,5.633333333333334,ScrollDown,ScrollUp,Green.png,2,Positive,Congruent,,,,,0,0,0,0,,,,,,,,,,,,,,,,,0,17,17,17,,,,,,,,,,,,,,,,,,,,,,,,,,,,,,,,,,,,,,,,,,,,,,,,,,,,,,,,,,,,,,,,,,,,,,,,,,,,,1,1.1402971000002253,298.6252104,None,ScrollDown,정답입니다,298.6252104,None,298.6252104,None,298.6252104,None,298.6252104,None,299.63722830000006,None,299.63722830000006,300.1371258000004,,,,,,,,,,,,,,,,216,2022-05-13_13h57.38.890,FishGame,2022.1.1,60.05410875200597,
,19,넌 평범해,3,Orange,B,4.333333333333332,4.233333333333333,ScrollUp,ScrollDown,Orange.png,2,Neutral,Neutral,,,,,0,0,0,0,,,,,,,,,,,,,,,,,0,18,18,18,,,,,,,,,,,,,,,,,,,,,,,,,,,,,,,,,,,,,,,,,,,,,,,,,,,,,,,,,,,,,,,,,,,,,,,,,,,,,2,1.1596032000002197,300.7954023000002,None,ScrollUp,정답입니다,300.7954023000002,None,300.7954023000002,None,300.7954023000002,None,300.7954023000002,None,301.82033980000006,None,301.82033980000006,302.32027930000004,,,,,,,,,,,,,,,,216,2022-05-13_13h57.38.890,FishGame,2022.1.1,60.05410875200597,
,20,넌 오만해,5,Green,A,2.333333333333333,2,ScrollDown,ScrollUp,Green.png,2,Negative,Incongruent,,,,,0,0,0,0,,,,,,,,,,,,,,,,,0,19,19,19,,,,,,,,,,,,,,,,,,,,,,,,,,,,,,,,,,,,,,,,,,,,,,,,,,,,,,,,,,,,,,,,,,,,,,,,,,,,,1,1.1392533999996886,302.9720890000003,None,ScrollDown,정답입니다,302.9720890000003,None,302.9720890000003,None,302.9720890000003,None,302.9720890000003,None,303.9866582000004,None,303.9866582000004,304.4866248000003,,,,,,,,,,,,,,,,216,2022-05-13_13h57.38.890,FishGame,2022.1.1,60.05410875200597,
,21,넌 운이없어,4,Orange,B,3,3.466666666666667,ScrollUp,ScrollDown,Orange.png,2,Negative,Congruent,,,,,0,0,0,0,,,,,,,,,,,,,,,,,0,20,20,20,,,,,,,,,,,,,,,,,,,,,,,,,,,,,,,,,,,,,,,,,,,,,,,,,,,,,,,,,,,,,,,,,,,,,,,,,,,,,2,1.144791599999735,305.1442651000002,None,ScrollUp,정답입니다,305.1442651000002,None,305.1442651000002,None,305.1442651000002,None,305.1442651000002,None,306.15328290000025,None,306.15328290000025,306.6532935,,,,,,,,,,,,,,,,216,2022-05-13_13h57.38.890,FishGame,2022.1.1,60.05410875200597,
,22,넌 창조적이야,2,Orange,B,6.125,4.633333333333334,ScrollUp,ScrollDown,Orange.png,2,Positive,Incongruent,,,,,0,0,0,0,,,,,,,,,,,,,,,,,0,21,21,21,,,,,,,,,,,,,,,,,,,,,,,,,,,,,,,,,,,,,,,,,,,,,,,,,,,,,,,,,,,,,,,,,,,,,,,,,,,,,2,1.1204477999999654,307.3080421000004,None,ScrollUp,정답입니다,307.3080421000004,None,307.3080421000004,None,307.3080421000004,None,307.3080421000004,None,308.30106090000027,None,308.30106090000027,308.8027237000001,,,,,,,,,,,,,,,,216,2022-05-13_13h57.38.890,FishGame,2022.1.1,60.05410875200597,
,23,나를 보내줘,6,Green,A,0,0,ScrollUp,ScrollDown,Green.png,2,NonTarget,NonTarget,,,,,0,0,0,0,,,,,,,,,,,,,,,,,0,22,22,22,,,,,,,,,,,,,,,,,,,,,,,,,,,,,,,,,,,,,,,,,,,,,,,,,,,,,,,,,,,,,,,,,,,,,,,,,,,,,2,1.1932223999997404,309.44873860000007,None,ScrollUp,정답입니다,309.44873860000007,None,309.44873860000007,None,309.44873860000007,None,309.44873860000007,None,310.5193218000004,None,310.5193218000004,311.01943070000016,,,,,,,,,,,,,,,,216,2022-05-13_13h57.38.890,FishGame,2022.1.1,60.05410875200597,
,24,넌 통찰력있어,2,Green,A,6.5,4.8,ScrollDown,ScrollUp,Green.png,2,Positive,Congruent,,,,,0,0,0,0,,,,,,,,,,,,,,,,,0,23,23,23,,,,,,,,,,,,,,,,,,,,,,,,,,,,,,,,,,,,,,,,,,,,,,,,,,,,,,,,,,,,,,,,,,,,,,,,,,,,,1,1.2113331000000471,311.67044020000003,None,ScrollDown,정답입니다,311.67044020000003,None,311.67044020000003,None,311.67044020000003,None,311.67044020000003,None,312.7522692000002,None,312.7522692000002,313.2523769000004,,,,,,,,,,,,,,,,216,2022-05-13_13h57.38.890,FishGame,2022.1.1,60.05410875200597,
,25,넌 경솔해,5,Orange,B,2.458333333333333,2.266666666666667,ScrollUp,ScrollDown,Orange.png,2,Negative,Congruent,,,,,0,0,0,0,,,,,,,,,,,,,,,,,0,24,24,24,,,,,,,,,,,,,,,,,,,,,,,,,,,,,,,,,,,,,,,,,,,,,,,,,,,,,,,,,,,,,,,,,,,,,,,,,,,,,2,1.060806500000126,313.9037202000004,None,ScrollUp,정답입니다,313.9037202000004,None,313.9037202000004,None,313.9037202000004,None,313.9037202000004,None,314.8357143000003,None,314.8357143000003,315.33539850000034,,,,,,,,,,,,,,,,216,2022-05-13_13h57.38.890,FishGame,2022.1.1,60.05410875200597,
,26,넌 초조해,4,Green,A,2.916666666666667,3.133333333333333,ScrollDown,ScrollUp,Green.png,2,Negative,Incongruent,,,,,0,0,0,0,,,,,,,,,,,,,,,,,0,25,25,25,,,,,,,,,,,,,,,,,,,,,,,,,,,,,,,,,,,,,,,,,,,,,,,,,,,,,,,,,,,,,,,,,,,,,,,,,,,,,1,1.139754300000277,315.98425510000015,None,ScrollDown,정답입니다,315.98425510000015,None,315.98425510000015,None,315.98425510000015,None,315.98425510000015,None,317.00170720000006,None,317.00170720000006,317.5015827000002,,,,,,,,,,,,,,,,216,2022-05-13_13h57.38.890,FishGame,2022.1.1,60.05410875200597,
,27,넌 무관심해,4,Orange,B,2.833333333333333,2.9,ScrollUp,ScrollDown,Orange.png,2,Negative,Congruent,,,,,0,0,0,0,,,,,,,,,,,,,,,,,0,26,26,26,,,,,,,,,,,,,,,,,,,,,,,,,,,,,,,,,,,,,,,,,,,,,,,,,,,,,,,,,,,,,,,,,,,,,,,,,,,,,2,1.1489842000000863,318.15980560000025,None,ScrollUp,정답입니다,318.15980560000025,None,318.15980560000025,None,318.15980560000025,None,318.15980560000025,None,319.1720187000001,None,319.1720187000001,319.6848239000001,,,,,,,,,,,,,,,,216,2022-05-13_13h57.38.890,FishGame,2022.1.1,60.05410875200597,
,28,넌 감성적이야,3,Orange,B,4.125,4.166666666666667,ScrollUp,ScrollDown,Orange.png,2,Neutral,Neutral,,,,,0,0,0,0,,,,,,,,,,,,,,,,,0,27,27,27,,,,,,,,,,,,,,,,,,,,,,,,,,,,,,,,,,,,,,,,,,,,,,,,,,,,,,,,,,,,,,,,,,,,,,,,,,,,,2,1.1163985000002867,320.3390489000003,None,ScrollUp,정답입니다,320.3390489000003,None,320.3390489000003,None,320.3390489000003,None,320.3390489000003,None,321.3224828000002,None,321.3224828000002,321.83426310000004,,,,,,,,,,,,,,,,216,2022-05-13_13h57.38.890,FishGame,2022.1.1,60.05410875200597,
,29,넌 배려심있어,1,Green,A,6.083333333333333,5.5,ScrollDown,ScrollUp,Green.png,2,Positive,Congruent,,,,,0,0,0,0,,,,,,,,,,,,,,,,,0,28,28,28,,,,,,,,,,,,,,,,,,,,,,,,,,,,,,,,,,,,,,,,,,,,,,,,,,,,,,,,,,,,,,,,,,,,,,,,,,,,,1,1.134545099999741,322.4875014000004,None,ScrollDown,정답입니다,322.4875014000004,None,322.4875014000004,None,322.4875014000004,None,322.4875014000004,None,323.4904504000001,None,323.4904504000001,324.0007523000004,,,,,,,,,,,,,,,,216,2022-05-13_13h57.38.890,FishGame,2022.1.1,60.05410875200597,
,30,넌 숨김없어,3,Green,A,4.5,4.933333333333334,ScrollDown,ScrollUp,Green.png,2,Neutral,Neutral,,,,,0,0,0,0,,,,,,,,,,,,,,,,,0,29,29,29,,,,,,,,,,,,,,,,,,,,,,,,,,,,,,,,,,,,,,,,,,,,,,,,,,,,,,,,,,,,,,,,,,,,,,,,,,,,,1,1.2296317000000272,324.6552264000002,None,ScrollDown,정답입니다,324.6552264000002,None,324.6552264000002,None,324.6552264000002,None,324.6552264000002,None,325.75228080000034,None,325.75228080000034,326.26714900000024,,,,,,,,,,,,,,,,216,2022-05-13_13h57.38.890,FishGame,2022.1.1,60.05410875200597,
,31,넌 훌륭해,2,Orange,B,5.916666666666667,4.033333333333333,ScrollUp,ScrollDown,Orange.png,2,Positive,Incongruent,,,,,0,0,0,0,,,,,,,,,,,,,,,,,0,30,30,30,,,,,,,,,,,,,,,,,,,,,,,,,,,,,,,,,,,,,,,,,,,,,,,,,,,,,,,,,,,,,,,,,,,,,,,,,,,,,2,1.2425975000001017,326.9277264000002,None,ScrollUp,정답입니다,326.9277264000002,None,326.9277264000002,None,326.9277264000002,None,326.9277264000002,None,328.03359290000026,None,328.03359290000026,328.53352440000026,,,,,,,,,,,,,,,,216,2022-05-13_13h57.38.890,FishGame,2022.1.1,60.05410875200597,
,32,넌 슬기로워,2,Green,A,6.166666666666667,4.1,ScrollDown,ScrollUp,Green.png,2,Positive,Congruent,,,,,0,0,0,0,,,,,,,,,,,,,,,,,0,31,31,31,,,,,,,,,,,,,,,,,,,,,,,,,,,,,,,,,,,,,,,,,,,,,,,,,,,,,,,,,,,,,,,,,,,,,,,,,,,,,1,1.2378344999997353,329.18502160000025,None,ScrollDown,정답입니다,329.18502160000025,None,329.18502160000025,None,329.18502160000025,None,329.18502160000025,None,330.30005230000006,None,330.30005230000006,330.80016490000025,,,,,,,,,,,,,,,,216,2022-05-13_13h57.38.890,FishGame,2022.1.1,60.05410875200597,
,33,넌 냉혹해,5,Green,A,2.583333333333333,2.1,ScrollDown,ScrollUp,Green.png,2,Negative,Incongruent,,,,,0,0,0,0,,,,,,,,,,,,,,,,,0,32,32,32,,,,,,,,,,,,,,,,,,,,,,,,,,,,,,,,,,,,,,,,,,,,,,,,,,,,,,,,,,,,,,,,,,,,,,,,,,,,,1,1.234993999999915,331.4497421000001,None,ScrollDown,정답입니다,331.4497421000001,None,331.4497421000001,None,331.4497421000001,None,331.4497421000001,None,332.5557872000004,None,332.5557872000004,333.0663692000003,,,,,,,,,,,,,,,,216,2022-05-13_13h57.38.890,FishGame,2022.1.1,60.05410875200597,
,34,나를 데려가줘,6,Orange,B,0,0,ScrollDown,ScrollUp,Orange.png,2,NonTarget,NonTarget,,,,,0,0,0,0,,,,,,,,,,,,,,,,,0,33,33,33,,,,,,,,,,,,,,,,,,,,,,,,,,,,,,,,,,,,,,,,,,,,,,,,,,,,,,,,,,,,,,,,,,,,,,,,,,,,,1,1.4347176999999647,333.7183791000002,None,ScrollDown,정답입니다,333.7183791000002,None,333.7183791000002,None,333.7183791000002,None,333.7183791000002,None,335.0211879000003,None,335.0211879000003,335.53272380000044,,,,,,,,,,,,,,,,216,2022-05-13_13h57.38.890,FishGame,2022.1.1,60.05410875200597,
,35,넌 편파적이야,5,Orange,B,2.125,2,ScrollUp,ScrollDown,Orange.png,2,Negative,Congruent,,,,,0,0,0,0,,,,,,,,,,,,,,,,,0,34,34,34,,,,,,,,,,,,,,,,,,,,,,,,,,,,,,,,,,,,,,,,,,,,,,,,,,,,,,,,,,,,,,,,,,,,,,,,,,,,,2,1.3839161000000786,336.19061820000024,None,ScrollUp,정답입니다,336.19061820000024,None,336.19061820000024,None,336.19061820000024,None,336.19061820000024,None,337.4371232000003,None,337.4371232000003,337.9490732000004,,,,,,,,,,,,,,,,216,2022-05-13_13h57.38.890,FishGame,2022.1.1,60.05410875200597,
,36,넌 슬퍼,4,Green,A,2.583333333333333,3.066666666666667,ScrollDown,ScrollUp,Green.png,2,Negative,Incongruent,,,,,0,0,0,0,,,,,,,,,,,,,,,,,0,35,35,35,,,,,,,,,,,,,,,,,,,,,,,,,,,,,,,,,,,,,,,,,,,,,,,,,,,,,,,,,,,,,,,,,,,,,,,,,,,,,1,1.2162737999997262,338.59367810000003,None,ScrollDown,정답입니다,338.59367810000003,None,338.59367810000003,None,338.59367810000003,None,338.59367810000003,None,339.6882873000004,None,339.6882873000004,340.1987616000001,,,,,,,,,,,,,,,,216,2022-05-13_13h57.38.890,FishGame,2022.1.1,60.05410875200597,
,37,나를 데려가줘,6,Orange,B,0,0,ScrollDown,ScrollUp,Orange.png,2,NonTarget,NonTarget,,,,,0,0,0,0,,,,,,,,,,,,,,,,,0,36,36,36,,,,,,,,,,,,,,,,,,,,,,,,,,,,,,,,,,,,,,,,,,,,,,,,,,,,,,,,,,,,,,,,,,,,,,,,,,,,,1,1.2856418000001213,340.84997380000004,None,ScrollDown,정답입니다,340.84997380000004,None,340.84997380000004,None,340.84997380000004,None,340.84997380000004,None,342.0049417,None,342.0049417,342.5150606000002,,,,,,,,,,,,,,,,216,2022-05-13_13h57.38.890,FishGame,2022.1.1,60.05410875200597,
,38,넌 친절해,1,Orange,B,6.041666666666667,5.533333333333333,ScrollUp,ScrollDown,Orange.png,2,Positive,Incongruent,,,,,0,0,0,0,,,,,,,,,,,,,,,,,0,37,37,37,,,,,,,,,,,,,,,,,,,,,,,,,,,,,,,,,,,,,,,,,,,,,,,,,,,,,,,,,,,,,,,,,,,,,,,,,,,,,2,1.2839579999999842,343.1757711,None,ScrollUp,정답입니다,343.1757711,None,343.1757711,None,343.1757711,None,343.1757711,None,344.31993070000044,None,344.31993070000044,344.83145190000005,,,,,,,,,,,,,,,,216,2022-05-13_13h57.38.890,FishGame,2022.1.1,60.05410875200597,
,1,넌 엉성해,4,Green,A,3,3.3,ScrollDown,ScrollUp,Green.png,3,Negative,Incongruent,,,,,0,0,0,0,,,,,,,,,,,,,,,,,,,,,0,0,0,0,,,,,,,,,,,,,,,,,,,,,,,,,,,,,,,,377.39415020000024,378.8939451000001,378.9274141000001,379.8770134000001,379.92706510000016,380.8769408000003,380.8769408000003,None,,,,,,,,,,,,,,,,,,,,,,,,,,,,,,,,,,1,1.3890270999995664,382.04855750000024,None,ScrollDown,정답입니다,382.04855750000024,None,382.04855750000024,None,382.04855750000024,None,382.04855750000024,None,383.2773717,None,383.2773717,383.7767018000004,345.3314320000004,None,345.3314320000004,None,0.098148145,-0.10185185,1,0,0,0.016177439999864873,None,375.3276589000002,None,,,216,2022-05-13_13h57.38.890,FishGame,2022.1.1,60.05410875200597,
,2,나를 보내줘,6,Green,A,0,0,ScrollUp,ScrollDown,Green.png,3,NonTarget,NonTarget,,,,,0,0,0,0,,,,,,,,,,,,,,,,,,,,,0,1,1,1,,,,,,,,,,,,,,,,,,,,,,,,,,,,,,,,,,,,,,,,,,,,,,,,,,,,,,,,,,,,,,,,,,,,,,,,,2,1.1978397000002587,384.41987930000005,None,ScrollUp,정답입니다,384.41987930000005,None,384.41987930000005,None,384.41987930000005,None,384.41987930000005,None,385.49596580000025,None,385.49596580000025,386.00963200000024,,,,,,,,,,,,,,,,216,2022-05-13_13h57.38.890,FishGame,2022.1.1,60.05410875200597,
,3,넌 활발해,1,Orange,B,5.666666666666667,5.6,ScrollUp,ScrollDown,Orange.png,3,Positive,Incongruent,,,,,0,0,0,0,,,,,,,,,,,,,,,,,,,,,0,2,2,2,,,,,,,,,,,,,,,,,,,,,,,,,,,,,,,,,,,,,,,,,,,,,,,,,,,,,,,,,,,,,,,,,,,,,,,,,2,1.3882505999999921,386.66876310000043,None,ScrollUp,정답입니다,386.66876310000043,None,386.66876310000043,None,386.66876310000043,None,386.66876310000043,None,387.9175253000003,None,387.9175253000003,388.4257510000002,,,,,,,,,,,,,,,,216,2022-05-13_13h57.38.890,FishGame,2022.1.1,60.05410875200597,
,4,넌 논리적이야,2,Green,A,5.666666666666666,4.633333333333334,ScrollDown,ScrollUp,Green.png,3,Positive,Congruent,,,,,0,0,0,0,,,,,,,,,,,,,,,,,,,,,0,3,3,3,,,,,,,,,,,,,,,,,,,,,,,,,,,,,,,,,,,,,,,,,,,,,,,,,,,,,,,,,,,,,,,,,,,,,,,,,1,1.1335002000000713,389.0750893000004,None,ScrollDown,정답입니다,389.0750893000004,None,389.0750893000004,None,389.0750893000004,None,389.0750893000004,None,390.0814425000003,None,390.0814425000003,390.5923501000002,,,,,,,,,,,,,,,,216,2022-05-13_13h57.38.890,FishGame,2022.1.1,60.05410875200597,
,5,넌 과묵해,3,Green,A,3.875,4.4,ScrollDown,ScrollUp,Green.png,3,Neutral,Neutral,,,,,0,0,0,0,,,,,,,,,,,,,,,,,,,,,0,4,4,4,,,,,,,,,,,,,,,,,,,,,,,,,,,,,,,,,,,,,,,,,,,,,,,,,,,,,,,,,,,,,,,,,,,,,,,,,1,1.1989196999998057,391.2378697000004,None,ScrollDown,정답입니다,391.2378697000004,None,391.2378697000004,None,391.2378697000004,None,391.2378697000004,None,392.3117325000003,None,392.3117325000003,392.8253268000003,,,,,,,,,,,,,,,,216,2022-05-13_13h57.38.890,FishGame,2022.1.1,60.05410875200597,
,6,나를 데려가줘,6,Orange,B,0,0,ScrollDown,ScrollUp,Orange.png,3,NonTarget,NonTarget,,,,,0,0,0,0,,,,,,,,,,,,,,,,,,,,,0,5,5,5,,,,,,,,,,,,,,,,,,,,,,,,,,,,,,,,,,,,,,,,,,,,,,,,,,,,,,,,,,,,,,,,,,,,,,,,,1,1.260083200000281,393.4817128000004,None,ScrollDown,정답입니다,393.4817128000004,None,393.4817128000004,None,393.4817128000004,None,393.4817128000004,None,394.6085853000004,None,394.6085853000004,395.1089215000002,,,,,,,,,,,,,,,,216,2022-05-13_13h57.38.890,FishGame,2022.1.1,60.05410875200597,
,7,넌 미숙해,4,Orange,B,3,3,ScrollUp,ScrollDown,Orange.png,3,Negative,Congruent,,,,,0,0,0,0,,,,,,,,,,,,,,,,,,,,,0,6,6,6,,,,,,,,,,,,,,,,,,,,,,,,,,,,,,,,,,,,,,,,,,,,,,,,,,,,,,,,,,,,,,,,,,,,,,,,,2,1.2661948999998458,395.7547317000003,None,ScrollUp,정답입니다,395.7547317000003,None,395.7547317000003,None,395.7547317000003,None,395.7547317000003,None,396.89638840000043,None,396.89638840000043,397.4081659000003,,,,,,,,,,,,,,,,216,2022-05-13_13h57.38.890,FishGame,2022.1.1,60.05410875200597,
,8,나를 보내줘,6,Green,A,0,0,ScrollUp,ScrollDown,Green.png,3,NonTarget,NonTarget,,,,,0,0,0,0,,,,,,,,,,,,,,,,,,,,,0,7,7,7,,,,,,,,,,,,,,,,,,,,,,,,,,,,,,,,,,,,,,,,,,,,,,,,,,,,,,,,,,,,,,,,,,,,,,,,,2,1.204746200000045,398.05326170000035,None,ScrollUp,정답입니다,398.05326170000035,None,398.05326170000035,None,398.05326170000035,None,398.05326170000035,None,399.1343165000003,None,399.1343165000003,399.6410393000001,,,,,,,,,,,,,,,,216,2022-05-13_13h57.38.890,FishGame,2022.1.1,60.05410875200597,
,9,넌 자신만만해,3,Orange,B,4.833333333333334,4.333333333333333,ScrollUp,ScrollDown,Orange.png,3,Neutral,Neutral,,,,,0,0,0,0,,,,,,,,,,,,,,,,,,,,,0,8,8,8,,,,,,,,,,,,,,,,,,,,,,,,,,,,,,,,,,,,,,,,,,,,,,,,,,,,,,,,,,,,,,,,,,,,,,,,,2,1.3321657999999843,400.29574060000004,None,ScrollUp,정답입니다,400.29574060000004,None,400.29574060000004,None,400.29574060000004,None,400.29574060000004,None,401.49532860000045,None,401.49532860000045,402.0075961000002,,,,,,,,,,,,,,,,216,2022-05-13_13h57.38.890,FishGame,2022.1.1,60.05410875200597,
,10,넌 탐욕스러워,5,Green,A,2.25,2.1,ScrollDown,ScrollUp,Green.png,3,Negative,Incongruent,,,,,0,0,0,0,,,,,,,,,,,,,,,,,,,,,0,9,9,9,,,,,,,,,,,,,,,,,,,,,,,,,,,,,,,,,,,,,,,,,,,,,,,,,,,,,,,,,,,,,,,,,,,,,,,,,1,1.1722090999996908,402.65849730000036,None,ScrollDown,정답입니다,402.65849730000036,None,402.65849730000036,None,402.65849730000036,None,402.65849730000036,None,403.7003601000001,None,403.7003601000001,404.20720070000016,,,,,,,,,,,,,,,,216,2022-05-13_13h57.38.890,FishGame,2022.1.1,60.05410875200597,
,11,넌 인기있어,2,Green,A,5.458333333333333,4.5,ScrollDown,ScrollUp,Green.png,3,Positive,Congruent,,,,,0,0,0,0,,,,,,,,,,,,,,,,,,,,,0,10,10,10,,,,,,,,,,,,,,,,,,,,,,,,,,,,,,,,,,,,,,,,,,,,,,,,,,,,,,,,,,,,,,,,,,,,,,,,,1,1.1893709000000854,404.85745650000035,None,ScrollDown,정답입니다,404.85745650000035,None,404.85745650000035,None,404.85745650000035,None,404.85745650000035,None,405.91708750000043,None,405.91708750000043,406.42351310000004,,,,,,,,,,,,,,,,216,2022-05-13_13h57.38.890,FishGame,2022.1.1,60.05410875200597,
,12,나를 데려가줘,6,Orange,B,0,0,ScrollDown,ScrollUp,Orange.png,3,NonTarget,NonTarget,,,,,0,0,0,0,,,,,,,,,,,,,,,,,,,,,0,11,11,11,,,,,,,,,,,,,,,,,,,,,,,,,,,,,,,,,,,,,,,,,,,,,,,,,,,,,,,,,,,,,,,,,,,,,,,,,1,1.1780423000000155,407.07582230000025,None,ScrollDown,정답입니다,407.07582230000025,None,407.07582230000025,None,407.07582230000025,None,407.07582230000025,None,408.12289820000024,None,408.12289820000024,408.6232068000004,,,,,,,,,,,,,,,,216,2022-05-13_13h57.38.890,FishGame,2022.1.1,60.05410875200597,
,13,넌 뛰어나,2,Orange,B,6.166666666666667,4,ScrollUp,ScrollDown,Orange.png,3,Positive,Incongruent,,,,,0,0,0,0,,,,,,,,,,,,,,,,,,,,,0,12,12,12,,,,,,,,,,,,,,,,,,,,,,,,,,,,,,,,,,,,,,,,,,,,,,,,,,,,,,,,,,,,,,,,,,,,,,,,,2,1.2373658999999861,409.2831758000002,None,ScrollUp,정답입니다,409.2831758000002,None,409.2831758000002,None,409.2831758000002,None,409.2831758000002,None,410.3878470000004,None,410.3878470000004,410.88960410000027,,,,,,,,,,,,,,,,216,2022-05-13_13h57.38.890,FishGame,2022.1.1,60.05410875200597,
,14,넌 낙관적이야,1,Green,A,5.75,5.8,ScrollDown,ScrollUp,Green.png,3,Positive,Congruent,,,,,0,0,0,0,,,,,,,,,,,,,,,,,,,,,0,13,13,13,,,,,,,,,,,,,,,,,,,,,,,,,,,,,,,,,,,,,,,,,,,,,,,,,,,,,,,,,,,,,,,,,,,,,,,,,1,1.2549509999998918,411.54408250000006,None,ScrollDown,정답입니다,411.54408250000006,None,411.54408250000006,None,411.54408250000006,None,411.54408250000006,None,412.6729438000002,None,412.6729438000002,413.17273380000006,,,,,,,,,,,,,,,,216,2022-05-13_13h57.38.890,FishGame,2022.1.1,60.05410875200597,
,15,넌 산만해,4,Orange,B,2.695652173913043,3.033333333333333,ScrollUp,ScrollDown,Orange.png,3,Negative,Congruent,,,,,0,0,0,0,,,,,,,,,,,,,,,,,,,,,0,14,14,14,,,,,,,,,,,,,,,,,,,,,,,,,,,,,,,,,,,,,,,,,,,,,,,,,,,,,,,,,,,,,,,,,,,,,,,,,2,1.3143901000003098,413.8230188000002,None,ScrollUp,정답입니다,413.8230188000002,None,413.8230188000002,None,413.8230188000002,None,413.8230188000002,None,415.0088004000004,None,415.0088004000004,415.5224137,,,,,,,,,,,,,,,,216,2022-05-13_13h57.38.890,FishGame,2022.1.1,60.05410875200597,
,16,나를 보내줘,6,Green,A,0,0,ScrollUp,ScrollDown,Green.png,3,NonTarget,NonTarget,,,,,0,0,0,0,,,,,,,,,,,,,,,,,,,,,0,15,15,15,,,,,,,,,,,,,,,,,,,,,,,,,,,,,,,,,,,,,,,,,,,,,,,,,,,,,,,,,,,,,,,,,,,,,,,,,2,1.1998782000000574,416.15702050000027,None,ScrollUp,정답입니다,416.15702050000027,None,416.15702050000027,None,416.15702050000027,None,416.15702050000027,None,417.2428586000001,None,417.2428586000001,417.7554710000004,,,,,,,,,,,,,,,,216,2022-05-13_13h57.38.890,FishGame,2022.1.1,60.05410875200597,
,17,넌 교활해,5,Orange,B,2.333333333333333,2.133333333333333,ScrollUp,ScrollDown,Orange.png,3,Negative,Congruent,,,,,0,0,0,0,,,,,,,,,,,,,,,,,,,,,0,16,16,16,,,,,,,,,,,,,,,,,,,,,,,,,,,,,,,,,,,,,,,,,,,,,,,,,,,,,,,,,,,,,,,,,,,,,,,,,2,1.2425760000000992,418.41300580000006,None,ScrollUp,정답입니다,418.41300580000006,None,418.41300580000006,None,418.41300580000006,None,418.41300580000006,None,419.52209600000015,None,419.52209600000015,420.02194590000045,,,,,,,,,,,,,,,,216,2022-05-13_13h57.38.890,FishGame,2022.1.1,60.05410875200597,
,18,나를 보내줘,6,Green,A,0,0,ScrollUp,ScrollDown,Green.png,3,NonTarget,NonTarget,,,,,0,0,0,0,,,,,,,,,,,,,,,,,,,,,0,17,17,17,,,,,,,,,,,,,,,,,,,,,,,,,,,,,,,,,,,,,,,,,,,,,,,,,,,,,,,,,,,,,,,,,,,,,,,,,2,1.1758547999997973,420.66242500000044,None,ScrollUp,정답입니다,420.66242500000044,None,420.66242500000044,None,420.66242500000044,None,420.66242500000044,None,421.72181230000024,None,421.72181230000024,422.22180720000006,,,,,,,,,,,,,,,,216,2022-05-13_13h57.38.890,FishGame,2022.1.1,60.05410875200597,
,19,넌 불친절해,5,Orange,B,2.208333333333333,2.033333333333333,ScrollUp,ScrollDown,Orange.png,3,Negative,Congruent,,,,,0,0,0,0,,,,,,,,,,,,,,,,,,,,,0,18,18,18,,,,,,,,,,,,,,,,,,,,,,,,,,,,,,,,,,,,,,,,,,,,,,,,,,,,,,,,,,,,,,,,,,,,,,,,,2,1.2547836999997344,422.8731958000003,None,ScrollUp,정답입니다,422.8731958000003,None,422.8731958000003,None,422.8731958000003,None,422.8731958000003,None,423.9965333,None,423.9965333,424.50450530000035,,,,,,,,,,,,,,,,216,2022-05-13_13h57.38.890,FishGame,2022.1.1,60.05410875200597,
,20,넌 지적이야,2,Orange,B,5.75,4.366666666666666,ScrollUp,ScrollDown,Orange.png,3,Positive,Incongruent,,,,,0,0,0,0,,,,,,,,,,,,,,,,,,,,,0,19,19,19,,,,,,,,,,,,,,,,,,,,,,,,,,,,,,,,,,,,,,,,,,,,,,,,,,,,,,,,,,,,,,,,,,,,,,,,,2,1.259708000000046,425.14965820000043,None,ScrollUp,정답입니다,425.14965820000043,None,425.14965820000043,None,425.14965820000043,None,425.14965820000043,None,426.28766920000044,None,426.28766920000044,426.78777100000025,,,,,,,,,,,,,,,,216,2022-05-13_13h57.38.890,FishGame,2022.1.1,60.05410875200597,
,21,넌 우유부단해,4,Green,A,2.666666666666667,3.166666666666667,ScrollDown,ScrollUp,Green.png,3,Negative,Incongruent,,,,,0,0,0,0,,,,,,,,,,,,,,,,,,,,,0,20,20,20,,,,,,,,,,,,,,,,,,,,,,,,,,,,,,,,,,,,,,,,,,,,,,,,,,,,,,,,,,,,,,,,,,,,,,,,,1,1.3119111999999404,427.44425990000036,None,ScrollDown,정답입니다,427.44425990000036,None,427.44425990000036,None,427.44425990000036,None,427.44425990000036,None,428.6206830000001,None,428.6206830000001,429.1206153000003,,,,,,,,,,,,,,,,216,2022-05-13_13h57.38.890,FishGame,2022.1.1,60.05410875200597,
,22,나를 데려가줘,6,Orange,B,0,0,ScrollDown,ScrollUp,Orange.png,3,NonTarget,NonTarget,,,,,0,0,0,0,,,,,,,,,,,,,,,,,,,,,0,21,21,21,,,,,,,,,,,,,,,,,,,,,,,,,,,,,,,,,,,,,,,,,,,,,,,,,,,,,,,,,,,,,,,,,,,,,,,,,1,1.1986141999996107,429.7722666000004,None,ScrollDown,정답입니다,429.7722666000004,None,429.7722666000004,None,429.7722666000004,None,429.7722666000004,None,430.8406707000004,None,430.8406707000004,431.3535985000003,,,,,,,,,,,,,,,,216,2022-05-13_13h57.38.890,FishGame,2022.1.1,60.05410875200597,
,23,넌 성실해,1,Orange,B,6.041666666666666,5.7,ScrollUp,ScrollDown,Orange.png,3,Positive,Incongruent,,,,,0,0,0,0,,,,,,,,,,,,,,,,,,,,,0,22,22,22,,,,,,,,,,,,,,,,,,,,,,,,,,,,,,,,,,,,,,,,,,,,,,,,,,,,,,,,,,,,,,,,,,,,,,,,,2,1.2497127000001456,432.0027263000002,None,ScrollUp,정답입니다,432.0027263000002,None,432.0027263000002,None,432.0027263000002,None,432.0027263000002,None,433.1251142000001,None,433.1251142000001,433.6367352000002,,,,,,,,,,,,,,,,216,2022-05-13_13h57.38.890,FishGame,2022.1.1,60.05410875200597,
,24,넌 현실주의적이야,3,Green,A,4.625,4.4,ScrollDown,ScrollUp,Green.png,3,Neutral,Neutral,,,,,0,0,0,0,,,,,,,,,,,,,,,,,,,,,0,23,23,23,,,,,,,,,,,,,,,,,,,,,,,,,,,,,,,,,,,,,,,,,,,,,,,,,,,,,,,,,,,,,,,,,,,,,,,,,1,1.2837352000001374,434.28183020000006,None,ScrollDown,정답입니다,434.28183020000006,None,434.28183020000006,None,434.28183020000006,None,434.28183020000006,None,435.4512353,None,435.4512353,435.9530741000003,,,,,,,,,,,,,,,,216,2022-05-13_13h57.38.890,FishGame,2022.1.1,60.05410875200597,
,25,넌 진실돼,1,Green,A,6.625,5.566666666666666,ScrollDown,ScrollUp,Green.png,3,Positive,Congruent,,,,,0,0,0,0,,,,,,,,,,,,,,,,,,,,,0,24,24,24,,,,,,,,,,,,,,,,,,,,,,,,,,,,,,,,,,,,,,,,,,,,,,,,,,,,,,,,,,,,,,,,,,,,,,,,,1,1.2683045999997375,436.60520640000004,None,ScrollDown,정답입니다,436.60520640000004,None,436.60520640000004,None,436.60520640000004,None,436.60520640000004,None,437.74137980000023,None,437.74137980000023,438.2528401000004,,,,,,,,,,,,,,,,216,2022-05-13_13h57.38.890,FishGame,2022.1.1,60.05410875200597,
,26,넌 천진난만해,3,Orange,B,4.958333333333334,4.833333333333333,ScrollUp,ScrollDown,Orange.png,3,Neutral,Neutral,,,,,0,0,0,0,,,,,,,,,,,,,,,,,,,,,0,25,25,25,,,,,,,,,,,,,,,,,,,,,,,,,,,,,,,,,,,,,,,,,,,,,,,,,,,,,,,,,,,,,,,,,,,,,,,,,2,1.2532353000001422,438.9112460000001,None,ScrollUp,정답입니다,438.9112460000001,None,438.9112460000001,None,438.9112460000001,None,438.9112460000001,None,440.0266839000001,None,440.0266839000001,440.5359311000002,,,,,,,,,,,,,,,,216,2022-05-13_13h57.38.890,FishGame,2022.1.1,60.05410875200597,
,27,넌 교양없어,5,Green,A,2.416666666666667,2.2,ScrollDown,ScrollUp,Green.png,3,Negative,Incongruent,,,,,0,0,0,0,,,,,,,,,,,,,,,,,,,,,0,26,26,26,,,,,,,,,,,,,,,,,,,,,,,,,,,,,,,,,,,,,,,,,,,,,,,,,,,,,,,,,,,,,,,,,,,,,,,,,1,1.214673799999673,441.1839759000004,None,ScrollDown,정답입니다,441.1839759000004,None,441.1839759000004,None,441.1839759000004,None,441.1839759000004,None,442.27214890000005,None,442.27214890000005,442.78550730000006,,,,,,,,,,,,,,,,216,2022-05-13_13h57.38.890,FishGame,2022.1.1,60.05410875200597,
,28,나를 보내줘,6,Green,A,0,0,ScrollUp,ScrollDown,Green.png,3,NonTarget,NonTarget,,,,,0,0,0,0,,,,,,,,,,,,,,,,,,,,,0,27,27,27,,,,,,,,,,,,,,,,,,,,,,,,,,,,,,,,,,,,,,,,,,,,,,,,,,,,,,,,,,,,,,,,,,,,,,,,,2,1.300200500000301,443.4335173000004,None,ScrollUp,정답입니다,443.4335173000004,None,443.4335173000004,None,443.4335173000004,None,443.4335173000004,None,444.6068733000002,None,444.6068733000002,445.1185621000004,,,,,,,,,,,,,,,,216,2022-05-13_13h57.38.890,FishGame,2022.1.1,60.05410875200597,
,29,넌 엉뚱스러워,3,Green,A,4.166666666666667,4.133333333333334,ScrollDown,ScrollUp,Green.png,3,Neutral,Neutral,,,,,0,0,0,0,,,,,,,,,,,,,,,,,,,,,0,28,28,28,,,,,,,,,,,,,,,,,,,,,,,,,,,,,,,,,,,,,,,,,,,,,,,,,,,,,,,,,,,,,,,,,,,,,,,,,1,1.278024600000208,445.7737025000001,None,ScrollDown,정답입니다,445.7737025000001,None,445.7737025000001,None,445.7737025000001,None,445.7737025000001,None,446.91939900000034,None,446.91939900000034,447.4350907000003,,,,,,,,,,,,,,,,216,2022-05-13_13h57.38.890,FishGame,2022.1.1,60.05410875200597,
,30,넌 무지해,4,Orange,B,2.541666666666667,3.066666666666667,ScrollUp,ScrollDown,Orange.png,3,Negative,Congruent,,,,,0,0,0,0,,,,,,,,,,,,,,,,,,,,,0,29,29,29,,,,,,,,,,,,,,,,,,,,,,,,,,,,,,,,,,,,,,,,,,,,,,,,,,,,,,,,,,,,,,,,,,,,,,,,,2,1.245400299999801,448.08362910000005,None,ScrollUp,정답입니다,448.08362910000005,None,448.08362910000005,None,448.08362910000005,None,448.08362910000005,None,449.2013589000003,None,449.2013589000003,449.70134880000023,,,,,,,,,,,,,,,,216,2022-05-13_13h57.38.890,FishGame,2022.1.1,60.05410875200597,
,31,넌 음울해,5,Orange,B,2.25,2.233333333333333,ScrollUp,ScrollDown,Orange.png,3,Negative,Congruent,,,,,0,0,0,0,,,,,,,,,,,,,,,,,,,,,0,30,30,30,,,,,,,,,,,,,,,,,,,,,,,,,,,,,,,,,,,,,,,,,,,,,,,,,,,,,,,,,,,,,,,,,,,,,,,,,2,1.343833700000232,450.3560413,None,ScrollUp,정답입니다,450.3560413,None,450.3560413,None,450.3560413,None,450.3560413,None,451.5677660000001,None,451.5677660000001,452.06770780000033,,,,,,,,,,,,,,,,216,2022-05-13_13h57.38.890,FishGame,2022.1.1,60.05410875200597,
,32,넌 냉소적이야,5,Green,A,2.916666666666667,2.4,ScrollDown,ScrollUp,Green.png,3,Negative,Incongruent,,,,,0,0,0,0,,,,,,,,,,,,,,,,,,,,,0,31,31,31,,,,,,,,,,,,,,,,,,,,,,,,,,,,,,,,,,,,,,,,,,,,,,,,,,,,,,,,,,,,,,,,,,,,,,,,,1,1.2829216000000088,452.71725060000017,None,ScrollDown,정답입니다,452.71725060000017,None,452.71725060000017,None,452.71725060000017,None,452.71725060000017,None,453.87299870000015,None,453.87299870000015,454.3839942000004,,,,,,,,,,,,,,,,216,2022-05-13_13h57.38.890,FishGame,2022.1.1,60.05410875200597,
,33,나를 데려가줘,6,Orange,B,0,0,ScrollDown,ScrollUp,Orange.png,3,NonTarget,NonTarget,,,,,0,0,0,0,,,,,,,,,,,,,,,,,,,,,0,32,32,32,,,,,,,,,,,,,,,,,,,,,,,,,,,,,,,,,,,,,,,,,,,,,,,,,,,,,,,,,,,,,,,,,,,,,,,,,1.0108024775981903,1.1493900999998914,455.0373942000001,None,ScrollDown,정답입니다,455.0373942000001,None,455.0373942000001,None,455.0373942000001,None,455.0373942000001,None,456.05546000000004,None,456.05546000000004,456.5671669000003,,,,,,,,,,,,,,,,216,2022-05-13_13h57.38.890,FishGame,2022.1.1,60.05410875200597,
,34,넌 쾌활해,1,Green,A,5.541666666666666,5.733333333333333,ScrollDown,ScrollUp,Green.png,3,Positive,Congruent,,,,,0,0,0,0,,,,,,,,,,,,,,,,,,,,,0,33,33,33,,,,,,,,,,,,,,,,,,,,,,,,,,,,,,,,,,,,,,,,,,,,,,,,,,,,,,,,,,,,,,,,,,,,,,,,,1,1.140684500000134,457.22312930000044,None,ScrollDown,정답입니다,457.22312930000044,None,457.22312930000044,None,457.22312930000044,None,457.22312930000044,None,458.23354990000007,None,458.23354990000007,458.7334099000004,,,,,,,,,,,,,,,,216,2022-05-13_13h57.38.890,FishGame,2022.1.1,60.05410875200597,
,35,나를 보내줘,6,Green,A,0,0,ScrollUp,ScrollDown,Green.png,3,NonTarget,NonTarget,,,,,0,0,0,0,,,,,,,,,,,,,,,,,,,,,0,34,34,34,,,,,,,,,,,,,,,,,,,,,,,,,,,,,,,,,,,,,,,,,,,,,,,,,,,,,,,,,,,,,,,,,,,,,,,,,2,1.1164708999999675,459.37437750000026,None,ScrollUp,정답입니다,459.37437750000026,None,459.37437750000026,None,459.37437750000026,None,459.37437750000026,None,460.3716711000002,None,460.3716711000002,460.88323360000004,,,,,,,,,,,,,,,,216,2022-05-13_13h57.38.890,FishGame,2022.1.1,60.05410875200597,
,36,넌 명랑해,1,Orange,B,5.739130434782609,5.666666666666667,ScrollUp,ScrollDown,Orange.png,3,Positive,Incongruent,,,,,0,0,0,0,,,,,,,,,,,,,,,,,,,,,0,35,35,35,,,,,,,,,,,,,,,,,,,,,,,,,,,,,,,,,,,,,,,,,,,,,,,,,,,,,,,,,,,,,,,,,,,,,,,,,2,1.1773207999999613,461.53798340000003,None,ScrollUp,정답입니다,461.53798340000003,None,461.53798340000003,None,461.53798340000003,None,461.53798340000003,None,462.5829269000001,None,462.5829269000001,463.0829937000003,,,,,,,,,,,,,,,,216,2022-05-13_13h57.38.890,FishGame,2022.1.1,60.05410875200597,
,37,넌 멍해,4,Green,A,2.833333333333333,3.4,ScrollDown,ScrollUp,Green.png,3,Negative,Incongruent,,,,,0,0,0,0,,,,,,,,,,,,,,,,,,,,,0,36,36,36,,,,,,,,,,,,,,,,,,,,,,,,,,,,,,,,,,,,,,,,,,,,,,,,,,,,,,,,,,,,,,,,,,,,,,,,,1,1.2328153999997085,463.7338404000002,None,ScrollDown,정답입니다,463.7338404000002,None,463.7338404000002,None,463.7338404000002,None,463.7338404000002,None,464.83741050000026,None,464.83741050000026,465.34932860000026,,,,,,,,,,,,,,,,216,2022-05-13_13h57.38.890,FishGame,2022.1.1,60.05410875200597,
,38,나를 데려가줘,6,Orange,B,0,0,ScrollDown,ScrollUp,Orange.png,3,NonTarget,NonTarget,,,,,0,0,0,0,,,,,,,,,,,,,,,,,,,,,0,37,37,37,,,,,,,,,,,,,,,,,,,,,,,,,,,,,,,,,,,,,,,,,,,,,,,,,,,,,,,,,,,,,,,,,,,,,,,,,1,1.2952940000000126,465.9990176000001,None,ScrollDown,정답입니다,465.9990176000001,None,465.9990176000001,None,465.9990176000001,None,465.9990176000001,None,467.1674243000002,None,467.1674243000002,467.6825266000001,,,,,,,,,,,,,,,,216,2022-05-13_13h57.38.890,FishGame,2022.1.1,60.05410875200597,
,39,넌 현명해,2,Green,A,6.541666666666666,4.533333333333333,ScrollDown,ScrollUp,Green.png,3,Positive,Congruent,,,,,0,0,0,0,,,,,,,,,,,,,,,,,,,,,0,38,38,38,,,,,,,,,,,,,,,,,,,,,,,,,,,,,,,,,,,,,,,,,,,,,,,,,,,,,,,,,,,,,,,,,,,,,,,,,1,1.3444875000000138,468.3205524,None,ScrollDown,정답입니다,468.3205524,None,468.3205524,None,468.3205524,None,468.3205524,None,469.54960140000003,None,469.54960140000003,470.0487465000001,,,,,,,,,,,,,,,,216,2022-05-13_13h57.38.890,FishGame,2022.1.1,60.05410875200597,
,40,넌 수줍어,3,Orange,B,3.541666666666666,4.366666666666666,ScrollUp,ScrollDown,Orange.png,3,Neutral,Neutral,,,,,0,0,0,0,,,,,,,,,,,,,,,,,,,,,0,39,39,39,,,,,,,,,,,,,,,,,,,,,,,,,,,,,,,,,,,,,,,,,,,,,,,,,,,,,,,,,,,,,,,,,,,,,,,,,2,1.244549399999869,470.70771090000017,None,ScrollUp,정답입니다,470.70771090000017,None,470.70771090000017,None,470.70771090000017,None,470.70771090000017,None,471.81527680000045,None,471.81527680000045,472.3150601000002,,,,,,,,,,,,,,,,216,2022-05-13_13h57.38.890,FishGame,2022.1.1,60.05410875200597,
,41,나를 데려가줘,6,Orange,B,0,0,ScrollDown,ScrollUp,Orange.png,3,NonTarget,NonTarget,,,,,0,0,0,0,,,,,,,,,,,,,,,,,,,,,0,40,40,40,,,,,,,,,,,,,,,,,,,,,,,,,,,,,,,,,,,,,,,,,,,,,,,,,,,,,,,,,,,,,,,,,,,,,,,,,1,1.2278447000003325,472.96540140000025,None,ScrollDown,정답입니다,472.96540140000025,None,472.96540140000025,None,472.96540140000025,None,472.96540140000025,None,474.06474070000013,None,474.06474070000013,474.56485280000015,,,,,,,,,,,,,,,,216,2022-05-13_13h57.38.890,FishGame,2022.1.1,60.05410875200597,
,42,넌 성숙해,2,Orange,B,5.833333333333333,4.533333333333333,ScrollUp,ScrollDown,Orange.png,3,Positive,Incongruent,,,,,0,0,0,0,,,,,,,,,,,,,,,,,,,,,0,41,41,41,,,,,,,,,,,,,,,,,,,,,,,,,,,,,,,,,,,,,,,,,,,,,,,,,,,,,,,,,,,,,,,,,,,,,,,,,2,1.2092173999999432,475.2167993000003,None,ScrollUp,정답입니다,475.2167993000003,None,475.2167993000003,None,475.2167993000003,None,475.2167993000003,None,476.29799520000006,None,476.29799520000006,476.7978158000001,,,,,,,,,,,,,,,,216,2022-05-13_13h57.38.890,FishGame,2022.1.1,60.05410875200597,
,1,넌 매력적이야,2,Orange,B,6.125,4.666666666666667,ScrollUp,ScrollDown,Orange.png,4,Positive,Incongruent,,,,,0,0,0,0,,,,,,,,,,,,,,,,,,,,,,,,,0,0,0,0,,,,,,,,,,,,,,,,,,,,,,,,,,,,508.7271870000004,510.2268779000001,510.2601394000003,511.21009230000027,511.2600845000002,512.2099810000004,512.2099810000004,None,,,,,,,,,,,,,,,,,,,,,,,,,,,,,,,,,,2,1.3126489999999649,513.3935967000002,None,ScrollUp,정답입니다,513.3935967000002,None,513.3935967000002,None,513.3935967000002,None,513.3935967000002,None,514.5314073000004,None,514.5314073000004,515.0429135000004,477.29777300000023,None,477.29777300000023,None,0.028703704,-0.12407407,1,0,0,0.016221739999764395,None,507.31057750000036,None,,,216,2022-05-13_13h57.38.890,FishGame,2022.1.1,60.05410875200597,
,2,나를 보내줘,6,Green,A,0,0,ScrollUp,ScrollDown,Green.png,4,NonTarget,NonTarget,,,,,0,0,0,0,,,,,,,,,,,,,,,,,,,,,,,,,0,1,1,1,,,,,,,,,,,,,,,,,,,,,,,,,,,,,,,,,,,,,,,,,,,,,,,,,,,,,,,,,,,,,,,,,,,,,2,1.1597349000003305,515.6845714000001,None,ScrollUp,정답입니다,515.6845714000001,None,515.6845714000001,None,515.6845714000001,None,515.6845714000001,None,516.7262548000003,None,516.7262548000003,517.2261784000002,,,,,,,,,,,,,,,,216,2022-05-13_13h57.38.890,FishGame,2022.1.1,60.05410875200597,
,3,넌 조심스러워,3,Green,A,4.791666666666666,4.666666666666667,ScrollDown,ScrollUp,Green.png,4,Neutral,Neutral,,,,,0,0,0,0,,,,,,,,,,,,,,,,,,,,,,,,,0,2,2,2,,,,,,,,,,,,,,,,,,,,,,,,,,,,,,,,,,,,,,,,,,,,,,,,,,,,,,,,,,,,,,,,,,,,,1,1.2131106000001637,517.8646987000002,None,ScrollDown,정답입니다,517.8646987000002,None,517.8646987000002,None,517.8646987000002,None,517.8646987000002,None,518.9621209000002,None,518.9621209000002,519.4757095000004,,,,,,,,,,,,,,,,216,2022-05-13_13h57.38.890,FishGame,2022.1.1,60.05410875200597,
,4,넌 철학적이야,3,Orange,B,4.5,4.266666666666667,ScrollUp,ScrollDown,Orange.png,4,Neutral,Neutral,,,,,0,0,0,0,,,,,,,,,,,,,,,,,,,,,,,,,0,3,3,3,,,,,,,,,,,,,,,,,,,,,,,,,,,,,,,,,,,,,,,,,,,,,,,,,,,,,,,,,,,,,,,,,,,,,2,1.2209038999999393,520.1318169000001,None,ScrollUp,정답입니다,520.1318169000001,None,520.1318169000001,None,520.1318169000001,None,520.1318169000001,None,521.2178458000003,None,521.2178458000003,521.7253292,,,,,,,,,,,,,,,,216,2022-05-13_13h57.38.890,FishGame,2022.1.1,60.05410875200597,
,5,넌 쩨쩨해,5,Green,A,2.375,2.133333333333333,ScrollDown,ScrollUp,Green.png,4,Negative,Incongruent,,,,,0,0,0,0,,,,,,,,,,,,,,,,,,,,,,,,,0,4,4,4,,,,,,,,,,,,,,,,,,,,,,,,,,,,,,,,,,,,,,,,,,,,,,,,,,,,,,,,,,,,,,,,,,,,,1,1.1943846999997731,522.3714404000002,None,ScrollDown,정답입니다,522.3714404000002,None,522.3714404000002,None,522.3714404000002,None,522.3714404000002,None,523.4420029000003,None,523.4420029000003,523.9417196000004,,,,,,,,,,,,,,,,216,2022-05-13_13h57.38.890,FishGame,2022.1.1,60.05410875200597,
,6,나를 데려가줘,6,Orange,B,0,0,ScrollDown,ScrollUp,Orange.png,4,NonTarget,NonTarget,,,,,0,0,0,0,,,,,,,,,,,,,,,,,,,,,,,,,0,5,5,5,,,,,,,,,,,,,,,,,,,,,,,,,,,,,,,,,,,,,,,,,,,,,,,,,,,,,,,,,,,,,,,,,,,,,1.0833333333333333,1.1291795000001912,524.5927734000002,None,ScrollDown,정답입니다,524.5927734000002,None,524.5927734000002,None,524.5927734000002,None,524.5927734000002,None,525.5935158000002,None,525.5935158000002,526.1080838000003,,,,,,,,,,,,,,,,216,2022-05-13_13h57.38.890,FishGame,2022.1.1,60.05410875200597,
,7,넌 고집불통이야,5,Orange,B,2.875,2,ScrollUp,ScrollDown,Orange.png,4,Negative,Congruent,,,,,0,0,0,0,,,,,,,,,,,,,,,,,,,,,,,,,0,6,6,6,,,,,,,,,,,,,,,,,,,,,,,,,,,,,,,,,,,,,,,,,,,,,,,,,,,,,,,,,,,,,,,,,,,,,2,1.1994079000000966,526.7643929000001,None,ScrollUp,정답입니다,526.7643929000001,None,526.7643929000001,None,526.7643929000001,None,526.7643929000001,None,527.8288695000001,None,527.8288695000001,528.3411215000001,,,,,,,,,,,,,,,,216,2022-05-13_13h57.38.890,FishGame,2022.1.1,60.05410875200597,
,8,넌 무심해,4,Green,A,2.875,3.2,ScrollDown,ScrollUp,Green.png,4,Negative,Incongruent,,,,,0,0,0,0,,,,,,,,,,,,,,,,,,,,,,,,,0,7,7,7,,,,,,,,,,,,,,,,,,,,,,,,,,,,,,,,,,,,,,,,,,,,,,,,,,,,,,,,,,,,,,,,,,,,,1,1.1510427000002892,528.9878606000002,None,ScrollDown,정답입니다,528.9878606000002,None,528.9878606000002,None,528.9878606000002,None,528.9878606000002,None,530.0129192000004,None,530.0129192000004,530.5243258,,,,,,,,,,,,,,,,216,2022-05-13_13h57.38.890,FishGame,2022.1.1,60.05410875200597,
,9,넌 정겨워,1,Green,A,5.791666666666667,5.666666666666667,ScrollDown,ScrollUp,Green.png,4,Positive,Congruent,,,,,0,0,0,0,,,,,,,,,,,,,,,,,,,,,,,,,0,8,8,8,,,,,,,,,,,,,,,,,,,,,,,,,,,,,,,,,,,,,,,,,,,,,,,,,,,,,,,,,,,,,,,,,,,,,1,1.1391168000000107,531.1766925000002,None,ScrollDown,정답입니다,531.1766925000002,None,531.1766925000002,None,531.1766925000002,None,531.1766925000002,None,532.1840927000003,None,532.1840927000003,532.6905523,,,,,,,,,,,,,,,,216,2022-05-13_13h57.38.890,FishGame,2022.1.1,60.05410875200597,
,10,나를 데려가줘,6,Orange,B,0,0,ScrollDown,ScrollUp,Orange.png,4,NonTarget,NonTarget,,,,,0,0,0,0,,,,,,,,,,,,,,,,,,,,,,,,,0,9,9,9,,,,,,,,,,,,,,,,,,,,,,,,,,,,,,,,,,,,,,,,,,,,,,,,,,,,,,,,,,,,,,,,,,,,,1,1.1171064000000115,533.3398688000002,None,ScrollDown,정답입니다,533.3398688000002,None,533.3398688000002,None,533.3398688000002,None,533.3398688000002,None,534.3298905000001,None,534.3298905000001,534.8403183,,,,,,,,,,,,,,,,216,2022-05-13_13h57.38.890,FishGame,2022.1.1,60.05410875200597,
,11,넌 체제순응적이야,4,Orange,B,3,3.6,ScrollUp,ScrollDown,Orange.png,4,Negative,Congruent,,,,,0,0,0,0,,,,,,,,,,,,,,,,,,,,,,,,,0,10,10,10,,,,,,,,,,,,,,,,,,,,,,,,,,,,,,,,,,,,,,,,,,,,,,,,,,,,,,,,,,,,,,,,,,,,,2,1.1559743000002527,535.5017951000004,None,ScrollUp,정답입니다,535.5017951000004,None,535.5017951000004,None,535.5017951000004,None,535.5017951000004,None,536.5165980000002,None,536.5165980000002,537.0234221000001,,,,,,,,,,,,,,,,216,2022-05-13_13h57.38.890,FishGame,2022.1.1,60.05410875200597,
,12,나를 보내줘,6,Green,A,0,0,ScrollUp,ScrollDown,Green.png,4,NonTarget,NonTarget,,,,,0,0,0,0,,,,,,,,,,,,,,,,,,,,,,,,,0,11,11,11,,,,,,,,,,,,,,,,,,,,,,,,,,,,,,,,,,,,,,,,,,,,,,,,,,,,,,,,,,,,,,,,,,,,,2,1.1858832999996594,537.6727507,None,ScrollUp,정답입니다,537.6727507,None,537.6727507,None,537.6727507,None,537.6727507,None,538.7380482000003,None,538.7380482000003,539.2399436000001,,,,,,,,,,,,,,,,216,2022-05-13_13h57.38.890,FishGame,2022.1.1,60.05410875200597,
,13,넌 박식해,2,Green,A,5.625,3.933333333333333,ScrollDown,ScrollUp,Green.png,4,Positive,Congruent,,,,,0,0,0,0,,,,,,,,,,,,,,,,,,,,,,,,,0,12,12,12,,,,,,,,,,,,,,,,,,,,,,,,,,,,,,,,,,,,,,,,,,,,,,,,,,,,,,,,,,,,,,,,,,,,,1,1.2603534999998374,539.8865101000001,None,ScrollDown,정답입니다,539.8865101000001,None,539.8865101000001,None,539.8865101000001,None,539.8865101000001,None,541.0228702000004,None,541.0228702000004,541.5227671000002,,,,,,,,,,,,,,,,216,2022-05-13_13h57.38.890,FishGame,2022.1.1,60.05410875200597,
,14,나를 보내줘,6,Green,A,0,0,ScrollUp,ScrollDown,Green.png,4,NonTarget,NonTarget,,,,,0,0,0,0,,,,,,,,,,,,,,,,,,,,,,,,,0,13,13,13,,,,,,,,,,,,,,,,,,,,,,,,,,,,,,,,,,,,,,,,,,,,,,,,,,,,,,,,,,,,,,,,,,,,,2,1.0880487999997968,542.1660711000004,None,ScrollUp,정답입니다,542.1660711000004,None,542.1660711000004,None,542.1660711000004,None,542.1660711000004,None,543.1317002000001,None,543.1317002000001,543.6396670000004,,,,,,,,,,,,,,,,216,2022-05-13_13h57.38.890,FishGame,2022.1.1,60.05410875200597,
,15,넌 침착해,1,Orange,B,5.458333333333333,5.566666666666666,ScrollUp,ScrollDown,Orange.png,4,Positive,Incongruent,,,,,0,0,0,0,,,,,,,,,,,,,,,,,,,,,,,,,0,14,14,14,,,,,,,,,,,,,,,,,,,,,,,,,,,,,,,,,,,,,,,,,,,,,,,,,,,,,,,,,,,,,,,,,,,,,2,1.1147568999999748,544.2987426000004,None,ScrollUp,정답입니다,544.2987426000004,None,544.2987426000004,None,544.2987426000004,None,544.2987426000004,None,545.2756173000002,None,545.2756173000002,545.7890344000002,,,,,,,,,,,,,,,,216,2022-05-13_13h57.38.890,FishGame,2022.1.1,60.05410875200597,
,16,나를 데려가줘,6,Orange,B,0,0,ScrollDown,ScrollUp,Orange.png,4,NonTarget,NonTarget,,,,,0,0,0,0,,,,,,,,,,,,,,,,,,,,,,,,,0,15,15,15,,,,,,,,,,,,,,,,,,,,,,,,,,,,,,,,,,,,,,,,,,,,,,,,,,,,,,,,,,,,,,,,,,,,,1,1.2062866000001122,546.4400638000002,None,ScrollDown,정답입니다,546.4400638000002,None,546.4400638000002,None,546.4400638000002,None,546.4400638000002,None,547.5219870000001,None,547.5219870000001,548.0220364000002,,,,,,,,,,,,,,,,216,2022-05-13_13h57.38.890,FishGame,2022.1.1,60.05410875200597,
,17,넌 행복해,1,Green,A,6.416666666666666,6.166666666666667,ScrollDown,ScrollUp,Green.png,4,Positive,Congruent,,,,,0,0,0,0,,,,,,,,,,,,,,,,,,,,,,,,,0,16,16,16,,,,,,,,,,,,,,,,,,,,,,,,,,,,,,,,,,,,,,,,,,,,,,,,,,,,,,,,,,,,,,,,,,,,,1,1.2158723000002283,548.6741718000003,None,ScrollDown,정답입니다,548.6741718000003,None,548.6741718000003,None,548.6741718000003,None,548.6741718000003,None,549.7599061000001,None,549.7599061000001,550.2718538000004,,,,,,,,,,,,,,,,216,2022-05-13_13h57.38.890,FishGame,2022.1.1,60.05410875200597,
,18,넌 겸손해,2,Orange,B,5.791666666666667,4.766666666666667,ScrollUp,ScrollDown,Orange.png,4,Positive,Incongruent,,,,,0,0,0,0,,,,,,,,,,,,,,,,,,,,,,,,,0,17,17,17,,,,,,,,,,,,,,,,,,,,,,,,,,,,,,,,,,,,,,,,,,,,,,,,,,,,,,,,,,,,,,,,,,,,,2,1.3830273000003217,550.9273756000002,None,ScrollUp,정답입니다,550.9273756000002,None,550.9273756000002,None,550.9273756000002,None,550.9273756000002,None,552.1763640000004,None,552.1763640000004,552.6881845000003,,,,,,,,,,,,,,,,216,2022-05-13_13h57.38.890,FishGame,2022.1.1,60.05410875200597,
,19,나를 보내줘,6,Green,A,0,0,ScrollUp,ScrollDown,Green.png,4,NonTarget,NonTarget,,,,,0,0,0,0,,,,,,,,,,,,,,,,,,,,,,,,,0,18,18,18,,,,,,,,,,,,,,,,,,,,,,,,,,,,,,,,,,,,,,,,,,,,,,,,,,,,,,,,,,,,,,,,,,,,,2,1.6338469000002078,553.3330288000002,None,ScrollUp,정답입니다,553.3330288000002,None,553.3330288000002,None,553.3330288000002,None,553.3330288000002,None,554.8426480000003,None,554.8426480000003,555.3543715000001,,,,,,,,,,,,,,,,216,2022-05-13_13h57.38.890,FishGame,2022.1.1,60.05410875200597,
,20,넌 의심없어,3,Green,A,4.166666666666667,4.6,ScrollDown,ScrollUp,Green.png,4,Neutral,Neutral,,,,,0,0,0,0,,,,,,,,,,,,,,,,,,,,,,,,,0,19,19,19,,,,,,,,,,,,,,,,,,,,,,,,,,,,,,,,,,,,,,,,,,,,,,,,,,,,,,,,,,,,,,,,,,,,,1,1.1339861000001292,556.0026699,None,ScrollDown,정답입니다,556.0026699,None,556.0026699,None,556.0026699,None,556.0026699,None,557.0107443000002,None,557.0107443000002,557.5208730000004,,,,,,,,,,,,,,,,216,2022-05-13_13h57.38.890,FishGame,2022.1.1,60.05410875200597,
,21,넌 시시해,4,Green,A,2.666666666666667,2.966666666666667,ScrollDown,ScrollUp,Green.png,4,Negative,Incongruent,,,,,0,0,0,0,,,,,,,,,,,,,,,,,,,,,,,,,0,20,20,20,,,,,,,,,,,,,,,,,,,,,,,,,,,,,,,,,,,,,,,,,,,,,,,,,,,,,,,,,,,,,,,,,,,,,1,1.0672915000000103,558.1633401000004,None,ScrollDown,정답입니다,558.1633401000004,None,558.1633401000004,None,558.1633401000004,None,558.1633401000004,None,559.1102970000002,None,559.1102970000002,559.6204345000001,,,,,,,,,,,,,,,,216,2022-05-13_13h57.38.890,FishGame,2022.1.1,60.05410875200597,
,22,나를 데려가줘,6,Orange,B,0,0,ScrollDown,ScrollUp,Orange.png,4,NonTarget,NonTarget,,,,,0,0,0,0,,,,,,,,,,,,,,,,,,,,,,,,,0,21,21,21,,,,,,,,,,,,,,,,,,,,,,,,,,,,,,,,,,,,,,,,,,,,,,,,,,,,,,,,,,,,,,,,,,,,,1,1.2058473000001868,560.2701457000003,None,ScrollDown,정답입니다,560.2701457000003,None,560.2701457000003,None,560.2701457000003,None,560.2701457000003,None,561.3535425,None,561.3535425,561.8535349000003,,,,,,,,,,,,,,,,216,2022-05-13_13h57.38.890,FishGame,2022.1.1,60.05410875200597,
,23,넌 무정해,5,Green,A,2.5,2.2,ScrollDown,ScrollUp,Green.png,4,Negative,Incongruent,,,,,0,0,0,0,,,,,,,,,,,,,,,,,,,,,,,,,0,22,22,22,,,,,,,,,,,,,,,,,,,,,,,,,,,,,,,,,,,,,,,,,,,,,,,,,,,,,,,,,,,,,,,,,,,,,1,1.1018533999999818,562.4984938000002,None,ScrollDown,정답입니다,562.4984938000002,None,562.4984938000002,None,562.4984938000002,None,562.4984938000002,None,563.4768152000001,None,563.4768152000001,563.9865825000002,,,,,,,,,,,,,,,,216,2022-05-13_13h57.38.890,FishGame,2022.1.1,60.05410875200597,
,24,넌 긍정적이야,1,Orange,B,6.041666666666667,6.066666666666666,ScrollUp,ScrollDown,Orange.png,4,Positive,Incongruent,,,,,0,0,0,0,,,,,,,,,,,,,,,,,,,,,,,,,0,23,23,23,,,,,,,,,,,,,,,,,,,,,,,,,,,,,,,,,,,,,,,,,,,,,,,,,,,,,,,,,,,,,,,,,,,,,2,1.371543499999916,564.6469265000001,None,ScrollUp,정답입니다,564.6469265000001,None,564.6469265000001,None,564.6469265000001,None,564.6469265000001,None,565.8845420000002,None,565.8845420000002,566.3862566000003,,,,,,,,,,,,,,,,216,2022-05-13_13h57.38.890,FishGame,2022.1.1,60.05410875200597,
,25,나를 보내줘,6,Green,A,0,0,ScrollUp,ScrollDown,Green.png,4,NonTarget,NonTarget,,,,,0,0,0,0,,,,,,,,,,,,,,,,,,,,,,,,,0,24,24,24,,,,,,,,,,,,,,,,,,,,,,,,,,,,,,,,,,,,,,,,,,,,,,,,,,,,,,,,,,,,,,,,,,,,,1.9768518606821697,1.1051935999998932,567.0328709,None,ScrollUp,정답입니다,567.0328709,None,567.0328709,None,567.0328709,None,567.0328709,None,568.0175806000002,None,568.0175806000002,568.5195384000003,,,,,,,,,,,,,,,,216,2022-05-13_13h57.38.890,FishGame,2022.1.1,60.05410875200597,
,26,넌 시기심이 많아,5,Orange,B,2.458333333333333,2.233333333333333,ScrollUp,ScrollDown,Orange.png,4,Negative,Congruent,,,,,0,0,0,0,,,,,,,,,,,,,,,,,,,,,,,,,0,25,25,25,,,,,,,,,,,,,,,,,,,,,,,,,,,,,,,,,,,,,,,,,,,,,,,,,,,,,,,,,,,,,,,,,,,,,2,1.1667010000001028,569.1846158000003,None,ScrollUp,정답입니다,569.1846158000003,None,569.1846158000003,None,569.1846158000003,None,569.1846158000003,None,570.2081842000002,None,570.2081842000002,570.7191899000004,,,,,,,,,,,,,,,,216,2022-05-13_13h57.38.890,FishGame,2022.1.1,60.05410875200597,
,27,넌 탁월해,2,Green,A,5.708333333333334,4.5,ScrollDown,ScrollUp,Green.png,4,Positive,Congruent,,,,,0,0,0,0,,,,,,,,,,,,,,,,,,,,,,,,,0,26,26,26,,,,,,,,,,,,,,,,,,,,,,,,,,,,,,,,,,,,,,,,,,,,,,,,,,,,,,,,,,,,,,,,,,,,,1.0200617114702861,1.020433099999991,571.3723569000003,None,ScrollDown,정답입니다,571.3723569000003,None,571.3723569000003,None,571.3723569000003,None,571.3723569000003,None,572.2604068,None,572.2604068,572.7688824000002,,,,,,,,,,,,,,,,216,2022-05-13_13h57.38.890,FishGame,2022.1.1,60.05410875200597,
,28,나를 데려가줘,6,Orange,B,0,0,ScrollDown,ScrollUp,Orange.png,4,NonTarget,NonTarget,,,,,0,0,0,0,,,,,,,,,,,,,,,,,,,,,,,,,0,27,27,27,,,,,,,,,,,,,,,,,,,,,,,,,,,,,,,,,,,,,,,,,,,,,,,,,,,,,,,,,,,,,,,,,,,,,1.0478395124276478,1.0449666999998044,573.4218243,None,ScrollDown,정답입니다,573.4218243,None,573.4218243,None,573.4218243,None,573.4218243,None,574.3375933000002,None,574.3375933000002,574.8518706000004,,,,,,,,,,,,,,,,216,2022-05-13_13h57.38.890,FishGame,2022.1.1,60.05410875200597,
,29,넌 조용해,3,Orange,B,4.333333333333333,4.166666666666667,ScrollUp,ScrollDown,Orange.png,4,Neutral,Neutral,,,,,0,0,0,0,,,,,,,,,,,,,,,,,,,,,,,,,0,28,28,28,,,,,,,,,,,,,,,,,,,,,,,,,,,,,,,,,,,,,,,,,,,,,,,,,,,,,,,,,,,,,,,,,,,,,2,1.1112648000002991,575.5057583000003,None,ScrollUp,정답입니다,575.5057583000003,None,575.5057583000003,None,575.5057583000003,None,575.5057583000003,None,576.4850940000001,None,576.4850940000001,576.9849801,,,,,,,,,,,,,,,,216,2022-05-13_13h57.38.890,FishGame,2022.1.1,60.05410875200597,
,30,넌 다정해,1,Green,A,5.833333333333334,5.7,ScrollDown,ScrollUp,Green.png,4,Positive,Congruent,,,,,0,0,0,0,,,,,,,,,,,,,,,,,,,,,,,,,0,29,29,29,,,,,,,,,,,,,,,,,,,,,,,,,,,,,,,,,,,,,,,,,,,,,,,,,,,,,,,,,,,,,,,,,,,,,1,1.0107683000001089,577.6364809000002,None,ScrollDown,정답입니다,577.6364809000002,None,577.6364809000002,None,577.6364809000002,None,577.6364809000002,None,578.5183138000002,None,578.5183138000002,579.0180869000001,,,,,,,,,,,,,,,,216,2022-05-13_13h57.38.890,FishGame,2022.1.1,60.05410875200597,
,31,넌 능력있어,2,Orange,B,6.166666666666666,4.6,ScrollUp,ScrollDown,Orange.png,4,Positive,Incongruent,,,,,0,0,0,0,,,,,,,,,,,,,,,,,,,,,,,,,0,30,30,30,,,,,,,,,,,,,,,,,,,,,,,,,,,,,,,,,,,,,,,,,,,,,,,,,,,,,,,,,,,,,,,,,,,,,2,1.0570319999997082,579.6681491000004,None,ScrollUp,정답입니다,579.6681491000004,None,579.6681491000004,None,579.6681491000004,None,579.6681491000004,None,580.6012885,None,580.6012885,581.1010787,,,,,,,,,,,,,,,,216,2022-05-13_13h57.38.890,FishGame,2022.1.1,60.05410875200597,
,32,넌 불쾌해,5,Green,A,2.125,1.933333333333333,ScrollDown,ScrollUp,Green.png,4,Negative,Incongruent,,,,,0,0,0,0,,,,,,,,,,,,,,,,,,,,,,,,,0,31,31,31,,,,,,,,,,,,,,,,,,,,,,,,,,,,,,,,,,,,,,,,,,,,,,,,,,,,,,,,,,,,,,,,,,,,,1,1.0503456000001279,581.7474808000002,None,ScrollDown,정답입니다,581.7474808000002,None,581.7474808000002,None,581.7474808000002,None,581.7474808000002,None,582.6723308,None,582.6723308,583.1841519000004,,,,,,,,,,,,,,,,216,2022-05-13_13h57.38.890,FishGame,2022.1.1,60.05410875200597,
,33,나를 데려가줘,6,Orange,B,0,0,ScrollDown,ScrollUp,Orange.png,4,NonTarget,NonTarget,,,,,0,0,0,0,,,,,,,,,,,,,,,,,,,,,,,,,0,32,32,32,,,,,,,,,,,,,,,,,,,,,,,,,,,,,,,,,,,,,,,,,,,,,,,,,,,,,,,,,,,,,,,,,,,,,1,1.0668548999997256,583.8377711000003,None,ScrollDown,정답입니다,583.8377711000003,None,583.8377711000003,None,583.8377711000003,None,583.8377711000003,None,584.7722447000001,None,584.7722447000001,585.2839329000003,,,,,,,,,,,,,,,,216,2022-05-13_13h57.38.890,FishGame,2022.1.1,60.05410875200597,
,34,넌 유순해,3,Green,A,4.458333333333333,5,ScrollDown,ScrollUp,Green.png,4,Neutral,Neutral,,,,,0,0,0,0,,,,,,,,,,,,,,,,,,,,,,,,,0,33,33,33,,,,,,,,,,,,,,,,,,,,,,,,,,,,,,,,,,,,,,,,,,,,,,,,,,,,,,,,,,,,,,,,,,,,,1,1.057024100000035,585.9239030000003,None,ScrollDown,정답입니다,585.9239030000003,None,585.9239030000003,None,585.9239030000003,None,585.9239030000003,None,586.8670687000003,None,586.8670687000003,587.3669020000002,,,,,,,,,,,,,,,,216,2022-05-13_13h57.38.890,FishGame,2022.1.1,60.05410875200597,
,35,넌 근심스러워,4,Orange,B,2.708333333333333,3.133333333333333,ScrollUp,ScrollDown,Orange.png,4,Negative,Congruent,,,,,0,0,0,0,,,,,,,,,,,,,,,,,,,,,,,,,0,34,34,34,,,,,,,,,,,,,,,,,,,,,,,,,,,,,,,,,,,,,,,,,,,,,,,,,,,,,,,,,,,,,,,,,,,,,2,1.1366594000000987,588.0306734000001,None,ScrollUp,정답입니다,588.0306734000001,None,588.0306734000001,None,588.0306734000001,None,588.0306734000001,None,589.0316568000003,None,589.0316568000003,589.5332380000004,,,,,,,,,,,,,,,,216,2022-05-13_13h57.38.890,FishGame,2022.1.1,60.05410875200597,
,36,넌 세련되었어,2,Green,A,5.5,4.6,ScrollDown,ScrollUp,Green.png,4,Positive,Congruent,,,,,0,0,0,0,,,,,,,,,,,,,,,,,,,,,,,,,0,35,35,35,,,,,,,,,,,,,,,,,,,,,,,,,,,,,,,,,,,,,,,,,,,,,,,,,,,,,,,,,,,,,,,,,,,,,1.0817901194095612,0.990045800000189,590.1939862000004,None,ScrollDown,정답입니다,590.1939862000004,None,590.1939862000004,None,590.1939862000004,None,590.1939862000004,None,591.0499478000002,None,591.0499478000002,591.5498654000003,,,,,,,,,,,,,,,,216,2022-05-13_13h57.38.890,FishGame,2022.1.1,60.05410875200597,
,37,나를 보내줘,6,Green,A,0,0,ScrollUp,ScrollDown,Green.png,4,NonTarget,NonTarget,,,,,0,0,0,0,,,,,,,,,,,,,,,,,,,,,,,,,0,36,36,36,,,,,,,,,,,,,,,,,,,,,,,,,,,,,,,,,,,,,,,,,,,,,,,,,,,,,,,,,,,,,,,,,,,,,2,1.0824585999998817,592.1923883000004,None,ScrollUp,정답입니다,592.1923883000004,None,592.1923883000004,None,592.1923883000004,None,592.1923883000004,None,593.1537326000002,None,593.1537326000002,593.6661763000002,,,,,,,,,,,,,,,,216,2022-05-13_13h57.38.890,FishGame,2022.1.1,60.05410875200597,
,38,넌 확고해,3,Orange,B,4.708333333333334,4.566666666666666,ScrollUp,ScrollDown,Orange.png,4,Neutral,Neutral,,,,,0,0,0,0,,,,,,,,,,,,,,,,,,,,,,,,,0,37,37,37,,,,,,,,,,,,,,,,,,,,,,,,,,,,,,,,,,,,,,,,,,,,,,,,,,,,,,,,,,,,,,,,,,,,,2,1.1218450999999732,594.3233566000004,None,ScrollUp,정답입니다,594.3233566000004,None,594.3233566000004,None,594.3233566000004,None,594.3233566000004,None,595.3141118000003,None,595.3141118000003,595.8159306000002,,,,,,,,,,,,,,,,216,2022-05-13_13h57.38.890,FishGame,2022.1.1,60.05410875200597,
,39,넌 이해심이 많아,1,Orange,B,6.041666666666668,5.533333333333333,ScrollUp,ScrollDown,Orange.png,4,Positive,Incongruent,,,,,0,0,0,0,,,,,,,,,,,,,,,,,,,,,,,,,0,38,38,38,,,,,,,,,,,,,,,,,,,,,,,,,,,,,,,,,,,,,,,,,,,,,,,,,,,,,,,,,,,,,,,,,,,,,2,1.0736375000001317,596.4706664,None,ScrollUp,정답입니다,596.4706664,None,596.4706664,None,596.4706664,None,596.4706664,None,597.4137667,None,597.4137667,597.9157621000004,,,,,,,,,,,,,,,,216,2022-05-13_13h57.38.890,FishGame,2022.1.1,60.05410875200597,
,40,나를 보내줘,6,Green,A,0,0,ScrollUp,ScrollDown,Green.png,4,NonTarget,NonTarget,,,,,0,0,0,0,,,,,,,,,,,,,,,,,,,,,,,,,0,39,39,39,,,,,,,,,,,,,,,,,,,,,,,,,,,,,,,,,,,,,,,,,,,,,,,,,,,,,,,,,,,,,,,,,,,,,2,1.0757733000000371,598.5643064000001,None,ScrollUp,정답입니다,598.5643064000001,None,598.5643064000001,None,598.5643064000001,None,598.5643064000001,None,599.5155859000001,None,599.5155859000001,600.0154615000001,,,,,,,,,,,,,,,,216,2022-05-13_13h57.38.890,FishGame,2022.1.1,60.05410875200597,
,41,넌 거칠어,4,Green,A,2.625,3.033333333333333,ScrollDown,ScrollUp,Green.png,4,Negative,Incongruent,,,,,0,0,0,0,,,,,,,,,,,,,,,,,,,,,,,,,0,40,40,40,,,,,,,,,,,,,,,,,,,,,,,,,,,,,,,,,,,,,,,,,,,,,,,,,,,,,,,,,,,,,,,,,,,,,1,1.1172054999997272,600.6673165000002,None,ScrollDown,정답입니다,600.6673165000002,None,600.6673165000002,None,600.6673165000002,None,600.6673165000002,None,601.6540681000001,None,601.6540681000001,602.1651654000002,,,,,,,,,,,,,,,,216,2022-05-13_13h57.38.890,FishGame,2022.1.1,60.05410875200597,
,42,넌 변덕맞아,5,Orange,B,2.75,2.166666666666667,ScrollUp,ScrollDown,Orange.png,4,Negative,Congruent,,,,,0,0,0,0,,,,,,,,,,,,,,,,,,,,,,,,,0,41,41,41,,,,,,,,,,,,,,,,,,,,,,,,,,,,,,,,,,,,,,,,,,,,,,,,,,,,,,,,,,,,,,,,,,,,,2,1.0557017999999516,602.8271158000002,None,ScrollUp,정답입니다,602.8271158000002,None,602.8271158000002,None,602.8271158000002,None,602.8271158000002,None,603.7401166000004,None,603.7401166000004,604.2481458000002,,,,,,,,,,,,,,,,216,2022-05-13_13h57.38.890,FishGame,2022.1.1,60.05410875200597,
,43,나를 데려가줘,6,Orange,B,0,0,ScrollDown,ScrollUp,Orange.png,4,NonTarget,NonTarget,,,,,0,0,0,0,,,,,,,,,,,,,,,,,,,,,,,,,0,42,42,42,,,,,,,,,,,,,,,,,,,,,,,,,,,,,,,,,,,,,,,,,,,,,,,,,,,,,,,,,,,,,,,,,,,,,1,1.1621344999998655,604.9011188000004,None,ScrollDown,정답입니다,604.9011188000004,None,604.9011188000004,None,604.9011188000004,None,604.9011188000004,None,605.9318378000003,None,605.9318378000003,606.4311765000002,,,,,,,,,,,,,,,,216,2022-05-13_13h57.38.890,FishGame,2022.1.1,60.05410875200597,
,44,넌 외로워,4,Orange,B,2.833333333333333,3.3,ScrollUp,ScrollDown,Orange.png,4,Negative,Congruent,,,,,0,0,0,0,,,,,,,,,,,,,,,,,,,,,,,,,0,43,43,43,,,,,,,,,,,,,,,,,,,,,,,,,,,,,,,,,,,,,,,,,,,,,,,,,,,,,,,,,,,,,,,,,,,,,2,1.1116480000000593,607.0861335000004,None,ScrollUp,정답입니다,607.0861335000004,None,607.0861335000004,None,607.0861335000004,None,607.0861335000004,None,608.0642606000001,None,608.0642606000001,608.5642789000003,,,,,,,,,,,,,,,,216,2022-05-13_13h57.38.890,FishGame,2022.1.1,60.05410875200597,
,1,넌 불평스러워,5,Green,A,2.25,2.066666666666667,ScrollDown,ScrollUp,Green.png,5,Negative,Incongruent,,,,,0,0,0,0,,,,,,,,,,,,,,,,,,,,,,,,,,,,,0,0,0,0,,,,,,,,,,,,,,,,,,,,,,,,640.4435423000004,641.9432896000003,641.9765806,642.9265241000003,642.9765100000004,643.9263854000001,643.9263854000001,None,,,,,,,,,,,,,,,,,,,,,,,,,,,,,,,,,,1,1.4413257000001067,645.1005465000003,None,ScrollDown,정답입니다,645.1005465000003,None,645.1005465000003,None,645.1005465000003,None,645.1005465000003,None,646.3796336,None,646.3796336,646.8928204000003,609.0640735000002,None,609.0640735000002,None,0.033333335,-0.09259259,1,0,0,0.016217439999763883,None,639.0769125000002,None,,,216,2022-05-13_13h57.38.890,FishGame,2022.1.1,60.05410875200597,
,2,나를 보내줘,6,Green,A,0,0,ScrollUp,ScrollDown,Green.png,5,NonTarget,NonTarget,,,,,0,0,0,0,,,,,,,,,,,,,,,,,,,,,,,,,,,,,0,1,1,1,,,,,,,,,,,,,,,,,,,,,,,,,,,,,,,,,,,,,,,,,,,,,,,,,,,,,,,,,,,,,,,,,2,1.0980939999999464,647.5342218000001,None,ScrollUp,정답입니다,647.5342218000001,None,647.5342218000001,None,647.5342218000001,None,647.5342218000001,None,648.5117791000002,None,648.5117791000002,649.0257738,,,,,,,,,,,,,,,,216,2022-05-13_13h57.38.890,FishGame,2022.1.1,60.05410875200597,
,3,넌 다재다능해,2,Orange,B,6.208333333333333,4.5,ScrollUp,ScrollDown,Orange.png,5,Positive,Incongruent,,,,,0,0,0,0,,,,,,,,,,,,,,,,,,,,,,,,,,,,,0,2,2,2,,,,,,,,,,,,,,,,,,,,,,,,,,,,,,,,,,,,,,,,,,,,,,,,,,,,,,,,,,,,,,,,,2,1.105026899999757,649.6718483000004,None,ScrollUp,정답입니다,649.6718483000004,None,649.6718483000004,None,649.6718483000004,None,649.6718483000004,None,650.6571116,None,650.6571116,651.1587868000001,,,,,,,,,,,,,,,,216,2022-05-13_13h57.38.890,FishGame,2022.1.1,60.05410875200597,
,4,넌 과감해,3,Green,A,4.833333333333334,4.6,ScrollDown,ScrollUp,Green.png,5,Neutral,Neutral,,,,,0,0,0,0,,,,,,,,,,,,,,,,,,,,,,,,,,,,,0,3,3,3,,,,,,,,,,,,,,,,,,,,,,,,,,,,,,,,,,,,,,,,,,,,,,,,,,,,,,,,,,,,,,,,,1.1759259204069774,1.067214000000149,651.8025231000001,None,ScrollDown,정답입니다,651.8025231000001,None,651.8025231000001,None,651.8025231000001,None,651.8025231000001,None,652.7477226000001,None,652.7477226000001,653.2583923000002,,,,,,,,,,,,,,,,216,2022-05-13_13h57.38.890,FishGame,2022.1.1,60.05410875200597,
,5,넌 고분고분해,3,Orange,B,3.75,4.033333333333333,ScrollUp,ScrollDown,Orange.png,5,Neutral,Neutral,,,,,0,0,0,0,,,,,,,,,,,,,,,,,,,,,,,,,,,,,0,4,4,4,,,,,,,,,,,,,,,,,,,,,,,,,,,,,,,,,,,,,,,,,,,,,,,,,,,,,,,,,,,,,,,,,1.9783950746059418,1.0952022999999826,653.9213813000001,None,ScrollUp,정답입니다,653.9213813000001,None,653.9213813000001,None,653.9213813000001,None,653.9213813000001,None,654.8753917000004,None,654.8753917000004,655.3750015,,,,,,,,,,,,,,,,216,2022-05-13_13h57.38.890,FishGame,2022.1.1,60.05410875200597,
,6,나를 보내줘,6,Green,A,0,0,ScrollUp,ScrollDown,Green.png,5,NonTarget,NonTarget,,,,,0,0,0,0,,,,,,,,,,,,,,,,,,,,,,,,,,,,,0,5,5,5,,,,,,,,,,,,,,,,,,,,,,,,,,,,,,,,,,,,,,,,,,,,,,,,,,,,,,,,,,,,,,,,,2,1.1790540000001783,656.0252698000004,None,ScrollUp,정답입니다,656.0252698000004,None,656.0252698000004,None,656.0252698000004,None,656.0252698000004,None,657.0756367000004,None,657.0756367000004,657.5912392,,,,,,,,,,,,,,,,216,2022-05-13_13h57.38.890,FishGame,2022.1.1,60.05410875200597,
,7,넌 잘 잊어,4,Green,A,3,3.7,ScrollDown,ScrollUp,Green.png,5,Negative,Incongruent,,,,,0,0,0,0,,,,,,,,,,,,,,,,,,,,,,,,,,,,,0,6,6,6,,,,,,,,,,,,,,,,,,,,,,,,,,,,,,,,,,,,,,,,,,,,,,,,,,,,,,,,,,,,,,,,,1,1.1679579999999987,658.2418717,None,ScrollDown,정답입니다,658.2418717,None,658.2418717,None,658.2418717,None,658.2418717,None,659.2805527,None,659.2805527,659.7909219000003,,,,,,,,,,,,,,,,216,2022-05-13_13h57.38.890,FishGame,2022.1.1,60.05410875200597,
,8,넌 탐구심이없어,4,Orange,B,2.833333333333333,3.066666666666667,ScrollUp,ScrollDown,Orange.png,5,Negative,Congruent,,,,,0,0,0,0,,,,,,,,,,,,,,,,,,,,,,,,,,,,,0,7,7,7,,,,,,,,,,,,,,,,,,,,,,,,,,,,,,,,,,,,,,,,,,,,,,,,,,,,,,,,,,,,,,,,,2,1.050195899999835,660.4453343,None,ScrollUp,정답입니다,660.4453343,None,660.4453343,None,660.4453343,None,660.4453343,None,661.3620272000003,None,661.3620272000003,661.8742075,,,,,,,,,,,,,,,,216,2022-05-13_13h57.38.890,FishGame,2022.1.1,60.05410875200597,
,9,나를 데려가줘,6,Orange,B,0,0,ScrollDown,ScrollUp,Orange.png,5,NonTarget,NonTarget,,,,,0,0,0,0,,,,,,,,,,,,,,,,,,,,,,,,,,,,,0,8,8,8,,,,,,,,,,,,,,,,,,,,,,,,,,,,,,,,,,,,,,,,,,,,,,,,,,,,,,,,,,,,,,,,,1,1.3337406000000556,662.5249570000001,None,ScrollDown,정답입니다,662.5249570000001,None,662.5249570000001,None,662.5249570000001,None,662.5249570000001,None,663.7287409,None,663.7287409,664.2405117000003,,,,,,,,,,,,,,,,216,2022-05-13_13h57.38.890,FishGame,2022.1.1,60.05410875200597,
,10,넌 참되어,2,Green,A,6.041666666666664,4.733333333333333,ScrollDown,ScrollUp,Green.png,5,Positive,Congruent,,,,,0,0,0,0,,,,,,,,,,,,,,,,,,,,,,,,,,,,,0,9,9,9,,,,,,,,,,,,,,,,,,,,,,,,,,,,,,,,,,,,,,,,,,,,,,,,,,,,,,,,,,,,,,,,,1,1.1517644000000473,664.8879001,None,ScrollDown,정답입니다,664.8879001,None,664.8879001,None,664.8879001,None,664.8879001,None,665.9218331000002,None,665.9218331000002,666.4236104000001,,,,,,,,,,,,,,,,216,2022-05-13_13h57.38.890,FishGame,2022.1.1,60.05410875200597,
,11,넌 생기있어,1,Orange,B,5.875,5.633333333333334,ScrollUp,ScrollDown,Orange.png,5,Positive,Incongruent,,,,,0,0,0,0,,,,,,,,,,,,,,,,,,,,,,,,,,,,,0,10,10,10,,,,,,,,,,,,,,,,,,,,,,,,,,,,,,,,,,,,,,,,,,,,,,,,,,,,,,,,,,,,,,,,,2,1.1344755999998597,667.0769464,None,ScrollUp,정답입니다,667.0769464,None,667.0769464,None,667.0769464,None,667.0769464,None,668.0788508,None,668.0788508,668.5898307000002,,,,,,,,,,,,,,,,216,2022-05-13_13h57.38.890,FishGame,2022.1.1,60.05410875200597,
,12,넌 비사교적이야,4,Orange,B,2.875,2.9,ScrollUp,ScrollDown,Orange.png,5,Negative,Congruent,,,,,0,0,0,0,,,,,,,,,,,,,,,,,,,,,,,,,,,,,0,11,11,11,,,,,,,,,,,,,,,,,,,,,,,,,,,,,,,,,,,,,,,,,,,,,,,,,,,,,,,,,,,,,,,,,2,1.1007605999998304,669.2381394000004,None,ScrollUp,정답입니다,669.2381394000004,None,669.2381394000004,None,669.2381394000004,None,669.2381394000004,None,670.2113791000002,None,670.2113791000002,670.7229106000004,,,,,,,,,,,,,,,,216,2022-05-13_13h57.38.890,FishGame,2022.1.1,60.05410875200597,
,13,나를 데려가줘,6,Orange,B,0,0,ScrollDown,ScrollUp,Orange.png,5,NonTarget,NonTarget,,,,,0,0,0,0,,,,,,,,,,,,,,,,,,,,,,,,,,,,,0,12,12,12,,,,,,,,,,,,,,,,,,,,,,,,,,,,,,,,,,,,,,,,,,,,,,,,,,,,,,,,,,,,,,,,,1,1.197476999999708,671.3756740000003,None,ScrollDown,정답입니다,671.3756740000003,None,671.3756740000003,None,671.3756740000003,None,671.3756740000003,None,672.4421672000003,None,672.4421672000003,672.9560193000002,,,,,,,,,,,,,,,,216,2022-05-13_13h57.38.890,FishGame,2022.1.1,60.05410875200597,
,14,넌 고독해,4,Green,A,2.916666666666667,3.233333333333333,ScrollDown,ScrollUp,Green.png,5,Negative,Incongruent,,,,,0,0,0,0,,,,,,,,,,,,,,,,,,,,,,,,,,,,,0,13,13,13,,,,,,,,,,,,,,,,,,,,,,,,,,,,,,,,,,,,,,,,,,,,,,,,,,,,,,,,,,,,,,,,,1,1.183707200000299,673.6030843000003,None,ScrollDown,정답입니다,673.6030843000003,None,673.6030843000003,None,673.6030843000003,None,673.6030843000003,None,674.6611765000002,None,674.6611765000002,675.1723547000001,,,,,,,,,,,,,,,,216,2022-05-13_13h57.38.890,FishGame,2022.1.1,60.05410875200597,
,15,넌 신경질적이야,5,Orange,B,2.375,2.233333333333333,ScrollUp,ScrollDown,Orange.png,5,Negative,Congruent,,,,,0,0,0,0,,,,,,,,,,,,,,,,,,,,,,,,,,,,,0,14,14,14,,,,,,,,,,,,,,,,,,,,,,,,,,,,,,,,,,,,,,,,,,,,,,,,,,,,,,,,,,,,,,,,,2,1.2002273000002788,675.8272624000001,None,ScrollUp,정답입니다,675.8272624000001,None,675.8272624000001,None,675.8272624000001,None,675.8272624000001,None,676.8940816000004,None,676.8940816000004,677.4053671000001,,,,,,,,,,,,,,,,216,2022-05-13_13h57.38.890,FishGame,2022.1.1,60.05410875200597,
,16,넌 똑똑해,2,Orange,B,5.666666666666667,3.966666666666667,ScrollUp,ScrollDown,Orange.png,5,Positive,Incongruent,,,,,0,0,0,0,,,,,,,,,,,,,,,,,,,,,,,,,,,,,0,15,15,15,,,,,,,,,,,,,,,,,,,,,,,,,,,,,,,,,,,,,,,,,,,,,,,,,,,,,,,,,,,,,,,,,2,1.1634479999997893,678.0587310000001,None,ScrollUp,정답입니다,678.0587310000001,None,678.0587310000001,None,678.0587310000001,None,678.0587310000001,None,679.0901685000003,None,679.0901685000003,679.6051914000004,,,,,,,,,,,,,,,,216,2022-05-13_13h57.38.890,FishGame,2022.1.1,60.05410875200597,
,17,나를 보내줘,6,Green,A,0,0,ScrollUp,ScrollDown,Green.png,5,NonTarget,NonTarget,,,,,0,0,0,0,,,,,,,,,,,,,,,,,,,,,,,,,,,,,0,16,16,16,,,,,,,,,,,,,,,,,,,,,,,,,,,,,,,,,,,,,,,,,,,,,,,,,,,,,,,,,,,,,,,,,2,1.1881561000000147,680.2505113000002,None,ScrollUp,정답입니다,680.2505113000002,None,680.2505113000002,None,680.2505113000002,None,680.2505113000002,None,681.3140594000001,None,681.3140594000001,681.8215331000001,,,,,,,,,,,,,,,,216,2022-05-13_13h57.38.890,FishGame,2022.1.1,60.05410875200597,
,18,넌 협조적이야,1,Green,A,5.625,5.666666666666667,ScrollDown,ScrollUp,Green.png,5,Positive,Congruent,,,,,0,0,0,0,,,,,,,,,,,,,,,,,,,,,,,,,,,,,0,17,17,17,,,,,,,,,,,,,,,,,,,,,,,,,,,,,,,,,,,,,,,,,,,,,,,,,,,,,,,,,,,,,,,,,1,1.1836766000001262,682.4672676,None,ScrollDown,정답입니다,682.4672676,None,682.4672676,None,682.4672676,None,682.4672676,None,683.5274619000002,None,683.5274619000002,684.0381815000001,,,,,,,,,,,,,,,,216,2022-05-13_13h57.38.890,FishGame,2022.1.1,60.05410875200597,
,19,나를 데려가줘,6,Orange,B,0,0,ScrollDown,ScrollUp,Orange.png,5,NonTarget,NonTarget,,,,,0,0,0,0,,,,,,,,,,,,,,,,,,,,,,,,,,,,,0,18,18,18,,,,,,,,,,,,,,,,,,,,,,,,,,,,,,,,,,,,,,,,,,,,,,,,,,,,,,,,,,,,,,,,,1,1.2315206000002945,684.6847890000004,None,ScrollDown,정답입니다,684.6847890000004,None,684.6847890000004,None,684.6847890000004,None,684.6847890000004,None,685.7915063,None,685.7915063,686.3041421000003,,,,,,,,,,,,,,,,216,2022-05-13_13h57.38.890,FishGame,2022.1.1,60.05410875200597,
,20,넌 몰인정해,5,Orange,B,2.541666666666667,2.066666666666667,ScrollUp,ScrollDown,Orange.png,5,Negative,Congruent,,,,,0,0,0,0,,,,,,,,,,,,,,,,,,,,,,,,,,,,,0,19,19,19,,,,,,,,,,,,,,,,,,,,,,,,,,,,,,,,,,,,,,,,,,,,,,,,,,,,,,,,,,,,,,,,,2,1.1325815000000148,686.9629015,None,ScrollUp,정답입니다,686.9629015,None,686.9629015,None,686.9629015,None,686.9629015,None,687.9587468000004,None,687.9587468000004,688.4705834000001,,,,,,,,,,,,,,,,216,2022-05-13_13h57.38.890,FishGame,2022.1.1,60.05410875200597,
,21,나를 데려가줘,6,Orange,B,0,0,ScrollDown,ScrollUp,Orange.png,5,NonTarget,NonTarget,,,,,0,0,0,0,,,,,,,,,,,,,,,,,,,,,,,,,,,,,0,20,20,20,,,,,,,,,,,,,,,,,,,,,,,,,,,,,,,,,,,,,,,,,,,,,,,,,,,,,,,,,,,,,,,,,1,1.236615399999664,689.1234368,None,ScrollDown,정답입니다,689.1234368,None,689.1234368,None,689.1234368,None,689.1234368,None,690.2288661000002,None,690.2288661000002,690.7369407000001,,,,,,,,,,,,,,,,216,2022-05-13_13h57.38.890,FishGame,2022.1.1,60.05410875200597,
,22,넌 순진해,3,Orange,B,4.125,4.166666666666667,ScrollUp,ScrollDown,Orange.png,5,Neutral,Neutral,,,,,0,0,0,0,,,,,,,,,,,,,,,,,,,,,,,,,,,,,0,21,21,21,,,,,,,,,,,,,,,,,,,,,,,,,,,,,,,,,,,,,,,,,,,,,,,,,,,,,,,,,,,,,,,,,2,1.1336433999999826,691.3910352000003,None,ScrollUp,정답입니다,691.3910352000003,None,691.3910352000003,None,691.3910352000003,None,691.3910352000003,None,692.3921369000004,None,692.3921369000004,692.9035626000004,,,,,,,,,,,,,,,,216,2022-05-13_13h57.38.890,FishGame,2022.1.1,60.05410875200597,
,23,넌 신뢰할만해,1,Green,A,6.625,5.533333333333333,ScrollDown,ScrollUp,Green.png,5,Positive,Congruent,,,,,0,0,0,0,,,,,,,,,,,,,,,,,,,,,,,,,,,,,0,22,22,22,,,,,,,,,,,,,,,,,,,,,,,,,,,,,,,,,,,,,,,,,,,,,,,,,,,,,,,,,,,,,,,,,1,1.133536499999991,693.5527772,None,ScrollDown,정답입니다,693.5527772,None,693.5527772,None,693.5527772,None,693.5527772,None,694.559166,None,694.559166,695.0699268000003,,,,,,,,,,,,,,,,216,2022-05-13_13h57.38.890,FishGame,2022.1.1,60.05410875200597,
,24,나를 보내줘,6,Green,A,0,0,ScrollUp,ScrollDown,Green.png,5,NonTarget,NonTarget,,,,,0,0,0,0,,,,,,,,,,,,,,,,,,,,,,,,,,,,,0,23,23,23,,,,,,,,,,,,,,,,,,,,,,,,,,,,,,,,,,,,,,,,,,,,,,,,,,,,,,,,,,,,,,,,,2,1.0371780999998919,695.7110983000002,None,ScrollUp,정답입니다,695.7110983000002,None,695.7110983000002,None,695.7110983000002,None,695.7110983000002,None,696.6342646000003,None,696.6342646000003,697.1362045000001,,,,,,,,,,,,,,,,216,2022-05-13_13h57.38.890,FishGame,2022.1.1,60.05410875200597,
,25,넌 인색해,5,Green,A,2.625,2.233333333333333,ScrollDown,ScrollUp,Green.png,5,Negative,Incongruent,,,,,0,0,0,0,,,,,,,,,,,,,,,,,,,,,,,,,,,,,0,24,24,24,,,,,,,,,,,,,,,,,,,,,,,,,,,,,,,,,,,,,,,,,,,,,,,,,,,,,,,,,,,,,,,,,1.0077160497506459,1.2313819999999396,697.7891197000004,None,ScrollDown,정답입니다,697.7891197000004,None,697.7891197000004,None,697.7891197000004,None,697.7891197000004,None,698.8892549000002,None,698.8892549000002,699.4025841000002,,,,,,,,,,,,,,,,216,2022-05-13_13h57.38.890,FishGame,2022.1.1,60.05410875200597,
,26,넌 유쾌해,1,Orange,B,5.833333333333333,5.766666666666667,ScrollUp,ScrollDown,Orange.png,5,Positive,Incongruent,,,,,0,0,0,0,,,,,,,,,,,,,,,,,,,,,,,,,,,,,0,25,25,25,,,,,,,,,,,,,,,,,,,,,,,,,,,,,,,,,,,,,,,,,,,,,,,,,,,,,,,,,,,,,,,,,2,0.9399361999999201,700.0532792000004,None,ScrollUp,정답입니다,700.0532792000004,None,700.0532792000004,None,700.0532792000004,None,700.0532792000004,None,700.8691224000004,None,700.8691224000004,701.3690270000002,,,,,,,,,,,,,,,,216,2022-05-13_13h57.38.890,FishGame,2022.1.1,60.05410875200597,
,27,나를 보내줘,6,Green,A,0,0,ScrollUp,ScrollDown,Green.png,5,NonTarget,NonTarget,,,,,0,0,0,0,,,,,,,,,,,,,,,,,,,,,,,,,,,,,0,26,26,26,,,,,,,,,,,,,,,,,,,,,,,,,,,,,,,,,,,,,,,,,,,,,,,,,,,,,,,,,,,,,,,,,2,1.0291275999998106,702.0142699000003,None,ScrollUp,정답입니다,702.0142699000003,None,702.0142699000003,None,702.0142699000003,None,702.0142699000003,None,702.9193054000002,None,702.9193054000002,703.4187609,,,,,,,,,,,,,,,,216,2022-05-13_13h57.38.890,FishGame,2022.1.1,60.05410875200597,
,28,넌 창의력있어,2,Green,A,5.916666666666667,4.8,ScrollDown,ScrollUp,Green.png,5,Positive,Congruent,,,,,0,0,0,0,,,,,,,,,,,,,,,,,,,,,,,,,,,,,0,27,27,27,,,,,,,,,,,,,,,,,,,,,,,,,,,,,,,,,,,,,,,,,,,,,,,,,,,,,,,,,,,,,,,,,1,1.0147091999997429,704.0631407000001,None,ScrollDown,정답입니다,704.0631407000001,None,704.0631407000001,None,704.0631407000001,None,704.0631407000001,None,704.9567773000003,None,704.9567773000003,705.4686522000002,,,,,,,,,,,,,,,,216,2022-05-13_13h57.38.890,FishGame,2022.1.1,60.05410875200597,
