name,TrialNum,Word,WordCategory,FishType,WordList,WordValence,WordReputation,CorrectResp,IncorrectResp,FishTypeFile,Round,WordType,Condition,LoopforOrange.thisRepN,LoopforOrange.thisTrialN,LoopforOrange.thisN,LoopforOrange.thisIndex,OrangeInstLoop.thisRepN,OrangeInstLoop.thisTrialN,OrangeInstLoop.thisN,OrangeInstLoop.thisIndex,OrangePrac.thisRepN,OrangePrac.thisTrialN,OrangePrac.thisN,OrangePrac.thisIndex,temp1.thisRepN,temp1.thisTrialN,temp1.thisN,temp1.thisIndex,OrangeRound1.thisRepN,OrangeRound1.thisTrialN,OrangeRound1.thisN,OrangeRound1.thisIndex,OrangeRound2.thisRepN,OrangeRound2.thisTrialN,OrangeRound2.thisN,OrangeRound2.thisIndex,OrangeRound3.thisRepN,OrangeRound3.thisTrialN,OrangeRound3.thisN,OrangeRound3.thisIndex,OrangeRound4.thisRepN,OrangeRound4.thisTrialN,OrangeRound4.thisN,OrangeRound4.thisIndex,OrangeRound5.thisRepN,OrangeRound5.thisTrialN,OrangeRound5.thisN,OrangeRound5.thisIndex,LoopForGreen.thisRepN,LoopForGreen.thisTrialN,LoopForGreen.thisN,LoopForGreen.thisIndex,text_2.started,text_2.stopped,text_3.started,text_3.stopped,key_resp.keys,key_resp.rt,key_resp.started,key_resp.stopped,PassI_2.started,PassI_2.stopped,PassInst_2.keys,PassInst_2.rt,PassInst_2.started,PassInst_2.stopped,mouse_2.x,mouse_2.y,mouse_2.leftButton,mouse_2.midButton,mouse_2.rightButton,mouse_2.started,mouse_2.stopped,image.started,image.stopped,text_5.started,text_5.stopped,text_6.started,text_6.stopped,text_7.started,text_7.stopped,text_8.started,text_8.stopped,slider_2.response,slider_2.rt,slider_2.started,slider_2.stopped,Response_2,Feedback_2,BackGround_2.started,BackGround_2.stopped,Fish_2.started,Fish_2.stopped,WordBox_2.started,WordBox_2.stopped,Words_2.started,Words_2.stopped,BackGround_Feedback_2.started,BackGround_Feedback_2.stopped,Feedbacks_2.started,Feedbacks_2.stopped,Continue_or_not.keys,Continue_or_not.rt,Continue_or_not.started,Continue_or_not.stopped,image_3.started,image_3.stopped,mouse_3.x,mouse_3.y,mouse_3.leftButton,mouse_3.midButton,mouse_3.rightButton,mouse_3.started,mouse_3.stopped,startmain.started,startmain.stopped,slider.response,slider.rt,slider.started,slider.stopped,Response,Feedback,BackGround.started,BackGround.stopped,Fish.started,Fish.stopped,WordBox.started,WordBox.stopped,Words.started,Words.stopped,BackGround_Feedback.started,BackGround_Feedback.stopped,Feedbacks.started,Feedbacks.stopped,text.started,text.stopped,break_interval.started,break_interval.stopped,mouse.x,mouse.y,mouse.leftButton,mouse.midButton,mouse.rightButton,mouse.started,mouse.stopped,stratnextround.started,stratnextround.stopped,endgame.started,endgame.stopped,participant,date,expName,psychopyVersion,frameRate,
,,,,,,,,,,,,,,,,,,,,,,,,,,,,,,,,,,,,,,,,,,,,,,,,,,,,,,21.153097200000047,None,21.153097200000047,None,space,2.529110899999978,21.647584800000004,None,,,,,,,,,,,,,,,,,,,,,,,,,,,,,,,,,,,,,,,,,,,,,,,,,,,,,,,,,,,,,,,,,,,,,,,,,,,,,,,,,,,,,,,,,,217,2022-05-17_14h02.24.877,FishGame,2022.1.1,59.995056407304496,
물고기과제_instruction(참가자용)OrangeVersion.mp4,,,,,,,,,,,,,,0,0,0,0,0,0,0,0,,,,,,,,,,,,,,,,,,,,,,,,,,,,,,,,,,,,,,,,,91.05430060000026,None,n,4.024970499999654,91.05430060000026,None,,,,,,,,,,,,,,,,,,,,,,,,,,,,,,,,,,,,,,,,,,,,,,,,,,,,,,,,,,,,,,,,,,,,,,,,,,,,,,,,,,,,217,2022-05-17_14h02.24.877,FishGame,2022.1.1,59.995056407304496,
,1,넌 교활해,5,Green,B,2.333333333333333,2.133333333333333,ScrollUp,ScrollDown,Green.png,practice,,,0,0,0,0,,,,,0,0,0,0,0,0,0,0,,,,,,,,,,,,,,,,,,,,,,,,,,,,,,,,,,,,,,,0.04537037,-0.20648149,1,0,0,0.5133158300000105,None,95.10460749999993,None,102.08773470000006,103.58688060000031,103.62026360000027,104.57021560000021,104.62008259999993,105.56997600000022,105.56997600000022,None,1.9459876318772633,1.8428412999996908,106.78221070000018,None,ScrollUp,정답입니다,106.78221070000018,None,106.78221070000018,None,106.78221070000018,None,106.78221070000018,None,108.42953140000009,None,108.42953140000009,108.93616740000016,,,,,,,,,,,,,,,,,,,,,,,,,,,,,,,,,,,,,,,,,,,,,,,,,217,2022-05-17_14h02.24.877,FishGame,2022.1.1,59.995056407304496,
,2,넌 슬기로워,2,Orange,A,6.166666666666667,4.1,ScrollDown,ScrollUp,Orange.png,practice,,,0,0,0,0,,,,,0,0,0,0,0,1,1,1,,,,,,,,,,,,,,,,,,,,,,,,,,,,,,,,,,,,,,,,,,,,,,,,,,,,,,,,1,1.196333400000185,109.60718580000002,None,ScrollDown,정답입니다,109.60718580000002,None,109.60718580000002,None,109.60718580000002,None,109.60718580000002,None,110.65786530000014,None,110.65786530000014,111.16926140000032,,,,,,,,,,,,,,,,,,,,,,,,,,,,,,,,,,,,,,,,,,,,,,,,,217,2022-05-17_14h02.24.877,FishGame,2022.1.1,59.995056407304496,
,3,나를 보내줘,6,Orange,A,0,0,ScrollUp,ScrollDown,Orange.png,practice,,,0,0,0,0,,,,,0,0,0,0,0,2,2,2,,,,,,,,,,,,,,,,,,,,,,,,,,,,,,,,,,,,,,,,,,,,,,,,,,,,,,,,1.8657407313585281,1.3405312999998387,111.82850580000013,None,ScrollUp,정답입니다,111.82850580000013,None,111.82850580000013,None,111.82850580000013,None,111.82850580000013,None,113.03605890000017,None,113.03605890000017,113.53561290000016,,,,,,,,,,,,,,,,,,,,,,,,,,,,,,,,,,,,,,,,,,,,,,,,,217,2022-05-17_14h02.24.877,FishGame,2022.1.1,59.995056407304496,
,4,나를 데려가줘,6,Green,B,0,0,ScrollDown,ScrollUp,Green.png,practice,,,0,0,0,0,,,,,0,0,0,0,0,3,3,3,,,,,,,,,,,,,,,,,,,,,,,,,,,,,,,,,,,,,,,,,,,,,,,,,,,,,,,,1.0879629751046498,1.2090884999997797,114.18766499999992,None,ScrollDown,정답입니다,114.18766499999992,None,114.18766499999992,None,114.18766499999992,None,114.18766499999992,None,115.26878970000007,None,115.26878970000007,115.76865570000018,,,,,,,,,,,,,,,,,,,,,,,,,,,,,,,,,,,,,,,,,,,,,,,,,217,2022-05-17_14h02.24.877,FishGame,2022.1.1,59.995056407304496,
,1,넌 교활해,5,Green,B,2.333333333333333,2.133333333333333,ScrollUp,ScrollDown,Green.png,practice,,,0,0,0,0,,,,,0,0,0,0,,,,,,,,,,,,,,,,,,,,,,,,,,,,,,,,,,,,,,,,,,,,,,,,,,,,,,,,,,,,,,,,,,,,,,,,,,,,,,n,3.5478533999998945,116.26850830000012,None,116.26850830000012,None,,,,,,,,,,,,,,,,,,,,,,,,,,,,,,,,,,,,,,,,,,,217,2022-05-17_14h02.24.877,FishGame,2022.1.1,59.995056407304496,
,1,넌 따뜻해,1,Green,B,6.083333333333333,5.6,ScrollUp,ScrollDown,Green.png,1,Positive,Incongruent,0,0,0,0,,,,,,,,,,,,,0,0,0,0,,,,,,,,,,,,,,,,,,,,,,,,,,,,,,,,,,,,,,,,,,,,123.03465630000028,124.53416590000006,124.56746680000015,125.51748410000027,125.56743480000023,126.51739220000036,126.51739220000036,None,,,,,,,,,,,,,,,,,,,,,,,,,0.0129629625,-0.117592596,1,0,0,0.31351472999995167,None,119.83472600000005,None,1.8749999900658925,1.5757638999998562,127.73200760000009,None,ScrollUp,정답입니다,127.73200760000009,None,127.73200760000009,None,127.73200760000009,None,127.73200760000009,None,129.1096719000002,None,129.1096719000002,129.6168904000001,,,,,,,,,,,,,,,,217,2022-05-17_14h02.24.877,FishGame,2022.1.1,59.995056407304496,
,2,넌 기품있어,2,Green,B,5.791666666666668,4.5,ScrollUp,ScrollDown,Green.png,1,Positive,Incongruent,0,0,0,0,,,,,,,,,,,,,0,1,1,1,,,,,,,,,,,,,,,,,,,,,,,,,,,,,,,,,,,,,,,,,,,,,,,,,,,,,,,,,,,,,,,,,,,,,,,,,,,,,,,,,,,,,1.6234567910432816,1.0939651000003323,130.2840467000001,None,ScrollUp,정답입니다,130.2840467000001,None,130.2840467000001,None,130.2840467000001,None,130.2840467000001,None,131.23851779999995,None,131.23851779999995,131.74987710000005,,,,,,,,,,,,,,,,217,2022-05-17_14h02.24.877,FishGame,2022.1.1,59.995056407304496,
,3,나를 보내줘,6,Orange,A,0,0,ScrollUp,ScrollDown,Orange.png,1,NonTarget,NonTarget,0,0,0,0,,,,,,,,,,,,,0,2,2,2,,,,,,,,,,,,,,,,,,,,,,,,,,,,,,,,,,,,,,,,,,,,,,,,,,,,,,,,,,,,,,,,,,,,,,,,,,,,,,,,,,,,,1.5925925932824612,1.2199610999996366,132.42265710000038,None,ScrollUp,정답입니다,132.42265710000038,None,132.42265710000038,None,132.42265710000038,None,132.42265710000038,None,133.49136210000006,None,133.49136210000006,133.99956150000025,,,,,,,,,,,,,,,,217,2022-05-17_14h02.24.877,FishGame,2022.1.1,59.995056407304496,
,4,넌 수동적이야,4,Orange,A,2.833333333333333,2.933333333333333,ScrollDown,ScrollUp,Orange.png,1,Negative,Incongruent,0,0,0,0,,,,,,,,,,,,,0,3,3,3,,,,,,,,,,,,,,,,,,,,,,,,,,,,,,,,,,,,,,,,,,,,,,,,,,,,,,,,,,,,,,,,,,,,,,,,,,,,,,,,,,,,,1.1435185273488362,1.1434885000003305,134.6778193,None,ScrollDown,정답입니다,134.6778193,None,134.6778193,None,134.6778193,None,134.6778193,None,135.67040369999995,None,135.67040369999995,136.18269080000027,,,,,,,,,,,,,,,,217,2022-05-17_14h02.24.877,FishGame,2022.1.1,59.995056407304496,
,5,넌 사심이 없어,3,Green,B,4.916666666666666,4.333333333333333,ScrollUp,ScrollDown,Green.png,1,Neutral,Neutral,0,0,0,0,,,,,,,,,,,,,0,4,4,4,,,,,,,,,,,,,,,,,,,,,,,,,,,,,,,,,,,,,,,,,,,,,,,,,,,,,,,,,,,,,,,,,,,,,,,,,,,,,,,,,,,,,1.7253086368242898,1.1099723000002086,136.84672960000034,None,ScrollUp,정답입니다,136.84672960000034,None,136.84672960000034,None,136.84672960000034,None,136.84672960000034,None,137.82006480000018,None,137.82006480000018,138.33233850000033,,,,,,,,,,,,,,,,217,2022-05-17_14h02.24.877,FishGame,2022.1.1,59.995056407304496,
,6,넌 헤퍼,5,Orange,A,2.458333333333334,2.233333333333333,ScrollDown,ScrollUp,Orange.png,1,Negative,Incongruent,0,0,0,0,,,,,,,,,,,,,0,5,5,5,,,,,,,,,,,,,,,,,,,,,,,,,,,,,,,,,,,,,,,,,,,,,,,,,,,,,,,,,,,,,,,,,,,,,,,,,,,,,,,,,,,,,1.2314814726511638,1.0936421000001246,138.99560910000037,None,ScrollDown,정답입니다,138.99560910000037,None,138.99560910000037,None,138.99560910000037,None,138.99560910000037,None,139.94870609999998,None,139.94870609999998,140.44888500000025,,,,,,,,,,,,,,,,217,2022-05-17_14h02.24.877,FishGame,2022.1.1,59.995056407304496,
,7,넌 말쑥해,3,Orange,A,4.833333333333334,4.333333333333333,ScrollDown,ScrollUp,Orange.png,1,Neutral,Neutral,0,0,0,0,,,,,,,,,,,,,0,6,6,6,,,,,,,,,,,,,,,,,,,,,,,,,,,,,,,,,,,,,,,,,,,,,,,,,,,,,,,,,,,,,,,,,,,,,,,,,,,,,,,,,,,,,1,1.0765206999999464,141.11443710000003,None,ScrollDown,정답입니다,141.11443710000003,None,141.11443710000003,None,141.11443710000003,None,141.11443710000003,None,142.04894090000016,None,142.04894090000016,142.54854620000015,,,,,,,,,,,,,,,,217,2022-05-17_14h02.24.877,FishGame,2022.1.1,59.995056407304496,
,8,넌 투덜거려,5,Green,B,2.541666666666667,2.266666666666667,ScrollUp,ScrollDown,Green.png,1,Negative,Congruent,0,0,0,0,,,,,,,,,,,,,0,7,7,7,,,,,,,,,,,,,,,,,,,,,,,,,,,,,,,,,,,,,,,,,,,,,,,,,,,,,,,,,,,,,,,,,,,,,,,,,,,,,,,,,,,,,1.7978395173947017,1.0860216000000946,143.22082560000035,None,ScrollUp,정답입니다,143.22082560000035,None,143.22082560000035,None,143.22082560000035,None,143.22082560000035,None,144.15821400000004,None,144.15821400000004,144.66484910000008,,,,,,,,,,,,,,,,217,2022-05-17_14h02.24.877,FishGame,2022.1.1,59.995056407304496,
,9,넌 적극적이야,1,Orange,A,5.708333333333333,5.533333333333333,ScrollDown,ScrollUp,Orange.png,1,Positive,Congruent,0,0,0,0,,,,,,,,,,,,,0,8,8,8,,,,,,,,,,,,,,,,,,,,,,,,,,,,,,,,,,,,,,,,,,,,,,,,,,,,,,,,,,,,,,,,,,,,,,,,,,,,,,,,,,,,,1.0709876716136932,1.0521858000001885,145.33113120000007,None,ScrollDown,정답입니다,145.33113120000007,None,145.33113120000007,None,145.33113120000007,None,145.33113120000007,None,146.2479628000001,None,146.2479628000001,146.74801990000014,,,,,,,,,,,,,,,,217,2022-05-17_14h02.24.877,FishGame,2022.1.1,59.995056407304496,
,10,넌 재미없어,4,Green,B,2.625,2.966666666666667,ScrollUp,ScrollDown,Green.png,1,Negative,Congruent,0,0,0,0,,,,,,,,,,,,,0,9,9,9,,,,,,,,,,,,,,,,,,,,,,,,,,,,,,,,,,,,,,,,,,,,,,,,,,,,,,,,,,,,,,,,,,,,,,,,,,,,,,,,,,,,,1.7777777860562007,1.1020386999998664,147.41069700000025,None,ScrollUp,정답입니다,147.41069700000025,None,147.41069700000025,None,147.41069700000025,None,147.41069700000025,None,148.37219920000007,None,148.37219920000007,148.88098790000004,,,,,,,,,,,,,,,,217,2022-05-17_14h02.24.877,FishGame,2022.1.1,59.995056407304496,
,11,넌 명석해,2,Orange,A,5.875,4.033333333333333,ScrollDown,ScrollUp,Orange.png,1,Positive,Congruent,0,0,0,0,,,,,,,,,,,,,0,10,10,10,,,,,,,,,,,,,,,,,,,,,,,,,,,,,,,,,,,,,,,,,,,,,,,,,,,,,,,,,,,,,,,,,,,,,,,,,,,,,,,,,,,,,1,1.0829181999997672,149.57509120000032,None,ScrollDown,정답입니다,149.57509120000032,None,149.57509120000032,None,149.57509120000032,None,149.57509120000032,None,150.48857510000016,None,150.48857510000016,150.99775750000026,,,,,,,,,,,,,,,,217,2022-05-17_14h02.24.877,FishGame,2022.1.1,59.995056407304496,
,12,나를 데려가줘,6,Green,B,0,0,ScrollDown,ScrollUp,Green.png,1,NonTarget,NonTarget,0,0,0,0,,,,,,,,,,,,,0,11,11,11,,,,,,,,,,,,,,,,,,,,,,,,,,,,,,,,,,,,,,,,,,,,,,,,,,,,,,,,,,,,,,,,,,,,,,,,,,,,,,,,,,,,,1.09413580596447,1.0545028000001366,151.67621150000014,None,ScrollDown,정답입니다,151.67621150000014,None,151.67621150000014,None,151.67621150000014,None,151.67621150000014,None,152.58629599999995,None,152.58629599999995,153.09757850000005,,,,,,,,,,,,,,,,217,2022-05-17_14h02.24.877,FishGame,2022.1.1,59.995056407304496,
,13,넌 소심해,4,Orange,A,3,3.1,ScrollDown,ScrollUp,Orange.png,1,Negative,Incongruent,0,0,0,0,,,,,,,,,,,,,0,12,12,12,,,,,,,,,,,,,,,,,,,,,,,,,,,,,,,,,,,,,,,,,,,,,,,,,,,,,,,,,,,,,,,,,,,,,,,,,,,,,,,,,,,,,1.1018518507480621,1.117582500000026,153.7997964000001,None,ScrollDown,정답입니다,153.7997964000001,None,153.7997964000001,None,153.7997964000001,None,153.7997964000001,None,154.74006510000027,None,154.74006510000027,155.24683770000001,,,,,,,,,,,,,,,,217,2022-05-17_14h02.24.877,FishGame,2022.1.1,59.995056407304496,
,14,넌 합리적이야,2,Orange,A,5.583333333333333,4.733333333333333,ScrollDown,ScrollUp,Orange.png,1,Positive,Congruent,0,0,0,0,,,,,,,,,,,,,0,13,13,13,,,,,,,,,,,,,,,,,,,,,,,,,,,,,,,,,,,,,,,,,,,,,,,,,,,,,,,,,,,,,,,,,,,,,,,,,,,,,,,,,,,,,1.1867283930381138,1.0497409999998126,155.93776240000034,None,ScrollDown,정답입니다,155.93776240000034,None,155.93776240000034,None,155.93776240000034,None,155.93776240000034,None,156.82200020000028,None,156.82200020000028,157.32996820000017,,,,,,,,,,,,,,,,217,2022-05-17_14h02.24.877,FishGame,2022.1.1,59.995056407304496,
,15,넌 무자비해,5,Green,B,2.333333333333333,2.1,ScrollUp,ScrollDown,Green.png,1,Negative,Congruent,0,0,0,0,,,,,,,,,,,,,0,14,14,14,,,,,,,,,,,,,,,,,,,,,,,,,,,,,,,,,,,,,,,,,,,,,,,,,,,,,,,,,,,,,,,,,,,,,,,,,,,,,,,,,,,,,1.8626543283462524,1.1017910000000484,157.99406230000022,None,ScrollUp,정답입니다,157.99406230000022,None,157.99406230000022,None,157.99406230000022,None,157.99406230000022,None,158.9561332000003,None,158.9561332000003,159.46302370000012,,,,,,,,,,,,,,,,217,2022-05-17_14h02.24.877,FishGame,2022.1.1,59.995056407304496,
,16,나를 보내줘,6,Orange,A,0,0,ScrollUp,ScrollDown,Orange.png,1,NonTarget,NonTarget,0,0,0,0,,,,,,,,,,,,,0,15,15,15,,,,,,,,,,,,,,,,,,,,,,,,,,,,,,,,,,,,,,,,,,,,,,,,,,,,,,,,,,,,,,,,,,,,,,,,,,,,,,,,,,,,,1.679012343287468,1.1850807999999233,160.1323069,None,ScrollUp,정답입니다,160.1323069,None,160.1323069,None,160.1323069,None,160.1323069,None,161.17944239999997,None,161.17944239999997,161.67957620000016,,,,,,,,,,,,,,,,217,2022-05-17_14h02.24.877,FishGame,2022.1.1,59.995056407304496,
,17,넌 현실적이야,3,Green,B,4.608695652173913,4.766666666666667,ScrollUp,ScrollDown,Green.png,1,Neutral,Neutral,0,0,0,0,,,,,,,,,,,,,0,16,16,16,,,,,,,,,,,,,,,,,,,,,,,,,,,,,,,,,,,,,,,,,,,,,,,,,,,,,,,,,,,,,,,,,,,,,,,,,,,,,,,,,,,,,1.9490740597248077,1.1092106999999487,162.34443640000018,None,ScrollUp,정답입니다,162.34443640000018,None,162.34443640000018,None,162.34443640000018,None,162.34443640000018,None,163.31276640000033,None,163.31276640000033,163.8127945000001,,,,,,,,,,,,,,,,217,2022-05-17_14h02.24.877,FishGame,2022.1.1,59.995056407304496,
,18,넌 의리있어,1,Green,B,5.833333333333334,5.633333333333334,ScrollUp,ScrollDown,Green.png,1,Positive,Incongruent,0,0,0,0,,,,,,,,,,,,,0,17,17,17,,,,,,,,,,,,,,,,,,,,,,,,,,,,,,,,,,,,,,,,,,,,,,,,,,,,,,,,,,,,,,,,,,,,,,,,,,,,,,,,,,,,,1.8672839452823002,1.1697452000003068,164.47936930000014,None,ScrollUp,정답입니다,164.47936930000014,None,164.47936930000014,None,164.47936930000014,None,164.47936930000014,None,165.50734770000008,None,165.50734770000008,166.01223270000037,,,,,,,,,,,,,,,,217,2022-05-17_14h02.24.877,FishGame,2022.1.1,59.995056407304496,
,19,넌 신경과민이야,5,Orange,A,2.541666666666667,2.166666666666667,ScrollDown,ScrollUp,Orange.png,1,Negative,Incongruent,0,0,0,0,,,,,,,,,,,,,0,18,18,18,,,,,,,,,,,,,,,,,,,,,,,,,,,,,,,,,,,,,,,,,,,,,,,,,,,,,,,,,,,,,,,,,,,,,,,,,,,,,,,,,,,,,1.0077160497506459,1.0314720999999736,166.68053580000014,None,ScrollDown,정답입니다,166.68053580000014,None,166.68053580000014,None,166.68053580000014,None,166.68053580000014,None,167.57139340000003,None,167.57139340000003,168.07892089999996,,,,,,,,,,,,,,,,217,2022-05-17_14h02.24.877,FishGame,2022.1.1,59.995056407304496,
,20,넌 편안해,1,Orange,A,5.916666666666666,5.866666666666666,ScrollDown,ScrollUp,Orange.png,1,Positive,Congruent,0,0,0,0,,,,,,,,,,,,,0,19,19,19,,,,,,,,,,,,,,,,,,,,,,,,,,,,,,,,,,,,,,,,,,,,,,,,,,,,,,,,,,,,,,,,,,,,,,,,,,,,,,,,,,,,,1.0108024775981903,1.0562965000003715,168.76771340000005,None,ScrollDown,정답입니다,168.76771340000005,None,168.76771340000005,None,168.76771340000005,None,168.76771340000005,None,169.6669194000001,None,169.6669194000001,170.17859640000006,,,,,,,,,,,,,,,,217,2022-05-17_14h02.24.877,FishGame,2022.1.1,59.995056407304496,
,21,넌 품위있어,2,Green,B,5.291666666666666,4.466666666666667,ScrollUp,ScrollDown,Green.png,1,Positive,Incongruent,0,0,0,0,,,,,,,,,,,,,0,20,20,20,,,,,,,,,,,,,,,,,,,,,,,,,,,,,,,,,,,,,,,,,,,,,,,,,,,,,,,,,,,,,,,,,,,,,,,,,,,,,,,,,,,,,1.6882716019948325,0.9529300999997758,170.84031540000024,None,ScrollUp,정답입니다,170.84031540000024,None,170.84031540000024,None,170.84031540000024,None,170.84031540000024,None,171.66657320000013,None,171.66657320000013,172.17816029999994,,,,,,,,,,,,,,,,217,2022-05-17_14h02.24.877,FishGame,2022.1.1,59.995056407304496,
,22,넌 빈틈없어,3,Orange,A,4.833333333333333,3.966666666666667,ScrollDown,ScrollUp,Orange.png,1,Neutral,Neutral,0,0,0,0,,,,,,,,,,,,,0,21,21,21,,,,,,,,,,,,,,,,,,,,,,,,,,,,,,,,,,,,,,,,,,,,,,,,,,,,,,,,,,,,,,,,,,,,,,,,,,,,,,,,,,,,,1.0262345671653748,0.9464637000000948,172.86330910000015,None,ScrollDown,정답입니다,172.86330910000015,None,172.86330910000015,None,172.86330910000015,None,172.86330910000015,None,173.65219640000032,None,173.65219640000032,174.16123930000003,,,,,,,,,,,,,,,,217,2022-05-17_14h02.24.877,FishGame,2022.1.1,59.995056407304496,
,23,넌 상상력없어,4,Green,B,2.833333333333333,3.133333333333333,ScrollUp,ScrollDown,Green.png,1,Negative,Congruent,0,0,0,0,,,,,,,,,,,,,0,22,22,22,,,,,,,,,,,,,,,,,,,,,,,,,,,,,,,,,,,,,,,,,,,,,,,,,,,,,,,,,,,,,,,,,,,,,,,,,,,,,,,,,,,,,1.9629629850387573,1.0163429999997788,174.8322522000003,None,ScrollUp,정답입니다,174.8322522000003,None,174.8322522000003,None,174.8322522000003,None,174.8322522000003,None,175.70342550000032,None,175.70342550000032,176.21129380000002,,,,,,,,,,,,,,,,217,2022-05-17_14h02.24.877,FishGame,2022.1.1,59.995056407304496,
,24,넌 지혜로워,2,Green,B,6.333333333333334,4.633333333333334,ScrollUp,ScrollDown,Green.png,1,Positive,Incongruent,0,0,0,0,,,,,,,,,,,,,0,23,23,23,,,,,,,,,,,,,,,,,,,,,,,,,,,,,,,,,,,,,,,,,,,,,,,,,,,,,,,,,,,,,,,,,,,,,,,,,,,,,,,,,,,,,2,0.983549800000219,176.8676507,None,ScrollUp,정답입니다,176.8676507,None,176.8676507,None,176.8676507,None,176.8676507,None,177.7181101000001,None,177.7181101000001,178.22714710000037,,,,,,,,,,,,,,,,217,2022-05-17_14h02.24.877,FishGame,2022.1.1,59.995056407304496,
,25,넌 시끄러워,4,Orange,A,2.833333333333333,3.033333333333333,ScrollDown,ScrollUp,Orange.png,1,Negative,Incongruent,0,0,0,0,,,,,,,,,,,,,0,24,24,24,,,,,,,,,,,,,,,,,,,,,,,,,,,,,,,,,,,,,,,,,,,,,,,,,,,,,,,,,,,,,,,,,,,,,,,,,,,,,,,,,,,,,1,1.0213929999999891,178.89586260000033,None,ScrollDown,정답입니다,178.89586260000033,None,178.89586260000033,None,178.89586260000033,None,178.89586260000033,None,179.77718360000017,None,179.77718360000017,180.27694999999994,,,,,,,,,,,,,,,,217,2022-05-17_14h02.24.877,FishGame,2022.1.1,59.995056407304496,
,26,넌 만사태평이야,3,Green,B,4,4.333333333333333,ScrollUp,ScrollDown,Green.png,1,Neutral,Neutral,0,0,0,0,,,,,,,,,,,,,0,25,25,25,,,,,,,,,,,,,,,,,,,,,,,,,,,,,,,,,,,,,,,,,,,,,,,,,,,,,,,,,,,,,,,,,,,,,,,,,,,,,,,,,,,,,1.879629631837209,0.935082699999839,180.9414597,None,ScrollUp,정답입니다,180.9414597,None,180.9414597,None,180.9414597,None,180.9414597,None,181.7369679000003,None,181.7369679000003,182.24333270000034,,,,,,,,,,,,,,,,217,2022-05-17_14h02.24.877,FishGame,2022.1.1,59.995056407304496,
,27,넌 붙임성있어,1,Orange,A,5.708333333333333,5.633333333333334,ScrollDown,ScrollUp,Orange.png,1,Positive,Congruent,0,0,0,0,,,,,,,,,,,,,0,26,26,26,,,,,,,,,,,,,,,,,,,,,,,,,,,,,,,,,,,,,,,,,,,,,,,,,,,,,,,,,,,,,,,,,,,,,,,,,,,,,,,,,,,,,1,0.9644593000002715,182.90992069999993,None,ScrollDown,정답입니다,182.90992069999993,None,182.90992069999993,None,182.90992069999993,None,182.90992069999993,None,183.73278070000015,None,183.73278070000015,184.24311400000033,,,,,,,,,,,,,,,,217,2022-05-17_14h02.24.877,FishGame,2022.1.1,59.995056407304496,
,28,넌 영리해,2,Orange,A,6,4.033333333333333,ScrollDown,ScrollUp,Orange.png,1,Positive,Congruent,0,0,0,0,,,,,,,,,,,,,0,27,27,27,,,,,,,,,,,,,,,,,,,,,,,,,,,,,,,,,,,,,,,,,,,,,,,,,,,,,,,,,,,,,,,,,,,,,,,,,,,,,,,,,,,,,1.0308642089366913,0.9606346000000485,184.90509930000007,None,ScrollDown,정답입니다,184.90509930000007,None,184.90509930000007,None,184.90509930000007,None,184.90509930000007,None,185.72615900000028,None,185.72615900000028,186.22618880000027,,,,,,,,,,,,,,,,217,2022-05-17_14h02.24.877,FishGame,2022.1.1,59.995056407304496,
,29,넌 열심이야,1,Green,B,6.041666666666667,5.833333333333333,ScrollUp,ScrollDown,Green.png,1,Positive,Incongruent,0,0,0,0,,,,,,,,,,,,,0,28,28,28,,,,,,,,,,,,,,,,,,,,,,,,,,,,,,,,,,,,,,,,,,,,,,,,,,,,,,,,,,,,,,,,,,,,,,,,,,,,,,,,,,,,,1.9120370248953502,0.9217079000000012,186.88436050000018,None,ScrollUp,정답입니다,186.88436050000018,None,186.88436050000018,None,186.88436050000018,None,186.88436050000018,None,187.6763761000002,None,187.6763761000002,188.17593860000034,,,,,,,,,,,,,,,,217,2022-05-17_14h02.24.877,FishGame,2022.1.1,59.995056407304496,
,30,넌 인기없어,4,Green,B,3,3.3,ScrollUp,ScrollDown,Green.png,1,Negative,Congruent,0,0,0,0,,,,,,,,,,,,,0,29,29,29,,,,,,,,,,,,,,,,,,,,,,,,,,,,,,,,,,,,,,,,,,,,,,,,,,,,,,,,,,,,,,,,,,,,,,,,,,,,,,,,,,,,,1.9907407363255818,0.9468597000000045,188.83181690000038,None,ScrollUp,정답입니다,188.83181690000038,None,188.83181690000038,None,188.83181690000038,None,188.83181690000038,None,189.64857310000025,None,189.64857310000025,190.15895980000005,,,,,,,,,,,,,,,,217,2022-05-17_14h02.24.877,FishGame,2022.1.1,59.995056407304496,
,31,넌 익살스러워,3,Orange,A,4.708333333333334,4.833333333333333,ScrollDown,ScrollUp,Orange.png,1,Neutral,Neutral,0,0,0,0,,,,,,,,,,,,,0,30,30,30,,,,,,,,,,,,,,,,,,,,,,,,,,,,,,,,,,,,,,,,,,,,,,,,,,,,,,,,,,,,,,,,,,,,,,,,,,,,,,,,,,,,,1.0462962985038757,0.9193630999998277,190.82710369999995,None,ScrollDown,정답입니다,190.82710369999995,None,190.82710369999995,None,190.82710369999995,None,190.82710369999995,None,191.60318570000027,None,191.60318570000027,192.1086577000001,,,,,,,,,,,,,,,,217,2022-05-17_14h02.24.877,FishGame,2022.1.1,59.995056407304496,
,32,넌 이기적이야,5,Green,B,2.291666666666667,2.333333333333333,ScrollUp,ScrollDown,Green.png,1,Negative,Congruent,0,0,0,0,,,,,,,,,,,,,0,31,31,31,,,,,,,,,,,,,,,,,,,,,,,,,,,,,,,,,,,,,,,,,,,,,,,,,,,,,,,,,,,,,,,,,,,,,,,,,,,,,,,,,,,,,1.9660493632157643,0.8785525999996935,192.76115000000027,None,ScrollUp,정답입니다,192.76115000000027,None,192.76115000000027,None,192.76115000000027,None,192.76115000000027,None,193.51420929999995,None,193.51420929999995,194.0251330000001,,,,,,,,,,,,,,,,217,2022-05-17_14h02.24.877,FishGame,2022.1.1,59.995056407304496,
,33,나를 데려가줘,6,Green,B,0,0,ScrollDown,ScrollUp,Green.png,1,NonTarget,NonTarget,0,0,0,0,,,,,,,,,,,,,0,32,32,32,,,,,,,,,,,,,,,,,,,,,,,,,,,,,,,,,,,,,,,,,,,,,,,,,,,,,,,,,,,,,,,,,,,,,,,,,,,,,,,,,,,,,1.0246913532416027,1.0180301999998846,194.67739560000018,None,ScrollDown,정답입니다,194.67739560000018,None,194.67739560000018,None,194.67739560000018,None,194.67739560000018,None,195.5680156000003,None,195.5680156000003,196.07488560000002,,,,,,,,,,,,,,,,217,2022-05-17_14h02.24.877,FishGame,2022.1.1,59.995056407304496,
,34,넌 기회주의자야,5,Orange,A,2.875,2.133333333333333,ScrollDown,ScrollUp,Orange.png,1,Negative,Incongruent,0,0,0,0,,,,,,,,,,,,,0,33,33,33,,,,,,,,,,,,,,,,,,,,,,,,,,,,,,,,,,,,,,,,,,,,,,,,,,,,,,,,,,,,,,,,,,,,,,,,,,,,,,,,,,,,,1,1.0276779000000715,196.74214660000007,None,ScrollDown,정답입니다,196.74214660000007,None,196.74214660000007,None,196.74214660000007,None,196.74214660000007,None,197.6257359000001,None,197.6257359000001,198.14126690000012,,,,,,,,,,,,,,,,217,2022-05-17_14h02.24.877,FishGame,2022.1.1,59.995056407304496,
,1,넌 미성숙해,4,Orange,A,3,3.2,ScrollDown,ScrollUp,Orange.png,2,Negative,Incongruent,0,0,0,0,,,,,,,,,,,,,,,,,0,0,0,0,,,,,,,,,,,,,,,,,,,,,,,,,,,,,,,,,,,,,,,,230.2207298000003,231.72022319999996,231.75361169999996,232.7035165000002,232.75353330000007,233.7034335000003,233.7034335000003,None,,,,,,,,,,,,,,,,,,,,,,,,,,,,,,,,,,1.0694444576899211,1.1689728000001196,234.9076553,None,ScrollDown,정답입니다,234.9076553,None,234.9076553,None,234.9076553,None,234.9076553,None,235.88706890000003,None,235.88706890000003,236.38636580000002,198.64113280000038,None,198.64113280000038,None,0.10185185,-0.10185185,1,0,0,0.01606162999996741,None,228.63730980000037,None,,,217,2022-05-17_14h02.24.877,FishGame,2022.1.1,59.995056407304496,
,2,넌 반사회적이야,5,Green,B,2.416666666666667,2.033333333333333,ScrollUp,ScrollDown,Green.png,2,Negative,Congruent,0,0,0,0,,,,,,,,,,,,,,,,,0,1,1,1,,,,,,,,,,,,,,,,,,,,,,,,,,,,,,,,,,,,,,,,,,,,,,,,,,,,,,,,,,,,,,,,,,,,,,,,,,,,,,,,,1.9243827362855275,1.032514099999844,237.0455205000003,None,ScrollUp,정답입니다,237.0455205000003,None,237.0455205000003,None,237.0455205000003,None,237.0455205000003,None,237.94358469999997,None,237.94358469999997,238.45277780000015,,,,,,,,,,,,,,,,217,2022-05-17_14h02.24.877,FishGame,2022.1.1,59.995056407304496,
,3,넌 유능해,2,Orange,A,6.208333333333333,4.433333333333334,ScrollDown,ScrollUp,Orange.png,2,Positive,Congruent,0,0,0,0,,,,,,,,,,,,,,,,,0,2,2,2,,,,,,,,,,,,,,,,,,,,,,,,,,,,,,,,,,,,,,,,,,,,,,,,,,,,,,,,,,,,,,,,,,,,,,,,,,,,,,,,,1.0925925920406978,1.039650199999869,239.11917459999995,None,ScrollDown,정답입니다,239.11917459999995,None,239.11917459999995,None,239.11917459999995,None,239.11917459999995,None,240.01300270000002,None,240.01300270000002,240.51915929999996,,,,,,,,,,,,,,,,217,2022-05-17_14h02.24.877,FishGame,2022.1.1,59.995056407304496,
,4,넌 능숙해,2,Green,B,5.666666666666667,4.733333333333333,ScrollUp,ScrollDown,Green.png,2,Positive,Incongruent,0,0,0,0,,,,,,,,,,,,,,,,,0,3,3,3,,,,,,,,,,,,,,,,,,,,,,,,,,,,,,,,,,,,,,,,,,,,,,,,,,,,,,,,,,,,,,,,,,,,,,,,,,,,,,,,,2,0.9900068000001738,241.17177290000018,None,ScrollUp,정답입니다,241.17177290000018,None,241.17177290000018,None,241.17177290000018,None,241.17177290000018,None,242.03606179999997,None,242.03606179999997,242.5355072000002,,,,,,,,,,,,,,,,217,2022-05-17_14h02.24.877,FishGame,2022.1.1,59.995056407304496,
,5,넌 진부해,4,Green,B,2.458333333333333,3.166666666666667,ScrollUp,ScrollDown,Green.png,2,Negative,Congruent,0,0,0,0,,,,,,,,,,,,,,,,,0,4,4,4,,,,,,,,,,,,,,,,,,,,,,,,,,,,,,,,,,,,,,,,,,,,,,,,,,,,,,,,,,,,,,,,,,,,,,,,,,,,,,,,,1.9845678806304932,0.9105537000000368,243.19384730000002,None,ScrollUp,정답입니다,243.19384730000002,None,243.19384730000002,None,243.19384730000002,None,243.19384730000002,None,243.97284470000022,None,243.97284470000022,244.48532909999994,,,,,,,,,,,,,,,,217,2022-05-17_14h02.24.877,FishGame,2022.1.1,59.995056407304496,
,6,나를 보내줘,6,Orange,A,0,0,ScrollUp,ScrollDown,Orange.png,2,NonTarget,NonTarget,0,0,0,0,,,,,,,,,,,,,,,,,0,5,5,5,,,,,,,,,,,,,,,,,,,,,,,,,,,,,,,,,,,,,,,,,,,,,,,,,,,,,,,,,,,,,,,,,,,,,,,,,,,,,,,,,1.9336419701576233,1.1437700000001314,245.14282930000036,None,ScrollUp,정답입니다,245.14282930000036,None,245.14282930000036,None,245.14282930000036,None,245.14282930000036,None,246.15177800000038,None,246.15177800000038,246.6516375000001,,,,,,,,,,,,,,,,217,2022-05-17_14h02.24.877,FishGame,2022.1.1,59.995056407304496,
,7,넌 엄격해,3,Orange,A,4.166666666666666,4.1,ScrollDown,ScrollUp,Orange.png,2,Neutral,Neutral,0,0,0,0,,,,,,,,,,,,,,,,,0,6,6,6,,,,,,,,,,,,,,,,,,,,,,,,,,,,,,,,,,,,,,,,,,,,,,,,,,,,,,,,,,,,,,,,,,,,,,,,,,,,,,,,,1,1.0190733000004002,247.3170809000003,None,ScrollDown,정답입니다,247.3170809000003,None,247.3170809000003,None,247.3170809000003,None,247.3170809000003,None,248.20133030000034,None,248.20133030000034,248.7014577,,,,,,,,,,,,,,,,217,2022-05-17_14h02.24.877,FishGame,2022.1.1,59.995056407304496,
,8,나를 보내줘,6,Orange,A,0,0,ScrollUp,ScrollDown,Orange.png,2,NonTarget,NonTarget,0,0,0,0,,,,,,,,,,,,,,,,,0,7,7,7,,,,,,,,,,,,,,,,,,,,,,,,,,,,,,,,,,,,,,,,,,,,,,,,,,,,,,,,,,,,,,,,,,,,,,,,,,,,,,,,,1.9938271641731262,0.9777028000003156,249.36005270000032,None,ScrollUp,정답입니다,249.36005270000032,None,249.36005270000032,None,249.36005270000032,None,249.36005270000032,None,250.20129889999998,None,250.20129889999998,250.7013436000002,,,,,,,,,,,,,,,,217,2022-05-17_14h02.24.877,FishGame,2022.1.1,59.995056407304496,
,9,넌 대담해,3,Green,B,4.875,4.866666666666666,ScrollUp,ScrollDown,Green.png,2,Neutral,Neutral,0,0,0,0,,,,,,,,,,,,,,,,,0,8,8,8,,,,,,,,,,,,,,,,,,,,,,,,,,,,,,,,,,,,,,,,,,,,,,,,,,,,,,,,,,,,,,,,,,,,,,,,,,,,,,,,,2,1.051044400000137,251.3602936000002,None,ScrollUp,정답입니다,251.3602936000002,None,251.3602936000002,None,251.3602936000002,None,251.3602936000002,None,252.27578680000033,None,252.27578680000033,252.78418460000012,,,,,,,,,,,,,,,,217,2022-05-17_14h02.24.877,FishGame,2022.1.1,59.995056407304496,
,10,넌 꾸준해,1,Orange,A,5.916666666666668,5.8,ScrollDown,ScrollUp,Orange.png,2,Positive,Congruent,0,0,0,0,,,,,,,,,,,,,,,,,0,9,9,9,,,,,,,,,,,,,,,,,,,,,,,,,,,,,,,,,,,,,,,,,,,,,,,,,,,,,,,,,,,,,,,,,,,,,,,,,,,,,,,,,1,0.9778501999999207,253.44916809999995,None,ScrollDown,정답입니다,253.44916809999995,None,253.44916809999995,None,253.44916809999995,None,253.44916809999995,None,254.28489059999993,None,254.28489059999993,254.7839124000002,,,,,,,,,,,,,,,,217,2022-05-17_14h02.24.877,FishGame,2022.1.1,59.995056407304496,
,11,나를 데려가줘,6,Green,B,0,0,ScrollDown,ScrollUp,Green.png,2,NonTarget,NonTarget,0,0,0,0,,,,,,,,,,,,,,,,,0,10,10,10,,,,,,,,,,,,,,,,,,,,,,,,,,,,,,,,,,,,,,,,,,,,,,,,,,,,,,,,,,,,,,,,,,,,,,,,,,,,,,,,,1.1543209999799728,1.2568535000000338,255.43974200000002,None,ScrollDown,정답입니다,255.43974200000002,None,255.43974200000002,None,255.43974200000002,None,255.43974200000002,None,256.56122189999996,None,256.56122189999996,257.06693220000034,,,,,,,,,,,,,,,,217,2022-05-17_14h02.24.877,FishGame,2022.1.1,59.995056407304496,
,12,넌 독선적이야,5,Orange,A,2.458333333333333,1.933333333333333,ScrollDown,ScrollUp,Orange.png,2,Negative,Incongruent,0,0,0,0,,,,,,,,,,,,,,,,,0,11,11,11,,,,,,,,,,,,,,,,,,,,,,,,,,,,,,,,,,,,,,,,,,,,,,,,,,,,,,,,,,,,,,,,,,,,,,,,,,,,,,,,,1.2098765522241592,1.0860679000002165,257.73594170000024,None,ScrollDown,정답입니다,257.73594170000024,None,257.73594170000024,None,257.73594170000024,None,257.73594170000024,None,258.67662800000016,None,258.67662800000016,259.18336130000034,,,,,,,,,,,,,,,,217,2022-05-17_14h02.24.877,FishGame,2022.1.1,59.995056407304496,
,13,나를 보내줘,6,Orange,A,0,0,ScrollUp,ScrollDown,Orange.png,2,NonTarget,NonTarget,0,0,0,0,,,,,,,,,,,,,,,,,0,12,12,12,,,,,,,,,,,,,,,,,,,,,,,,,,,,,,,,,,,,,,,,,,,,,,,,,,,,,,,,,,,,,,,,,,,,,,,,,,,,,,,,,1.8919753183921177,1.059243300000162,259.84435759999997,None,ScrollUp,정답입니다,259.84435759999997,None,259.84435759999997,None,259.84435759999997,None,259.84435759999997,None,260.7669194,None,260.7669194,261.26638600000024,,,,,,,,,,,,,,,,217,2022-05-17_14h02.24.877,FishGame,2022.1.1,59.995056407304496,
,14,넌 책임감있어,1,Green,B,6.347826086956522,6,ScrollUp,ScrollDown,Green.png,2,Positive,Incongruent,0,0,0,0,,,,,,,,,,,,,,,,,0,13,13,13,,,,,,,,,,,,,,,,,,,,,,,,,,,,,,,,,,,,,,,,,,,,,,,,,,,,,,,,,,,,,,,,,,,,,,,,,,,,,,,,,1.8873456766208012,1.0364885999997568,261.92803440000034,None,ScrollUp,정답입니다,261.92803440000034,None,261.92803440000034,None,261.92803440000034,None,261.92803440000034,None,262.8245270000002,None,262.8245270000002,263.33287450000034,,,,,,,,,,,,,,,,217,2022-05-17_14h02.24.877,FishGame,2022.1.1,59.995056407304496,
,15,넌 문학적이야,3,Orange,A,4.708333333333334,4.333333333333333,ScrollDown,ScrollUp,Orange.png,2,Neutral,Neutral,0,0,0,0,,,,,,,,,,,,,,,,,0,14,14,14,,,,,,,,,,,,,,,,,,,,,,,,,,,,,,,,,,,,,,,,,,,,,,,,,,,,,,,,,,,,,,,,,,,,,,,,,,,,,,,,,1.1558641890684764,0.9432557999998608,263.9981868,None,ScrollDown,정답입니다,263.9981868,None,263.9981868,None,263.9981868,None,263.9981868,None,264.7948206000001,None,264.7948206000001,265.2993340000003,,,,,,,,,,,,,,,,217,2022-05-17_14h02.24.877,FishGame,2022.1.1,59.995056407304496,
,16,넌 재미있어,1,Green,B,5.875,5.7,ScrollUp,ScrollDown,Green.png,2,Positive,Incongruent,0,0,0,0,,,,,,,,,,,,,,,,,0,15,15,15,,,,,,,,,,,,,,,,,,,,,,,,,,,,,,,,,,,,,,,,,,,,,,,,,,,,,,,,,,,,,,,,,,,,,,,,,,,,,,,,,2,0.9600186999996367,265.9472581,None,ScrollUp,정답입니다,265.9472581,None,265.9472581,None,265.9472581,None,265.9472581,None,266.7825544000002,None,266.7825544000002,267.2822540000002,,,,,,,,,,,,,,,,217,2022-05-17_14h02.24.877,FishGame,2022.1.1,59.995056407304496,
,17,나를 데려가줘,6,Green,B,0,0,ScrollDown,ScrollUp,Green.png,2,NonTarget,NonTarget,0,0,0,0,,,,,,,,,,,,,,,,,0,16,16,16,,,,,,,,,,,,,,,,,,,,,,,,,,,,,,,,,,,,,,,,,,,,,,,,,,,,,,,,,,,,,,,,,,,,,,,,,,,,,,,,,1.0123456915219624,1.167648999999983,267.93542819999993,None,ScrollDown,정답입니다,267.93542819999993,None,267.93542819999993,None,267.93542819999993,None,267.93542819999993,None,268.9735018000001,None,268.9735018000001,269.481953,,,,,,,,,,,,,,,,217,2022-05-17_14h02.24.877,FishGame,2022.1.1,59.995056407304496,
,18,넌 협력적이야,1,Orange,A,5.625,5.633333333333334,ScrollDown,ScrollUp,Orange.png,2,Positive,Congruent,0,0,0,0,,,,,,,,,,,,,,,,,0,17,17,17,,,,,,,,,,,,,,,,,,,,,,,,,,,,,,,,,,,,,,,,,,,,,,,,,,,,,,,,,,,,,,,,,,,,,,,,,,,,,,,,,1.0246913532416027,1.0102598000003127,270.14601740000035,None,ScrollDown,정답입니다,270.14601740000035,None,270.14601740000035,None,270.14601740000035,None,270.14601740000035,None,271.01911040000005,None,271.01911040000005,271.5317110000001,,,,,,,,,,,,,,,,217,2022-05-17_14h02.24.877,FishGame,2022.1.1,59.995056407304496,
,19,넌 평범해,3,Green,B,4.333333333333332,4.233333333333333,ScrollUp,ScrollDown,Green.png,2,Neutral,Neutral,0,0,0,0,,,,,,,,,,,,,,,,,0,18,18,18,,,,,,,,,,,,,,,,,,,,,,,,,,,,,,,,,,,,,,,,,,,,,,,,,,,,,,,,,,,,,,,,,,,,,,,,,,,,,,,,,1.8672839452823002,1.033520899999985,272.18776270000035,None,ScrollUp,정답입니다,272.18776270000035,None,272.18776270000035,None,272.18776270000035,None,272.18776270000035,None,273.08860300000015,None,273.08860300000015,273.5981832000002,,,,,,,,,,,,,,,,217,2022-05-17_14h02.24.877,FishGame,2022.1.1,59.995056407304496,
,20,넌 오만해,5,Orange,A,2.333333333333333,2,ScrollDown,ScrollUp,Orange.png,2,Negative,Incongruent,0,0,0,0,,,,,,,,,,,,,,,,,0,19,19,19,,,,,,,,,,,,,,,,,,,,,,,,,,,,,,,,,,,,,,,,,,,,,,,,,,,,,,,,,,,,,,,,,,,,,,,,,,,,,,,,,1.0648148159186046,0.9762698000004093,274.2580318,None,ScrollDown,정답입니다,274.2580318,None,274.2580318,None,274.2580318,None,274.2580318,None,275.0936085000003,None,275.0936085000003,275.59792170000037,,,,,,,,,,,,,,,,217,2022-05-17_14h02.24.877,FishGame,2022.1.1,59.995056407304496,
,21,넌 운이없어,4,Green,B,3,3.466666666666667,ScrollUp,ScrollDown,Green.png,2,Negative,Congruent,0,0,0,0,,,,,,,,,,,,,,,,,0,20,20,20,,,,,,,,,,,,,,,,,,,,,,,,,,,,,,,,,,,,,,,,,,,,,,,,,,,,,,,,,,,,,,,,,,,,,,,,,,,,,,,,,1.8086419651905696,0.9689365000003818,276.25422230000004,None,ScrollUp,정답입니다,276.25422230000004,None,276.25422230000004,None,276.25422230000004,None,276.25422230000004,None,277.08856490000016,None,277.08856490000016,277.59758980000015,,,,,,,,,,,,,,,,217,2022-05-17_14h02.24.877,FishGame,2022.1.1,59.995056407304496,
,22,넌 창조적이야,2,Green,B,6.125,4.633333333333334,ScrollUp,ScrollDown,Green.png,2,Positive,Incongruent,0,0,0,0,,,,,,,,,,,,,,,,,0,21,21,21,,,,,,,,,,,,,,,,,,,,,,,,,,,,,,,,,,,,,,,,,,,,,,,,,,,,,,,,,,,,,,,,,,,,,,,,,,,,,,,,,1.8549382835626602,0.8461240999999973,278.25728660000004,None,ScrollUp,정답입니다,278.25728660000004,None,278.25728660000004,None,278.25728660000004,None,278.25728660000004,None,278.96958810000024,None,278.96958810000024,279.48071210000035,,,,,,,,,,,,,,,,217,2022-05-17_14h02.24.877,FishGame,2022.1.1,59.995056407304496,
,23,나를 보내줘,6,Orange,A,0,0,ScrollUp,ScrollDown,Orange.png,2,NonTarget,NonTarget,0,0,0,0,,,,,,,,,,,,,,,,,0,22,22,22,,,,,,,,,,,,,,,,,,,,,,,,,,,,,,,,,,,,,,,,,,,,,,,,,,,,,,,,,,,,,,,,,,,,,,,,,,,,,,,,,1.7422839403152466,1.0178310000001147,280.13517090000005,None,ScrollUp,정답입니다,280.13517090000005,None,280.13517090000005,None,280.13517090000005,None,280.13517090000005,None,281.0216983,None,281.0216983,281.53043030000026,,,,,,,,,,,,,,,,217,2022-05-17_14h02.24.877,FishGame,2022.1.1,59.995056407304496,
,24,넌 통찰력있어,2,Orange,A,6.5,4.8,ScrollDown,ScrollUp,Orange.png,2,Positive,Congruent,0,0,0,0,,,,,,,,,,,,,,,,,0,23,23,23,,,,,,,,,,,,,,,,,,,,,,,,,,,,,,,,,,,,,,,,,,,,,,,,,,,,,,,,,,,,,,,,,,,,,,,,,,,,,,,,,1,0.9861188999998376,282.19783940000025,None,ScrollDown,정답입니다,282.19783940000025,None,282.19783940000025,None,282.19783940000025,None,282.19783940000025,None,283.03979040000013,None,283.03979040000013,283.54694970000037,,,,,,,,,,,,,,,,217,2022-05-17_14h02.24.877,FishGame,2022.1.1,59.995056407304496,
,25,넌 경솔해,5,Green,B,2.458333333333333,2.266666666666667,ScrollUp,ScrollDown,Green.png,2,Negative,Congruent,0,0,0,0,,,,,,,,,,,,,,,,,0,24,24,24,,,,,,,,,,,,,,,,,,,,,,,,,,,,,,,,,,,,,,,,,,,,,,,,,,,,,,,,,,,,,,,,,,,,,,,,,,,,,,,,,1.7638888855775197,0.9725454999997964,284.2081840000001,None,ScrollUp,정답입니다,284.2081840000001,None,284.2081840000001,None,284.2081840000001,None,284.2081840000001,None,285.04651660000036,None,285.04651660000036,285.5465042000001,,,,,,,,,,,,,,,,217,2022-05-17_14h02.24.877,FishGame,2022.1.1,59.995056407304496,
,26,넌 초조해,4,Orange,A,2.916666666666667,3.133333333333333,ScrollDown,ScrollUp,Orange.png,2,Negative,Incongruent,0,0,0,0,,,,,,,,,,,,,,,,,0,25,25,25,,,,,,,,,,,,,,,,,,,,,,,,,,,,,,,,,,,,,,,,,,,,,,,,,,,,,,,,,,,,,,,,,,,,,,,,,,,,,,,,,1,0.9932638000000225,286.2081862,None,ScrollDown,정답입니다,286.2081862,None,286.2081862,None,286.2081862,None,286.2081862,None,287.06347030000006,None,287.06347030000006,287.56298510000033,,,,,,,,,,,,,,,,217,2022-05-17_14h02.24.877,FishGame,2022.1.1,59.995056407304496,
,27,넌 무관심해,4,Green,B,2.833333333333333,2.9,ScrollUp,ScrollDown,Green.png,2,Negative,Congruent,0,0,0,0,,,,,,,,,,,,,,,,,0,26,26,26,,,,,,,,,,,,,,,,,,,,,,,,,,,,,,,,,,,,,,,,,,,,,,,,,,,,,,,,,,,,,,,,,,,,,,,,,,,,,,,,,1.9783950746059418,0.9109017000000676,288.2190668000003,None,ScrollUp,정답입니다,288.2190668000003,None,288.2190668000003,None,288.2190668000003,None,288.2190668000003,None,288.9962171000002,None,288.9962171000002,289.49603760000036,,,,,,,,,,,,,,,,217,2022-05-17_14h02.24.877,FishGame,2022.1.1,59.995056407304496,
,28,넌 감성적이야,3,Green,B,4.125,4.166666666666667,ScrollUp,ScrollDown,Green.png,2,Neutral,Neutral,0,0,0,0,,,,,,,,,,,,,,,,,0,27,27,27,,,,,,,,,,,,,,,,,,,,,,,,,,,,,,,,,,,,,,,,,,,,,,,,,,,,,,,,,,,,,,,,,,,,,,,,,,,,,,,,,1.8240740795930226,0.8856796000000031,290.14427290000003,None,ScrollUp,정답입니다,290.14427290000003,None,290.14427290000003,None,290.14427290000003,None,290.14427290000003,None,290.91283780000003,None,290.91283780000003,291.4125355000001,,,,,,,,,,,,,,,,217,2022-05-17_14h02.24.877,FishGame,2022.1.1,59.995056407304496,
,29,넌 배려심있어,1,Orange,A,6.083333333333333,5.5,ScrollDown,ScrollUp,Orange.png,2,Positive,Congruent,0,0,0,0,,,,,,,,,,,,,,,,,0,28,28,28,,,,,,,,,,,,,,,,,,,,,,,,,,,,,,,,,,,,,,,,,,,,,,,,,,,,,,,,,,,,,,,,,,,,,,,,,,,,,,,,,1,0.941006699999889,292.07572900000014,None,ScrollDown,정답입니다,292.07572900000014,None,292.07572900000014,None,292.07572900000014,None,292.07572900000014,None,292.8740547000002,None,292.8740547000002,293.3788469000001,,,,,,,,,,,,,,,,217,2022-05-17_14h02.24.877,FishGame,2022.1.1,59.995056407304496,
,30,넌 숨김없어,3,Orange,A,4.5,4.933333333333334,ScrollDown,ScrollUp,Orange.png,2,Neutral,Neutral,0,0,0,0,,,,,,,,,,,,,,,,,0,29,29,29,,,,,,,,,,,,,,,,,,,,,,,,,,,,,,,,,,,,,,,,,,,,,,,,,,,,,,,,,,,,,,,,,,,,,,,,,,,,,,,,,1,0.9596302999998443,294.0436265000003,None,ScrollDown,정답입니다,294.0436265000003,None,294.0436265000003,None,294.0436265000003,None,294.0436265000003,None,294.86211890000004,None,294.86211890000004,295.3619768000003,,,,,,,,,,,,,,,,217,2022-05-17_14h02.24.877,FishGame,2022.1.1,59.995056407304496,
,31,넌 훌륭해,2,Green,B,5.916666666666667,4.033333333333333,ScrollUp,ScrollDown,Green.png,2,Positive,Incongruent,0,0,0,0,,,,,,,,,,,,,,,,,0,30,30,30,,,,,,,,,,,,,,,,,,,,,,,,,,,,,,,,,,,,,,,,,,,,,,,,,,,,,,,,,,,,,,,,,,,,,,,,,,,,,,,,,1.8626543283462524,0.9257732000000942,296.0220881,None,ScrollUp,정답입니다,296.0220881,None,296.0220881,None,296.0220881,None,296.0220881,None,296.8120957000001,None,296.8120957000001,297.3117350000002,,,,,,,,,,,,,,,,217,2022-05-17_14h02.24.877,FishGame,2022.1.1,59.995056407304496,
,32,넌 슬기로워,2,Orange,A,6.166666666666667,4.1,ScrollDown,ScrollUp,Orange.png,2,Positive,Congruent,0,0,0,0,,,,,,,,,,,,,,,,,0,31,31,31,,,,,,,,,,,,,,,,,,,,,,,,,,,,,,,,,,,,,,,,,,,,,,,,,,,,,,,,,,,,,,,,,,,,,,,,,,,,,,,,,1,0.9277830999999424,297.9682262000001,None,ScrollDown,정답입니다,297.9682262000001,None,297.9682262000001,None,297.9682262000001,None,297.9682262000001,None,298.76697300000023,None,298.76697300000023,299.2780566000001,,,,,,,,,,,,,,,,217,2022-05-17_14h02.24.877,FishGame,2022.1.1,59.995056407304496,
,33,넌 냉혹해,5,Orange,A,2.583333333333333,2.1,ScrollDown,ScrollUp,Orange.png,2,Negative,Incongruent,0,0,0,0,,,,,,,,,,,,,,,,,0,32,32,32,,,,,,,,,,,,,,,,,,,,,,,,,,,,,,,,,,,,,,,,,,,,,,,,,,,,,,,,,,,,,,,,,,,,,,,,,,,,,,,,,1,0.9083160000000134,299.94019660000004,None,ScrollDown,정답입니다,299.94019660000004,None,299.94019660000004,None,299.94019660000004,None,299.94019660000004,None,300.71122349999996,None,300.71122349999996,301.21122360000027,,,,,,,,,,,,,,,,217,2022-05-17_14h02.24.877,FishGame,2022.1.1,59.995056407304496,
,34,나를 데려가줘,6,Green,B,0,0,ScrollDown,ScrollUp,Green.png,2,NonTarget,NonTarget,0,0,0,0,,,,,,,,,,,,,,,,,0,33,33,33,,,,,,,,,,,,,,,,,,,,,,,,,,,,,,,,,,,,,,,,,,,,,,,,,,,,,,,,,,,,,,,,,,,,,,,,,,,,,,,,,1.0262345671653748,1.0815639000002193,301.86527780000006,None,ScrollDown,정답입니다,301.86527780000006,None,301.86527780000006,None,301.86527780000006,None,301.86527780000006,None,302.81795020000027,None,302.81795020000027,303.3276863000001,,,,,,,,,,,,,,,,217,2022-05-17_14h02.24.877,FishGame,2022.1.1,59.995056407304496,
,35,넌 편파적이야,5,Green,B,2.125,2,ScrollUp,ScrollDown,Green.png,2,Negative,Congruent,0,0,0,0,,,,,,,,,,,,,,,,,0,34,34,34,,,,,,,,,,,,,,,,,,,,,,,,,,,,,,,,,,,,,,,,,,,,,,,,,,,,,,,,,,,,,,,,,,,,,,,,,,,,,,,,,1.90586419403553,0.9758910999998989,303.98264540000037,None,ScrollUp,정답입니다,303.98264540000037,None,303.98264540000037,None,303.98264540000037,None,303.98264540000037,None,304.8276498,None,304.8276498,305.32742740000003,,,,,,,,,,,,,,,,217,2022-05-17_14h02.24.877,FishGame,2022.1.1,59.995056407304496,
,36,넌 슬퍼,4,Orange,A,2.583333333333333,3.066666666666667,ScrollDown,ScrollUp,Orange.png,2,Negative,Incongruent,0,0,0,0,,,,,,,,,,,,,,,,,0,35,35,35,,,,,,,,,,,,,,,,,,,,,,,,,,,,,,,,,,,,,,,,,,,,,,,,,,,,,,,,,,,,,,,,,,,,,,,,,,,,,,,,,1,0.9625843999997414,305.97918789999994,None,ScrollDown,정답입니다,305.97918789999994,None,305.97918789999994,None,305.97918789999994,None,305.97918789999994,None,306.8156197000003,None,306.8156197000003,307.3270917,,,,,,,,,,,,,,,,217,2022-05-17_14h02.24.877,FishGame,2022.1.1,59.995056407304496,
,37,나를 데려가줘,6,Green,B,0,0,ScrollDown,ScrollUp,Green.png,2,NonTarget,NonTarget,0,0,0,0,,,,,,,,,,,,,,,,,0,36,36,36,,,,,,,,,,,,,,,,,,,,,,,,,,,,,,,,,,,,,,,,,,,,,,,,,,,,,,,,,,,,,,,,,,,,,,,,,,,,,,,,,1,1.145926199999849,307.98162360000015,None,ScrollDown,정답입니다,307.98162360000015,None,307.98162360000015,None,307.98162360000015,None,307.98162360000015,None,308.9987116000002,None,308.9987116000002,309.5101694,,,,,,,,,,,,,,,,217,2022-05-17_14h02.24.877,FishGame,2022.1.1,59.995056407304496,
,38,넌 친절해,1,Green,B,6.041666666666667,5.533333333333333,ScrollUp,ScrollDown,Green.png,2,Positive,Incongruent,0,0,0,0,,,,,,,,,,,,,,,,,0,37,37,37,,,,,,,,,,,,,,,,,,,,,,,,,,,,,,,,,,,,,,,,,,,,,,,,,,,,,,,,,,,,,,,,,,,,,,,,,,,,,,,,,1.8950617214043934,1.060385799999949,310.1767437000003,None,ScrollUp,정답입니다,310.1767437000003,None,310.1767437000003,None,310.1767437000003,None,310.1767437000003,None,311.0968683000001,None,311.0968683000001,311.60989040000004,,,,,,,,,,,,,,,,217,2022-05-17_14h02.24.877,FishGame,2022.1.1,59.995056407304496,
,1,넌 엉성해,4,Orange,A,3,3.3,ScrollDown,ScrollUp,Orange.png,3,Negative,Incongruent,0,0,0,0,,,,,,,,,,,,,,,,,,,,,0,0,0,0,,,,,,,,,,,,,,,,,,,,,,,,,,,,,,,,,,,,343.75598149999996,345.25586840000005,345.2889693000002,346.23892720000003,346.2889513,347.23880499999996,347.23880499999996,None,,,,,,,,,,,,,,,,,,,,,,,,,,,,,,,,,,1,1.149781399999938,348.4273774000003,None,ScrollDown,정답입니다,348.4273774000003,None,348.4273774000003,None,348.4273774000003,None,348.4273774000003,None,349.3976666000003,None,349.3976666000003,349.9050940000002,312.1098167,None,312.1098167,None,0.11851852,-0.098148145,1,0,0,0.01623853000046438,None,342.10609680000016,None,,,217,2022-05-17_14h02.24.877,FishGame,2022.1.1,59.995056407304496,
,2,나를 보내줘,6,Orange,A,0,0,ScrollUp,ScrollDown,Orange.png,3,NonTarget,NonTarget,0,0,0,0,,,,,,,,,,,,,,,,,,,,,0,1,1,1,,,,,,,,,,,,,,,,,,,,,,,,,,,,,,,,,,,,,,,,,,,,,,,,,,,,,,,,,,,,,,,,,,,,,,,,,,,,,2,1.007161300000007,350.5954491000002,None,ScrollUp,정답입니다,350.5954491000002,None,350.5954491000002,None,350.5954491000002,None,350.5954491000002,None,351.44741760000034,None,351.44741760000034,351.95467310000004,,,,,,,,,,,,,,,,217,2022-05-17_14h02.24.877,FishGame,2022.1.1,59.995056407304496,
,3,넌 활발해,1,Green,B,5.666666666666667,5.6,ScrollUp,ScrollDown,Green.png,3,Positive,Incongruent,0,0,0,0,,,,,,,,,,,,,,,,,,,,,0,2,2,2,,,,,,,,,,,,,,,,,,,,,,,,,,,,,,,,,,,,,,,,,,,,,,,,,,,,,,,,,,,,,,,,,,,,,,,,,,,,,1.9259259502092998,1.0605980000000272,352.61265330000015,None,ScrollUp,정답입니다,352.61265330000015,None,352.61265330000015,None,352.61265330000015,None,352.61265330000015,None,353.54031250000025,None,353.54031250000025,354.05438430000004,,,,,,,,,,,,,,,,217,2022-05-17_14h02.24.877,FishGame,2022.1.1,59.995056407304496,
,4,넌 논리적이야,2,Orange,A,5.666666666666666,4.633333333333334,ScrollDown,ScrollUp,Orange.png,3,Positive,Congruent,0,0,0,0,,,,,,,,,,,,,,,,,,,,,0,3,3,3,,,,,,,,,,,,,,,,,,,,,,,,,,,,,,,,,,,,,,,,,,,,,,,,,,,,,,,,,,,,,,,,,,,,,,,,,,,,,1,0.9568326000003253,354.71682690000034,None,ScrollDown,정답입니다,354.71682690000034,None,354.71682690000034,None,354.71682690000034,None,354.71682690000034,None,355.5328747000003,None,355.5328747000003,356.03747280000016,,,,,,,,,,,,,,,,217,2022-05-17_14h02.24.877,FishGame,2022.1.1,59.995056407304496,
,5,넌 과묵해,3,Orange,A,3.875,4.4,ScrollDown,ScrollUp,Orange.png,3,Neutral,Neutral,0,0,0,0,,,,,,,,,,,,,,,,,,,,,0,4,4,4,,,,,,,,,,,,,,,,,,,,,,,,,,,,,,,,,,,,,,,,,,,,,,,,,,,,,,,,,,,,,,,,,,,,,,,,,,,,,1,0.9266977000002043,356.69325430000026,None,ScrollDown,정답입니다,356.69325430000026,None,356.69325430000026,None,356.69325430000026,None,356.69325430000026,None,357.48746500000016,None,357.48746500000016,357.98723880000034,,,,,,,,,,,,,,,,217,2022-05-17_14h02.24.877,FishGame,2022.1.1,59.995056407304496,
,6,나를 데려가줘,6,Green,B,0,0,ScrollDown,ScrollUp,Green.png,3,NonTarget,NonTarget,0,0,0,0,,,,,,,,,,,,,,,,,,,,,0,5,5,5,,,,,,,,,,,,,,,,,,,,,,,,,,,,,,,,,,,,,,,,,,,,,,,,,,,,,,,,,,,,,,,,,,,,,,,,,,,,,1,1.0844437000000653,358.63995049999994,None,ScrollDown,정답입니다,358.63995049999994,None,358.63995049999994,None,358.63995049999994,None,358.63995049999994,None,359.5956844000002,None,359.5956844000002,360.1036362,,,,,,,,,,,,,,,,217,2022-05-17_14h02.24.877,FishGame,2022.1.1,59.995056407304496,
,7,넌 미숙해,4,Green,B,3,3,ScrollUp,ScrollDown,Green.png,3,Negative,Congruent,0,0,0,0,,,,,,,,,,,,,,,,,,,,,0,6,6,6,,,,,,,,,,,,,,,,,,,,,,,,,,,,,,,,,,,,,,,,,,,,,,,,,,,,,,,,,,,,,,,,,,,,,,,,,,,,,1.7376543233791986,0.9988281000000825,360.75617360000024,None,ScrollUp,정답입니다,360.75617360000024,None,360.75617360000024,None,360.75617360000024,None,360.75617360000024,None,361.6269367,None,361.6269367,362.1365628000003,,,,,,,,,,,,,,,,217,2022-05-17_14h02.24.877,FishGame,2022.1.1,59.995056407304496,
,8,나를 보내줘,6,Orange,A,0,0,ScrollUp,ScrollDown,Orange.png,3,NonTarget,NonTarget,0,0,0,0,,,,,,,,,,,,,,,,,,,,,0,7,7,7,,,,,,,,,,,,,,,,,,,,,,,,,,,,,,,,,,,,,,,,,,,,,,,,,,,,,,,,,,,,,,,,,,,,,,,,,,,,,1.7422839403152466,1.04410979999966,362.8007169000002,None,ScrollUp,정답입니다,362.8007169000002,None,362.8007169000002,None,362.8007169000002,None,362.8007169000002,None,363.7033587000001,None,363.7033587000001,364.203117,,,,,,,,,,,,,,,,217,2022-05-17_14h02.24.877,FishGame,2022.1.1,59.995056407304496,
,9,넌 자신만만해,3,Green,B,4.833333333333334,4.333333333333333,ScrollUp,ScrollDown,Green.png,3,Neutral,Neutral,0,0,0,0,,,,,,,,,,,,,,,,,,,,,0,8,8,8,,,,,,,,,,,,,,,,,,,,,,,,,,,,,,,,,,,,,,,,,,,,,,,,,,,,,,,,,,,,,,,,,,,,,,,,,,,,,1.7067901194095612,1.0054852000002938,364.8553202000003,None,ScrollUp,정답입니다,364.8553202000003,None,364.8553202000003,None,364.8553202000003,None,364.8553202000003,None,365.7298482000001,None,365.7298482000001,366.2361135000001,,,,,,,,,,,,,,,,217,2022-05-17_14h02.24.877,FishGame,2022.1.1,59.995056407304496,
,10,넌 탐욕스러워,5,Orange,A,2.25,2.1,ScrollDown,ScrollUp,Orange.png,3,Negative,Incongruent,0,0,0,0,,,,,,,,,,,,,,,,,,,,,0,9,9,9,,,,,,,,,,,,,,,,,,,,,,,,,,,,,,,,,,,,,,,,,,,,,,,,,,,,,,,,,,,,,,,,,,,,,,,,,,,,,1.1959876517454784,0.9352825999999368,366.89708800000017,None,ScrollDown,정답입니다,366.89708800000017,None,366.89708800000017,None,366.89708800000017,None,366.89708800000017,None,367.69386840000016,None,367.69386840000016,368.20258920000015,,,,,,,,,,,,,,,,217,2022-05-17_14h02.24.877,FishGame,2022.1.1,59.995056407304496,
,11,넌 인기있어,2,Orange,A,5.458333333333333,4.5,ScrollDown,ScrollUp,Orange.png,3,Positive,Congruent,0,0,0,0,,,,,,,,,,,,,,,,,,,,,0,10,10,10,,,,,,,,,,,,,,,,,,,,,,,,,,,,,,,,,,,,,,,,,,,,,,,,,,,,,,,,,,,,,,,,,,,,,,,,,,,,,1.1141975373029709,0.8762468999998418,368.8593291000002,None,ScrollDown,정답입니다,368.8593291000002,None,368.8593291000002,None,368.8593291000002,None,368.8593291000002,None,369.60229329999993,None,369.60229329999993,370.1022726000001,,,,,,,,,,,,,,,,217,2022-05-17_14h02.24.877,FishGame,2022.1.1,59.995056407304496,
,12,나를 데려가줘,6,Green,B,0,0,ScrollDown,ScrollUp,Green.png,3,NonTarget,NonTarget,0,0,0,0,,,,,,,,,,,,,,,,,,,,,0,11,11,11,,,,,,,,,,,,,,,,,,,,,,,,,,,,,,,,,,,,,,,,,,,,,,,,,,,,,,,,,,,,,,,,,,,,,,,,,,,,,1.0416666567325592,1.0338639000001422,370.7557605000002,None,ScrollDown,정답입니다,370.7557605000002,None,370.7557605000002,None,370.7557605000002,None,370.7557605000002,None,371.6591290000001,None,371.6591290000001,372.16869750000023,,,,,,,,,,,,,,,,217,2022-05-17_14h02.24.877,FishGame,2022.1.1,59.995056407304496,
,13,넌 뛰어나,2,Green,B,6.166666666666667,4,ScrollUp,ScrollDown,Green.png,3,Positive,Incongruent,0,0,0,0,,,,,,,,,,,,,,,,,,,,,0,12,12,12,,,,,,,,,,,,,,,,,,,,,,,,,,,,,,,,,,,,,,,,,,,,,,,,,,,,,,,,,,,,,,,,,,,,,,,,,,,,,1.7824074029922485,0.9854893000001539,372.82571740000003,None,ScrollUp,정답입니다,372.82571740000003,None,372.82571740000003,None,372.82571740000003,None,372.82571740000003,None,373.6779136,None,373.6779136,374.1850956000003,,,,,,,,,,,,,,,,217,2022-05-17_14h02.24.877,FishGame,2022.1.1,59.995056407304496,
,14,넌 낙관적이야,1,Orange,A,5.75,5.8,ScrollDown,ScrollUp,Orange.png,3,Positive,Congruent,0,0,0,0,,,,,,,,,,,,,,,,,,,,,0,13,13,13,,,,,,,,,,,,,,,,,,,,,,,,,,,,,,,,,,,,,,,,,,,,,,,,,,,,,,,,,,,,,,,,,,,,,,,,,,,,,1.1759259204069774,0.9181861000001845,374.8436429000003,None,ScrollDown,정답입니다,374.8436429000003,None,374.8436429000003,None,374.8436429000003,None,374.8436429000003,None,375.6274953000002,None,375.6274953000002,376.1348296000001,,,,,,,,,,,,,,,,217,2022-05-17_14h02.24.877,FishGame,2022.1.1,59.995056407304496,
,15,넌 산만해,4,Green,B,2.695652173913043,3.033333333333333,ScrollUp,ScrollDown,Green.png,3,Negative,Congruent,0,0,0,0,,,,,,,,,,,,,,,,,,,,,0,14,14,14,,,,,,,,,,,,,,,,,,,,,,,,,,,,,,,,,,,,,,,,,,,,,,,,,,,,,,,,,,,,,,,,,,,,,,,,,,,,,1.8240740795930226,0.9663445999999567,376.7938339000002,None,ScrollUp,정답입니다,376.7938339000002,None,376.7938339000002,None,376.7938339000002,None,376.7938339000002,None,377.6266902000002,None,377.6266902000002,378.13486360000024,,,,,,,,,,,,,,,,217,2022-05-17_14h02.24.877,FishGame,2022.1.1,59.995056407304496,
,16,나를 보내줘,6,Orange,A,0,0,ScrollUp,ScrollDown,Orange.png,3,NonTarget,NonTarget,0,0,0,0,,,,,,,,,,,,,,,,,,,,,0,15,15,15,,,,,,,,,,,,,,,,,,,,,,,,,,,,,,,,,,,,,,,,,,,,,,,,,,,,,,,,,,,,,,,,,,,,,,,,,,,,,1.0848765472571056,1.0024654000003466,378.7909519,None,ScrollDown,오답입니다,378.7909519,None,378.7909519,None,378.7909519,None,378.7909519,None,379.6678300000003,None,379.6678300000003,380.1677254000001,,,,,,,,,,,,,,,,217,2022-05-17_14h02.24.877,FishGame,2022.1.1,59.995056407304496,
,17,넌 교활해,5,Green,B,2.333333333333333,2.133333333333333,ScrollUp,ScrollDown,Green.png,3,Negative,Congruent,0,0,0,0,,,,,,,,,,,,,,,,,,,,,0,16,16,16,,,,,,,,,,,,,,,,,,,,,,,,,,,,,,,,,,,,,,,,,,,,,,,,,,,,,,,,,,,,,,,,,,,,,,,,,,,,,1.8827160596847534,1.9492113000001154,380.8256102,None,ScrollUp,정답입니다,380.8256102,None,380.8256102,None,380.8256102,None,380.8256102,None,382.6425104,None,382.6425104,383.15067290000025,,,,,,,,,,,,,,,,217,2022-05-17_14h02.24.877,FishGame,2022.1.1,59.995056407304496,
,18,나를 보내줘,6,Orange,A,0,0,ScrollUp,ScrollDown,Orange.png,3,NonTarget,NonTarget,0,0,0,0,,,,,,,,,,,,,,,,,,,,,0,17,17,17,,,,,,,,,,,,,,,,,,,,,,,,,,,,,,,,,,,,,,,,,,,,,,,,,,,,,,,,,,,,,,,,,,,,,,,,,,,,,1.8858024626970291,1.1326653999999508,383.81813820000025,None,ScrollUp,정답입니다,383.81813820000025,None,383.81813820000025,None,383.81813820000025,None,383.81813820000025,None,384.80952400000024,None,384.80952400000024,385.3170212,,,,,,,,,,,,,,,,217,2022-05-17_14h02.24.877,FishGame,2022.1.1,59.995056407304496,
,19,넌 불친절해,5,Green,B,2.208333333333333,2.033333333333333,ScrollUp,ScrollDown,Green.png,3,Negative,Congruent,0,0,0,0,,,,,,,,,,,,,,,,,,,,,0,18,18,18,,,,,,,,,,,,,,,,,,,,,,,,,,,,,,,,,,,,,,,,,,,,,,,,,,,,,,,,,,,,,,,,,,,,,,,,,,,,,1.6481481517354646,1.2597661999998309,385.9746005000002,None,ScrollUp,정답입니다,385.9746005000002,None,385.9746005000002,None,385.9746005000002,None,385.9746005000002,None,387.10010760000023,None,387.10010760000023,387.6000360000003,,,,,,,,,,,,,,,,217,2022-05-17_14h02.24.877,FishGame,2022.1.1,59.995056407304496,
,20,넌 지적이야,2,Green,B,5.75,4.366666666666666,ScrollUp,ScrollDown,Green.png,3,Positive,Incongruent,0,0,0,0,,,,,,,,,,,,,,,,,,,,,0,19,19,19,,,,,,,,,,,,,,,,,,,,,,,,,,,,,,,,,,,,,,,,,,,,,,,,,,,,,,,,,,,,,,,,,,,,,,,,,,,,,2,1.0728570000001127,388.2518385000003,None,ScrollUp,정답입니다,388.2518385000003,None,388.2518385000003,None,388.2518385000003,None,388.2518385000003,None,389.1997217000003,None,389.1997217000003,389.69978370000035,,,,,,,,,,,,,,,,217,2022-05-17_14h02.24.877,FishGame,2022.1.1,59.995056407304496,
,21,넌 우유부단해,4,Orange,A,2.666666666666667,3.166666666666667,ScrollDown,ScrollUp,Orange.png,3,Negative,Incongruent,0,0,0,0,,,,,,,,,,,,,,,,,,,,,0,20,20,20,,,,,,,,,,,,,,,,,,,,,,,,,,,,,,,,,,,,,,,,,,,,,,,,,,,,,,,,,,,,,,,,,,,,,,,,,,,,,1.0246913532416027,1.0479365000001053,390.3666019000002,None,ScrollDown,정답입니다,390.3666019000002,None,390.3666019000002,None,390.3666019000002,None,390.3666019000002,None,391.2729961,None,391.2729961,391.7829267000002,,,,,,,,,,,,,,,,217,2022-05-17_14h02.24.877,FishGame,2022.1.1,59.995056407304496,
,22,나를 데려가줘,6,Green,B,0,0,ScrollDown,ScrollUp,Green.png,3,NonTarget,NonTarget,0,0,0,0,,,,,,,,,,,,,,,,,,,,,0,21,21,21,,,,,,,,,,,,,,,,,,,,,,,,,,,,,,,,,,,,,,,,,,,,,,,,,,,,,,,,,,,,,,,,,,,,,,,,,,,,,1,1.2259328000000096,392.43131010000025,None,ScrollDown,정답입니다,392.43131010000025,None,392.43131010000025,None,392.43131010000025,None,392.43131010000025,None,393.5332741000002,None,393.5332741000002,394.0325264000003,,,,,,,,,,,,,,,,217,2022-05-17_14h02.24.877,FishGame,2022.1.1,59.995056407304496,
,23,넌 성실해,1,Green,B,6.041666666666666,5.7,ScrollUp,ScrollDown,Green.png,3,Positive,Incongruent,0,0,0,0,,,,,,,,,,,,,,,,,,,,,0,22,22,22,,,,,,,,,,,,,,,,,,,,,,,,,,,,,,,,,,,,,,,,,,,,,,,,,,,,,,,,,,,,,,,,,,,,,,,,,,,,,1.8981481492519379,1.0096426999998585,394.6836959000002,None,ScrollUp,정답입니다,394.6836959000002,None,394.6836959000002,None,394.6836959000002,None,394.6836959000002,None,395.5659445000001,None,395.5659445000001,396.06565020000016,,,,,,,,,,,,,,,,217,2022-05-17_14h02.24.877,FishGame,2022.1.1,59.995056407304496,
,24,넌 현실주의적이야,3,Orange,A,4.625,4.4,ScrollDown,ScrollUp,Orange.png,3,Neutral,Neutral,0,0,0,0,,,,,,,,,,,,,,,,,,,,,0,23,23,23,,,,,,,,,,,,,,,,,,,,,,,,,,,,,,,,,,,,,,,,,,,,,,,,,,,,,,,,,,,,,,,,,,,,,,,,,,,,,1.0925925920406978,1.035565200000292,396.72818700000016,None,ScrollDown,정답입니다,396.72818700000016,None,396.72818700000016,None,396.72818700000016,None,396.72818700000016,None,397.6235359000002,None,397.6235359000002,398.1320098000001,,,,,,,,,,,,,,,,217,2022-05-17_14h02.24.877,FishGame,2022.1.1,59.995056407304496,
,25,넌 진실돼,1,Orange,A,6.625,5.566666666666666,ScrollDown,ScrollUp,Orange.png,3,Positive,Congruent,0,0,0,0,,,,,,,,,,,,,,,,,,,,,0,24,24,24,,,,,,,,,,,,,,,,,,,,,,,,,,,,,,,,,,,,,,,,,,,,,,,,,,,,,,,,,,,,,,,,,,,,,,,,,,,,,1.0077160497506459,1.1777326999999786,398.8008245000001,None,ScrollDown,정답입니다,398.8008245000001,None,398.8008245000001,None,398.8008245000001,None,398.8008245000001,None,399.8323792000001,None,399.8323792000001,400.33166370000026,,,,,,,,,,,,,,,,217,2022-05-17_14h02.24.877,FishGame,2022.1.1,59.995056407304496,
,26,넌 천진난만해,3,Green,B,4.958333333333334,4.833333333333333,ScrollUp,ScrollDown,Green.png,3,Neutral,Neutral,0,0,0,0,,,,,,,,,,,,,,,,,,,,,0,25,25,25,,,,,,,,,,,,,,,,,,,,,,,,,,,,,,,,,,,,,,,,,,,,,,,,,,,,,,,,,,,,,,,,,,,,,,,,,,,,,1.9753086467583973,1.0362715999999637,400.9923076,None,ScrollUp,정답입니다,400.9923076,None,400.9923076,None,400.9923076,None,400.9923076,None,401.8914635000001,None,401.8914635000001,402.3980775,,,,,,,,,,,,,,,,217,2022-05-17_14h02.24.877,FishGame,2022.1.1,59.995056407304496,
,27,넌 교양없어,5,Orange,A,2.416666666666667,2.2,ScrollDown,ScrollUp,Orange.png,3,Negative,Incongruent,0,0,0,0,,,,,,,,,,,,,,,,,,,,,0,26,26,26,,,,,,,,,,,,,,,,,,,,,,,,,,,,,,,,,,,,,,,,,,,,,,,,,,,,,,,,,,,,,,,,,,,,,,,,,,,,,1.0756172637144725,0.967323899999883,403.06074850000005,None,ScrollDown,정답입니다,403.06074850000005,None,403.06074850000005,None,403.06074850000005,None,403.06074850000005,None,403.88900230000036,None,403.88900230000036,404.3979072000002,,,,,,,,,,,,,,,,217,2022-05-17_14h02.24.877,FishGame,2022.1.1,59.995056407304496,
,28,나를 보내줘,6,Orange,A,0,0,ScrollUp,ScrollDown,Orange.png,3,NonTarget,NonTarget,0,0,0,0,,,,,,,,,,,,,,,,,,,,,0,27,27,27,,,,,,,,,,,,,,,,,,,,,,,,,,,,,,,,,,,,,,,,,,,,,,,,,,,,,,,,,,,,,,,,,,,,,,,,,,,,,1.7746913582086563,1.0361097999998492,405.0536688000002,None,ScrollUp,정답입니다,405.0536688000002,None,405.0536688000002,None,405.0536688000002,None,405.0536688000002,None,405.95490850000033,None,405.95490850000033,406.46423460000005,,,,,,,,,,,,,,,,217,2022-05-17_14h02.24.877,FishGame,2022.1.1,59.995056407304496,
,29,넌 엉뚱스러워,3,Orange,A,4.166666666666667,4.133333333333334,ScrollDown,ScrollUp,Orange.png,3,Neutral,Neutral,0,0,0,0,,,,,,,,,,,,,,,,,,,,,0,28,28,28,,,,,,,,,,,,,,,,,,,,,,,,,,,,,,,,,,,,,,,,,,,,,,,,,,,,,,,,,,,,,,,,,,,,,,,,,,,,,1,1.05968219999977,407.1276068000002,None,ScrollDown,정답입니다,407.1276068000002,None,407.1276068000002,None,407.1276068000002,None,407.1276068000002,None,408.0469575000002,None,408.0469575000002,408.5473785000004,,,,,,,,,,,,,,,,217,2022-05-17_14h02.24.877,FishGame,2022.1.1,59.995056407304496,
,30,넌 무지해,4,Green,B,2.541666666666667,3.066666666666667,ScrollUp,ScrollDown,Green.png,3,Negative,Congruent,0,0,0,0,,,,,,,,,,,,,,,,,,,,,0,29,29,29,,,,,,,,,,,,,,,,,,,,,,,,,,,,,,,,,,,,,,,,,,,,,,,,,,,,,,,,,,,,,,,,,,,,,,,,,,,,,1.8827160596847534,1.0420727999999144,409.1973978000001,None,ScrollUp,정답입니다,409.1973978000001,None,409.1973978000001,None,409.1973978000001,None,409.1973978000001,None,410.1140985000002,None,410.1140985000002,410.61369950000017,,,,,,,,,,,,,,,,217,2022-05-17_14h02.24.877,FishGame,2022.1.1,59.995056407304496,
,31,넌 음울해,5,Green,B,2.25,2.233333333333333,ScrollUp,ScrollDown,Green.png,3,Negative,Congruent,0,0,0,0,,,,,,,,,,,,,,,,,,,,,0,30,30,30,,,,,,,,,,,,,,,,,,,,,,,,,,,,,,,,,,,,,,,,,,,,,,,,,,,,,,,,,,,,,,,,,,,,,,,,,,,,,2,0.9942418999999063,411.2823043000003,None,ScrollUp,정답입니다,411.2823043000003,None,411.2823043000003,None,411.2823043000003,None,411.2823043000003,None,412.1305235,None,412.1305235,412.6300659000003,,,,,,,,,,,,,,,,217,2022-05-17_14h02.24.877,FishGame,2022.1.1,59.995056407304496,
,32,넌 냉소적이야,5,Orange,A,2.916666666666667,2.4,ScrollDown,ScrollUp,Orange.png,3,Negative,Incongruent,0,0,0,0,,,,,,,,,,,,,,,,,,,,,0,31,31,31,,,,,,,,,,,,,,,,,,,,,,,,,,,,,,,,,,,,,,,,,,,,,,,,,,,,,,,,,,,,,,,,,,,,,,,,,,,,,1,0.9477751999997963,413.28995840000016,None,ScrollDown,정답입니다,413.28995840000016,None,413.28995840000016,None,413.28995840000016,None,413.28995840000016,None,414.1040475,None,414.1040475,414.61328900000035,,,,,,,,,,,,,,,,217,2022-05-17_14h02.24.877,FishGame,2022.1.1,59.995056407304496,
,33,나를 데려가줘,6,Green,B,0,0,ScrollDown,ScrollUp,Green.png,3,NonTarget,NonTarget,0,0,0,0,,,,,,,,,,,,,,,,,,,,,0,32,32,32,,,,,,,,,,,,,,,,,,,,,,,,,,,,,,,,,,,,,,,,,,,,,,,,,,,,,,,,,,,,,,,,,,,,,,,,,,,,,1,1.268927800000256,415.2661428000001,None,ScrollDown,정답입니다,415.2661428000001,None,415.2661428000001,None,415.2661428000001,None,415.2661428000001,None,416.4062809000002,None,416.4062809000002,416.91293210000003,,,,,,,,,,,,,,,,217,2022-05-17_14h02.24.877,FishGame,2022.1.1,59.995056407304496,
,34,넌 쾌활해,1,Orange,A,5.541666666666666,5.733333333333333,ScrollDown,ScrollUp,Orange.png,3,Positive,Congruent,0,0,0,0,,,,,,,,,,,,,,,,,,,,,0,33,33,33,,,,,,,,,,,,,,,,,,,,,,,,,,,,,,,,,,,,,,,,,,,,,,,,,,,,,,,,,,,,,,,,,,,,,,,,,,,,,1.0030864079793294,0.9841332000000875,417.5791597000002,None,ScrollDown,정답입니다,417.5791597000002,None,417.5791597000002,None,417.5791597000002,None,417.5791597000002,None,418.4200973000002,None,418.4200973000002,418.92927180000015,,,,,,,,,,,,,,,,217,2022-05-17_14h02.24.877,FishGame,2022.1.1,59.995056407304496,
,35,나를 보내줘,6,Orange,A,0,0,ScrollUp,ScrollDown,Orange.png,3,NonTarget,NonTarget,0,0,0,0,,,,,,,,,,,,,,,,,,,,,0,34,34,34,,,,,,,,,,,,,,,,,,,,,,,,,,,,,,,,,,,,,,,,,,,,,,,,,,,,,,,,,,,,,,,,,,,,,,,,,,,,,1.8626543283462524,0.9778360999998768,419.5803500000002,None,ScrollUp,정답입니다,419.5803500000002,None,419.5803500000002,None,419.5803500000002,None,419.5803500000002,None,420.4297256,None,420.4297256,420.9290794000003,,,,,,,,,,,,,,,,217,2022-05-17_14h02.24.877,FishGame,2022.1.1,59.995056407304496,
,36,넌 명랑해,1,Green,B,5.739130434782609,5.666666666666667,ScrollUp,ScrollDown,Green.png,3,Positive,Incongruent,0,0,0,0,,,,,,,,,,,,,,,,,,,,,0,35,35,35,,,,,,,,,,,,,,,,,,,,,,,,,,,,,,,,,,,,,,,,,,,,,,,,,,,,,,,,,,,,,,,,,,,,,,,,,,,,,2,1.0490991000001486,421.5859720000003,None,ScrollUp,정답입니다,421.5859720000003,None,421.5859720000003,None,421.5859720000003,None,421.5859720000003,None,422.50271820000034,None,422.50271820000034,423.01213899999993,,,,,,,,,,,,,,,,217,2022-05-17_14h02.24.877,FishGame,2022.1.1,59.995056407304496,
,37,넌 멍해,4,Orange,A,2.833333333333333,3.4,ScrollDown,ScrollUp,Orange.png,3,Negative,Incongruent,0,0,0,0,,,,,,,,,,,,,,,,,,,,,0,36,36,36,,,,,,,,,,,,,,,,,,,,,,,,,,,,,,,,,,,,,,,,,,,,,,,,,,,,,,,,,,,,,,,,,,,,,,,,,,,,,1,1.0019720000000234,423.6739913000001,None,ScrollDown,정답입니다,423.6739913000001,None,423.6739913000001,None,423.6739913000001,None,423.6739913000001,None,424.53732690000015,None,424.53732690000015,425.0451515,,,,,,,,,,,,,,,,217,2022-05-17_14h02.24.877,FishGame,2022.1.1,59.995056407304496,
,38,나를 데려가줘,6,Green,B,0,0,ScrollDown,ScrollUp,Green.png,3,NonTarget,NonTarget,0,0,0,0,,,,,,,,,,,,,,,,,,,,,0,37,37,37,,,,,,,,,,,,,,,,,,,,,,,,,,,,,,,,,,,,,,,,,,,,,,,,,,,,,,,,,,,,,,,,,,,,,,,,,,,,,1.0478395124276478,1.1427631999999903,425.6976950000003,None,ScrollDown,정답입니다,425.6976950000003,None,425.6976950000003,None,425.6976950000003,None,425.6976950000003,None,426.7149972000002,None,426.7149972000002,427.2281229,,,,,,,,,,,,,,,,217,2022-05-17_14h02.24.877,FishGame,2022.1.1,59.995056407304496,
,39,넌 현명해,2,Orange,A,6.541666666666666,4.533333333333333,ScrollDown,ScrollUp,Orange.png,3,Positive,Congruent,0,0,0,0,,,,,,,,,,,,,,,,,,,,,0,38,38,38,,,,,,,,,,,,,,,,,,,,,,,,,,,,,,,,,,,,,,,,,,,,,,,,,,,,,,,,,,,,,,,,,,,,,,,,,,,,,1.1512345721324284,0.9272568000001229,427.8807584000001,None,ScrollDown,정답입니다,427.8807584000001,None,427.8807584000001,None,427.8807584000001,None,427.8807584000001,None,428.68214750000016,None,428.68214750000016,429.19483020000007,,,,,,,,,,,,,,,,217,2022-05-17_14h02.24.877,FishGame,2022.1.1,59.995056407304496,
,40,넌 수줍어,3,Green,B,3.541666666666666,4.366666666666666,ScrollUp,ScrollDown,Green.png,3,Neutral,Neutral,0,0,0,0,,,,,,,,,,,,,,,,,,,,,0,39,39,39,,,,,,,,,,,,,,,,,,,,,,,,,,,,,,,,,,,,,,,,,,,,,,,,,,,,,,,,,,,,,,,,,,,,,,,,,,,,,2,1.0013764000000265,429.8490902000003,None,ScrollUp,정답입니다,429.8490902000003,None,429.8490902000003,None,429.8490902000003,None,429.8490902000003,None,430.71884820000014,None,430.71884820000014,431.22769960000005,,,,,,,,,,,,,,,,217,2022-05-17_14h02.24.877,FishGame,2022.1.1,59.995056407304496,
,41,나를 데려가줘,6,Green,B,0,0,ScrollDown,ScrollUp,Green.png,3,NonTarget,NonTarget,0,0,0,0,,,,,,,,,,,,,,,,,,,,,0,40,40,40,,,,,,,,,,,,,,,,,,,,,,,,,,,,,,,,,,,,,,,,,,,,,,,,,,,,,,,,,,,,,,,,,,,,,,,,,,,,,1.0478395124276478,1.0485792999998012,431.88186440000027,None,ScrollDown,정답입니다,431.88186440000027,None,431.88186440000027,None,431.88186440000027,None,431.88186440000027,None,432.80109630000015,None,432.80109630000015,433.31075379999993,,,,,,,,,,,,,,,,217,2022-05-17_14h02.24.877,FishGame,2022.1.1,59.995056407304496,
,42,넌 성숙해,2,Green,B,5.833333333333333,4.533333333333333,ScrollUp,ScrollDown,Green.png,3,Positive,Incongruent,0,0,0,0,,,,,,,,,,,,,,,,,,,,,0,41,41,41,,,,,,,,,,,,,,,,,,,,,,,,,,,,,,,,,,,,,,,,,,,,,,,,,,,,,,,,,,,,,,,,,,,,,,,,,,,,,1.8641975422700245,1.0675533999997242,433.961992,None,ScrollUp,정답입니다,433.961992,None,433.961992,None,433.961992,None,433.961992,None,434.9009609,None,434.9009609,435.41047789999993,,,,,,,,,,,,,,,,217,2022-05-17_14h02.24.877,FishGame,2022.1.1,59.995056407304496,
,1,넌 매력적이야,2,Green,B,6.125,4.666666666666667,ScrollUp,ScrollDown,Green.png,4,Positive,Incongruent,0,0,0,0,,,,,,,,,,,,,,,,,,,,,,,,,0,0,0,0,,,,,,,,,,,,,,,,,,,,,,,,,,,,,,,,467.4399790000002,468.9397223000001,468.9730714000002,469.92292110000017,469.9728957000002,470.92280150000033,470.92280150000033,None,,,,,,,,,,,,,,,,,,,,,,,,,,,,,,,,,,1.9629629850387573,1.293031300000166,472.1022130000001,None,ScrollUp,정답입니다,472.1022130000001,None,472.1022130000001,None,472.1022130000001,None,472.1022130000001,None,473.22220530000004,None,473.22220530000004,473.7222332000001,435.91041600000017,None,435.91041600000017,None,0.13981481,-0.10277778,1,0,0,0.01626633000023503,None,465.92331090000016,None,,,217,2022-05-17_14h02.24.877,FishGame,2022.1.1,59.995056407304496,
,2,나를 보내줘,6,Orange,A,0,0,ScrollUp,ScrollDown,Orange.png,4,NonTarget,NonTarget,0,0,0,0,,,,,,,,,,,,,,,,,,,,,,,,,0,1,1,1,,,,,,,,,,,,,,,,,,,,,,,,,,,,,,,,,,,,,,,,,,,,,,,,,,,,,,,,,,,,,,,,,,,,,,,,,1.8641975422700245,1.081980399999793,474.3799068000003,None,ScrollUp,정답입니다,474.3799068000003,None,474.3799068000003,None,474.3799068000003,None,474.3799068000003,None,475.3283405000002,None,475.3283405000002,475.83853780000027,,,,,,,,,,,,,,,,217,2022-05-17_14h02.24.877,FishGame,2022.1.1,59.995056407304496,
,3,넌 조심스러워,3,Orange,A,4.791666666666666,4.666666666666667,ScrollDown,ScrollUp,Orange.png,4,Neutral,Neutral,0,0,0,0,,,,,,,,,,,,,,,,,,,,,,,,,0,2,2,2,,,,,,,,,,,,,,,,,,,,,,,,,,,,,,,,,,,,,,,,,,,,,,,,,,,,,,,,,,,,,,,,,,,,,,,,,1.2499999900658925,1.012398999999732,476.5014221000001,None,ScrollDown,정답입니다,476.5014221000001,None,476.5014221000001,None,476.5014221000001,None,476.5014221000001,None,477.3774403000002,None,477.3774403000002,477.8883361000003,,,,,,,,,,,,,,,,217,2022-05-17_14h02.24.877,FishGame,2022.1.1,59.995056407304496,
,4,넌 철학적이야,3,Green,B,4.5,4.266666666666667,ScrollUp,ScrollDown,Green.png,4,Neutral,Neutral,0,0,0,0,,,,,,,,,,,,,,,,,,,,,,,,,0,3,3,3,,,,,,,,,,,,,,,,,,,,,,,,,,,,,,,,,,,,,,,,,,,,,,,,,,,,,,,,,,,,,,,,,,,,,,,,,1.785493830839793,1.035870199999863,478.5489106,None,ScrollUp,정답입니다,478.5489106,None,478.5489106,None,478.5489106,None,478.5489106,None,479.44777520000025,None,479.44777520000025,479.954972,,,,,,,,,,,,,,,,217,2022-05-17_14h02.24.877,FishGame,2022.1.1,59.995056407304496,
,5,넌 쩨쩨해,5,Orange,A,2.375,2.133333333333333,ScrollDown,ScrollUp,Orange.png,4,Negative,Incongruent,0,0,0,0,,,,,,,,,,,,,,,,,,,,,,,,,0,4,4,4,,,,,,,,,,,,,,,,,,,,,,,,,,,,,,,,,,,,,,,,,,,,,,,,,,,,,,,,,,,,,,,,,,,,,,,,,1.2422839452823002,0.9324727000002895,480.6149015000001,None,ScrollDown,정답입니다,480.6149015000001,None,480.6149015000001,None,480.6149015000001,None,480.6149015000001,None,481.41399980000006,None,481.41399980000006,481.9211273000001,,,,,,,,,,,,,,,,217,2022-05-17_14h02.24.877,FishGame,2022.1.1,59.995056407304496,
,6,나를 데려가줘,6,Green,B,0,0,ScrollDown,ScrollUp,Green.png,4,NonTarget,NonTarget,0,0,0,0,,,,,,,,,,,,,,,,,,,,,,,,,0,5,5,5,,,,,,,,,,,,,,,,,,,,,,,,,,,,,,,,,,,,,,,,,,,,,,,,,,,,,,,,,,,,,,,,,,,,,,,,,1.200617293516795,1.0992352000002938,482.57309190000024,None,ScrollDown,정답입니다,482.57309190000024,None,482.57309190000024,None,482.57309190000024,None,482.57309190000024,None,483.5453980000002,None,483.5453980000002,484.0541373000001,,,,,,,,,,,,,,,,217,2022-05-17_14h02.24.877,FishGame,2022.1.1,59.995056407304496,
,7,넌 고집불통이야,5,Green,B,2.875,2,ScrollUp,ScrollDown,Green.png,4,Negative,Congruent,0,0,0,0,,,,,,,,,,,,,,,,,,,,,,,,,0,6,6,6,,,,,,,,,,,,,,,,,,,,,,,,,,,,,,,,,,,,,,,,,,,,,,,,,,,,,,,,,,,,,,,,,,,,,,,,,1.8749999900658925,1.0651629000003595,484.71432600000026,None,ScrollUp,정답입니다,484.71432600000026,None,484.71432600000026,None,484.71432600000026,None,484.71432600000026,None,485.6440166000002,None,485.6440166000002,486.15385170000036,,,,,,,,,,,,,,,,217,2022-05-17_14h02.24.877,FishGame,2022.1.1,59.995056407304496,
,8,넌 무심해,4,Orange,A,2.875,3.2,ScrollDown,ScrollUp,Orange.png,4,Negative,Incongruent,0,0,0,0,,,,,,,,,,,,,,,,,,,,,,,,,0,7,7,7,,,,,,,,,,,,,,,,,,,,,,,,,,,,,,,,,,,,,,,,,,,,,,,,,,,,,,,,,,,,,,,,,,,,,,,,,1,0.9351848000001155,486.81303990000015,None,ScrollDown,정답입니다,486.81303990000015,None,486.81303990000015,None,486.81303990000015,None,486.81303990000015,None,487.6121655000002,None,487.6121655000002,488.1203190000001,,,,,,,,,,,,,,,,217,2022-05-17_14h02.24.877,FishGame,2022.1.1,59.995056407304496,
,9,넌 정겨워,1,Orange,A,5.791666666666667,5.666666666666667,ScrollDown,ScrollUp,Orange.png,4,Positive,Congruent,0,0,0,0,,,,,,,,,,,,,,,,,,,,,,,,,0,8,8,8,,,,,,,,,,,,,,,,,,,,,,,,,,,,,,,,,,,,,,,,,,,,,,,,,,,,,,,,,,,,,,,,,,,,,,,,,1.0864197611808777,0.9654015999999501,488.7819764999999,None,ScrollDown,정답입니다,488.7819764999999,None,488.7819764999999,None,488.7819764999999,None,488.7819764999999,None,489.6109214000003,None,489.6109214000003,490.1200815000002,,,,,,,,,,,,,,,,217,2022-05-17_14h02.24.877,FishGame,2022.1.1,59.995056407304496,
,10,나를 데려가줘,6,Green,B,0,0,ScrollDown,ScrollUp,Green.png,4,NonTarget,NonTarget,0,0,0,0,,,,,,,,,,,,,,,,,,,,,,,,,0,9,9,9,,,,,,,,,,,,,,,,,,,,,,,,,,,,,,,,,,,,,,,,,,,,,,,,,,,,,,,,,,,,,,,,,,,,,,,,,1.0910493781169255,1.0545260999997481,490.77218040000025,None,ScrollDown,정답입니다,490.77218040000025,None,490.77218040000025,None,490.77218040000025,None,490.77218040000025,None,491.69527080000034,None,491.69527080000034,492.20316550000007,,,,,,,,,,,,,,,,217,2022-05-17_14h02.24.877,FishGame,2022.1.1,59.995056407304496,
,11,넌 체제순응적이야,4,Green,B,3,3.6,ScrollUp,ScrollDown,Green.png,4,Negative,Congruent,0,0,0,0,,,,,,,,,,,,,,,,,,,,,,,,,0,10,10,10,,,,,,,,,,,,,,,,,,,,,,,,,,,,,,,,,,,,,,,,,,,,,,,,,,,,,,,,,,,,,,,,,,,,,,,,,1.7839506169160206,1.0184570999999778,492.87381189999996,None,ScrollUp,정답입니다,492.87381189999996,None,492.87381189999996,None,492.87381189999996,None,492.87381189999996,None,493.74379709999994,None,493.74379709999994,494.2528768000002,,,,,,,,,,,,,,,,217,2022-05-17_14h02.24.877,FishGame,2022.1.1,59.995056407304496,
,12,나를 보내줘,6,Orange,A,0,0,ScrollUp,ScrollDown,Orange.png,4,NonTarget,NonTarget,0,0,0,0,,,,,,,,,,,,,,,,,,,,,,,,,0,11,11,11,,,,,,,,,,,,,,,,,,,,,,,,,,,,,,,,,,,,,,,,,,,,,,,,,,,,,,,,,,,,,,,,,,,,,,,,,1.7824074029922485,1.1000680000001921,494.91165850000016,None,ScrollUp,정답입니다,494.91165850000016,None,494.91165850000016,None,494.91165850000016,None,494.91165850000016,None,495.8775047000004,None,495.8775047000004,496.3861231000001,,,,,,,,,,,,,,,,217,2022-05-17_14h02.24.877,FishGame,2022.1.1,59.995056407304496,
,13,넌 박식해,2,Orange,A,5.625,3.933333333333333,ScrollDown,ScrollUp,Orange.png,4,Positive,Congruent,0,0,0,0,,,,,,,,,,,,,,,,,,,,,,,,,0,12,12,12,,,,,,,,,,,,,,,,,,,,,,,,,,,,,,,,,,,,,,,,,,,,,,,,,,,,,,,,,,,,,,,,,,,,,,,,,1.1080246816078823,0.9785686999998688,497.04640020000033,None,ScrollDown,정답입니다,497.04640020000033,None,497.04640020000033,None,497.04640020000033,None,497.04640020000033,None,497.8876468000003,None,497.8876468000003,498.40232689999993,,,,,,,,,,,,,,,,217,2022-05-17_14h02.24.877,FishGame,2022.1.1,59.995056407304496,
,14,나를 보내줘,6,Orange,A,0,0,ScrollUp,ScrollDown,Orange.png,4,NonTarget,NonTarget,0,0,0,0,,,,,,,,,,,,,,,,,,,,,,,,,0,13,13,13,,,,,,,,,,,,,,,,,,,,,,,,,,,,,,,,,,,,,,,,,,,,,,,,,,,,,,,,,,,,,,,,,,,,,,,,,1.9413580397764842,1.124270400000114,499.0870995,None,ScrollUp,정답입니다,499.0870995,None,499.0870995,None,499.0870995,None,499.0870995,None,500.05229959999997,None,500.05229959999997,500.5520372000001,,,,,,,,,,,,,,,,217,2022-05-17_14h02.24.877,FishGame,2022.1.1,59.995056407304496,
,15,넌 침착해,1,Green,B,5.458333333333333,5.566666666666666,ScrollUp,ScrollDown,Green.png,4,Positive,Incongruent,0,0,0,0,,,,,,,,,,,,,,,,,,,,,,,,,0,14,14,14,,,,,,,,,,,,,,,,,,,,,,,,,,,,,,,,,,,,,,,,,,,,,,,,,,,,,,,,,,,,,,,,,,,,,,,,,1.983024666706721,1.0103914999999688,501.21035359999996,None,ScrollUp,정답입니다,501.21035359999996,None,501.21035359999996,None,501.21035359999996,None,501.21035359999996,None,502.08563500000037,None,502.08563500000037,502.58511650000037,,,,,,,,,,,,,,,,217,2022-05-17_14h02.24.877,FishGame,2022.1.1,59.995056407304496,
,16,나를 데려가줘,6,Green,B,0,0,ScrollDown,ScrollUp,Green.png,4,NonTarget,NonTarget,0,0,0,0,,,,,,,,,,,,,,,,,,,,,,,,,0,15,15,15,,,,,,,,,,,,,,,,,,,,,,,,,,,,,,,,,,,,,,,,,,,,,,,,,,,,,,,,,,,,,,,,,,,,,,,,,1,1.020126800000071,503.23949710000034,None,ScrollDown,정답입니다,503.23949710000034,None,503.23949710000034,None,503.23949710000034,None,503.23949710000034,None,504.1353028000003,None,504.1353028000003,504.63486009999997,,,,,,,,,,,,,,,,217,2022-05-17_14h02.24.877,FishGame,2022.1.1,59.995056407304496,
,17,넌 행복해,1,Orange,A,6.416666666666666,6.166666666666667,ScrollDown,ScrollUp,Orange.png,4,Positive,Congruent,0,0,0,0,,,,,,,,,,,,,,,,,,,,,,,,,0,16,16,16,,,,,,,,,,,,,,,,,,,,,,,,,,,,,,,,,,,,,,,,,,,,,,,,,,,,,,,,,,,,,,,,,,,,,,,,,1.09413580596447,0.9662717999999586,505.30127370000037,None,ScrollDown,정답입니다,505.30127370000037,None,505.30127370000037,None,505.30127370000037,None,505.30127370000037,None,506.12507380000034,None,506.12507380000034,506.6346558000005,,,,,,,,,,,,,,,,217,2022-05-17_14h02.24.877,FishGame,2022.1.1,59.995056407304496,
,18,넌 겸손해,2,Green,B,5.791666666666667,4.766666666666667,ScrollUp,ScrollDown,Green.png,4,Positive,Incongruent,0,0,0,0,,,,,,,,,,,,,,,,,,,,,,,,,0,17,17,17,,,,,,,,,,,,,,,,,,,,,,,,,,,,,,,,,,,,,,,,,,,,,,,,,,,,,,,,,,,,,,,,,,,,,,,,,1.6975308607021966,0.8934982999999193,507.2928732999999,None,ScrollUp,정답입니다,507.2928732999999,None,507.2928732999999,None,507.2928732999999,None,507.2928732999999,None,508.0512546,None,508.0512546,508.5511226999997,,,,,,,,,,,,,,,,217,2022-05-17_14h02.24.877,FishGame,2022.1.1,59.995056407304496,
,19,나를 보내줘,6,Orange,A,0,0,ScrollUp,ScrollDown,Orange.png,4,NonTarget,NonTarget,0,0,0,0,,,,,,,,,,,,,,,,,,,,,,,,,0,18,18,18,,,,,,,,,,,,,,,,,,,,,,,,,,,,,,,,,,,,,,,,,,,,,,,,,,,,,,,,,,,,,,,,,,,,,,,,,1.9027777661879857,0.9476283000003605,509.2024624000005,None,ScrollUp,정답입니다,509.2024624000005,None,509.2024624000005,None,509.2024624000005,None,509.2024624000005,None,510.0232338000005,None,510.0232338000005,510.5340358000003,,,,,,,,,,,,,,,,217,2022-05-17_14h02.24.877,FishGame,2022.1.1,59.995056407304496,
,20,넌 의심없어,3,Orange,A,4.166666666666667,4.6,ScrollDown,ScrollUp,Orange.png,4,Neutral,Neutral,0,0,0,0,,,,,,,,,,,,,,,,,,,,,,,,,0,19,19,19,,,,,,,,,,,,,,,,,,,,,,,,,,,,,,,,,,,,,,,,,,,,,,,,,,,,,,,,,,,,,,,,,,,,,,,,,1,0.967315800000506,511.1922534000005,None,ScrollDown,정답입니다,511.1922534000005,None,511.1922534000005,None,511.1922534000005,None,511.1922534000005,None,512.0246478999998,None,512.0246478999998,512.5337485999999,,,,,,,,,,,,,,,,217,2022-05-17_14h02.24.877,FishGame,2022.1.1,59.995056407304496,
,21,넌 시시해,4,Orange,A,2.666666666666667,2.966666666666667,ScrollDown,ScrollUp,Orange.png,4,Negative,Incongruent,0,0,0,0,,,,,,,,,,,,,,,,,,,,,,,,,0,20,20,20,,,,,,,,,,,,,,,,,,,,,,,,,,,,,,,,,,,,,,,,,,,,,,,,,,,,,,,,,,,,,,,,,,,,,,,,,1.1296296268701553,0.8842430000004242,513.1842680999998,None,ScrollDown,정답입니다,513.1842680999998,None,513.1842680999998,None,513.1842680999998,None,513.1842680999998,None,513.9428474000006,None,513.9428474000006,514.4502628999999,,,,,,,,,,,,,,,,217,2022-05-17_14h02.24.877,FishGame,2022.1.1,59.995056407304496,
,22,나를 데려가줘,6,Green,B,0,0,ScrollDown,ScrollUp,Green.png,4,NonTarget,NonTarget,0,0,0,0,,,,,,,,,,,,,,,,,,,,,,,,,0,21,21,21,,,,,,,,,,,,,,,,,,,,,,,,,,,,,,,,,,,,,,,,,,,,,,,,,,,,,,,,,,,,,,,,,,,,,,,,,1.7345678955316544,0.9052109000003838,515.1031376999999,None,ScrollUp,오답입니다,515.1031376999999,None,515.1031376999999,None,515.1031376999999,None,515.1031376999999,None,515.8833593999998,None,515.8833593999998,516.3832837999998,,,,,,,,,,,,,,,,217,2022-05-17_14h02.24.877,FishGame,2022.1.1,59.995056407304496,
,23,넌 무정해,5,Orange,A,2.5,2.2,ScrollDown,ScrollUp,Orange.png,4,Negative,Incongruent,0,0,0,0,,,,,,,,,,,,,,,,,,,,,,,,,0,22,22,22,,,,,,,,,,,,,,,,,,,,,,,,,,,,,,,,,,,,,,,,,,,,,,,,,,,,,,,,,,,,,,,,,,,,,,,,,1.2160493830839794,1.0843031000003975,517.0448957999997,None,ScrollDown,정답입니다,517.0448957999997,None,517.0448957999997,None,517.0448957999997,None,517.0448957999997,None,517.9944591000003,None,517.9944591000003,518.4997079000004,,,,,,,,,,,,,,,,217,2022-05-17_14h02.24.877,FishGame,2022.1.1,59.995056407304496,
,24,넌 긍정적이야,1,Green,B,6.041666666666667,6.066666666666666,ScrollUp,ScrollDown,Green.png,4,Positive,Incongruent,0,0,0,0,,,,,,,,,,,,,,,,,,,,,,,,,0,23,23,23,,,,,,,,,,,,,,,,,,,,,,,,,,,,,,,,,,,,,,,,,,,,,,,,,,,,,,,,,,,,,,,,,,,,,,,,,2,1.118395800000144,519.1578114000004,None,ScrollUp,정답입니다,519.1578114000004,None,519.1578114000004,None,519.1578114000004,None,519.1578114000004,None,520.1407349000001,None,520.1407349000001,520.6494607000004,,,,,,,,,,,,,,,,217,2022-05-17_14h02.24.877,FishGame,2022.1.1,59.995056407304496,
,25,나를 보내줘,6,Orange,A,0,0,ScrollUp,ScrollDown,Orange.png,4,NonTarget,NonTarget,0,0,0,0,,,,,,,,,,,,,,,,,,,,,,,,,0,24,24,24,,,,,,,,,,,,,,,,,,,,,,,,,,,,,,,,,,,,,,,,,,,,,,,,,,,,,,,,,,,,,,,,,,,,,,,,,2,1.276978599999893,521.2991186999998,None,ScrollUp,정답입니다,521.2991186999998,None,521.2991186999998,None,521.2991186999998,None,521.2991186999998,None,522.4490984000004,None,522.4490984000004,522.9491097,,,,,,,,,,,,,,,,217,2022-05-17_14h02.24.877,FishGame,2022.1.1,59.995056407304496,
,26,넌 시기심이 많아,5,Green,B,2.458333333333333,2.233333333333333,ScrollUp,ScrollDown,Green.png,4,Negative,Congruent,0,0,0,0,,,,,,,,,,,,,,,,,,,,,,,,,0,25,25,25,,,,,,,,,,,,,,,,,,,,,,,,,,,,,,,,,,,,,,,,,,,,,,,,,,,,,,,,,,,,,,,,,,,,,,,,,2,1.1260646999999153,523.6102149999997,None,ScrollUp,정답입니다,523.6102149999997,None,523.6102149999997,None,523.6102149999997,None,523.6102149999997,None,524.5990111000001,None,524.5990111000001,525.0988678000003,,,,,,,,,,,,,,,,217,2022-05-17_14h02.24.877,FishGame,2022.1.1,59.995056407304496,
,27,넌 탁월해,2,Orange,A,5.708333333333334,4.5,ScrollDown,ScrollUp,Orange.png,4,Positive,Congruent,0,0,0,0,,,,,,,,,,,,,,,,,,,,,,,,,0,26,26,26,,,,,,,,,,,,,,,,,,,,,,,,,,,,,,,,,,,,,,,,,,,,,,,,,,,,,,,,,,,,,,,,,,,,,,,,,1.0200617114702861,0.9420187999994596,525.7639545000002,None,ScrollDown,정답입니다,525.7639545000002,None,525.7639545000002,None,525.7639545000002,None,525.7639545000002,None,526.5597386999998,None,526.5597386999998,527.0652756,,,,,,,,,,,,,,,,217,2022-05-17_14h02.24.877,FishGame,2022.1.1,59.995056407304496,
,28,나를 데려가줘,6,Green,B,0,0,ScrollDown,ScrollUp,Green.png,4,NonTarget,NonTarget,0,0,0,0,,,,,,,,,,,,,,,,,,,,,,,,,0,27,27,27,,,,,,,,,,,,,,,,,,,,,,,,,,,,,,,,,,,,,,,,,,,,,,,,,,,,,,,,,,,,,,,,,,,,,,,,,1.1512345721324284,1.4005636000001687,527.7166402000003,None,ScrollDown,정답입니다,527.7166402000003,None,527.7166402000003,None,527.7166402000003,None,527.7166402000003,None,528.9897909000001,None,528.9897909000001,529.4982582000002,,,,,,,,,,,,,,,,217,2022-05-17_14h02.24.877,FishGame,2022.1.1,59.995056407304496,
,29,넌 조용해,3,Green,B,4.333333333333333,4.166666666666667,ScrollUp,ScrollDown,Green.png,4,Neutral,Neutral,0,0,0,0,,,,,,,,,,,,,,,,,,,,,,,,,0,28,28,28,,,,,,,,,,,,,,,,,,,,,,,,,,,,,,,,,,,,,,,,,,,,,,,,,,,,,,,,,,,,,,,,,,,,,,,,,2,1.110157199999776,530.1491518000003,None,ScrollUp,정답입니다,530.1491518000003,None,530.1491518000003,None,530.1491518000003,None,530.1491518000003,None,531.1315547000004,None,531.1315547000004,531.6313429000002,,,,,,,,,,,,,,,,217,2022-05-17_14h02.24.877,FishGame,2022.1.1,59.995056407304496,
,30,넌 다정해,1,Orange,A,5.833333333333334,5.7,ScrollDown,ScrollUp,Orange.png,4,Positive,Congruent,0,0,0,0,,,,,,,,,,,,,,,,,,,,,,,,,0,29,29,29,,,,,,,,,,,,,,,,,,,,,,,,,,,,,,,,,,,,,,,,,,,,,,,,,,,,,,,,,,,,,,,,,,,,,,,,,1.1033950646718342,0.9598989999994956,532.2933414999998,None,ScrollDown,정답입니다,532.2933414999998,None,532.2933414999998,None,532.2933414999998,None,532.2933414999998,None,533.1142787999997,None,533.1142787999997,533.6143727999997,,,,,,,,,,,,,,,,217,2022-05-17_14h02.24.877,FishGame,2022.1.1,59.995056407304496,
,31,넌 능력있어,2,Green,B,6.166666666666666,4.6,ScrollUp,ScrollDown,Green.png,4,Positive,Incongruent,0,0,0,0,,,,,,,,,,,,,,,,,,,,,,,,,0,30,30,30,,,,,,,,,,,,,,,,,,,,,,,,,,,,,,,,,,,,,,,,,,,,,,,,,,,,,,,,,,,,,,,,,,,,,,,,,1.9521604875723522,1.285125500000504,534.2684601000001,None,ScrollUp,정답입니다,534.2684601000001,None,534.2684601000001,None,534.2684601000001,None,534.2684601000001,None,535.4236778000004,None,535.4236778000004,535.9307616000006,,,,,,,,,,,,,,,,217,2022-05-17_14h02.24.877,FishGame,2022.1.1,59.995056407304496,
,32,넌 불쾌해,5,Orange,A,2.125,1.933333333333333,ScrollDown,ScrollUp,Orange.png,4,Negative,Incongruent,0,0,0,0,,,,,,,,,,,,,,,,,,,,,,,,,0,31,31,31,,,,,,,,,,,,,,,,,,,,,,,,,,,,,,,,,,,,,,,,,,,,,,,,,,,,,,,,,,,,,,,,,,,,,,,,,1.0740740497907002,0.9677287000004071,536.5857143000003,None,ScrollDown,정답입니다,536.5857143000003,None,536.5857143000003,None,536.5857143000003,None,536.5857143000003,None,537.4218041000004,None,537.4218041000004,537.9304673000006,,,,,,,,,,,,,,,,217,2022-05-17_14h02.24.877,FishGame,2022.1.1,59.995056407304496,
,33,나를 데려가줘,6,Green,B,0,0,ScrollDown,ScrollUp,Green.png,4,NonTarget,NonTarget,0,0,0,0,,,,,,,,,,,,,,,,,,,,,,,,,0,32,32,32,,,,,,,,,,,,,,,,,,,,,,,,,,,,,,,,,,,,,,,,,,,,,,,,,,,,,,,,,,,,,,,,,,,,,,,,,1,1.2166861000005156,538.5782181000004,None,ScrollDown,정답입니다,538.5782181000004,None,538.5782181000004,None,538.5782181000004,None,538.5782181000004,None,539.6705355000004,None,539.6705355000004,540.1801919,,,,,,,,,,,,,,,,217,2022-05-17_14h02.24.877,FishGame,2022.1.1,59.995056407304496,
,34,넌 유순해,3,Orange,A,4.458333333333333,5,ScrollDown,ScrollUp,Orange.png,4,Neutral,Neutral,0,0,0,0,,,,,,,,,,,,,,,,,,,,,,,,,0,33,33,33,,,,,,,,,,,,,,,,,,,,,,,,,,,,,,,,,,,,,,,,,,,,,,,,,,,,,,,,,,,,,,,,,,,,,,,,,1.3287037014961243,0.9472951000007015,540.8381906000004,None,ScrollDown,정답입니다,540.8381906000004,None,540.8381906000004,None,540.8381906000004,None,540.8381906000004,None,541.6521835000003,None,541.6521835000003,542.1633105000001,,,,,,,,,,,,,,,,217,2022-05-17_14h02.24.877,FishGame,2022.1.1,59.995056407304496,
,35,넌 근심스러워,4,Green,B,2.708333333333333,3.133333333333333,ScrollUp,ScrollDown,Green.png,4,Negative,Congruent,0,0,0,0,,,,,,,,,,,,,,,,,,,,,,,,,0,34,34,34,,,,,,,,,,,,,,,,,,,,,,,,,,,,,,,,,,,,,,,,,,,,,,,,,,,,,,,,,,,,,,,,,,,,,,,,,1.8811728457609813,1.0508233000000473,542.8243775999999,None,ScrollUp,정답입니다,542.8243775999999,None,542.8243775999999,None,542.8243775999999,None,542.8243775999999,None,543.7369410000001,None,543.7369410000001,544.2463391000001,,,,,,,,,,,,,,,,217,2022-05-17_14h02.24.877,FishGame,2022.1.1,59.995056407304496,
,36,넌 세련되었어,2,Orange,A,5.5,4.6,ScrollDown,ScrollUp,Orange.png,4,Positive,Congruent,0,0,0,0,,,,,,,,,,,,,,,,,,,,,,,,,0,35,35,35,,,,,,,,,,,,,,,,,,,,,,,,,,,,,,,,,,,,,,,,,,,,,,,,,,,,,,,,,,,,,,,,,,,,,,,,,1,0.9919784999992771,544.9249178,None,ScrollDown,정답입니다,544.9249178,None,544.9249178,None,544.9249178,None,544.9249178,None,545.7628389000001,None,545.7628389000001,546.2627807999997,,,,,,,,,,,,,,,,217,2022-05-17_14h02.24.877,FishGame,2022.1.1,59.995056407304496,
,37,나를 보내줘,6,Orange,A,0,0,ScrollUp,ScrollDown,Orange.png,4,NonTarget,NonTarget,0,0,0,0,,,,,,,,,,,,,,,,,,,,,,,,,0,36,36,36,,,,,,,,,,,,,,,,,,,,,,,,,,,,,,,,,,,,,,,,,,,,,,,,,,,,,,,,,,,,,,,,,,,,,,,,,2,1.1563312999996924,546.9139476,None,ScrollUp,정답입니다,546.9139476,None,546.9139476,None,546.9139476,None,546.9139476,None,547.9462210000002,None,547.9462210000002,548.4457671999999,,,,,,,,,,,,,,,,217,2022-05-17_14h02.24.877,FishGame,2022.1.1,59.995056407304496,
,38,넌 확고해,3,Green,B,4.708333333333334,4.566666666666666,ScrollUp,ScrollDown,Green.png,4,Neutral,Neutral,0,0,0,0,,,,,,,,,,,,,,,,,,,,,,,,,0,37,37,37,,,,,,,,,,,,,,,,,,,,,,,,,,,,,,,,,,,,,,,,,,,,,,,,,,,,,,,,,,,,,,,,,,,,,,,,,2,1.1276513000002524,549.1017229999998,None,ScrollUp,정답입니다,549.1017229999998,None,549.1017229999998,None,549.1017229999998,None,549.1017229999998,None,550.0960034,None,550.0960034,550.5955527000006,,,,,,,,,,,,,,,,217,2022-05-17_14h02.24.877,FishGame,2022.1.1,59.995056407304496,
,39,넌 이해심이 많아,1,Green,B,6.041666666666668,5.533333333333333,ScrollUp,ScrollDown,Green.png,4,Positive,Incongruent,0,0,0,0,,,,,,,,,,,,,,,,,,,,,,,,,0,38,38,38,,,,,,,,,,,,,,,,,,,,,,,,,,,,,,,,,,,,,,,,,,,,,,,,,,,,,,,,,,,,,,,,,,,,,,,,,2,0.9990207999999257,551.2513114000003,None,ScrollUp,정답입니다,551.2513114000003,None,551.2513114000003,None,551.2513114000003,None,551.2513114000003,None,552.1188293000005,None,552.1188293000005,552.6285867000006,,,,,,,,,,,,,,,,217,2022-05-17_14h02.24.877,FishGame,2022.1.1,59.995056407304496,
,40,나를 보내줘,6,Orange,A,0,0,ScrollUp,ScrollDown,Orange.png,4,NonTarget,NonTarget,0,0,0,0,,,,,,,,,,,,,,,,,,,,,,,,,0,39,39,39,,,,,,,,,,,,,,,,,,,,,,,,,,,,,,,,,,,,,,,,,,,,,,,,,,,,,,,,,,,,,,,,,,,,,,,,,1.8287036965290706,1.0189376999996966,553.2856462,None,ScrollUp,정답입니다,553.2856462,None,553.2856462,None,553.2856462,None,553.2856462,None,554.1708914999999,None,554.1708914999999,554.6783876,,,,,,,,,,,,,,,,217,2022-05-17_14h02.24.877,FishGame,2022.1.1,59.995056407304496,
,41,넌 거칠어,4,Orange,A,2.625,3.033333333333333,ScrollDown,ScrollUp,Orange.png,4,Negative,Incongruent,0,0,0,0,,,,,,,,,,,,,,,,,,,,,,,,,0,40,40,40,,,,,,,,,,,,,,,,,,,,,,,,,,,,,,,,,,,,,,,,,,,,,,,,,,,,,,,,,,,,,,,,,,,,,,,,,1.0987654229005177,0.9650034999995114,555.3408630000004,None,ScrollDown,정답입니다,555.3408630000004,None,555.3408630000004,None,555.3408630000004,None,555.3408630000004,None,556.1683749000003,None,556.1683749000003,556.67803,,,,,,,,,,,,,,,,217,2022-05-17_14h02.24.877,FishGame,2022.1.1,59.995056407304496,
,42,넌 변덕맞아,5,Green,B,2.75,2.166666666666667,ScrollUp,ScrollDown,Green.png,4,Negative,Congruent,0,0,0,0,,,,,,,,,,,,,,,,,,,,,,,,,0,41,41,41,,,,,,,,,,,,,,,,,,,,,,,,,,,,,,,,,,,,,,,,,,,,,,,,,,,,,,,,,,,,,,,,,,,,,,,,,2,1.0078128999994078,557.3415789000001,None,ScrollUp,정답입니다,557.3415789000001,None,557.3415789000001,None,557.3415789000001,None,557.3415789000001,None,558.2113725999998,None,558.2113725999998,558.7112548000005,,,,,,,,,,,,,,,,217,2022-05-17_14h02.24.877,FishGame,2022.1.1,59.995056407304496,
,43,나를 데려가줘,6,Green,B,0,0,ScrollDown,ScrollUp,Green.png,4,NonTarget,NonTarget,0,0,0,0,,,,,,,,,,,,,,,,,,,,,,,,,0,42,42,42,,,,,,,,,,,,,,,,,,,,,,,,,,,,,,,,,,,,,,,,,,,,,,,,,,,,,,,,,,,,,,,,,,,,,,,,,1,1.1607724999994389,559.3622808,None,ScrollDown,정답입니다,559.3622808,None,559.3622808,None,559.3622808,None,559.3622808,None,560.3947631000001,None,560.3947631000001,560.8942323000001,,,,,,,,,,,,,,,,217,2022-05-17_14h02.24.877,FishGame,2022.1.1,59.995056407304496,
,44,넌 외로워,4,Green,B,2.833333333333333,3.3,ScrollUp,ScrollDown,Green.png,4,Negative,Congruent,0,0,0,0,,,,,,,,,,,,,,,,,,,,,,,,,0,43,43,43,,,,,,,,,,,,,,,,,,,,,,,,,,,,,,,,,,,,,,,,,,,,,,,,,,,,,,,,,,,,,,,,,,,,,,,,,2,1.0270448999999644,561.5503647000005,None,ScrollUp,정답입니다,561.5503647000005,None,561.5503647000005,None,561.5503647000005,None,561.5503647000005,None,562.4442741000003,None,562.4442741000003,562.9439388999999,,,,,,,,,,,,,,,,217,2022-05-17_14h02.24.877,FishGame,2022.1.1,59.995056407304496,
,1,넌 불평스러워,5,Orange,A,2.25,2.066666666666667,ScrollDown,ScrollUp,Orange.png,5,Negative,Incongruent,0,0,0,0,,,,,,,,,,,,,,,,,,,,,,,,,,,,,0,0,0,0,,,,,,,,,,,,,,,,,,,,,,,,,,,,594.9066764999998,596.4064023000001,596.4396346000003,597.3894847000001,597.4394564000004,598.3893893000004,598.3893893000004,None,,,,,,,,,,,,,,,,,,,,,,,,,,,,,,,,,,1.162037044763565,1.047947999999451,599.6365599999999,None,ScrollDown,정답입니다,599.6365599999999,None,599.6365599999999,None,599.6365599999999,None,599.6365599999999,None,600.5110059999997,None,600.5110059999997,601.022352,563.4438092999999,None,563.4438092999999,None,0.13611111,-0.09166667,1,0,0,0.016234529999564984,None,593.4566075000002,None,,,217,2022-05-17_14h02.24.877,FishGame,2022.1.1,59.995056407304496,
,2,나를 보내줘,6,Orange,A,0,0,ScrollUp,ScrollDown,Orange.png,5,NonTarget,NonTarget,0,0,0,0,,,,,,,,,,,,,,,,,,,,,,,,,,,,,0,1,1,1,,,,,,,,,,,,,,,,,,,,,,,,,,,,,,,,,,,,,,,,,,,,,,,,,,,,,,,,,,,,,,,,,,,,,2,1.0266958000001978,601.6804400000001,None,ScrollUp,정답입니다,601.6804400000001,None,601.6804400000001,None,601.6804400000001,None,601.6804400000001,None,602.5722600999998,None,602.5722600999998,603.0720680000004,,,,,,,,,,,,,,,,217,2022-05-17_14h02.24.877,FishGame,2022.1.1,59.995056407304496,
,3,넌 다재다능해,2,Green,B,6.208333333333333,4.5,ScrollUp,ScrollDown,Green.png,5,Positive,Incongruent,0,0,0,0,,,,,,,,,,,,,,,,,,,,,,,,,,,,,0,2,2,2,,,,,,,,,,,,,,,,,,,,,,,,,,,,,,,,,,,,,,,,,,,,,,,,,,,,,,,,,,,,,,,,,,,,,2,1.0532095999997182,603.7255212999999,None,ScrollUp,정답입니다,603.7255212999999,None,603.7255212999999,None,603.7255212999999,None,603.7255212999999,None,604.6483335000003,None,604.6483335000003,605.1550907000001,,,,,,,,,,,,,,,,217,2022-05-17_14h02.24.877,FishGame,2022.1.1,59.995056407304496,
,4,넌 과감해,3,Orange,A,4.833333333333334,4.6,ScrollDown,ScrollUp,Orange.png,5,Neutral,Neutral,0,0,0,0,,,,,,,,,,,,,,,,,,,,,,,,,,,,,0,3,3,3,,,,,,,,,,,,,,,,,,,,,,,,,,,,,,,,,,,,,,,,,,,,,,,,,,,,,,,,,,,,,,,,,,,,,1.1296296268701553,0.9349840000004406,605.8117004000005,None,ScrollDown,정답입니다,605.8117004000005,None,605.8117004000005,None,605.8117004000005,None,605.8117004000005,None,606.6132001000005,None,606.6132001000005,607.1215330000005,,,,,,,,,,,,,,,,217,2022-05-17_14h02.24.877,FishGame,2022.1.1,59.995056407304496,
,5,넌 고분고분해,3,Green,B,3.75,4.033333333333333,ScrollUp,ScrollDown,Green.png,5,Neutral,Neutral,0,0,0,0,,,,,,,,,,,,,,,,,,,,,,,,,,,,,0,4,4,4,,,,,,,,,,,,,,,,,,,,,,,,,,,,,,,,,,,,,,,,,,,,,,,,,,,,,,,,,,,,,,,,,,,,,2,1.0103337999998985,607.7755550000002,None,ScrollUp,정답입니다,607.7755550000002,None,607.7755550000002,None,607.7755550000002,None,607.7755550000002,None,608.6546943000003,None,608.6546943000003,609.1546667000002,,,,,,,,,,,,,,,,217,2022-05-17_14h02.24.877,FishGame,2022.1.1,59.995056407304496,
,6,나를 보내줘,6,Orange,A,0,0,ScrollUp,ScrollDown,Orange.png,5,NonTarget,NonTarget,0,0,0,0,,,,,,,,,,,,,,,,,,,,,,,,,,,,,0,5,5,5,,,,,,,,,,,,,,,,,,,,,,,,,,,,,,,,,,,,,,,,,,,,,,,,,,,,,,,,,,,,,,,,,,,,,2,1.0261724000001777,609.8116551000003,None,ScrollUp,정답입니다,609.8116551000003,None,609.8116551000003,None,609.8116551000003,None,609.8116551000003,None,610.7046706000001,None,610.7046706000001,611.2044034,,,,,,,,,,,,,,,,217,2022-05-17_14h02.24.877,FishGame,2022.1.1,59.995056407304496,
,7,넌 잘 잊어,4,Orange,A,3,3.7,ScrollDown,ScrollUp,Orange.png,5,Negative,Incongruent,0,0,0,0,,,,,,,,,,,,,,,,,,,,,,,,,,,,,0,6,6,6,,,,,,,,,,,,,,,,,,,,,,,,,,,,,,,,,,,,,,,,,,,,,,,,,,,,,,,,,,,,,,,,,,,,,1.1959876517454784,0.9940667999999278,611.8714488000005,None,ScrollDown,정답입니다,611.8714488000005,None,611.8714488000005,None,611.8714488000005,None,611.8714488000005,None,612.7218707000002,None,612.7218707000002,613.2374334000006,,,,,,,,,,,,,,,,217,2022-05-17_14h02.24.877,FishGame,2022.1.1,59.995056407304496,
,8,넌 탐구심이없어,4,Green,B,2.833333333333333,3.066666666666667,ScrollUp,ScrollDown,Green.png,5,Negative,Congruent,0,0,0,0,,,,,,,,,,,,,,,,,,,,,,,,,,,,,0,7,7,7,,,,,,,,,,,,,,,,,,,,,,,,,,,,,,,,,,,,,,,,,,,,,,,,,,,,,,,,,,,,,,,,,,,,,2,1.127364199999647,613.8954963000006,None,ScrollUp,정답입니다,613.8954963000006,None,613.8954963000006,None,613.8954963000006,None,613.8954963000006,None,614.8874548000003,None,614.8874548000003,615.3872057999997,,,,,,,,,,,,,,,,217,2022-05-17_14h02.24.877,FishGame,2022.1.1,59.995056407304496,
,9,나를 데려가줘,6,Green,B,0,0,ScrollDown,ScrollUp,Green.png,5,NonTarget,NonTarget,0,0,0,0,,,,,,,,,,,,,,,,,,,,,,,,,,,,,0,8,8,8,,,,,,,,,,,,,,,,,,,,,,,,,,,,,,,,,,,,,,,,,,,,,,,,,,,,,,,,,,,,,,,,,,,,,1.0910493781169255,1.0007722999998805,616.0334346,None,ScrollDown,정답입니다,616.0334346,None,616.0334346,None,616.0334346,None,616.0334346,None,616.9124394,None,616.9124394,617.4201880999999,,,,,,,,,,,,,,,,217,2022-05-17_14h02.24.877,FishGame,2022.1.1,59.995056407304496,
,10,넌 참되어,2,Orange,A,6.041666666666664,4.733333333333333,ScrollDown,ScrollUp,Orange.png,5,Positive,Congruent,0,0,0,0,,,,,,,,,,,,,,,,,,,,,,,,,,,,,0,9,9,9,,,,,,,,,,,,,,,,,,,,,,,,,,,,,,,,,,,,,,,,,,,,,,,,,,,,,,,,,,,,,,,,,,,,,1.2407407313585281,1.0274538999992728,618.101267,None,ScrollDown,정답입니다,618.101267,None,618.101267,None,618.101267,None,618.101267,None,618.9726135000001,None,618.9726135000001,619.4865639999998,,,,,,,,,,,,,,,,217,2022-05-17_14h02.24.877,FishGame,2022.1.1,59.995056407304496,
,11,넌 생기있어,1,Green,B,5.875,5.633333333333334,ScrollUp,ScrollDown,Green.png,5,Positive,Incongruent,0,0,0,0,,,,,,,,,,,,,,,,,,,,,,,,,,,,,0,10,10,10,,,,,,,,,,,,,,,,,,,,,,,,,,,,,,,,,,,,,,,,,,,,,,,,,,,,,,,,,,,,,,,,,,,,,2,1.0546863999998095,620.1434702000006,None,ScrollUp,정답입니다,620.1434702000006,None,620.1434702000006,None,620.1434702000006,None,620.1434702000006,None,621.0697712000001,None,621.0697712000001,621.5696470000003,,,,,,,,,,,,,,,,217,2022-05-17_14h02.24.877,FishGame,2022.1.1,59.995056407304496,
,12,넌 비사교적이야,4,Green,B,2.875,2.9,ScrollUp,ScrollDown,Green.png,5,Negative,Congruent,0,0,0,0,,,,,,,,,,,,,,,,,,,,,,,,,,,,,0,11,11,11,,,,,,,,,,,,,,,,,,,,,,,,,,,,,,,,,,,,,,,,,,,,,,,,,,,,,,,,,,,,,,,,,,,,,2,1.0999778999994305,622.2227787000002,None,ScrollUp,정답입니다,622.2227787000002,None,622.2227787000002,None,622.2227787000002,None,622.2227787000002,None,623.1926234000002,None,623.1926234000002,623.7032246999997,,,,,,,,,,,,,,,,217,2022-05-17_14h02.24.877,FishGame,2022.1.1,59.995056407304496,
,13,나를 데려가줘,6,Green,B,0,0,ScrollDown,ScrollUp,Green.png,5,NonTarget,NonTarget,0,0,0,0,,,,,,,,,,,,,,,,,,,,,,,,,,,,,0,12,12,12,,,,,,,,,,,,,,,,,,,,,,,,,,,,,,,,,,,,,,,,,,,,,,,,,,,,,,,,,,,,,,,,,,,,,1.0046296219031017,1.0772721000003003,624.3498267000004,None,ScrollDown,정답입니다,624.3498267000004,None,624.3498267000004,None,624.3498267000004,None,624.3498267000004,None,625.3028454000005,None,625.3028454000005,625.8024391999998,,,,,,,,,,,,,,,,217,2022-05-17_14h02.24.877,FishGame,2022.1.1,59.995056407304496,
,14,넌 고독해,4,Orange,A,2.916666666666667,3.233333333333333,ScrollDown,ScrollUp,Orange.png,5,Negative,Incongruent,0,0,0,0,,,,,,,,,,,,,,,,,,,,,,,,,,,,,0,13,13,13,,,,,,,,,,,,,,,,,,,,,,,,,,,,,,,,,,,,,,,,,,,,,,,,,,,,,,,,,,,,,,,,,,,,,1.2237654278675716,0.9301444000002448,626.4600504,None,ScrollDown,정답입니다,626.4600504,None,626.4600504,None,626.4600504,None,626.4600504,None,627.2576623000004,None,627.2576623000004,627.7689209,,,,,,,,,,,,,,,,217,2022-05-17_14h02.24.877,FishGame,2022.1.1,59.995056407304496,
,15,넌 신경질적이야,5,Green,B,2.375,2.233333333333333,ScrollUp,ScrollDown,Green.png,5,Negative,Congruent,0,0,0,0,,,,,,,,,,,,,,,,,,,,,,,,,,,,,0,14,14,14,,,,,,,,,,,,,,,,,,,,,,,,,,,,,,,,,,,,,,,,,,,,,,,,,,,,,,,,,,,,,,,,,,,,,1.9922839502493541,1.0222644000004948,628.4272126000005,None,ScrollUp,정답입니다,628.4272126000005,None,628.4272126000005,None,628.4272126000005,None,628.4272126000005,None,629.3190534000005,None,629.3190534000005,629.8185837999999,,,,,,,,,,,,,,,,217,2022-05-17_14h02.24.877,FishGame,2022.1.1,59.995056407304496,
,16,넌 똑똑해,2,Green,B,5.666666666666667,3.966666666666667,ScrollUp,ScrollDown,Green.png,5,Positive,Incongruent,0,0,0,0,,,,,,,,,,,,,,,,,,,,,,,,,,,,,0,15,15,15,,,,,,,,,,,,,,,,,,,,,,,,,,,,,,,,,,,,,,,,,,,,,,,,,,,,,,,,,,,,,,,,,,,,,2,1.0097434999997859,630.4736017000005,None,ScrollUp,정답입니다,630.4736017000005,None,630.4736017000005,None,630.4736017000005,None,630.4736017000005,None,631.3519809,None,631.3519809,631.8516467,,,,,,,,,,,,,,,,217,2022-05-17_14h02.24.877,FishGame,2022.1.1,59.995056407304496,
,17,나를 보내줘,6,Orange,A,0,0,ScrollUp,ScrollDown,Orange.png,5,NonTarget,NonTarget,0,0,0,0,,,,,,,,,,,,,,,,,,,,,,,,,,,,,0,16,16,16,,,,,,,,,,,,,,,,,,,,,,,,,,,,,,,,,,,,,,,,,,,,,,,,,,,,,,,,,,,,,,,,,,,,,1.6898148159186044,1.7520173000002615,632.5005209999999,None,ScrollUp,정답입니다,632.5005209999999,None,632.5005209999999,None,632.5005209999999,None,632.5005209999999,None,634.1253347000002,None,634.1253347000002,634.634798,,,,,,,,,,,,,,,,217,2022-05-17_14h02.24.877,FishGame,2022.1.1,59.995056407304496,
,18,넌 협조적이야,1,Orange,A,5.625,5.666666666666667,ScrollDown,ScrollUp,Orange.png,5,Positive,Congruent,0,0,0,0,,,,,,,,,,,,,,,,,,,,,,,,,,,,,0,17,17,17,,,,,,,,,,,,,,,,,,,,,,,,,,,,,,,,,,,,,,,,,,,,,,,,,,,,,,,,,,,,,,,,,,,,,1,0.910471599999255,635.2939742999997,None,ScrollDown,정답입니다,635.2939742999997,None,635.2939742999997,None,635.2939742999997,None,635.2939742999997,None,636.0683735000002,None,636.0683735000002,636.5677672000002,,,,,,,,,,,,,,,,217,2022-05-17_14h02.24.877,FishGame,2022.1.1,59.995056407304496,
,19,나를 데려가줘,6,Green,B,0,0,ScrollDown,ScrollUp,Green.png,5,NonTarget,NonTarget,0,0,0,0,,,,,,,,,,,,,,,,,,,,,,,,,,,,,0,18,18,18,,,,,,,,,,,,,,,,,,,,,,,,,,,,,,,,,,,,,,,,,,,,,,,,,,,,,,,,,,,,,,,,,,,,,1,1.1915761000000202,637.2205325000004,None,ScrollDown,정답입니다,637.2205325000004,None,637.2205325000004,None,637.2205325000004,None,637.2205325000004,None,638.2844523000003,None,638.2844523000003,638.7841132000003,,,,,,,,,,,,,,,,217,2022-05-17_14h02.24.877,FishGame,2022.1.1,59.995056407304496,
,20,넌 몰인정해,5,Green,B,2.541666666666667,2.066666666666667,ScrollUp,ScrollDown,Green.png,5,Negative,Congruent,0,0,0,0,,,,,,,,,,,,,,,,,,,,,,,,,,,,,0,19,19,19,,,,,,,,,,,,,,,,,,,,,,,,,,,,,,,,,,,,,,,,,,,,,,,,,,,,,,,,,,,,,,,,,,,,,1.8688271592060726,1.0701203999997233,639.4416425,None,ScrollUp,정답입니다,639.4416425,None,639.4416425,None,639.4416425,None,639.4416425,None,640.3842874000002,None,640.3842874000002,640.8837853000005,,,,,,,,,,,,,,,,217,2022-05-17_14h02.24.877,FishGame,2022.1.1,59.995056407304496,
,21,나를 데려가줘,6,Green,B,0,0,ScrollDown,ScrollUp,Green.png,5,NonTarget,NonTarget,0,0,0,0,,,,,,,,,,,,,,,,,,,,,,,,,,,,,0,20,20,20,,,,,,,,,,,,,,,,,,,,,,,,,,,,,,,,,,,,,,,,,,,,,,,,,,,,,,,,,,,,,,,,,,,,,1.0663580298423767,1.1441641999999774,641.5351494000006,None,ScrollDown,정답입니다,641.5351494000006,None,641.5351494000006,None,641.5351494000006,None,641.5351494000006,None,642.5552144000003,None,642.5552144000003,643.0668449000004,,,,,,,,,,,,,,,,217,2022-05-17_14h02.24.877,FishGame,2022.1.1,59.995056407304496,
,22,넌 순진해,3,Green,B,4.125,4.166666666666667,ScrollUp,ScrollDown,Green.png,5,Neutral,Neutral,0,0,0,0,,,,,,,,,,,,,,,,,,,,,,,,,,,,,0,21,21,21,,,,,,,,,,,,,,,,,,,,,,,,,,,,,,,,,,,,,,,,,,,,,,,,,,,,,,,,,,,,,,,,,,,,,1.8858024626970291,1.0606447000000117,643.7113131000006,None,ScrollUp,정답입니다,643.7113131000006,None,643.7113131000006,None,643.7113131000006,None,643.7113131000006,None,644.6541291000003,None,644.6541291000003,645.1665978999999,,,,,,,,,,,,,,,,217,2022-05-17_14h02.24.877,FishGame,2022.1.1,59.995056407304496,
,23,넌 신뢰할만해,1,Orange,A,6.625,5.533333333333333,ScrollDown,ScrollUp,Orange.png,5,Positive,Congruent,0,0,0,0,,,,,,,,,,,,,,,,,,,,,,,,,,,,,0,22,22,22,,,,,,,,,,,,,,,,,,,,,,,,,,,,,,,,,,,,,,,,,,,,,,,,,,,,,,,,,,,,,,,,,,,,,1,1.0486367000003156,645.8332951000002,None,ScrollDown,정답입니다,645.8332951000002,None,645.8332951000002,None,645.8332951000002,None,645.8332951000002,None,646.7397134000003,None,646.7397134000003,647.2496410000003,,,,,,,,,,,,,,,,217,2022-05-17_14h02.24.877,FishGame,2022.1.1,59.995056407304496,
,24,나를 보내줘,6,Orange,A,0,0,ScrollUp,ScrollDown,Orange.png,5,NonTarget,NonTarget,0,0,0,0,,,,,,,,,,,,,,,,,,,,,,,,,,,,,0,23,23,23,,,,,,,,,,,,,,,,,,,,,,,,,,,,,,,,,,,,,,,,,,,,,,,,,,,,,,,,,,,,,,,,,,,,,2,1.1512582999994265,647.9076449000004,None,ScrollUp,정답입니다,647.9076449000004,None,647.9076449000004,None,647.9076449000004,None,647.9076449000004,None,648.9238673999998,None,648.9238673999998,649.4327637000006,,,,,,,,,,,,,,,,217,2022-05-17_14h02.24.877,FishGame,2022.1.1,59.995056407304496,
