name,TrialNum,Word,WordCategory,FishType,WordList,WordValence,WordReputation,CorrectResp,IncorrectResp,FishTypeFile,Round,WordType,Condition,LoopforOrange.thisRepN,LoopforOrange.thisTrialN,LoopforOrange.thisN,LoopforOrange.thisIndex,LoopForGreen.thisRepN,LoopForGreen.thisTrialN,LoopForGreen.thisN,LoopForGreen.thisIndex,GreenInstLoop.thisRepN,GreenInstLoop.thisTrialN,GreenInstLoop.thisN,GreenInstLoop.thisIndex,GreenPrac.thisRepN,GreenPrac.thisTrialN,GreenPrac.thisN,GreenPrac.thisIndex,trials_2.thisRepN,trials_2.thisTrialN,trials_2.thisN,trials_2.thisIndex,GreenRound1.thisRepN,GreenRound1.thisTrialN,GreenRound1.thisN,GreenRound1.thisIndex,GreenRound2.thisRepN,GreenRound2.thisTrialN,GreenRound2.thisN,GreenRound2.thisIndex,GreenRound3.thisRepN,GreenRound3.thisTrialN,GreenRound3.thisN,GreenRound3.thisIndex,GreenRound4.thisRepN,GreenRound4.thisTrialN,GreenRound4.thisN,GreenRound4.thisIndex,GreenRound5.thisRepN,GreenRound5.thisTrialN,GreenRound5.thisN,GreenRound5.thisIndex,text_2.started,text_2.stopped,text_3.started,text_3.stopped,key_resp.keys,key_resp.rt,key_resp.started,key_resp.stopped,PassI.started,PassI.stopped,PassInst.keys,PassInst.rt,PassInst.started,PassInst.stopped,mouse_2.x,mouse_2.y,mouse_2.leftButton,mouse_2.midButton,mouse_2.rightButton,mouse_2.started,mouse_2.stopped,image.started,image.stopped,text_5.started,text_5.stopped,text_6.started,text_6.stopped,text_7.started,text_7.stopped,text_8.started,text_8.stopped,slider_3.response,slider_3.rt,slider_3.started,slider_3.stopped,Response_3,Feedback_3,BackGround_3.started,BackGround_3.stopped,Fish_3.started,Fish_3.stopped,WordBox_3.started,WordBox_3.stopped,Words_3.started,Words_3.stopped,BackGround_Feedback_3.started,BackGround_Feedback_3.stopped,Feedbacks_3.started,Feedbacks_3.stopped,Continue_or_not_2.keys,Continue_or_not_2.rt,Continue_or_not_2.started,Continue_or_not_2.stopped,image_4.started,image_4.stopped,mouse_3.x,mouse_3.y,mouse_3.leftButton,mouse_3.midButton,mouse_3.rightButton,mouse_3.started,mouse_3.stopped,startmain.started,startmain.stopped,slider_4.response,slider_4.rt,slider_4.started,slider_4.stopped,Response_4,Feedback_4,BackGround_4.started,BackGround_4.stopped,Fish_4.started,Fish_4.stopped,WordBox_4.started,WordBox_4.stopped,Words_4.started,Words_4.stopped,BackGround_Feedback_4.started,BackGround_Feedback_4.stopped,Feedbacks_4.started,Feedbacks_4.stopped,text.started,text.stopped,break_interval.started,break_interval.stopped,mouse.x,mouse.y,mouse.leftButton,mouse.midButton,mouse.rightButton,mouse.started,mouse.stopped,stratnextround.started,stratnextround.stopped,endgame.started,endgame.stopped,participant,date,expName,psychopyVersion,frameRate,
,,,,,,,,,,,,,,,,,,,,,,,,,,,,,,,,,,,,,,,,,,,,,,,,,,,,,,22.876484899999923,None,22.876484899999923,None,space,3.324043900000106,23.338451699999496,None,,,,,,,,,,,,,,,,,,,,,,,,,,,,,,,,,,,,,,,,,,,,,,,,,,,,,,,,,,,,,,,,,,,,,,,,,,,,,,,,,,,,,,,,,,218,2022-05-17_15h35.24.816,FishGame,2022.1.1,60.02829733907445,
물고기과제_instruction(참가자용)GreenVersion.mp4,,,,,,,,,,,,,,,,,,0,0,0,0,0,0,0,0,,,,,,,,,,,,,,,,,,,,,,,,,,,,,,,,,,,,,93.4628088999998,None,n,12.09426490000078,93.4628088999998,None,,,,,,,,,,,,,,,,,,,,,,,,,,,,,,,,,,,,,,,,,,,,,,,,,,,,,,,,,,,,,,,,,,,,,,,,,,,,,,,,,,,,218,2022-05-17_15h35.24.816,FishGame,2022.1.1,60.02829733907445,
,1,넌 교활해,5,Orange,B,2.333333333333333,2.133333333333333,ScrollUp,ScrollDown,Orange.png,practice,,,,,,,0,0,0,0,,,,,0,0,0,0,0,0,0,0,,,,,,,,,,,,,,,,,,,,,,,,,,,,,,,,,,,0.098148145,-0.21388888,1,0,0,0.5145320700012235,None,105.5821149000003,None,109.5612385000004,111.07691390000036,111.09355349999896,112.04335030000038,112.0933972999992,113.04336779999903,113.04336779999903,None,2,5.44139400000131,114.25170950000029,None,ScrollUp,정답입니다,114.25170950000029,None,114.25170950000029,None,114.25170950000029,None,114.25170950000029,None,119.49524799999926,None,119.49524799999926,120.00907000000007,,,,,,,,,,,,,,,,,,,,,,,,,,,,,,,,,,,,,,,,,,,,,,,,,218,2022-05-17_15h35.24.816,FishGame,2022.1.1,60.02829733907445,
,2,넌 슬기로워,2,Green,A,6.166666666666667,4.1,ScrollDown,ScrollUp,Green.png,practice,,,,,,,0,0,0,0,,,,,0,0,0,0,0,1,1,1,,,,,,,,,,,,,,,,,,,,,,,,,,,,,,,,,,,,,,,,,,,,,,,,,,,,1,1.4972670999995898,120.68966530000034,None,ScrollDown,정답입니다,120.68966530000034,None,120.68966530000034,None,120.68966530000034,None,120.68966530000034,None,122.01467330000014,None,122.01467330000014,122.52534030000061,,,,,,,,,,,,,,,,,,,,,,,,,,,,,,,,,,,,,,,,,,,,,,,,,218,2022-05-17_15h35.24.816,FishGame,2022.1.1,60.02829733907445,
,3,나를 보내줘,6,Green,A,0,0,ScrollUp,ScrollDown,Green.png,practice,,,,,,,0,0,0,0,,,,,0,0,0,0,0,2,2,2,,,,,,,,,,,,,,,,,,,,,,,,,,,,,,,,,,,,,,,,,,,,,,,,,,,,2,1.4863353999990068,123.18057969999973,None,ScrollUp,정답입니다,123.18057969999973,None,123.18057969999973,None,123.18057969999973,None,123.18057969999973,None,124.53418000000056,None,124.53418000000056,125.04165379999904,,,,,,,,,,,,,,,,,,,,,,,,,,,,,,,,,,,,,,,,,,,,,,,,,218,2022-05-17_15h35.24.816,FishGame,2022.1.1,60.02829733907445,
,4,나를 데려가줘,6,Orange,B,0,0,ScrollDown,ScrollUp,Orange.png,practice,,,,,,,0,0,0,0,,,,,0,0,0,0,0,3,3,3,,,,,,,,,,,,,,,,,,,,,,,,,,,,,,,,,,,,,,,,,,,,,,,,,,,,1.0077160497506459,1.6920074999998178,125.7014108000003,None,ScrollDown,정답입니다,125.7014108000003,None,125.7014108000003,None,125.7014108000003,None,125.7014108000003,None,127.25915200000054,None,127.25915200000054,127.77479350000067,,,,,,,,,,,,,,,,,,,,,,,,,,,,,,,,,,,,,,,,,,,,,,,,,218,2022-05-17_15h35.24.816,FishGame,2022.1.1,60.02829733907445,
,1,넌 교활해,5,Orange,B,2.333333333333333,2.133333333333333,ScrollUp,ScrollDown,Orange.png,practice,,,,,,,0,0,0,0,,,,,0,0,0,0,,,,,,,,,,,,,,,,,,,,,,,,,,,,,,,,,,,,,,,,,,,,,,,,,,,,,,,,,,,,,,,,,,,,,,,,,,n,2.668960799999695,128.2746365999992,None,128.2746365999992,None,,,,,,,,,,,,,,,,,,,,,,,,,,,,,,,,,,,,,,,,,,,218,2022-05-17_15h35.24.816,FishGame,2022.1.1,60.02829733907445,
,1,넌 따뜻해,1,Orange,B,6.083333333333333,5.6,ScrollUp,ScrollDown,Orange.png,1,Positive,Incongruent,,,,,0,0,0,0,,,,,,,,,,,,,0,0,0,0,,,,,,,,,,,,,,,,,,,,,,,,,,,,,,,,,,,,,,,,134.3741138000005,135.87367760000052,135.90707440000006,136.85686489999898,136.90689969999949,137.8568813999991,137.8568813999991,None,,,,,,,,,,,,,,,,,,,,,,,,,0.0712963,-0.0009259259,1,0,0,0.3134397700014233,None,130.97422349999943,None,2,1.5907781000005343,139.07360589999917,None,ScrollUp,정답입니다,139.07360589999917,None,139.07360589999917,None,139.07360589999917,None,139.07360589999917,None,140.4728544999998,None,140.4728544999998,140.9730882999993,,,,,,,,,,,,,,,,218,2022-05-17_15h35.24.816,FishGame,2022.1.1,60.02829733907445,
,2,넌 기품있어,2,Orange,B,5.791666666666668,4.5,ScrollUp,ScrollDown,Orange.png,1,Positive,Incongruent,,,,,0,0,0,0,,,,,,,,,,,,,0,1,1,1,,,,,,,,,,,,,,,,,,,,,,,,,,,,,,,,,,,,,,,,,,,,,,,,,,,,,,,,,,,,,,,,,,,,,,,,,,,,,,,,,2,1.289085399999749,141.64502960000027,None,ScrollUp,정답입니다,141.64502960000027,None,141.64502960000027,None,141.64502960000027,None,141.64502960000027,None,142.7893511000002,None,142.7893511000002,143.28933460000007,,,,,,,,,,,,,,,,218,2022-05-17_15h35.24.816,FishGame,2022.1.1,60.02829733907445,
,3,나를 보내줘,6,Green,A,0,0,ScrollUp,ScrollDown,Green.png,1,NonTarget,NonTarget,,,,,0,0,0,0,,,,,,,,,,,,,0,2,2,2,,,,,,,,,,,,,,,,,,,,,,,,,,,,,,,,,,,,,,,,,,,,,,,,,,,,,,,,,,,,,,,,,,,,,,,,,,,,,,,,,2,1.5432380000002013,143.9539664999993,None,ScrollUp,정답입니다,143.9539664999993,None,143.9539664999993,None,143.9539664999993,None,143.9539664999993,None,145.35586460000013,None,145.35586460000013,145.8556604000005,,,,,,,,,,,,,,,,218,2022-05-17_15h35.24.816,FishGame,2022.1.1,60.02829733907445,
,4,넌 수동적이야,4,Green,A,2.833333333333333,2.933333333333333,ScrollDown,ScrollUp,Green.png,1,Negative,Incongruent,,,,,0,0,0,0,,,,,,,,,,,,,0,3,3,3,,,,,,,,,,,,,,,,,,,,,,,,,,,,,,,,,,,,,,,,,,,,,,,,,,,,,,,,,,,,,,,,,,,,,,,,,,,,,,,,,1,1.2096633999990445,146.53118229999927,None,ScrollDown,정답입니다,146.53118229999927,None,146.53118229999927,None,146.53118229999927,None,146.53118229999927,None,147.58901239999977,None,147.58901239999977,148.0886874000007,,,,,,,,,,,,,,,,218,2022-05-17_15h35.24.816,FishGame,2022.1.1,60.02829733907445,
,5,넌 사심이 없어,3,Orange,B,4.916666666666666,4.333333333333333,ScrollUp,ScrollDown,Orange.png,1,Neutral,Neutral,,,,,0,0,0,0,,,,,,,,,,,,,0,4,4,4,,,,,,,,,,,,,,,,,,,,,,,,,,,,,,,,,,,,,,,,,,,,,,,,,,,,,,,,,,,,,,,,,,,,,,,,,,,,,,,,,2,1.2234542999995028,148.75780359999953,None,ScrollUp,정답입니다,148.75780359999953,None,148.75780359999953,None,148.75780359999953,None,148.75780359999953,None,149.8387015999997,None,149.8387015999997,150.33845160000055,,,,,,,,,,,,,,,,218,2022-05-17_15h35.24.816,FishGame,2022.1.1,60.02829733907445,
,6,넌 헤퍼,5,Green,A,2.458333333333334,2.233333333333333,ScrollDown,ScrollUp,Green.png,1,Negative,Incongruent,,,,,0,0,0,0,,,,,,,,,,,,,0,5,5,5,,,,,,,,,,,,,,,,,,,,,,,,,,,,,,,,,,,,,,,,,,,,,,,,,,,,,,,,,,,,,,,,,,,,,,,,,,,,,,,,,1,1.4511975000004895,150.99779470000067,None,ScrollDown,정답입니다,150.99779470000067,None,150.99779470000067,None,150.99779470000067,None,150.99779470000067,None,152.3128467000006,None,152.3128467000006,152.82141769999907,,,,,,,,,,,,,,,,218,2022-05-17_15h35.24.816,FishGame,2022.1.1,60.02829733907445,
,7,넌 말쑥해,3,Green,A,4.833333333333334,4.333333333333333,ScrollDown,ScrollUp,Green.png,1,Neutral,Neutral,,,,,0,0,0,0,,,,,,,,,,,,,0,6,6,6,,,,,,,,,,,,,,,,,,,,,,,,,,,,,,,,,,,,,,,,,,,,,,,,,,,,,,,,,,,,,,,,,,,,,,,,,,,,,,,,,1,1.1596341999993456,153.48167479999938,None,ScrollDown,정답입니다,153.48167479999938,None,153.48167479999938,None,153.48167479999938,None,153.48167479999938,None,154.50477010000031,None,154.50477010000031,155.0044581000002,,,,,,,,,,,,,,,,218,2022-05-17_15h35.24.816,FishGame,2022.1.1,60.02829733907445,
,8,넌 투덜거려,5,Orange,B,2.541666666666667,2.266666666666667,ScrollUp,ScrollDown,Orange.png,1,Negative,Congruent,,,,,0,0,0,0,,,,,,,,,,,,,0,7,7,7,,,,,,,,,,,,,,,,,,,,,,,,,,,,,,,,,,,,,,,,,,,,,,,,,,,,,,,,,,,,,,,,,,,,,,,,,,,,,,,,,2,1.182042000000365,155.68280269999923,None,ScrollUp,정답입니다,155.68280269999923,None,155.68280269999923,None,155.68280269999923,None,155.68280269999923,None,156.71067310000035,None,156.71067310000035,157.2208869999995,,,,,,,,,,,,,,,,218,2022-05-17_15h35.24.816,FishGame,2022.1.1,60.02829733907445,
,9,넌 적극적이야,1,Green,A,5.708333333333333,5.533333333333333,ScrollDown,ScrollUp,Green.png,1,Positive,Congruent,,,,,0,0,0,0,,,,,,,,,,,,,0,8,8,8,,,,,,,,,,,,,,,,,,,,,,,,,,,,,,,,,,,,,,,,,,,,,,,,,,,,,,,,,,,,,,,,,,,,,,,,,,,,,,,,,1,1.1745676999998977,157.87843190000058,None,ScrollDown,정답입니다,157.87843190000058,None,157.87843190000058,None,157.87843190000058,None,157.87843190000058,None,158.9205605999996,None,158.9205605999996,159.42061660000036,,,,,,,,,,,,,,,,218,2022-05-17_15h35.24.816,FishGame,2022.1.1,60.02829733907445,
,10,넌 재미없어,4,Orange,B,2.625,2.966666666666667,ScrollUp,ScrollDown,Orange.png,1,Negative,Congruent,,,,,0,0,0,0,,,,,,,,,,,,,0,9,9,9,,,,,,,,,,,,,,,,,,,,,,,,,,,,,,,,,,,,,,,,,,,,,,,,,,,,,,,,,,,,,,,,,,,,,,,,,,,,,,,,,2,1.3535608000001957,160.0884473999995,None,ScrollUp,정답입니다,160.0884473999995,None,160.0884473999995,None,160.0884473999995,None,160.0884473999995,None,161.29614120000042,None,161.29614120000042,161.80357899999944,,,,,,,,,,,,,,,,218,2022-05-17_15h35.24.816,FishGame,2022.1.1,60.02829733907445,
,11,넌 명석해,2,Green,A,5.875,4.033333333333333,ScrollDown,ScrollUp,Green.png,1,Positive,Congruent,,,,,0,0,0,0,,,,,,,,,,,,,0,10,10,10,,,,,,,,,,,,,,,,,,,,,,,,,,,,,,,,,,,,,,,,,,,,,,,,,,,,,,,,,,,,,,,,,,,,,,,,,,,,,,,,,1,1.4587371999987226,162.46268989999953,None,ScrollDown,정답입니다,162.46268989999953,None,162.46268989999953,None,162.46268989999953,None,162.46268989999953,None,163.7813798999996,None,163.7813798999996,164.28669199999968,,,,,,,,,,,,,,,,218,2022-05-17_15h35.24.816,FishGame,2022.1.1,60.02829733907445,
,12,나를 데려가줘,6,Orange,B,0,0,ScrollDown,ScrollUp,Orange.png,1,NonTarget,NonTarget,,,,,0,0,0,0,,,,,,,,,,,,,0,11,11,11,,,,,,,,,,,,,,,,,,,,,,,,,,,,,,,,,,,,,,,,,,,,,,,,,,,,,,,,,,,,,,,,,,,,,,,,,,,,,,,,,1.0216049253940582,1.851058700000067,164.97390749999977,None,ScrollDown,정답입니다,164.97390749999977,None,164.97390749999977,None,164.97390749999977,None,164.97390749999977,None,166.66195789999983,None,166.66195789999983,167.16953999999896,,,,,,,,,,,,,,,,218,2022-05-17_15h35.24.816,FishGame,2022.1.1,60.02829733907445,
,13,넌 소심해,4,Green,A,3,3.1,ScrollDown,ScrollUp,Green.png,1,Negative,Incongruent,,,,,0,0,0,0,,,,,,,,,,,,,0,12,12,12,,,,,,,,,,,,,,,,,,,,,,,,,,,,,,,,,,,,,,,,,,,,,,,,,,,,,,,,,,,,,,,,,,,,,,,,,,,,,,,,,1,1.5772144999991724,167.8267004999998,None,ScrollDown,정답입니다,167.8267004999998,None,167.8267004999998,None,167.8267004999998,None,167.8267004999998,None,169.27385049999975,None,169.27385049999975,169.78603569999905,,,,,,,,,,,,,,,,218,2022-05-17_15h35.24.816,FishGame,2022.1.1,60.02829733907445,
,14,넌 합리적이야,2,Green,A,5.583333333333333,4.733333333333333,ScrollDown,ScrollUp,Green.png,1,Positive,Congruent,,,,,0,0,0,0,,,,,,,,,,,,,0,13,13,13,,,,,,,,,,,,,,,,,,,,,,,,,,,,,,,,,,,,,,,,,,,,,,,,,,,,,,,,,,,,,,,,,,,,,,,,,,,,,,,,,1,1.2428980999993655,170.4490193999991,None,ScrollDown,정답입니다,170.4490193999991,None,170.4490193999991,None,170.4490193999991,None,170.4490193999991,None,171.55282989999978,None,171.55282989999978,172.05228539999916,,,,,,,,,,,,,,,,218,2022-05-17_15h35.24.816,FishGame,2022.1.1,60.02829733907445,
,15,넌 무자비해,5,Orange,B,2.333333333333333,2.1,ScrollUp,ScrollDown,Orange.png,1,Negative,Congruent,,,,,0,0,0,0,,,,,,,,,,,,,0,14,14,14,,,,,,,,,,,,,,,,,,,,,,,,,,,,,,,,,,,,,,,,,,,,,,,,,,,,,,,,,,,,,,,,,,,,,,,,,,,,,,,,,1.9367283980051677,1.2144035000001168,172.7207187999993,None,ScrollUp,정답입니다,172.7207187999993,None,172.7207187999993,None,172.7207187999993,None,172.7207187999993,None,173.792497299999,None,173.792497299999,174.30196029999934,,,,,,,,,,,,,,,,218,2022-05-17_15h35.24.816,FishGame,2022.1.1,60.02829733907445,
,16,나를 보내줘,6,Green,A,0,0,ScrollUp,ScrollDown,Green.png,1,NonTarget,NonTarget,,,,,0,0,0,0,,,,,,,,,,,,,0,15,15,15,,,,,,,,,,,,,,,,,,,,,,,,,,,,,,,,,,,,,,,,,,,,,,,,,,,,,,,,,,,,,,,,,,,,,,,,,,,,,,,,,2,1.5667099000002054,174.95330400000057,None,ScrollUp,정답입니다,174.95330400000057,None,174.95330400000057,None,174.95330400000057,None,174.95330400000057,None,176.3915496999998,None,176.3915496999998,176.9016756000001,,,,,,,,,,,,,,,,218,2022-05-17_15h35.24.816,FishGame,2022.1.1,60.02829733907445,
,17,넌 현실적이야,3,Orange,B,4.608695652173913,4.766666666666667,ScrollUp,ScrollDown,Orange.png,1,Neutral,Neutral,,,,,0,0,0,0,,,,,,,,,,,,,0,16,16,16,,,,,,,,,,,,,,,,,,,,,,,,,,,,,,,,,,,,,,,,,,,,,,,,,,,,,,,,,,,,,,,,,,,,,,,,,,,,,,,,,2,1.3403932999990502,177.56758640000044,None,ScrollUp,정답입니다,177.56758640000044,None,177.56758640000044,None,177.56758640000044,None,177.56758640000044,None,178.7680404999992,None,178.7680404999992,179.26803979999931,,,,,,,,,,,,,,,,218,2022-05-17_15h35.24.816,FishGame,2022.1.1,60.02829733907445,
,18,넌 의리있어,1,Orange,B,5.833333333333334,5.633333333333334,ScrollUp,ScrollDown,Orange.png,1,Positive,Incongruent,,,,,0,0,0,0,,,,,,,,,,,,,0,17,17,17,,,,,,,,,,,,,,,,,,,,,,,,,,,,,,,,,,,,,,,,,,,,,,,,,,,,,,,,,,,,,,,,,,,,,,,,,,,,,,,,,2,0.9975475000010192,179.93516719999934,None,ScrollUp,정답입니다,179.93516719999934,None,179.93516719999934,None,179.93516719999934,None,179.93516719999934,None,180.79196969999975,None,180.79196969999975,181.3010703,,,,,,,,,,,,,,,,218,2022-05-17_15h35.24.816,FishGame,2022.1.1,60.02829733907445,
,19,넌 신경과민이야,5,Green,A,2.541666666666667,2.166666666666667,ScrollDown,ScrollUp,Green.png,1,Negative,Incongruent,,,,,0,0,0,0,,,,,,,,,,,,,0,18,18,18,,,,,,,,,,,,,,,,,,,,,,,,,,,,,,,,,,,,,,,,,,,,,,,,,,,,,,,,,,,,,,,,,,,,,,,,,,,,,,,,,1,1.218936000001122,181.96725829999923,None,ScrollDown,정답입니다,181.96725829999923,None,181.96725829999923,None,181.96725829999923,None,181.96725829999923,None,183.0432739000007,None,183.0432739000007,183.55075339999894,,,,,,,,,,,,,,,,218,2022-05-17_15h35.24.816,FishGame,2022.1.1,60.02829733907445,
,20,넌 편안해,1,Green,A,5.916666666666666,5.866666666666666,ScrollDown,ScrollUp,Green.png,1,Positive,Congruent,,,,,0,0,0,0,,,,,,,,,,,,,0,19,19,19,,,,,,,,,,,,,,,,,,,,,,,,,,,,,,,,,,,,,,,,,,,,,,,,,,,,,,,,,,,,,,,,,,,,,,,,,,,,,,,,,1,1.0170988999998372,184.21000249999997,None,ScrollDown,정답입니다,184.21000249999997,None,184.21000249999997,None,184.21000249999997,None,184.21000249999997,None,185.093057099999,None,185.093057099999,185.60058039999967,,,,,,,,,,,,,,,,218,2022-05-17_15h35.24.816,FishGame,2022.1.1,60.02829733907445,
,21,넌 품위있어,2,Orange,B,5.291666666666666,4.466666666666667,ScrollUp,ScrollDown,Orange.png,1,Positive,Incongruent,,,,,0,0,0,0,,,,,,,,,,,,,0,20,20,20,,,,,,,,,,,,,,,,,,,,,,,,,,,,,,,,,,,,,,,,,,,,,,,,,,,,,,,,,,,,,,,,,,,,,,,,,,,,,,,,,1.9475308458010356,1.0883553999992728,186.26096510000025,None,ScrollUp,정답입니다,186.26096510000025,None,186.26096510000025,None,186.26096510000025,None,186.26096510000025,None,187.2170382000004,None,187.2170382000004,187.7169429000005,,,,,,,,,,,,,,,,218,2022-05-17_15h35.24.816,FishGame,2022.1.1,60.02829733907445,
,22,넌 빈틈없어,3,Green,A,4.833333333333333,3.966666666666667,ScrollDown,ScrollUp,Green.png,1,Neutral,Neutral,,,,,0,0,0,0,,,,,,,,,,,,,0,21,21,21,,,,,,,,,,,,,,,,,,,,,,,,,,,,,,,,,,,,,,,,,,,,,,,,,,,,,,,,,,,,,,,,,,,,,,,,,,,,,,,,,1.0324074228604634,1.11905520000073,188.3760084000005,None,ScrollDown,정답입니다,188.3760084000005,None,188.3760084000005,None,188.3760084000005,None,188.3760084000005,None,189.3599159000005,None,189.3599159000005,189.86663930000032,,,,,,,,,,,,,,,,218,2022-05-17_15h35.24.816,FishGame,2022.1.1,60.02829733907445,
,23,넌 상상력없어,4,Orange,B,2.833333333333333,3.133333333333333,ScrollUp,ScrollDown,Orange.png,1,Negative,Congruent,,,,,0,0,0,0,,,,,,,,,,,,,0,22,22,22,,,,,,,,,,,,,,,,,,,,,,,,,,,,,,,,,,,,,,,,,,,,,,,,,,,,,,,,,,,,,,,,,,,,,,,,,,,,,,,,,2,1.00151089999963,190.53820929999893,None,ScrollUp,정답입니다,190.53820929999893,None,190.53820929999893,None,190.53820929999893,None,190.53820929999893,None,191.39189160000024,None,191.39189160000024,191.8997158000002,,,,,,,,,,,,,,,,218,2022-05-17_15h35.24.816,FishGame,2022.1.1,60.02829733907445,
,24,넌 지혜로워,2,Orange,B,6.333333333333334,4.633333333333334,ScrollUp,ScrollDown,Orange.png,1,Positive,Incongruent,,,,,0,0,0,0,,,,,,,,,,,,,0,23,23,23,,,,,,,,,,,,,,,,,,,,,,,,,,,,,,,,,,,,,,,,,,,,,,,,,,,,,,,,,,,,,,,,,,,,,,,,,,,,,,,,,2,1.006602200000998,192.57420989999991,None,ScrollUp,정답입니다,192.57420989999991,None,192.57420989999991,None,192.57420989999991,None,192.57420989999991,None,193.43322850000004,None,193.43322850000004,193.93276259999948,,,,,,,,,,,,,,,,218,2022-05-17_15h35.24.816,FishGame,2022.1.1,60.02829733907445,
,25,넌 시끄러워,4,Green,A,2.833333333333333,3.033333333333333,ScrollDown,ScrollUp,Green.png,1,Negative,Incongruent,,,,,0,0,0,0,,,,,,,,,,,,,0,24,24,24,,,,,,,,,,,,,,,,,,,,,,,,,,,,,,,,,,,,,,,,,,,,,,,,,,,,,,,,,,,,,,,,,,,,,,,,,,,,,,,,,1.0061728358268738,1.0769548999996914,194.5962600999992,None,ScrollDown,정답입니다,194.5962600999992,None,194.5962600999992,None,194.5962600999992,None,194.5962600999992,None,195.53302129999975,None,195.53302129999975,196.0325370999999,,,,,,,,,,,,,,,,218,2022-05-17_15h35.24.816,FishGame,2022.1.1,60.02829733907445,
,26,넌 만사태평이야,3,Orange,B,4,4.333333333333333,ScrollUp,ScrollDown,Orange.png,1,Neutral,Neutral,,,,,0,0,0,0,,,,,,,,,,,,,0,25,25,25,,,,,,,,,,,,,,,,,,,,,,,,,,,,,,,,,,,,,,,,,,,,,,,,,,,,,,,,,,,,,,,,,,,,,,,,,,,,,,,,,1.9274691144625347,0.9998847999995633,196.70340459999898,None,ScrollUp,정답입니다,196.70340459999898,None,196.70340459999898,None,196.70340459999898,None,196.70340459999898,None,197.55636889999914,None,197.55636889999914,198.06556979999914,,,,,,,,,,,,,,,,218,2022-05-17_15h35.24.816,FishGame,2022.1.1,60.02829733907445,
,27,넌 붙임성있어,1,Green,A,5.708333333333333,5.633333333333334,ScrollDown,ScrollUp,Green.png,1,Positive,Congruent,,,,,0,0,0,0,,,,,,,,,,,,,0,26,26,26,,,,,,,,,,,,,,,,,,,,,,,,,,,,,,,,,,,,,,,,,,,,,,,,,,,,,,,,,,,,,,,,,,,,,,,,,,,,,,,,,1,1.0167722000005597,198.72784519999914,None,ScrollDown,정답입니다,198.72784519999914,None,198.72784519999914,None,198.72784519999914,None,198.72784519999914,None,199.60605729999952,None,199.60605729999952,200.1153450999991,,,,,,,,,,,,,,,,218,2022-05-17_15h35.24.816,FishGame,2022.1.1,60.02829733907445,
,28,넌 영리해,2,Green,A,6,4.033333333333333,ScrollDown,ScrollUp,Green.png,1,Positive,Congruent,,,,,0,0,0,0,,,,,,,,,,,,,0,27,27,27,,,,,,,,,,,,,,,,,,,,,,,,,,,,,,,,,,,,,,,,,,,,,,,,,,,,,,,,,,,,,,,,,,,,,,,,,,,,,,,,,1,1.050789499999155,200.78358939999998,None,ScrollDown,정답입니다,200.78358939999998,None,200.78358939999998,None,200.78358939999998,None,200.78358939999998,None,201.68905939999968,None,201.68905939999968,202.1983282000001,,,,,,,,,,,,,,,,218,2022-05-17_15h35.24.816,FishGame,2022.1.1,60.02829733907445,
,29,넌 열심이야,1,Orange,B,6.041666666666667,5.833333333333333,ScrollUp,ScrollDown,Orange.png,1,Positive,Incongruent,,,,,0,0,0,0,,,,,,,,,,,,,0,28,28,28,,,,,,,,,,,,,,,,,,,,,,,,,,,,,,,,,,,,,,,,,,,,,,,,,,,,,,,,,,,,,,,,,,,,,,,,,,,,,,,,,2,0.9257787999995344,202.85793229999945,None,ScrollUp,정답입니다,202.85793229999945,None,202.85793229999945,None,202.85793229999945,None,202.85793229999945,None,203.64834979999978,None,203.64834979999978,204.1483232999999,,,,,,,,,,,,,,,,218,2022-05-17_15h35.24.816,FishGame,2022.1.1,60.02829733907445,
,30,넌 인기없어,4,Orange,B,3,3.3,ScrollUp,ScrollDown,Orange.png,1,Negative,Congruent,,,,,0,0,0,0,,,,,,,,,,,,,0,29,29,29,,,,,,,,,,,,,,,,,,,,,,,,,,,,,,,,,,,,,,,,,,,,,,,,,,,,,,,,,,,,,,,,,,,,,,,,,,,,,,,,,2,1.0015495999996347,204.8028252999993,None,ScrollUp,정답입니다,204.8028252999993,None,204.8028252999993,None,204.8028252999993,None,204.8028252999993,None,205.67302369999925,None,205.67302369999925,206.18110159999924,,,,,,,,,,,,,,,,218,2022-05-17_15h35.24.816,FishGame,2022.1.1,60.02829733907445,
,31,넌 익살스러워,3,Green,A,4.708333333333334,4.833333333333333,ScrollDown,ScrollUp,Green.png,1,Neutral,Neutral,,,,,0,0,0,0,,,,,,,,,,,,,0,30,30,30,,,,,,,,,,,,,,,,,,,,,,,,,,,,,,,,,,,,,,,,,,,,,,,,,,,,,,,,,,,,,,,,,,,,,,,,,,,,,,,,,1,1.0487360000006447,206.839367999999,None,ScrollDown,정답입니다,206.839367999999,None,206.839367999999,None,206.839367999999,None,206.839367999999,None,207.75570890000017,None,207.75570890000017,208.26429610000014,,,,,,,,,,,,,,,,218,2022-05-17_15h35.24.816,FishGame,2022.1.1,60.02829733907445,
,32,넌 이기적이야,5,Orange,B,2.291666666666667,2.333333333333333,ScrollUp,ScrollDown,Orange.png,1,Negative,Congruent,,,,,0,0,0,0,,,,,,,,,,,,,0,31,31,31,,,,,,,,,,,,,,,,,,,,,,,,,,,,,,,,,,,,,,,,,,,,,,,,,,,,,,,,,,,,,,,,,,,,,,,,,,,,,,,,,2,1.1742730000005395,208.92147400000067,None,ScrollUp,정답입니다,208.92147400000067,None,208.92147400000067,None,208.92147400000067,None,208.92147400000067,None,209.96404729999995,None,209.96404729999995,210.46385480000026,,,,,,,,,,,,,,,,218,2022-05-17_15h35.24.816,FishGame,2022.1.1,60.02829733907445,
,33,나를 데려가줘,6,Orange,B,0,0,ScrollDown,ScrollUp,Orange.png,1,NonTarget,NonTarget,,,,,0,0,0,0,,,,,,,,,,,,,0,32,32,32,,,,,,,,,,,,,,,,,,,,,,,,,,,,,,,,,,,,,,,,,,,,,,,,,,,,,,,,,,,,,,,,,,,,,,,,,,,,,,,,,2,1.3255534999989322,211.12553169999956,None,ScrollUp,오답입니다,211.12553169999956,None,211.12553169999956,None,211.12553169999956,None,211.12553169999956,None,212.3161428000003,None,212.3161428000003,212.8303305999998,,,,,,,,,,,,,,,,218,2022-05-17_15h35.24.816,FishGame,2022.1.1,60.02829733907445,
,34,넌 기회주의자야,5,Green,A,2.875,2.133333333333333,ScrollDown,ScrollUp,Green.png,1,Negative,Incongruent,,,,,0,0,0,0,,,,,,,,,,,,,0,33,33,33,,,,,,,,,,,,,,,,,,,,,,,,,,,,,,,,,,,,,,,,,,,,,,,,,,,,,,,,,,,,,,,,,,,,,,,,,,,,,,,,,1,1.1633271999999124,213.49137390000033,None,ScrollDown,정답입니다,213.49137390000033,None,213.49137390000033,None,213.49137390000033,None,213.49137390000033,None,214.52007679999952,None,214.52007679999952,215.03002240000023,,,,,,,,,,,,,,,,218,2022-05-17_15h35.24.816,FishGame,2022.1.1,60.02829733907445,
,1,넌 미성숙해,4,Green,A,3,3.2,ScrollDown,ScrollUp,Green.png,2,Negative,Incongruent,,,,,0,0,0,0,,,,,,,,,,,,,,,,,0,0,0,0,,,,,,,,,,,,,,,,,,,,,,,,,,,,,,,,,,,,255.45834230000037,256.9579727,256.99130370000057,257.941217399999,257.9911635999997,258.9411132000005,258.9411132000005,None,,,,,,,,,,,,,,,,,,,,,,,,,,,,,,,,,,1,1.214437499998894,260.13635690000046,None,ScrollDown,정답입니다,260.13635690000046,None,260.13635690000046,None,260.13635690000046,None,260.13635690000046,None,261.1666060999996,None,261.1666060999996,261.6739988999998,215.53003139999964,None,215.53003139999964,None,0.3175926,-0.11666667,1,0,0,0.015852870001253905,None,245.52622659999906,None,,,218,2022-05-17_15h35.24.816,FishGame,2022.1.1,60.02829733907445,
,2,넌 반사회적이야,5,Orange,B,2.416666666666667,2.033333333333333,ScrollUp,ScrollDown,Orange.png,2,Negative,Congruent,,,,,0,0,0,0,,,,,,,,,,,,,,,,,0,1,1,1,,,,,,,,,,,,,,,,,,,,,,,,,,,,,,,,,,,,,,,,,,,,,,,,,,,,,,,,,,,,,,,,,,,,,,,,,,,,,2,1.0588963999998668,262.3364865000003,None,ScrollUp,정답입니다,262.3364865000003,None,262.3364865000003,None,262.3364865000003,None,262.3364865000003,None,263.2570899000002,None,263.2570899000002,263.7570904000004,,,,,,,,,,,,,,,,218,2022-05-17_15h35.24.816,FishGame,2022.1.1,60.02829733907445,
,3,넌 유능해,2,Green,A,6.208333333333333,4.433333333333334,ScrollDown,ScrollUp,Green.png,2,Positive,Congruent,,,,,0,0,0,0,,,,,,,,,,,,,,,,,0,2,2,2,,,,,,,,,,,,,,,,,,,,,,,,,,,,,,,,,,,,,,,,,,,,,,,,,,,,,,,,,,,,,,,,,,,,,,,,,,,,,1,0.8087686999988364,264.41897120000067,None,ScrollDown,정답입니다,264.41897120000067,None,264.41897120000067,None,264.41897120000067,None,264.41897120000067,None,265.0901572999992,None,265.0901572999992,265.5901414,,,,,,,,,,,,,,,,218,2022-05-17_15h35.24.816,FishGame,2022.1.1,60.02829733907445,
,4,넌 능숙해,2,Orange,B,5.666666666666667,4.733333333333333,ScrollUp,ScrollDown,Orange.png,2,Positive,Incongruent,,,,,0,0,0,0,,,,,,,,,,,,,,,,,0,3,3,3,,,,,,,,,,,,,,,,,,,,,,,,,,,,,,,,,,,,,,,,,,,,,,,,,,,,,,,,,,,,,,,,,,,,,,,,,,,,,2,0.967462799999339,266.24300819999917,None,ScrollUp,정답입니다,266.24300819999917,None,266.24300819999917,None,266.24300819999917,None,266.24300819999917,None,267.07981909999944,None,267.07981909999944,267.5898868000004,,,,,,,,,,,,,,,,218,2022-05-17_15h35.24.816,FishGame,2022.1.1,60.02829733907445,
,5,넌 진부해,4,Orange,B,2.458333333333333,3.166666666666667,ScrollUp,ScrollDown,Orange.png,2,Negative,Congruent,,,,,0,0,0,0,,,,,,,,,,,,,,,,,0,4,4,4,,,,,,,,,,,,,,,,,,,,,,,,,,,,,,,,,,,,,,,,,,,,,,,,,,,,,,,,,,,,,,,,,,,,,,,,,,,,,1.9845678806304932,0.9302563000001101,268.25332530000014,None,ScrollUp,정답입니다,268.25332530000014,None,268.25332530000014,None,268.25332530000014,None,268.25332530000014,None,269.0450053000004,None,269.0450053000004,269.55634009999994,,,,,,,,,,,,,,,,218,2022-05-17_15h35.24.816,FishGame,2022.1.1,60.02829733907445,
,6,나를 보내줘,6,Green,A,0,0,ScrollUp,ScrollDown,Green.png,2,NonTarget,NonTarget,,,,,0,0,0,0,,,,,,,,,,,,,,,,,0,5,5,5,,,,,,,,,,,,,,,,,,,,,,,,,,,,,,,,,,,,,,,,,,,,,,,,,,,,,,,,,,,,,,,,,,,,,,,,,,,,,1.817901223897934,1.2281487000000197,270.2186617999996,None,ScrollUp,정답입니다,270.2186617999996,None,270.2186617999996,None,270.2186617999996,None,270.2186617999996,None,271.3103018999991,None,271.3103018999991,271.8226422000007,,,,,,,,,,,,,,,,218,2022-05-17_15h35.24.816,FishGame,2022.1.1,60.02829733907445,
,7,넌 엄격해,3,Green,A,4.166666666666666,4.1,ScrollDown,ScrollUp,Green.png,2,Neutral,Neutral,,,,,0,0,0,0,,,,,,,,,,,,,,,,,0,6,6,6,,,,,,,,,,,,,,,,,,,,,,,,,,,,,,,,,,,,,,,,,,,,,,,,,,,,,,,,,,,,,,,,,,,,,,,,,,,,,1.0709876716136932,0.9838305000012042,272.4809537000001,None,ScrollDown,정답입니다,272.4809537000001,None,272.4809537000001,None,272.4809537000001,None,272.4809537000001,None,273.33108019999963,None,273.33108019999963,273.83908750000046,,,,,,,,,,,,,,,,218,2022-05-17_15h35.24.816,FishGame,2022.1.1,60.02829733907445,
,8,나를 보내줘,6,Green,A,0,0,ScrollUp,ScrollDown,Green.png,2,NonTarget,NonTarget,,,,,0,0,0,0,,,,,,,,,,,,,,,,,0,7,7,7,,,,,,,,,,,,,,,,,,,,,,,,,,,,,,,,,,,,,,,,,,,,,,,,,,,,,,,,,,,,,,,,,,,,,,,,,,,,,2,1.1844492000000173,274.487389599999,None,ScrollUp,정답입니다,274.487389599999,None,274.487389599999,None,274.487389599999,None,274.487389599999,None,275.5469073000004,None,275.5469073000004,276.0554448999992,,,,,,,,,,,,,,,,218,2022-05-17_15h35.24.816,FishGame,2022.1.1,60.02829733907445,
,9,넌 대담해,3,Orange,B,4.875,4.866666666666666,ScrollUp,ScrollDown,Orange.png,2,Neutral,Neutral,,,,,0,0,0,0,,,,,,,,,,,,,,,,,0,8,8,8,,,,,,,,,,,,,,,,,,,,,,,,,,,,,,,,,,,,,,,,,,,,,,,,,,,,,,,,,,,,,,,,,,,,,,,,,,,,,1.939814825852712,1.150956600000427,276.7195680999994,None,ScrollUp,정답입니다,276.7195680999994,None,276.7195680999994,None,276.7195680999994,None,276.7195680999994,None,277.7300636,None,277.7300636,278.23849879999943,,,,,,,,,,,,,,,,218,2022-05-17_15h35.24.816,FishGame,2022.1.1,60.02829733907445,
,10,넌 꾸준해,1,Green,A,5.916666666666668,5.8,ScrollDown,ScrollUp,Green.png,2,Positive,Congruent,,,,,0,0,0,0,,,,,,,,,,,,,,,,,0,9,9,9,,,,,,,,,,,,,,,,,,,,,,,,,,,,,,,,,,,,,,,,,,,,,,,,,,,,,,,,,,,,,,,,,,,,,,,,,,,,,1,1.224439200001143,278.8981012999993,None,ScrollDown,정답입니다,278.8981012999993,None,278.8981012999993,None,278.8981012999993,None,278.8981012999993,None,279.9884344000002,None,279.9884344000002,280.48824029999923,,,,,,,,,,,,,,,,218,2022-05-17_15h35.24.816,FishGame,2022.1.1,60.02829733907445,
,11,나를 데려가줘,6,Orange,B,0,0,ScrollDown,ScrollUp,Orange.png,2,NonTarget,NonTarget,,,,,0,0,0,0,,,,,,,,,,,,,,,,,0,10,10,10,,,,,,,,,,,,,,,,,,,,,,,,,,,,,,,,,,,,,,,,,,,,,,,,,,,,,,,,,,,,,,,,,,,,,,,,,,,,,1,1.2764549999992596,281.1460900000002,None,ScrollDown,정답입니다,281.1460900000002,None,281.1460900000002,None,281.1460900000002,None,281.1460900000002,None,282.2881431000005,None,282.2881431000005,282.787923599999,,,,,,,,,,,,,,,,218,2022-05-17_15h35.24.816,FishGame,2022.1.1,60.02829733907445,
,12,넌 독선적이야,5,Green,A,2.458333333333333,1.933333333333333,ScrollDown,ScrollUp,Green.png,2,Negative,Incongruent,,,,,0,0,0,0,,,,,,,,,,,,,,,,,0,11,11,11,,,,,,,,,,,,,,,,,,,,,,,,,,,,,,,,,,,,,,,,,,,,,,,,,,,,,,,,,,,,,,,,,,,,,,,,,,,,,1,1.2562878999997338,283.4447925000004,None,ScrollDown,정답입니다,283.4447925000004,None,283.4447925000004,None,283.4447925000004,None,283.4447925000004,None,284.5742224000005,None,284.5742224000005,285.0877681000002,,,,,,,,,,,,,,,,218,2022-05-17_15h35.24.816,FishGame,2022.1.1,60.02829733907445,
,13,나를 보내줘,6,Green,A,0,0,ScrollUp,ScrollDown,Green.png,2,NonTarget,NonTarget,,,,,0,0,0,0,,,,,,,,,,,,,,,,,0,12,12,12,,,,,,,,,,,,,,,,,,,,,,,,,,,,,,,,,,,,,,,,,,,,,,,,,,,,,,,,,,,,,,,,,,,,,,,,,,,,,1.9984568059444427,1.1228112999997393,285.7451946000001,None,ScrollUp,정답입니다,285.7451946000001,None,285.7451946000001,None,285.7451946000001,None,285.7451946000001,None,286.73747749999893,None,286.73747749999893,287.23730590000014,,,,,,,,,,,,,,,,218,2022-05-17_15h35.24.816,FishGame,2022.1.1,60.02829733907445,
,14,넌 책임감있어,1,Orange,B,6.347826086956522,6,ScrollUp,ScrollDown,Orange.png,2,Positive,Incongruent,,,,,0,0,0,0,,,,,,,,,,,,,,,,,0,13,13,13,,,,,,,,,,,,,,,,,,,,,,,,,,,,,,,,,,,,,,,,,,,,,,,,,,,,,,,,,,,,,,,,,,,,,,,,,,,,,2,1.2484318999995594,287.907666699999,None,ScrollUp,정답입니다,287.907666699999,None,287.907666699999,None,287.907666699999,None,287.907666699999,None,289.0113868999997,None,289.0113868999997,289.52040099999977,,,,,,,,,,,,,,,,218,2022-05-17_15h35.24.816,FishGame,2022.1.1,60.02829733907445,
,15,넌 문학적이야,3,Green,A,4.708333333333334,4.333333333333333,ScrollDown,ScrollUp,Green.png,2,Neutral,Neutral,,,,,0,0,0,0,,,,,,,,,,,,,,,,,0,14,14,14,,,,,,,,,,,,,,,,,,,,,,,,,,,,,,,,,,,,,,,,,,,,,,,,,,,,,,,,,,,,,,,,,,,,,,,,,,,,,1.0540123681227367,0.8968370999991748,290.1785223000006,None,ScrollDown,정답입니다,290.1785223000006,None,290.1785223000006,None,290.1785223000006,None,290.1785223000006,None,290.94307149999986,None,290.94307149999986,291.4534263000005,,,,,,,,,,,,,,,,218,2022-05-17_15h35.24.816,FishGame,2022.1.1,60.02829733907445,
,16,넌 재미있어,1,Orange,B,5.875,5.7,ScrollUp,ScrollDown,Orange.png,2,Positive,Incongruent,,,,,0,0,0,0,,,,,,,,,,,,,,,,,0,15,15,15,,,,,,,,,,,,,,,,,,,,,,,,,,,,,,,,,,,,,,,,,,,,,,,,,,,,,,,,,,,,,,,,,,,,,,,,,,,,,1.9104938358068466,0.9597309000000678,292.1103662000005,None,ScrollUp,정답입니다,292.1103662000005,None,292.1103662000005,None,292.1103662000005,None,292.1103662000005,None,292.93658870000036,None,292.93658870000036,293.4365412999996,,,,,,,,,,,,,,,,218,2022-05-17_15h35.24.816,FishGame,2022.1.1,60.02829733907445,
,17,나를 데려가줘,6,Orange,B,0,0,ScrollDown,ScrollUp,Orange.png,2,NonTarget,NonTarget,,,,,0,0,0,0,,,,,,,,,,,,,,,,,0,16,16,16,,,,,,,,,,,,,,,,,,,,,,,,,,,,,,,,,,,,,,,,,,,,,,,,,,,,,,,,,,,,,,,,,,,,,,,,,,,,,1,1.418869299999642,294.0967681000002,None,ScrollDown,정답입니다,294.0967681000002,None,294.0967681000002,None,294.0967681000002,None,294.0967681000002,None,295.3791125000007,None,295.3791125000007,295.8861548999994,,,,,,,,,,,,,,,,218,2022-05-17_15h35.24.816,FishGame,2022.1.1,60.02829733907445,
,18,넌 협력적이야,1,Green,A,5.625,5.633333333333334,ScrollDown,ScrollUp,Green.png,2,Positive,Congruent,,,,,0,0,0,0,,,,,,,,,,,,,,,,,0,17,17,17,,,,,,,,,,,,,,,,,,,,,,,,,,,,,,,,,,,,,,,,,,,,,,,,,,,,,,,,,,,,,,,,,,,,,,,,,,,,,1.0509259402751923,1.4342830999994476,296.5432142999998,None,ScrollDown,정답입니다,296.5432142999998,None,296.5432142999998,None,296.5432142999998,None,296.5432142999998,None,297.8444204000007,None,297.8444204000007,298.3525279000005,,,,,,,,,,,,,,,,218,2022-05-17_15h35.24.816,FishGame,2022.1.1,60.02829733907445,
,19,넌 평범해,3,Orange,B,4.333333333333332,4.233333333333333,ScrollUp,ScrollDown,Orange.png,2,Neutral,Neutral,,,,,0,0,0,0,,,,,,,,,,,,,,,,,0,18,18,18,,,,,,,,,,,,,,,,,,,,,,,,,,,,,,,,,,,,,,,,,,,,,,,,,,,,,,,,,,,,,,,,,,,,,,,,,,,,,1.904320980111758,1.1942025999996986,299.01067709999916,None,ScrollUp,정답입니다,299.01067709999916,None,299.01067709999916,None,299.01067709999916,None,299.01067709999916,None,300.0693907999994,None,300.0693907999994,300.5689781000001,,,,,,,,,,,,,,,,218,2022-05-17_15h35.24.816,FishGame,2022.1.1,60.02829733907445,
,20,넌 오만해,5,Green,A,2.333333333333333,2,ScrollDown,ScrollUp,Green.png,2,Negative,Incongruent,,,,,0,0,0,0,,,,,,,,,,,,,,,,,0,19,19,19,,,,,,,,,,,,,,,,,,,,,,,,,,,,,,,,,,,,,,,,,,,,,,,,,,,,,,,,,,,,,,,,,,,,,,,,,,,,,1,1.008871199999703,301.2257061,None,ScrollDown,정답입니다,301.2257061,None,301.2257061,None,301.2257061,None,301.2257061,None,302.1023994999996,None,302.1023994999996,302.60195550000026,,,,,,,,,,,,,,,,218,2022-05-17_15h35.24.816,FishGame,2022.1.1,60.02829733907445,
,21,넌 운이없어,4,Orange,B,3,3.466666666666667,ScrollUp,ScrollDown,Orange.png,2,Negative,Congruent,,,,,0,0,0,0,,,,,,,,,,,,,,,,,0,20,20,20,,,,,,,,,,,,,,,,,,,,,,,,,,,,,,,,,,,,,,,,,,,,,,,,,,,,,,,,,,,,,,,,,,,,,,,,,,,,,1.8410493830839794,1.2096486000009463,303.2668075999991,None,ScrollUp,정답입니다,303.2668075999991,None,303.2668075999991,None,303.2668075999991,None,303.2668075999991,None,304.3357414000002,None,304.3357414000002,304.8351461000002,,,,,,,,,,,,,,,,218,2022-05-17_15h35.24.816,FishGame,2022.1.1,60.02829733907445,
,22,넌 창조적이야,2,Orange,B,6.125,4.633333333333334,ScrollUp,ScrollDown,Orange.png,2,Positive,Incongruent,,,,,0,0,0,0,,,,,,,,,,,,,,,,,0,21,21,21,,,,,,,,,,,,,,,,,,,,,,,,,,,,,,,,,,,,,,,,,,,,,,,,,,,,,,,,,,,,,,,,,,,,,,,,,,,,,1.8425925970077515,1.1635696000012103,305.4993529000003,None,ScrollUp,정답입니다,305.4993529000003,None,305.4993529000003,None,305.4993529000003,None,305.4993529000003,None,306.5242672000004,None,306.5242672000004,307.03481250000004,,,,,,,,,,,,,,,,218,2022-05-17_15h35.24.816,FishGame,2022.1.1,60.02829733907445,
,23,나를 보내줘,6,Green,A,0,0,ScrollUp,ScrollDown,Green.png,2,NonTarget,NonTarget,,,,,0,0,0,0,,,,,,,,,,,,,,,,,0,22,22,22,,,,,,,,,,,,,,,,,,,,,,,,,,,,,,,,,,,,,,,,,,,,,,,,,,,,,,,,,,,,,,,,,,,,,,,,,,,,,1.8811728457609813,1.2492360000014742,307.68066890000046,None,ScrollUp,정답입니다,307.68066890000046,None,307.68066890000046,None,307.68066890000046,None,307.68066890000046,None,308.8085879999999,None,308.8085879999999,309.317825099999,,,,,,,,,,,,,,,,218,2022-05-17_15h35.24.816,FishGame,2022.1.1,60.02829733907445,
,24,넌 통찰력있어,2,Green,A,6.5,4.8,ScrollDown,ScrollUp,Green.png,2,Positive,Congruent,,,,,0,0,0,0,,,,,,,,,,,,,,,,,0,23,23,23,,,,,,,,,,,,,,,,,,,,,,,,,,,,,,,,,,,,,,,,,,,,,,,,,,,,,,,,,,,,,,,,,,,,,,,,,,,,,1.080246905485789,2.0723367999999027,309.9784137000006,None,ScrollDown,정답입니다,309.9784137000006,None,309.9784137000006,None,309.9784137000006,None,309.9784137000006,None,311.91145359999973,None,311.91145359999973,312.41742220000015,,,,,,,,,,,,,,,,218,2022-05-17_15h35.24.816,FishGame,2022.1.1,60.02829733907445,
,25,넌 경솔해,5,Orange,B,2.458333333333333,2.266666666666667,ScrollUp,ScrollDown,Orange.png,2,Negative,Congruent,,,,,0,0,0,0,,,,,,,,,,,,,,,,,0,24,24,24,,,,,,,,,,,,,,,,,,,,,,,,,,,,,,,,,,,,,,,,,,,,,,,,,,,,,,,,,,,,,,,,,,,,,,,,,,,,,1.8858024626970291,1.2273141000005126,313.0865286999997,None,ScrollUp,정답입니다,313.0865286999997,None,313.0865286999997,None,313.0865286999997,None,313.0865286999997,None,314.1673064000006,None,314.1673064000006,314.6670911000001,,,,,,,,,,,,,,,,218,2022-05-17_15h35.24.816,FishGame,2022.1.1,60.02829733907445,
,26,넌 초조해,4,Green,A,2.916666666666667,3.133333333333333,ScrollDown,ScrollUp,Green.png,2,Negative,Incongruent,,,,,0,0,0,0,,,,,,,,,,,,,,,,,0,25,25,25,,,,,,,,,,,,,,,,,,,,,,,,,,,,,,,,,,,,,,,,,,,,,,,,,,,,,,,,,,,,,,,,,,,,,,,,,,,,,1.0154321193695068,1.1665049999992334,315.3237714000006,None,ScrollDown,정답입니다,315.3237714000006,None,315.3237714000006,None,315.3237714000006,None,315.3237714000006,None,316.357221799999,None,316.357221799999,316.8670063999998,,,,,,,,,,,,,,,,218,2022-05-17_15h35.24.816,FishGame,2022.1.1,60.02829733907445,
,27,넌 무관심해,4,Orange,B,2.833333333333333,2.9,ScrollUp,ScrollDown,Orange.png,2,Negative,Congruent,,,,,0,0,0,0,,,,,,,,,,,,,,,,,0,26,26,26,,,,,,,,,,,,,,,,,,,,,,,,,,,,,,,,,,,,,,,,,,,,,,,,,,,,,,,,,,,,,,,,,,,,,,,,,,,,,1.8827160596847534,1.1851282999996329,317.52296749999914,None,ScrollUp,정답입니다,317.52296749999914,None,317.52296749999914,None,317.52296749999914,None,317.52296749999914,None,318.57578339999964,None,318.57578339999964,319.08318429999963,,,,,,,,,,,,,,,,218,2022-05-17_15h35.24.816,FishGame,2022.1.1,60.02829733907445,
,28,넌 감성적이야,3,Orange,B,4.125,4.166666666666667,ScrollUp,ScrollDown,Orange.png,2,Neutral,Neutral,,,,,0,0,0,0,,,,,,,,,,,,,,,,,0,27,27,27,,,,,,,,,,,,,,,,,,,,,,,,,,,,,,,,,,,,,,,,,,,,,,,,,,,,,,,,,,,,,,,,,,,,,,,,,,,,,1.7561728407939274,0.9521150999989914,319.75600850000046,None,ScrollUp,정답입니다,319.75600850000046,None,319.75600850000046,None,319.75600850000046,None,319.75600850000046,None,320.5573175999998,None,320.5573175999998,321.0661820999994,,,,,,,,,,,,,,,,218,2022-05-17_15h35.24.816,FishGame,2022.1.1,60.02829733907445,
,29,넌 배려심있어,1,Green,A,6.083333333333333,5.5,ScrollDown,ScrollUp,Green.png,2,Positive,Congruent,,,,,0,0,0,0,,,,,,,,,,,,,,,,,0,28,28,28,,,,,,,,,,,,,,,,,,,,,,,,,,,,,,,,,,,,,,,,,,,,,,,,,,,,,,,,,,,,,,,,,,,,,,,,,,,,,1.1018518507480621,1.096935300000041,321.72276260000035,None,ScrollDown,정답입니다,321.72276260000035,None,321.72276260000035,None,321.72276260000035,None,321.72276260000035,None,322.6877609000003,None,322.6877609000003,323.1993562000007,,,,,,,,,,,,,,,,218,2022-05-17_15h35.24.816,FishGame,2022.1.1,60.02829733907445,
,30,넌 숨김없어,3,Green,A,4.5,4.933333333333334,ScrollDown,ScrollUp,Green.png,2,Neutral,Neutral,,,,,0,0,0,0,,,,,,,,,,,,,,,,,0,29,29,29,,,,,,,,,,,,,,,,,,,,,,,,,,,,,,,,,,,,,,,,,,,,,,,,,,,,,,,,,,,,,,,,,,,,,,,,,,,,,1.0462962985038757,1.1189475000010134,323.85774429999947,None,ScrollDown,정답입니다,323.85774429999947,None,323.85774429999947,None,323.85774429999947,None,323.85774429999947,None,324.84309699999903,None,324.84309699999903,325.3490110999992,,,,,,,,,,,,,,,,218,2022-05-17_15h35.24.816,FishGame,2022.1.1,60.02829733907445,
,31,넌 훌륭해,2,Orange,B,5.916666666666667,4.033333333333333,ScrollUp,ScrollDown,Orange.png,2,Positive,Incongruent,,,,,0,0,0,0,,,,,,,,,,,,,,,,,0,30,30,30,,,,,,,,,,,,,,,,,,,,,,,,,,,,,,,,,,,,,,,,,,,,,,,,,,,,,,,,,,,,,,,,,,,,,,,,,,,,,1.9305555423100789,1.1466005000002042,326.0276601000005,None,ScrollUp,정답입니다,326.0276601000005,None,326.0276601000005,None,326.0276601000005,None,326.0276601000005,None,327.02188249999926,None,327.02188249999926,327.5321592,,,,,,,,,,,,,,,,218,2022-05-17_15h35.24.816,FishGame,2022.1.1,60.02829733907445,
,32,넌 슬기로워,2,Green,A,6.166666666666667,4.1,ScrollDown,ScrollUp,Green.png,2,Positive,Congruent,,,,,0,0,0,0,,,,,,,,,,,,,,,,,0,31,31,31,,,,,,,,,,,,,,,,,,,,,,,,,,,,,,,,,,,,,,,,,,,,,,,,,,,,,,,,,,,,,,,,,,,,,,,,,,,,,1.1095678955316544,1.0444071999991138,328.1888170000002,None,ScrollDown,정답입니다,328.1888170000002,None,328.1888170000002,None,328.1888170000002,None,328.1888170000002,None,329.0986606999995,None,329.0986606999995,329.5985471999993,,,,,,,,,,,,,,,,218,2022-05-17_15h35.24.816,FishGame,2022.1.1,60.02829733907445,
,33,넌 냉혹해,5,Green,A,2.583333333333333,2.1,ScrollDown,ScrollUp,Green.png,2,Negative,Incongruent,,,,,0,0,0,0,,,,,,,,,,,,,,,,,0,32,32,32,,,,,,,,,,,,,,,,,,,,,,,,,,,,,,,,,,,,,,,,,,,,,,,,,,,,,,,,,,,,,,,,,,,,,,,,,,,,,1,1.17796350000026,330.25702660000024,None,ScrollDown,정답입니다,330.25702660000024,None,330.25702660000024,None,330.25702660000024,None,330.25702660000024,None,331.2984099999994,None,331.2984099999994,331.7981688,,,,,,,,,,,,,,,,218,2022-05-17_15h35.24.816,FishGame,2022.1.1,60.02829733907445,
,34,나를 데려가줘,6,Orange,B,0,0,ScrollDown,ScrollUp,Orange.png,2,NonTarget,NonTarget,,,,,0,0,0,0,,,,,,,,,,,,,,,,,0,33,33,33,,,,,,,,,,,,,,,,,,,,,,,,,,,,,,,,,,,,,,,,,,,,,,,,,,,,,,,,,,,,,,,,,,,,,,,,,,,,,2,1.0435723999999027,332.45248679999895,None,ScrollUp,오답입니다,332.45248679999895,None,332.45248679999895,None,332.45248679999895,None,332.45248679999895,None,333.36655190000056,None,333.36655190000056,333.88126139999986,,,,,,,,,,,,,,,,218,2022-05-17_15h35.24.816,FishGame,2022.1.1,60.02829733907445,
,35,넌 편파적이야,5,Orange,B,2.125,2,ScrollUp,ScrollDown,Orange.png,2,Negative,Congruent,,,,,0,0,0,0,,,,,,,,,,,,,,,,,0,34,34,34,,,,,,,,,,,,,,,,,,,,,,,,,,,,,,,,,,,,,,,,,,,,,,,,,,,,,,,,,,,,,,,,,,,,,,,,,,,,,2,1.4347862000013265,334.5472800000007,None,ScrollUp,정답입니다,334.5472800000007,None,334.5472800000007,None,334.5472800000007,None,334.5472800000007,None,335.8411288999996,None,335.8411288999996,336.34766019999915,,,,,,,,,,,,,,,,218,2022-05-17_15h35.24.816,FishGame,2022.1.1,60.02829733907445,
,36,넌 슬퍼,4,Green,A,2.583333333333333,3.066666666666667,ScrollDown,ScrollUp,Green.png,2,Negative,Incongruent,,,,,0,0,0,0,,,,,,,,,,,,,,,,,0,35,35,35,,,,,,,,,,,,,,,,,,,,,,,,,,,,,,,,,,,,,,,,,,,,,,,,,,,,,,,,,,,,,,,,,,,,,,,,,,,,,1,1.1652242000000115,337.0121077999993,None,ScrollDown,정답입니다,337.0121077999993,None,337.0121077999993,None,337.0121077999993,None,337.0121077999993,None,338.0367303999992,None,338.0367303999992,338.5473191000001,,,,,,,,,,,,,,,,218,2022-05-17_15h35.24.816,FishGame,2022.1.1,60.02829733907445,
,37,나를 데려가줘,6,Orange,B,0,0,ScrollDown,ScrollUp,Orange.png,2,NonTarget,NonTarget,,,,,0,0,0,0,,,,,,,,,,,,,,,,,0,36,36,36,,,,,,,,,,,,,,,,,,,,,,,,,,,,,,,,,,,,,,,,,,,,,,,,,,,,,,,,,,,,,,,,,,,,,,,,,,,,,1.0108024775981903,1.1983173999997234,339.2029419999999,None,ScrollDown,정답입니다,339.2029419999999,None,339.2029419999999,None,339.2029419999999,None,339.2029419999999,None,340.2724808999992,None,340.2724808999992,340.7803872000004,,,,,,,,,,,,,,,,218,2022-05-17_15h35.24.816,FishGame,2022.1.1,60.02829733907445,
,38,넌 친절해,1,Orange,B,6.041666666666667,5.533333333333333,ScrollUp,ScrollDown,Orange.png,2,Positive,Incongruent,,,,,0,0,0,0,,,,,,,,,,,,,,,,,0,37,37,37,,,,,,,,,,,,,,,,,,,,,,,,,,,,,,,,,,,,,,,,,,,,,,,,,,,,,,,,,,,,,,,,,,,,,,,,,,,,,2,1.3783989000003203,341.4496431000007,None,ScrollUp,정답입니다,341.4496431000007,None,341.4496431000007,None,341.4496431000007,None,341.4496431000007,None,342.68759039999895,None,342.68759039999895,343.1967588999996,,,,,,,,,,,,,,,,218,2022-05-17_15h35.24.816,FishGame,2022.1.1,60.02829733907445,
,1,넌 엉성해,4,Green,A,3,3.3,ScrollDown,ScrollUp,Green.png,3,Negative,Incongruent,,,,,0,0,0,0,,,,,,,,,,,,,,,,,,,,,0,0,0,0,,,,,,,,,,,,,,,,,,,,,,,,,,,,,,,,379.1091686,380.6087243000002,380.64197989999957,381.59183420000045,381.6419722999999,382.5917778000003,382.5917778000003,None,,,,,,,,,,,,,,,,,,,,,,,,,,,,,,,,,,1,1.171062699999311,383.77665759999945,None,ScrollDown,정답입니다,383.77665759999945,None,383.77665759999945,None,383.77665759999945,None,383.77665759999945,None,384.7749225999996,None,384.7749225999996,385.2746958000007,343.69678059999933,None,343.69678059999933,None,0.30648148,-0.09259259,1,0,0,0.01616577000095276,None,373.7094780000007,None,,,218,2022-05-17_15h35.24.816,FishGame,2022.1.1,60.02829733907445,
,2,나를 보내줘,6,Green,A,0,0,ScrollUp,ScrollDown,Green.png,3,NonTarget,NonTarget,,,,,0,0,0,0,,,,,,,,,,,,,,,,,,,,,0,1,1,1,,,,,,,,,,,,,,,,,,,,,,,,,,,,,,,,,,,,,,,,,,,,,,,,,,,,,,,,,,,,,,,,,,,,,,,,,2,1.1985585000002175,385.9254251000002,None,ScrollUp,정답입니다,385.9254251000002,None,385.9254251000002,None,385.9254251000002,None,385.9254251000002,None,386.99632369999927,None,386.99632369999927,387.507668799999,,,,,,,,,,,,,,,,218,2022-05-17_15h35.24.816,FishGame,2022.1.1,60.02829733907445,
,3,넌 활발해,1,Orange,B,5.666666666666667,5.6,ScrollUp,ScrollDown,Orange.png,3,Positive,Incongruent,,,,,0,0,0,0,,,,,,,,,,,,,,,,,,,,,0,2,2,2,,,,,,,,,,,,,,,,,,,,,,,,,,,,,,,,,,,,,,,,,,,,,,,,,,,,,,,,,,,,,,,,,,,,,,,,,2,1.2020116999992752,388.1729438000002,None,ScrollUp,정답입니다,388.1729438000002,None,388.1729438000002,None,388.1729438000002,None,388.1729438000002,None,389.23258259999966,None,389.23258259999966,389.74068369999986,,,,,,,,,,,,,,,,218,2022-05-17_15h35.24.816,FishGame,2022.1.1,60.02829733907445,
,4,넌 논리적이야,2,Green,A,5.666666666666666,4.633333333333334,ScrollDown,ScrollUp,Green.png,3,Positive,Congruent,,,,,0,0,0,0,,,,,,,,,,,,,,,,,,,,,0,3,3,3,,,,,,,,,,,,,,,,,,,,,,,,,,,,,,,,,,,,,,,,,,,,,,,,,,,,,,,,,,,,,,,,,,,,,,,,,1,1.5839293999997608,390.39878429999953,None,ScrollDown,정답입니다,390.39878429999953,None,390.39878429999953,None,390.39878429999953,None,390.39878429999953,None,391.8475577999998,None,391.8475577999998,392.3572494,,,,,,,,,,,,,,,,218,2022-05-17_15h35.24.816,FishGame,2022.1.1,60.02829733907445,
,5,넌 과묵해,3,Green,A,3.875,4.4,ScrollDown,ScrollUp,Green.png,3,Neutral,Neutral,,,,,0,0,0,0,,,,,,,,,,,,,,,,,,,,,0,4,4,4,,,,,,,,,,,,,,,,,,,,,,,,,,,,,,,,,,,,,,,,,,,,,,,,,,,,,,,,,,,,,,,,,,,,,,,,,1,1.211166700000831,392.99970360000043,None,ScrollDown,정답입니다,392.99970360000043,None,392.99970360000043,None,392.99970360000043,None,392.99970360000043,None,394.09054789999936,None,394.09054789999936,394.5900526000005,,,,,,,,,,,,,,,,218,2022-05-17_15h35.24.816,FishGame,2022.1.1,60.02829733907445,
,6,나를 데려가줘,6,Orange,B,0,0,ScrollDown,ScrollUp,Orange.png,3,NonTarget,NonTarget,,,,,0,0,0,0,,,,,,,,,,,,,,,,,,,,,0,5,5,5,,,,,,,,,,,,,,,,,,,,,,,,,,,,,,,,,,,,,,,,,,,,,,,,,,,,,,,,,,,,,,,,,,,,,,,,,1.060185174147288,1.1612188999988575,395.2516135999995,None,ScrollDown,정답입니다,395.2516135999995,None,395.2516135999995,None,395.2516135999995,None,395.2516135999995,None,396.2750436999995,None,396.2750436999995,396.7898005999996,,,,,,,,,,,,,,,,218,2022-05-17_15h35.24.816,FishGame,2022.1.1,60.02829733907445,
,7,넌 미숙해,4,Orange,B,3,3,ScrollUp,ScrollDown,Orange.png,3,Negative,Congruent,,,,,0,0,0,0,,,,,,,,,,,,,,,,,,,,,0,6,6,6,,,,,,,,,,,,,,,,,,,,,,,,,,,,,,,,,,,,,,,,,,,,,,,,,,,,,,,,,,,,,,,,,,,,,,,,,1.9891975224018097,0.9438628000007157,397.4675153999997,None,ScrollUp,정답입니다,397.4675153999997,None,397.4675153999997,None,397.4675153999997,None,397.4675153999997,None,398.25897989999976,None,398.25897989999976,398.77283929999976,,,,,,,,,,,,,,,,218,2022-05-17_15h35.24.816,FishGame,2022.1.1,60.02829733907445,
,8,나를 보내줘,6,Green,A,0,0,ScrollUp,ScrollDown,Green.png,3,NonTarget,NonTarget,,,,,0,0,0,0,,,,,,,,,,,,,,,,,,,,,0,7,7,7,,,,,,,,,,,,,,,,,,,,,,,,,,,,,,,,,,,,,,,,,,,,,,,,,,,,,,,,,,,,,,,,,,,,,,,,,1.9151234527428944,1.1100996999994095,399.42198219999955,None,ScrollUp,정답입니다,399.42198219999955,None,399.42198219999955,None,399.42198219999955,None,399.42198219999955,None,400.4090163000001,None,400.4090163000001,400.92258760000004,,,,,,,,,,,,,,,,218,2022-05-17_15h35.24.816,FishGame,2022.1.1,60.02829733907445,
,9,넌 자신만만해,3,Orange,B,4.833333333333334,4.333333333333333,ScrollUp,ScrollDown,Orange.png,3,Neutral,Neutral,,,,,0,0,0,0,,,,,,,,,,,,,,,,,,,,,0,8,8,8,,,,,,,,,,,,,,,,,,,,,,,,,,,,,,,,,,,,,,,,,,,,,,,,,,,,,,,,,,,,,,,,,,,,,,,,,1.9583333432674408,0.8765339000001404,401.57357579999916,None,ScrollUp,정답입니다,401.57357579999916,None,401.57357579999916,None,401.57357579999916,None,401.57357579999916,None,402.32259069999964,None,402.32259069999964,402.8223801999993,,,,,,,,,,,,,,,,218,2022-05-17_15h35.24.816,FishGame,2022.1.1,60.02829733907445,
,10,넌 탐욕스러워,5,Green,A,2.25,2.1,ScrollDown,ScrollUp,Green.png,3,Negative,Incongruent,,,,,0,0,0,0,,,,,,,,,,,,,,,,,,,,,0,9,9,9,,,,,,,,,,,,,,,,,,,,,,,,,,,,,,,,,,,,,,,,,,,,,,,,,,,,,,,,,,,,,,,,,,,,,,,,,1.0308642089366913,0.9321125999995274,403.4847759000004,None,ScrollDown,정답입니다,403.4847759000004,None,403.4847759000004,None,403.4847759000004,None,403.4847759000004,None,404.28009849999944,None,404.28009849999944,404.78873869999916,,,,,,,,,,,,,,,,218,2022-05-17_15h35.24.816,FishGame,2022.1.1,60.02829733907445,
,11,넌 인기있어,2,Green,A,5.458333333333333,4.5,ScrollDown,ScrollUp,Green.png,3,Positive,Congruent,,,,,0,0,0,0,,,,,,,,,,,,,,,,,,,,,0,10,10,10,,,,,,,,,,,,,,,,,,,,,,,,,,,,,,,,,,,,,,,,,,,,,,,,,,,,,,,,,,,,,,,,,,,,,,,,,1.162037044763565,0.8077556999996887,405.44057789999897,None,ScrollDown,정답입니다,405.44057789999897,None,405.44057789999897,None,405.44057789999897,None,405.44057789999897,None,406.12216830000034,None,406.12216830000034,406.62182889999895,,,,,,,,,,,,,,,,218,2022-05-17_15h35.24.816,FishGame,2022.1.1,60.02829733907445,
,12,나를 데려가줘,6,Orange,B,0,0,ScrollDown,ScrollUp,Orange.png,3,NonTarget,NonTarget,,,,,0,0,0,0,,,,,,,,,,,,,,,,,,,,,0,11,11,11,,,,,,,,,,,,,,,,,,,,,,,,,,,,,,,,,,,,,,,,,,,,,,,,,,,,,,,,,,,,,,,,,,,,,,,,,1.1049382785956066,1.0276400999991893,407.27817349999896,None,ScrollDown,정답입니다,407.27817349999896,None,407.27817349999896,None,407.27817349999896,None,407.27817349999896,None,408.1759669000003,None,408.1759669000003,408.6883488000003,,,,,,,,,,,,,,,,218,2022-05-17_15h35.24.816,FishGame,2022.1.1,60.02829733907445,
,13,넌 뛰어나,2,Orange,B,6.166666666666667,4,ScrollUp,ScrollDown,Orange.png,3,Positive,Incongruent,,,,,0,0,0,0,,,,,,,,,,,,,,,,,,,,,0,12,12,12,,,,,,,,,,,,,,,,,,,,,,,,,,,,,,,,,,,,,,,,,,,,,,,,,,,,,,,,,,,,,,,,,,,,,,,,,1.9706790049870808,1.2171367999999347,409.3448315000005,None,ScrollUp,정답입니다,409.3448315000005,None,409.3448315000005,None,409.3448315000005,None,409.3448315000005,None,410.42811210000036,None,410.42811210000036,410.93791969999984,,,,,,,,,,,,,,,,218,2022-05-17_15h35.24.816,FishGame,2022.1.1,60.02829733907445,
,14,넌 낙관적이야,1,Green,A,5.75,5.8,ScrollDown,ScrollUp,Green.png,3,Positive,Congruent,,,,,0,0,0,0,,,,,,,,,,,,,,,,,,,,,0,13,13,13,,,,,,,,,,,,,,,,,,,,,,,,,,,,,,,,,,,,,,,,,,,,,,,,,,,,,,,,,,,,,,,,,,,,,,,,,1,1.0268973000002006,411.5948196999998,None,ScrollDown,정답입니다,411.5948196999998,None,411.5948196999998,None,411.5948196999998,None,411.5948196999998,None,412.4910911999996,None,412.4910911999996,413.0043449999994,,,,,,,,,,,,,,,,218,2022-05-17_15h35.24.816,FishGame,2022.1.1,60.02829733907445,
,15,넌 산만해,4,Orange,B,2.695652173913043,3.033333333333333,ScrollUp,ScrollDown,Orange.png,3,Negative,Congruent,,,,,0,0,0,0,,,,,,,,,,,,,,,,,,,,,0,14,14,14,,,,,,,,,,,,,,,,,,,,,,,,,,,,,,,,,,,,,,,,,,,,,,,,,,,,,,,,,,,,,,,,,,,,,,,,,1.9027777661879857,1.0672032000002218,413.6661153999994,None,ScrollUp,정답입니다,413.6661153999994,None,413.6661153999994,None,413.6661153999994,None,413.6661153999994,None,414.59424079999917,None,414.59424079999917,415.1040632999993,,,,,,,,,,,,,,,,218,2022-05-17_15h35.24.816,FishGame,2022.1.1,60.02829733907445,
,16,나를 보내줘,6,Green,A,0,0,ScrollUp,ScrollDown,Green.png,3,NonTarget,NonTarget,,,,,0,0,0,0,,,,,,,,,,,,,,,,,,,,,0,15,15,15,,,,,,,,,,,,,,,,,,,,,,,,,,,,,,,,,,,,,,,,,,,,,,,,,,,,,,,,,,,,,,,,,,,,,,,,,2,1.2096799000009923,415.7546777999996,None,ScrollUp,정답입니다,415.7546777999996,None,415.7546777999996,None,415.7546777999996,None,415.7546777999996,None,416.83727499999986,None,416.83727499999986,417.3370885000004,,,,,,,,,,,,,,,,218,2022-05-17_15h35.24.816,FishGame,2022.1.1,60.02829733907445,
,17,넌 교활해,5,Orange,B,2.333333333333333,2.133333333333333,ScrollUp,ScrollDown,Orange.png,3,Negative,Congruent,,,,,0,0,0,0,,,,,,,,,,,,,,,,,,,,,0,16,16,16,,,,,,,,,,,,,,,,,,,,,,,,,,,,,,,,,,,,,,,,,,,,,,,,,,,,,,,,,,,,,,,,,,,,,,,,,2,1.5775541000002704,417.9933130999998,None,ScrollUp,정답입니다,417.9933130999998,None,417.9933130999998,None,417.9933130999998,None,417.9933130999998,None,419.440622099999,None,419.440622099999,419.95345090000046,,,,,,,,,,,,,,,,218,2022-05-17_15h35.24.816,FishGame,2022.1.1,60.02829733907445,
,18,나를 보내줘,6,Green,A,0,0,ScrollUp,ScrollDown,Green.png,3,NonTarget,NonTarget,,,,,0,0,0,0,,,,,,,,,,,,,,,,,,,,,0,17,17,17,,,,,,,,,,,,,,,,,,,,,,,,,,,,,,,,,,,,,,,,,,,,,,,,,,,,,,,,,,,,,,,,,,,,,,,,,2,1.161545599999954,420.6063071999997,None,ScrollUp,정답입니다,420.6063071999997,None,420.6063071999997,None,420.6063071999997,None,420.6063071999997,None,421.63690289999977,None,421.63690289999977,422.1364603000002,,,,,,,,,,,,,,,,218,2022-05-17_15h35.24.816,FishGame,2022.1.1,60.02829733907445,
,19,넌 불친절해,5,Orange,B,2.208333333333333,2.033333333333333,ScrollUp,ScrollDown,Orange.png,3,Negative,Congruent,,,,,0,0,0,0,,,,,,,,,,,,,,,,,,,,,0,18,18,18,,,,,,,,,,,,,,,,,,,,,,,,,,,,,,,,,,,,,,,,,,,,,,,,,,,,,,,,,,,,,,,,,,,,,,,,,1.807098776102066,1.1020982999998523,422.8018549999997,None,ScrollUp,정답입니다,422.8018549999997,None,422.8018549999997,None,422.8018549999997,None,422.8018549999997,None,423.76199149999957,None,423.76199149999957,424.2695729999996,,,,,,,,,,,,,,,,218,2022-05-17_15h35.24.816,FishGame,2022.1.1,60.02829733907445,
,20,넌 지적이야,2,Orange,B,5.75,4.366666666666666,ScrollUp,ScrollDown,Orange.png,3,Positive,Incongruent,,,,,0,0,0,0,,,,,,,,,,,,,,,,,,,,,0,19,19,19,,,,,,,,,,,,,,,,,,,,,,,,,,,,,,,,,,,,,,,,,,,,,,,,,,,,,,,,,,,,,,,,,,,,,,,,,1.939814825852712,0.9677159000002575,424.9265013999993,None,ScrollUp,정답입니다,424.9265013999993,None,424.9265013999993,None,424.9265013999993,None,424.9265013999993,None,425.7598777000003,None,425.7598777000003,426.2692083000002,,,,,,,,,,,,,,,,218,2022-05-17_15h35.24.816,FishGame,2022.1.1,60.02829733907445,
,21,넌 우유부단해,4,Green,A,2.666666666666667,3.166666666666667,ScrollDown,ScrollUp,Green.png,3,Negative,Incongruent,,,,,0,0,0,0,,,,,,,,,,,,,,,,,,,,,0,20,20,20,,,,,,,,,,,,,,,,,,,,,,,,,,,,,,,,,,,,,,,,,,,,,,,,,,,,,,,,,,,,,,,,,,,,,,,,,1,0.9521512999999686,426.92522610000015,None,ScrollDown,정답입니다,426.92522610000015,None,426.92522610000015,None,426.92522610000015,None,426.92522610000015,None,427.7446538000004,None,427.7446538000004,428.25236760000007,,,,,,,,,,,,,,,,218,2022-05-17_15h35.24.816,FishGame,2022.1.1,60.02829733907445,
,22,나를 데려가줘,6,Orange,B,0,0,ScrollDown,ScrollUp,Orange.png,3,NonTarget,NonTarget,,,,,0,0,0,0,,,,,,,,,,,,,,,,,,,,,0,21,21,21,,,,,,,,,,,,,,,,,,,,,,,,,,,,,,,,,,,,,,,,,,,,,,,,,,,,,,,,,,,,,,,,,,,,,,,,,1,1.1930973999988055,428.9103634999992,None,ScrollDown,정답입니다,428.9103634999992,None,428.9103634999992,None,428.9103634999992,None,428.9103634999992,None,429.96894839999914,None,429.96894839999914,430.4686443999999,,,,,,,,,,,,,,,,218,2022-05-17_15h35.24.816,FishGame,2022.1.1,60.02829733907445,
,23,넌 성실해,1,Orange,B,6.041666666666666,5.7,ScrollUp,ScrollDown,Orange.png,3,Positive,Incongruent,,,,,0,0,0,0,,,,,,,,,,,,,,,,,,,,,0,22,22,22,,,,,,,,,,,,,,,,,,,,,,,,,,,,,,,,,,,,,,,,,,,,,,,,,,,,,,,,,,,,,,,,,,,,,,,,,1.9891975224018097,1.0097013999984483,431.1270239000005,None,ScrollUp,정답입니다,431.1270239000005,None,431.1270239000005,None,431.1270239000005,None,431.1270239000005,None,432.0018020999996,None,432.0018020999996,432.5017587000002,,,,,,,,,,,,,,,,218,2022-05-17_15h35.24.816,FishGame,2022.1.1,60.02829733907445,
,24,넌 현실주의적이야,3,Green,A,4.625,4.4,ScrollDown,ScrollUp,Green.png,3,Neutral,Neutral,,,,,0,0,0,0,,,,,,,,,,,,,,,,,,,,,0,23,23,23,,,,,,,,,,,,,,,,,,,,,,,,,,,,,,,,,,,,,,,,,,,,,,,,,,,,,,,,,,,,,,,,,,,,,,,,,1.0138889054457347,1.7598178000007465,433.15822560000015,None,ScrollDown,정답입니다,433.15822560000015,None,433.15822560000015,None,433.15822560000015,None,433.15822560000015,None,434.7852065999996,None,434.7852065999996,435.28480130000025,,,,,,,,,,,,,,,,218,2022-05-17_15h35.24.816,FishGame,2022.1.1,60.02829733907445,
,25,넌 진실돼,1,Green,A,6.625,5.566666666666666,ScrollDown,ScrollUp,Green.png,3,Positive,Congruent,,,,,0,0,0,0,,,,,,,,,,,,,,,,,,,,,0,24,24,24,,,,,,,,,,,,,,,,,,,,,,,,,,,,,,,,,,,,,,,,,,,,,,,,,,,,,,,,,,,,,,,,,,,,,,,,,1,1.1149693000006664,435.94302830000015,None,ScrollDown,정답입니다,435.94302830000015,None,435.94302830000015,None,435.94302830000015,None,435.94302830000015,None,436.92535560000033,None,436.92535560000033,437.4346975999997,,,,,,,,,,,,,,,,218,2022-05-17_15h35.24.816,FishGame,2022.1.1,60.02829733907445,
,26,넌 천진난만해,3,Orange,B,4.958333333333334,4.833333333333333,ScrollUp,ScrollDown,Orange.png,3,Neutral,Neutral,,,,,0,0,0,0,,,,,,,,,,,,,,,,,,,,,0,25,25,25,,,,,,,,,,,,,,,,,,,,,,,,,,,,,,,,,,,,,,,,,,,,,,,,,,,,,,,,,,,,,,,,,,,,,,,,,1.878086417913437,1.0266322000006767,438.1048274999994,None,ScrollUp,정답입니다,438.1048274999994,None,438.1048274999994,None,438.1048274999994,None,438.1048274999994,None,438.9844775999991,None,438.9844775999991,439.484281699999,,,,,,,,,,,,,,,,218,2022-05-17_15h35.24.816,FishGame,2022.1.1,60.02829733907445,
,27,넌 교양없어,5,Green,A,2.416666666666667,2.2,ScrollDown,ScrollUp,Green.png,3,Negative,Incongruent,,,,,0,0,0,0,,,,,,,,,,,,,,,,,,,,,0,26,26,26,,,,,,,,,,,,,,,,,,,,,,,,,,,,,,,,,,,,,,,,,,,,,,,,,,,,,,,,,,,,,,,,,,,,,,,,,1,1.3666553999992175,440.1385964000001,None,ScrollDown,정답입니다,440.1385964000001,None,440.1385964000001,None,440.1385964000001,None,440.1385964000001,None,441.3744993,None,441.3744993,441.88392290000047,,,,,,,,,,,,,,,,218,2022-05-17_15h35.24.816,FishGame,2022.1.1,60.02829733907445,
,28,나를 보내줘,6,Green,A,0,0,ScrollUp,ScrollDown,Green.png,3,NonTarget,NonTarget,,,,,0,0,0,0,,,,,,,,,,,,,,,,,,,,,0,27,27,27,,,,,,,,,,,,,,,,,,,,,,,,,,,,,,,,,,,,,,,,,,,,,,,,,,,,,,,,,,,,,,,,,,,,,,,,,2,1.0933893999990687,442.5342435999992,None,ScrollUp,정답입니다,442.5342435999992,None,442.5342435999992,None,442.5342435999992,None,442.5342435999992,None,443.50029639999957,None,443.50029639999957,444.00034400000004,,,,,,,,,,,,,,,,218,2022-05-17_15h35.24.816,FishGame,2022.1.1,60.02829733907445,
,29,넌 엉뚱스러워,3,Green,A,4.166666666666667,4.133333333333334,ScrollDown,ScrollUp,Green.png,3,Neutral,Neutral,,,,,0,0,0,0,,,,,,,,,,,,,,,,,,,,,0,28,28,28,,,,,,,,,,,,,,,,,,,,,,,,,,,,,,,,,,,,,,,,,,,,,,,,,,,,,,,,,,,,,,,,,,,,,,,,,1,1.0002937000008387,444.6533020000006,None,ScrollDown,정답입니다,444.6533020000006,None,444.6533020000006,None,444.6533020000006,None,444.6533020000006,None,445.52368879999995,None,445.52368879999995,446.0334151999996,,,,,,,,,,,,,,,,218,2022-05-17_15h35.24.816,FishGame,2022.1.1,60.02829733907445,
,30,넌 무지해,4,Orange,B,2.541666666666667,3.066666666666667,ScrollUp,ScrollDown,Orange.png,3,Negative,Congruent,,,,,0,0,0,0,,,,,,,,,,,,,,,,,,,,,0,29,29,29,,,,,,,,,,,,,,,,,,,,,,,,,,,,,,,,,,,,,,,,,,,,,,,,,,,,,,,,,,,,,,,,,,,,,,,,,1.8533950696388881,0.8116308999997273,446.6872449000002,None,ScrollUp,정답입니다,446.6872449000002,None,446.6872449000002,None,446.6872449000002,None,446.6872449000002,None,447.36697549999917,None,447.36697549999917,447.8665536999997,,,,,,,,,,,,,,,,218,2022-05-17_15h35.24.816,FishGame,2022.1.1,60.02829733907445,
,31,넌 음울해,5,Orange,B,2.25,2.233333333333333,ScrollUp,ScrollDown,Orange.png,3,Negative,Congruent,,,,,0,0,0,0,,,,,,,,,,,,,,,,,,,,,0,30,30,30,,,,,,,,,,,,,,,,,,,,,,,,,,,,,,,,,,,,,,,,,,,,,,,,,,,,,,,,,,,,,,,,,,,,,,,,,2,1.035688999998456,448.528766899999,None,ScrollUp,정답입니다,448.528766899999,None,448.528766899999,None,448.528766899999,None,448.528766899999,None,449.42490739999994,None,449.42490739999994,449.9329579000005,,,,,,,,,,,,,,,,218,2022-05-17_15h35.24.816,FishGame,2022.1.1,60.02829733907445,
,32,넌 냉소적이야,5,Green,A,2.916666666666667,2.4,ScrollDown,ScrollUp,Green.png,3,Negative,Incongruent,,,,,0,0,0,0,,,,,,,,,,,,,,,,,,,,,0,31,31,31,,,,,,,,,,,,,,,,,,,,,,,,,,,,,,,,,,,,,,,,,,,,,,,,,,,,,,,,,,,,,,,,,,,,,,,,,1.1033950646718342,1.182220700000471,450.5797490999994,None,ScrollDown,정답입니다,450.5797490999994,None,450.5797490999994,None,450.5797490999994,None,450.5797490999994,None,451.64045889999943,None,451.64045889999943,452.14922839999963,,,,,,,,,,,,,,,,218,2022-05-17_15h35.24.816,FishGame,2022.1.1,60.02829733907445,
,33,나를 데려가줘,6,Orange,B,0,0,ScrollDown,ScrollUp,Orange.png,3,NonTarget,NonTarget,,,,,0,0,0,0,,,,,,,,,,,,,,,,,,,,,0,32,32,32,,,,,,,,,,,,,,,,,,,,,,,,,,,,,,,,,,,,,,,,,,,,,,,,,,,,,,,,,,,,,,,,,,,,,,,,,1.0216049253940582,1.5855756000000838,452.8060863999999,None,ScrollDown,정답입니다,452.8060863999999,None,452.8060863999999,None,452.8060863999999,None,452.8060863999999,None,454.25839409999935,None,454.25839409999935,454.7658623999996,,,,,,,,,,,,,,,,218,2022-05-17_15h35.24.816,FishGame,2022.1.1,60.02829733907445,
,34,넌 쾌활해,1,Green,A,5.541666666666666,5.733333333333333,ScrollDown,ScrollUp,Green.png,3,Positive,Congruent,,,,,0,0,0,0,,,,,,,,,,,,,,,,,,,,,0,33,33,33,,,,,,,,,,,,,,,,,,,,,,,,,,,,,,,,,,,,,,,,,,,,,,,,,,,,,,,,,,,,,,,,,,,,,,,,,1.2685185074806213,1.210001999999804,455.4225074999995,None,ScrollDown,정답입니다,455.4225074999995,None,455.4225074999995,None,455.4225074999995,None,455.4225074999995,None,456.5000139999993,None,456.5000139999993,457.0152870999991,,,,,,,,,,,,,,,,218,2022-05-17_15h35.24.816,FishGame,2022.1.1,60.02829733907445,
,35,나를 보내줘,6,Green,A,0,0,ScrollUp,ScrollDown,Green.png,3,NonTarget,NonTarget,,,,,0,0,0,0,,,,,,,,,,,,,,,,,,,,,0,34,34,34,,,,,,,,,,,,,,,,,,,,,,,,,,,,,,,,,,,,,,,,,,,,,,,,,,,,,,,,,,,,,,,,,,,,,,,,,1.90586419403553,1.1358005000001867,457.66024189999916,None,ScrollUp,정답입니다,457.66024189999916,None,457.66024189999916,None,457.66024189999916,None,457.66024189999916,None,458.67414669999926,None,458.67414669999926,459.18165279999994,,,,,,,,,,,,,,,,218,2022-05-17_15h35.24.816,FishGame,2022.1.1,60.02829733907445,
,36,넌 명랑해,1,Orange,B,5.739130434782609,5.666666666666667,ScrollUp,ScrollDown,Orange.png,3,Positive,Incongruent,,,,,0,0,0,0,,,,,,,,,,,,,,,,,,,,,0,35,35,35,,,,,,,,,,,,,,,,,,,,,,,,,,,,,,,,,,,,,,,,,,,,,,,,,,,,,,,,,,,,,,,,,,,,,,,,,1.8765432039896648,0.944219000000885,459.8458004999993,None,ScrollUp,정답입니다,459.8458004999993,None,459.8458004999993,None,459.8458004999993,None,459.8458004999993,None,460.6486492999993,None,460.6486492999993,461.1481332000003,,,,,,,,,,,,,,,,218,2022-05-17_15h35.24.816,FishGame,2022.1.1,60.02829733907445,
,37,넌 멍해,4,Green,A,2.833333333333333,3.4,ScrollDown,ScrollUp,Green.png,3,Negative,Incongruent,,,,,0,0,0,0,,,,,,,,,,,,,,,,,,,,,0,36,36,36,,,,,,,,,,,,,,,,,,,,,,,,,,,,,,,,,,,,,,,,,,,,,,,,,,,,,,,,,,,,,,,,,,,,,,,,,1.1836419651905696,1.0183170000000246,461.79830609999954,None,ScrollDown,정답입니다,461.79830609999954,None,461.79830609999954,None,461.79830609999954,None,461.79830609999954,None,462.6910633999996,None,462.6910633999996,463.1978173000007,,,,,,,,,,,,,,,,218,2022-05-17_15h35.24.816,FishGame,2022.1.1,60.02829733907445,
,38,나를 데려가줘,6,Orange,B,0,0,ScrollDown,ScrollUp,Orange.png,3,NonTarget,NonTarget,,,,,0,0,0,0,,,,,,,,,,,,,,,,,,,,,0,37,37,37,,,,,,,,,,,,,,,,,,,,,,,,,,,,,,,,,,,,,,,,,,,,,,,,,,,,,,,,,,,,,,,,,,,,,,,,,1.1682098756233852,1.2349338000003627,463.8485841999991,None,ScrollDown,정답입니다,463.8485841999991,None,463.8485841999991,None,463.8485841999991,None,463.8485841999991,None,464.96428079999896,None,464.96428079999896,465.4642351000002,,,,,,,,,,,,,,,,218,2022-05-17_15h35.24.816,FishGame,2022.1.1,60.02829733907445,
,39,넌 현명해,2,Green,A,6.541666666666666,4.533333333333333,ScrollDown,ScrollUp,Green.png,3,Positive,Congruent,,,,,0,0,0,0,,,,,,,,,,,,,,,,,,,,,0,38,38,38,,,,,,,,,,,,,,,,,,,,,,,,,,,,,,,,,,,,,,,,,,,,,,,,,,,,,,,,,,,,,,,,,,,,,,,,,1.115740751226743,1.1190646000013658,466.11371829999916,None,ScrollDown,정답입니다,466.11371829999916,None,466.11371829999916,None,466.11371829999916,None,466.11371829999916,None,467.10694709999916,None,467.10694709999916,467.61410369999976,,,,,,,,,,,,,,,,218,2022-05-17_15h35.24.816,FishGame,2022.1.1,60.02829733907445,
,40,넌 수줍어,3,Orange,B,3.541666666666666,4.366666666666666,ScrollUp,ScrollDown,Orange.png,3,Neutral,Neutral,,,,,0,0,0,0,,,,,,,,,,,,,,,,,,,,,0,39,39,39,,,,,,,,,,,,,,,,,,,,,,,,,,,,,,,,,,,,,,,,,,,,,,,,,,,,,,,,,,,,,,,,,,,,,,,,,1.7006172885497413,1.0008130999995046,468.2728145000001,None,ScrollUp,정답입니다,468.2728145000001,None,468.2728145000001,None,468.2728145000001,None,468.2728145000001,None,469.13873090000016,None,469.13873090000016,469.64694959999906,,,,,,,,,,,,,,,,218,2022-05-17_15h35.24.816,FishGame,2022.1.1,60.02829733907445,
,41,나를 데려가줘,6,Orange,B,0,0,ScrollDown,ScrollUp,Orange.png,3,NonTarget,NonTarget,,,,,0,0,0,0,,,,,,,,,,,,,,,,,,,,,0,40,40,40,,,,,,,,,,,,,,,,,,,,,,,,,,,,,,,,,,,,,,,,,,,,,,,,,,,,,,,,,,,,,,,,,,,,,,,,,1.2021604826052983,1.0013496999999916,470.30866349999997,None,ScrollDown,정답입니다,470.30866349999997,None,470.30866349999997,None,470.30866349999997,None,470.30866349999997,None,471.17295319999903,None,471.17295319999903,471.6801335,,,,,,,,,,,,,,,,218,2022-05-17_15h35.24.816,FishGame,2022.1.1,60.02829733907445,
,42,넌 성숙해,2,Orange,B,5.833333333333333,4.533333333333333,ScrollUp,ScrollDown,Orange.png,3,Positive,Incongruent,,,,,0,0,0,0,,,,,,,,,,,,,,,,,,,,,0,41,41,41,,,,,,,,,,,,,,,,,,,,,,,,,,,,,,,,,,,,,,,,,,,,,,,,,,,,,,,,,,,,,,,,,,,,,,,,,1.8410493830839794,1.043229799999608,472.3382041999994,None,ScrollUp,정답입니다,472.3382041999994,None,472.3382041999994,None,472.3382041999994,None,472.3382041999994,None,473.24980999999934,None,473.24980999999934,473.7631239000002,,,,,,,,,,,,,,,,218,2022-05-17_15h35.24.816,FishGame,2022.1.1,60.02829733907445,
,1,넌 매력적이야,2,Orange,B,6.125,4.666666666666667,ScrollUp,ScrollDown,Orange.png,4,Positive,Incongruent,,,,,0,0,0,0,,,,,,,,,,,,,,,,,,,,,,,,,0,0,0,0,,,,,,,,,,,,,,,,,,,,,,,,,,,,513.7580581000002,515.2577715000007,515.2910695999999,516.240955199999,516.2909364999996,517.2408581,517.2408581,None,,,,,,,,,,,,,,,,,,,,,,,,,,,,,,,,,,2,1.2636373000004824,518.4394597999999,None,ScrollUp,정답입니다,518.4394597999999,None,518.4394597999999,None,518.4394597999999,None,518.4394597999999,None,519.5239581999995,None,519.5239581999995,520.0237789999992,474.2630429000001,None,474.2630429000001,None,0.225,0.13981481,1,0,0,0.01609337000081723,None,504.2592846000007,None,,,218,2022-05-17_15h35.24.816,FishGame,2022.1.1,60.02829733907445,
,2,나를 보내줘,6,Green,A,0,0,ScrollUp,ScrollDown,Green.png,4,NonTarget,NonTarget,,,,,0,0,0,0,,,,,,,,,,,,,,,,,,,,,,,,,0,1,1,1,,,,,,,,,,,,,,,,,,,,,,,,,,,,,,,,,,,,,,,,,,,,,,,,,,,,,,,,,,,,,,,,,,,,,2,1.2151291999998648,520.6675194,None,ScrollUp,정답입니다,520.6675194,None,520.6675194,None,520.6675194,None,520.6675194,None,521.7631872999991,None,521.7631872999991,522.2735407,,,,,,,,,,,,,,,,218,2022-05-17_15h35.24.816,FishGame,2022.1.1,60.02829733907445,
,3,넌 조심스러워,3,Green,A,4.791666666666666,4.666666666666667,ScrollDown,ScrollUp,Green.png,4,Neutral,Neutral,,,,,0,0,0,0,,,,,,,,,,,,,,,,,,,,,,,,,0,2,2,2,,,,,,,,,,,,,,,,,,,,,,,,,,,,,,,,,,,,,,,,,,,,,,,,,,,,,,,,,,,,,,,,,,,,,1,0.9215749999984837,522.9180281999998,None,ScrollDown,정답입니다,522.9180281999998,None,522.9180281999998,None,522.9180281999998,None,522.9180281999998,None,523.7232244000006,None,523.7232244000006,524.2232394000002,,,,,,,,,,,,,,,,218,2022-05-17_15h35.24.816,FishGame,2022.1.1,60.02829733907445,
,4,넌 철학적이야,3,Orange,B,4.5,4.266666666666667,ScrollUp,ScrollDown,Orange.png,4,Neutral,Neutral,,,,,0,0,0,0,,,,,,,,,,,,,,,,,,,,,,,,,0,3,3,3,,,,,,,,,,,,,,,,,,,,,,,,,,,,,,,,,,,,,,,,,,,,,,,,,,,,,,,,,,,,,,,,,,,,,2,0.8715467000001809,524.8861429999997,None,ScrollUp,정답입니다,524.8861429999997,None,524.8861429999997,None,524.8861429999997,None,524.8861429999997,None,525.6231011,None,525.6231011,526.1231623000003,,,,,,,,,,,,,,,,218,2022-05-17_15h35.24.816,FishGame,2022.1.1,60.02829733907445,
,5,넌 쩨쩨해,5,Green,A,2.375,2.133333333333333,ScrollDown,ScrollUp,Green.png,4,Negative,Incongruent,,,,,0,0,0,0,,,,,,,,,,,,,,,,,,,,,,,,,0,4,4,4,,,,,,,,,,,,,,,,,,,,,,,,,,,,,,,,,,,,,,,,,,,,,,,,,,,,,,,,,,,,,,,,,,,,,1.0354938507080078,0.8170468999996956,526.7662698999993,None,ScrollDown,정답입니다,526.7662698999993,None,526.7662698999993,None,526.7662698999993,None,526.7662698999993,None,527.4645156000006,None,527.4645156000006,527.9727868999998,,,,,,,,,,,,,,,,218,2022-05-17_15h35.24.816,FishGame,2022.1.1,60.02829733907445,
,6,나를 데려가줘,6,Orange,B,0,0,ScrollDown,ScrollUp,Orange.png,4,NonTarget,NonTarget,,,,,0,0,0,0,,,,,,,,,,,,,,,,,,,,,,,,,0,5,5,5,,,,,,,,,,,,,,,,,,,,,,,,,,,,,,,,,,,,,,,,,,,,,,,,,,,,,,,,,,,,,,,,,,,,,1.0154321193695068,1.0202217000005476,528.6284219999998,None,ScrollDown,정답입니다,528.6284219999998,None,528.6284219999998,None,528.6284219999998,None,528.6284219999998,None,529.5227875,None,529.5227875,530.0225050999998,,,,,,,,,,,,,,,,218,2022-05-17_15h35.24.816,FishGame,2022.1.1,60.02829733907445,
,7,넌 고집불통이야,5,Orange,B,2.875,2,ScrollUp,ScrollDown,Orange.png,4,Negative,Congruent,,,,,0,0,0,0,,,,,,,,,,,,,,,,,,,,,,,,,0,6,6,6,,,,,,,,,,,,,,,,,,,,,,,,,,,,,,,,,,,,,,,,,,,,,,,,,,,,,,,,,,,,,,,,,,,,,1.9984568059444427,0.8126409000014974,530.6919209000007,None,ScrollUp,정답입니다,530.6919209000007,None,530.6919209000007,None,530.6919209000007,None,530.6919209000007,None,531.3612680999995,None,531.3612680999995,531.8722421000002,,,,,,,,,,,,,,,,218,2022-05-17_15h35.24.816,FishGame,2022.1.1,60.02829733907445,
,8,넌 무심해,4,Green,A,2.875,3.2,ScrollDown,ScrollUp,Green.png,4,Negative,Incongruent,,,,,0,0,0,0,,,,,,,,,,,,,,,,,,,,,,,,,0,7,7,7,,,,,,,,,,,,,,,,,,,,,,,,,,,,,,,,,,,,,,,,,,,,,,,,,,,,,,,,,,,,,,,,,,,,,1.1867283930381138,0.715705299999172,532.5186601999994,None,ScrollDown,정답입니다,532.5186601999994,None,532.5186601999994,None,532.5186601999994,None,532.5186601999994,None,533.1150245999997,None,533.1150245999997,533.6220900999997,,,,,,,,,,,,,,,,218,2022-05-17_15h35.24.816,FishGame,2022.1.1,60.02829733907445,
,9,넌 정겨워,1,Green,A,5.791666666666667,5.666666666666667,ScrollDown,ScrollUp,Green.png,4,Positive,Congruent,,,,,0,0,0,0,,,,,,,,,,,,,,,,,,,,,,,,,0,8,8,8,,,,,,,,,,,,,,,,,,,,,,,,,,,,,,,,,,,,,,,,,,,,,,,,,,,,,,,,,,,,,,,,,,,,,1.1450617164373398,0.9587529000000359,534.2798779000004,None,ScrollDown,정답입니다,534.2798779000004,None,534.2798779000004,None,534.2798779000004,None,534.2798779000004,None,535.1004501000007,None,535.1004501000007,535.6051207,,,,,,,,,,,,,,,,218,2022-05-17_15h35.24.816,FishGame,2022.1.1,60.02829733907445,
,10,나를 데려가줘,6,Orange,B,0,0,ScrollDown,ScrollUp,Orange.png,4,NonTarget,NonTarget,,,,,0,0,0,0,,,,,,,,,,,,,,,,,,,,,,,,,0,9,9,9,,,,,,,,,,,,,,,,,,,,,,,,,,,,,,,,,,,,,,,,,,,,,,,,,,,,,,,,,,,,,,,,,,,,,1.0817901194095612,1.1190015000011044,536.2559125999996,None,ScrollDown,정답입니다,536.2559125999996,None,536.2559125999996,None,536.2559125999996,None,536.2559125999996,None,537.255196099999,None,537.255196099999,537.7547486000003,,,,,,,,,,,,,,,,218,2022-05-17_15h35.24.816,FishGame,2022.1.1,60.02829733907445,
,11,넌 체제순응적이야,4,Orange,B,3,3.6,ScrollUp,ScrollDown,Orange.png,4,Negative,Congruent,,,,,0,0,0,0,,,,,,,,,,,,,,,,,,,,,,,,,0,10,10,10,,,,,,,,,,,,,,,,,,,,,,,,,,,,,,,,,,,,,,,,,,,,,,,,,,,,,,,,,,,,,,,,,,,,,2,0.8836301999999705,538.4221928999996,None,ScrollUp,정답입니다,538.4221928999996,None,538.4221928999996,None,538.4221928999996,None,538.4221928999996,None,539.1618820999993,None,539.1618820999993,539.6718196999991,,,,,,,,,,,,,,,,218,2022-05-17_15h35.24.816,FishGame,2022.1.1,60.02829733907445,
,12,나를 보내줘,6,Green,A,0,0,ScrollUp,ScrollDown,Green.png,4,NonTarget,NonTarget,,,,,0,0,0,0,,,,,,,,,,,,,,,,,,,,,,,,,0,11,11,11,,,,,,,,,,,,,,,,,,,,,,,,,,,,,,,,,,,,,,,,,,,,,,,,,,,,,,,,,,,,,,,,,,,,,2,1.122990399999253,540.3205221999997,None,ScrollUp,정답입니다,540.3205221999997,None,540.3205221999997,None,540.3205221999997,None,540.3205221999997,None,541.3209334000003,None,541.3209334000003,541.8209282999997,,,,,,,,,,,,,,,,218,2022-05-17_15h35.24.816,FishGame,2022.1.1,60.02829733907445,
,13,넌 박식해,2,Green,A,5.625,3.933333333333333,ScrollDown,ScrollUp,Green.png,4,Positive,Congruent,,,,,0,0,0,0,,,,,,,,,,,,,,,,,,,,,,,,,0,12,12,12,,,,,,,,,,,,,,,,,,,,,,,,,,,,,,,,,,,,,,,,,,,,,,,,,,,,,,,,,,,,,,,,,,,,,1,1.0698102000005747,542.4759570000006,None,ScrollDown,정답입니다,542.4759570000006,None,542.4759570000006,None,542.4759570000006,None,542.4759570000006,None,543.4212103999998,None,543.4212103999998,543.9206608999993,,,,,,,,,,,,,,,,218,2022-05-17_15h35.24.816,FishGame,2022.1.1,60.02829733907445,
,14,나를 보내줘,6,Green,A,0,0,ScrollUp,ScrollDown,Green.png,4,NonTarget,NonTarget,,,,,0,0,0,0,,,,,,,,,,,,,,,,,,,,,,,,,0,13,13,13,,,,,,,,,,,,,,,,,,,,,,,,,,,,,,,,,,,,,,,,,,,,,,,,,,,,,,,,,,,,,,,,,,,,,2,1.1220046999987972,544.5685520000006,None,ScrollUp,정답입니다,544.5685520000006,None,544.5685520000006,None,544.5685520000006,None,544.5685520000006,None,545.5704416999997,None,545.5704416999997,546.0704232000007,,,,,,,,,,,,,,,,218,2022-05-17_15h35.24.816,FishGame,2022.1.1,60.02829733907445,
,15,넌 침착해,1,Orange,B,5.458333333333333,5.566666666666666,ScrollUp,ScrollDown,Orange.png,4,Positive,Incongruent,,,,,0,0,0,0,,,,,,,,,,,,,,,,,,,,,,,,,0,14,14,14,,,,,,,,,,,,,,,,,,,,,,,,,,,,,,,,,,,,,,,,,,,,,,,,,,,,,,,,,,,,,,,,,,,,,1.8364197413126628,0.7866857000008167,546.7280537999995,None,ScrollUp,정답입니다,546.7280537999995,None,546.7280537999995,None,546.7280537999995,None,546.7280537999995,None,547.3871538000003,None,547.3871538000003,547.8868388999999,,,,,,,,,,,,,,,,218,2022-05-17_15h35.24.816,FishGame,2022.1.1,60.02829733907445,
,16,나를 데려가줘,6,Orange,B,0,0,ScrollDown,ScrollUp,Orange.png,4,NonTarget,NonTarget,,,,,0,0,0,0,,,,,,,,,,,,,,,,,,,,,,,,,0,15,15,15,,,,,,,,,,,,,,,,,,,,,,,,,,,,,,,,,,,,,,,,,,,,,,,,,,,,,,,,,,,,,,,,,,,,,1,1.099355000000287,548.5383328000007,None,ScrollDown,정답입니다,548.5383328000007,None,548.5383328000007,None,548.5383328000007,None,548.5383328000007,None,549.5115673,None,549.5115673,550.0199303999998,,,,,,,,,,,,,,,,218,2022-05-17_15h35.24.816,FishGame,2022.1.1,60.02829733907445,
,17,넌 행복해,1,Green,A,6.416666666666666,6.166666666666667,ScrollDown,ScrollUp,Green.png,4,Positive,Congruent,,,,,0,0,0,0,,,,,,,,,,,,,,,,,,,,,,,,,0,16,16,16,,,,,,,,,,,,,,,,,,,,,,,,,,,,,,,,,,,,,,,,,,,,,,,,,,,,,,,,,,,,,,,,,,,,,1.2222222139437993,0.880782400001408,550.6767091000002,None,ScrollDown,정답입니다,550.6767091000002,None,550.6767091000002,None,550.6767091000002,None,550.6767091000002,None,551.4258174999995,None,551.4258174999995,551.9363164999995,,,,,,,,,,,,,,,,218,2022-05-17_15h35.24.816,FishGame,2022.1.1,60.02829733907445,
,18,넌 겸손해,2,Orange,B,5.791666666666667,4.766666666666667,ScrollUp,ScrollDown,Orange.png,4,Positive,Incongruent,,,,,0,0,0,0,,,,,,,,,,,,,,,,,,,,,,,,,0,17,17,17,,,,,,,,,,,,,,,,,,,,,,,,,,,,,,,,,,,,,,,,,,,,,,,,,,,,,,,,,,,,,,,,,,,,,1.9537037014961243,1.0016930999991018,552.5936024000002,None,ScrollUp,정답입니다,552.5936024000002,None,552.5936024000002,None,552.5936024000002,None,552.5936024000002,None,553.4609201999992,None,553.4609201999992,553.969481099999,,,,,,,,,,,,,,,,218,2022-05-17_15h35.24.816,FishGame,2022.1.1,60.02829733907445,
,19,나를 보내줘,6,Green,A,0,0,ScrollUp,ScrollDown,Green.png,4,NonTarget,NonTarget,,,,,0,0,0,0,,,,,,,,,,,,,,,,,,,,,,,,,0,18,18,18,,,,,,,,,,,,,,,,,,,,,,,,,,,,,,,,,,,,,,,,,,,,,,,,,,,,,,,,,,,,,,,,,,,,,2,1.044523399999889,554.6137913999992,None,ScrollUp,정답입니다,554.6137913999992,None,554.6137913999992,None,554.6137913999992,None,554.6137913999992,None,555.5360440000004,None,555.5360440000004,556.0357232999995,,,,,,,,,,,,,,,,218,2022-05-17_15h35.24.816,FishGame,2022.1.1,60.02829733907445,
,20,넌 의심없어,3,Green,A,4.166666666666667,4.6,ScrollDown,ScrollUp,Green.png,4,Neutral,Neutral,,,,,0,0,0,0,,,,,,,,,,,,,,,,,,,,,,,,,0,19,19,19,,,,,,,,,,,,,,,,,,,,,,,,,,,,,,,,,,,,,,,,,,,,,,,,,,,,,,,,,,,,,,,,,,,,,1,0.8856569999989006,556.6863125,None,ScrollDown,정답입니다,556.6863125,None,556.6863125,None,556.6863125,None,556.6863125,None,557.4444227999993,None,557.4444227999993,557.9522292000001,,,,,,,,,,,,,,,,218,2022-05-17_15h35.24.816,FishGame,2022.1.1,60.02829733907445,
,21,넌 시시해,4,Green,A,2.666666666666667,2.966666666666667,ScrollDown,ScrollUp,Green.png,4,Negative,Incongruent,,,,,0,0,0,0,,,,,,,,,,,,,,,,,,,,,,,,,0,20,20,20,,,,,,,,,,,,,,,,,,,,,,,,,,,,,,,,,,,,,,,,,,,,,,,,,,,,,,,,,,,,,,,,,,,,,1.0015431940555573,0.8435251999999309,558.5969877999996,None,ScrollDown,정답입니다,558.5969877999996,None,558.5969877999996,None,558.5969877999996,None,558.5969877999996,None,559.3188799,None,559.3188799,559.8186489,,,,,,,,,,,,,,,,218,2022-05-17_15h35.24.816,FishGame,2022.1.1,60.02829733907445,
,22,나를 데려가줘,6,Orange,B,0,0,ScrollDown,ScrollUp,Orange.png,4,NonTarget,NonTarget,,,,,0,0,0,0,,,,,,,,,,,,,,,,,,,,,,,,,0,21,21,21,,,,,,,,,,,,,,,,,,,,,,,,,,,,,,,,,,,,,,,,,,,,,,,,,,,,,,,,,,,,,,,,,,,,,1.1466049303611119,1.2864492000007886,560.4750530000001,None,ScrollDown,정답입니다,560.4750530000001,None,560.4750530000001,None,560.4750530000001,None,560.4750530000001,None,561.6348791,None,561.6348791,562.1350416000005,,,,,,,,,,,,,,,,218,2022-05-17_15h35.24.816,FishGame,2022.1.1,60.02829733907445,
,23,넌 무정해,5,Green,A,2.5,2.2,ScrollDown,ScrollUp,Green.png,4,Negative,Incongruent,,,,,0,0,0,0,,,,,,,,,,,,,,,,,,,,,,,,,0,22,22,22,,,,,,,,,,,,,,,,,,,,,,,,,,,,,,,,,,,,,,,,,,,,,,,,,,,,,,,,,,,,,,,,,,,,,1,1.0422287999990658,562.7812047999996,None,ScrollDown,정답입니다,562.7812047999996,None,562.7812047999996,None,562.7812047999996,None,562.7812047999996,None,563.7017581,None,563.7017581,564.2013786999996,,,,,,,,,,,,,,,,218,2022-05-17_15h35.24.816,FishGame,2022.1.1,60.02829733907445,
,24,넌 긍정적이야,1,Orange,B,6.041666666666667,6.066666666666666,ScrollUp,ScrollDown,Orange.png,4,Positive,Incongruent,,,,,0,0,0,0,,,,,,,,,,,,,,,,,,,,,,,,,0,23,23,23,,,,,,,,,,,,,,,,,,,,,,,,,,,,,,,,,,,,,,,,,,,,,,,,,,,,,,,,,,,,,,,,,,,,,1.8271604826052983,1.0188190000008035,564.868463499999,None,ScrollUp,정답입니다,564.868463499999,None,564.868463499999,None,564.868463499999,None,564.868463499999,None,565.7438239999992,None,565.7438239999992,566.2510163999996,,,,,,,,,,,,,,,,218,2022-05-17_15h35.24.816,FishGame,2022.1.1,60.02829733907445,
,25,나를 보내줘,6,Green,A,0,0,ScrollUp,ScrollDown,Green.png,4,NonTarget,NonTarget,,,,,0,0,0,0,,,,,,,,,,,,,,,,,,,,,,,,,0,24,24,24,,,,,,,,,,,,,,,,,,,,,,,,,,,,,,,,,,,,,,,,,,,,,,,,,,,,,,,,,,,,,,,,,,,,,2,1.1324812000002566,566.9025801999996,None,ScrollUp,정답입니다,566.9025801999996,None,566.9025801999996,None,566.9025801999996,None,566.9025801999996,None,567.9070037000001,None,567.9070037000001,568.4174813999998,,,,,,,,,,,,,,,,218,2022-05-17_15h35.24.816,FishGame,2022.1.1,60.02829733907445,
,26,넌 시기심이 많아,5,Orange,B,2.458333333333333,2.233333333333333,ScrollUp,ScrollDown,Orange.png,4,Negative,Congruent,,,,,0,0,0,0,,,,,,,,,,,,,,,,,,,,,,,,,0,25,25,25,,,,,,,,,,,,,,,,,,,,,,,,,,,,,,,,,,,,,,,,,,,,,,,,,,,,,,,,,,,,,,,,,,,,,2,0.9596968999994715,569.0781544999991,None,ScrollUp,정답입니다,569.0781544999991,None,569.0781544999991,None,569.0781544999991,None,569.0781544999991,None,569.9009354999998,None,569.9009354999998,570.4005631,,,,,,,,,,,,,,,,218,2022-05-17_15h35.24.816,FishGame,2022.1.1,60.02829733907445,
,27,넌 탁월해,2,Green,A,5.708333333333334,4.5,ScrollDown,ScrollUp,Green.png,4,Positive,Congruent,,,,,0,0,0,0,,,,,,,,,,,,,,,,,,,,,,,,,0,26,26,26,,,,,,,,,,,,,,,,,,,,,,,,,,,,,,,,,,,,,,,,,,,,,,,,,,,,,,,,,,,,,,,,,,,,,1.3302469154198966,0.8288384999996197,571.0581311000005,None,ScrollDown,정답입니다,571.0581311000005,None,571.0581311000005,None,571.0581311000005,None,571.0581311000005,None,571.7556466000005,None,571.7556466000005,572.2669943000001,,,,,,,,,,,,,,,,218,2022-05-17_15h35.24.816,FishGame,2022.1.1,60.02829733907445,
,28,나를 데려가줘,6,Orange,B,0,0,ScrollDown,ScrollUp,Orange.png,4,NonTarget,NonTarget,,,,,0,0,0,0,,,,,,,,,,,,,,,,,,,,,,,,,0,27,27,27,,,,,,,,,,,,,,,,,,,,,,,,,,,,,,,,,,,,,,,,,,,,,,,,,,,,,,,,,,,,,,,,,,,,,1.0077160497506459,1.228176300000996,572.9221011999998,None,ScrollDown,정답입니다,572.9221011999998,None,572.9221011999998,None,572.9221011999998,None,572.9221011999998,None,574.0172583000003,None,574.0172583000003,574.5166728000004,,,,,,,,,,,,,,,,218,2022-05-17_15h35.24.816,FishGame,2022.1.1,60.02829733907445,
,29,넌 조용해,3,Orange,B,4.333333333333333,4.166666666666667,ScrollUp,ScrollDown,Orange.png,4,Neutral,Neutral,,,,,0,0,0,0,,,,,,,,,,,,,,,,,,,,,,,,,0,28,28,28,,,,,,,,,,,,,,,,,,,,,,,,,,,,,,,,,,,,,,,,,,,,,,,,,,,,,,,,,,,,,,,,,,,,,1.0493827263514202,0.9495417999987694,575.1749665000007,None,ScrollDown,오답입니다,575.1749665000007,None,575.1749665000007,None,575.1749665000007,None,575.1749665000007,None,575.9933564000003,None,575.9933564000003,576.4999394000006,,,,,,,,,,,,,,,,218,2022-05-17_15h35.24.816,FishGame,2022.1.1,60.02829733907445,
,30,넌 다정해,1,Green,A,5.833333333333334,5.7,ScrollDown,ScrollUp,Green.png,4,Positive,Congruent,,,,,0,0,0,0,,,,,,,,,,,,,,,,,,,,,,,,,0,29,29,29,,,,,,,,,,,,,,,,,,,,,,,,,,,,,,,,,,,,,,,,,,,,,,,,,,,,,,,,,,,,,,,,,,,,,1.1666666616996129,1.3533668000000034,577.1545967000002,None,ScrollDown,정답입니다,577.1545967000002,None,577.1545967000002,None,577.1545967000002,None,577.1545967000002,None,578.3763018999998,None,578.3763018999998,578.8827387000001,,,,,,,,,,,,,,,,218,2022-05-17_15h35.24.816,FishGame,2022.1.1,60.02829733907445,
,31,넌 능력있어,2,Orange,B,6.166666666666666,4.6,ScrollUp,ScrollDown,Orange.png,4,Positive,Incongruent,,,,,0,0,0,0,,,,,,,,,,,,,,,,,,,,,,,,,0,30,30,30,,,,,,,,,,,,,,,,,,,,,,,,,,,,,,,,,,,,,,,,,,,,,,,,,,,,,,,,,,,,,,,,,,,,,1.8503086417913437,1.0029668000006495,579.5347189999993,None,ScrollUp,정답입니다,579.5347189999993,None,579.5347189999993,None,579.5347189999993,None,579.5347189999993,None,580.4162132999991,None,580.4162132999991,580.9159433000004,,,,,,,,,,,,,,,,218,2022-05-17_15h35.24.816,FishGame,2022.1.1,60.02829733907445,
,32,넌 불쾌해,5,Green,A,2.125,1.933333333333333,ScrollDown,ScrollUp,Green.png,4,Negative,Incongruent,,,,,0,0,0,0,,,,,,,,,,,,,,,,,,,,,,,,,0,31,31,31,,,,,,,,,,,,,,,,,,,,,,,,,,,,,,,,,,,,,,,,,,,,,,,,,,,,,,,,,,,,,,,,,,,,,1,0.9341008999999758,581.561619099999,None,ScrollDown,정답입니다,581.561619099999,None,581.561619099999,None,581.561619099999,None,581.561619099999,None,582.37507,None,582.37507,582.8822457999995,,,,,,,,,,,,,,,,218,2022-05-17_15h35.24.816,FishGame,2022.1.1,60.02829733907445,
,33,나를 데려가줘,6,Orange,B,0,0,ScrollDown,ScrollUp,Orange.png,4,NonTarget,NonTarget,,,,,0,0,0,0,,,,,,,,,,,,,,,,,,,,,,,,,0,32,32,32,,,,,,,,,,,,,,,,,,,,,,,,,,,,,,,,,,,,,,,,,,,,,,,,,,,,,,,,,,,,,,,,,,,,,1,1.1102738000008685,583.5367728000001,None,ScrollDown,정답입니다,583.5367728000001,None,583.5367728000001,None,583.5367728000001,None,583.5367728000001,None,584.5156475999993,None,584.5156475999993,585.0153989999999,,,,,,,,,,,,,,,,218,2022-05-17_15h35.24.816,FishGame,2022.1.1,60.02829733907445,
,34,넌 유순해,3,Green,A,4.458333333333333,5,ScrollDown,ScrollUp,Green.png,4,Neutral,Neutral,,,,,0,0,0,0,,,,,,,,,,,,,,,,,,,,,,,,,0,33,33,33,,,,,,,,,,,,,,,,,,,,,,,,,,,,,,,,,,,,,,,,,,,,,,,,,,,,,,,,,,,,,,,,,,,,,1,1.0318845999991026,585.690998099999,None,ScrollDown,정답입니다,585.690998099999,None,585.690998099999,None,585.690998099999,None,585.690998099999,None,586.5744763000002,None,586.5744763000002,587.0818383000005,,,,,,,,,,,,,,,,218,2022-05-17_15h35.24.816,FishGame,2022.1.1,60.02829733907445,
,35,넌 근심스러워,4,Orange,B,2.708333333333333,3.133333333333333,ScrollUp,ScrollDown,Orange.png,4,Negative,Congruent,,,,,0,0,0,0,,,,,,,,,,,,,,,,,,,,,,,,,0,34,34,34,,,,,,,,,,,,,,,,,,,,,,,,,,,,,,,,,,,,,,,,,,,,,,,,,,,,,,,,,,,,,,,,,,,,,1.879629631837209,0.9003866999992169,587.7461012999993,None,ScrollUp,정답입니다,587.7461012999993,None,587.7461012999993,None,587.7461012999993,None,587.7461012999993,None,588.5051691999997,None,588.5051691999997,589.0148104999989,,,,,,,,,,,,,,,,218,2022-05-17_15h35.24.816,FishGame,2022.1.1,60.02829733907445,
,36,넌 세련되었어,2,Green,A,5.5,4.6,ScrollDown,ScrollUp,Green.png,4,Positive,Congruent,,,,,0,0,0,0,,,,,,,,,,,,,,,,,,,,,,,,,0,35,35,35,,,,,,,,,,,,,,,,,,,,,,,,,,,,,,,,,,,,,,,,,,,,,,,,,,,,,,,,,,,,,,,,,,,,,1.2098765522241592,0.9104999000010139,589.6818789999998,None,ScrollDown,정답입니다,589.6818789999998,None,589.6818789999998,None,589.6818789999998,None,589.6818789999998,None,590.4489852999995,None,590.4489852999995,590.9646405999993,,,,,,,,,,,,,,,,218,2022-05-17_15h35.24.816,FishGame,2022.1.1,60.02829733907445,
,37,나를 보내줘,6,Green,A,0,0,ScrollUp,ScrollDown,Green.png,4,NonTarget,NonTarget,,,,,0,0,0,0,,,,,,,,,,,,,,,,,,,,,,,,,0,36,36,36,,,,,,,,,,,,,,,,,,,,,,,,,,,,,,,,,,,,,,,,,,,,,,,,,,,,,,,,,,,,,,,,,,,,,2,0.9639364000013302,591.6089814000006,None,ScrollUp,정답입니다,591.6089814000006,None,591.6089814000006,None,591.6089814000006,None,591.6089814000006,None,592.4540572999995,None,592.4540572999995,592.9644308000006,,,,,,,,,,,,,,,,218,2022-05-17_15h35.24.816,FishGame,2022.1.1,60.02829733907445,
,38,넌 확고해,3,Orange,B,4.708333333333334,4.566666666666666,ScrollUp,ScrollDown,Orange.png,4,Neutral,Neutral,,,,,0,0,0,0,,,,,,,,,,,,,,,,,,,,,,,,,0,37,37,37,,,,,,,,,,,,,,,,,,,,,,,,,,,,,,,,,,,,,,,,,,,,,,,,,,,,,,,,,,,,,,,,,,,,,1.7962963034709294,1.044016499999998,593.6243481000001,None,ScrollUp,정답입니다,593.6243481000001,None,593.6243481000001,None,593.6243481000001,None,593.6243481000001,None,594.5351226000002,None,594.5351226000002,595.0473891000001,,,,,,,,,,,,,,,,218,2022-05-17_15h35.24.816,FishGame,2022.1.1,60.02829733907445,
,39,넌 이해심이 많아,1,Orange,B,6.041666666666668,5.533333333333333,ScrollUp,ScrollDown,Orange.png,4,Positive,Incongruent,,,,,0,0,0,0,,,,,,,,,,,,,,,,,,,,,,,,,0,38,38,38,,,,,,,,,,,,,,,,,,,,,,,,,,,,,,,,,,,,,,,,,,,,,,,,,,,,,,,,,,,,,,,,,,,,,2,0.9852351999998064,595.7107257999996,None,ScrollUp,정답입니다,595.7107257999996,None,595.7107257999996,None,595.7107257999996,None,595.7107257999996,None,596.5551003,None,596.5551003,597.0637981999989,,,,,,,,,,,,,,,,218,2022-05-17_15h35.24.816,FishGame,2022.1.1,60.02829733907445,
,40,나를 보내줘,6,Green,A,0,0,ScrollUp,ScrollDown,Green.png,4,NonTarget,NonTarget,,,,,0,0,0,0,,,,,,,,,,,,,,,,,,,,,,,,,0,39,39,39,,,,,,,,,,,,,,,,,,,,,,,,,,,,,,,,,,,,,,,,,,,,,,,,,,,,,,,,,,,,,,,,,,,,,2,1.110248799999681,597.7084075000002,None,ScrollUp,정답입니다,597.7084075000002,None,597.7084075000002,None,597.7084075000002,None,597.7084075000002,None,598.6969747000003,None,598.6969747000003,599.197177,,,,,,,,,,,,,,,,218,2022-05-17_15h35.24.816,FishGame,2022.1.1,60.02829733907445,
,41,넌 거칠어,4,Green,A,2.625,3.033333333333333,ScrollDown,ScrollUp,Green.png,4,Negative,Incongruent,,,,,0,0,0,0,,,,,,,,,,,,,,,,,,,,,,,,,0,40,40,40,,,,,,,,,,,,,,,,,,,,,,,,,,,,,,,,,,,,,,,,,,,,,,,,,,,,,,,,,,,,,,,,,,,,,1.0663580298423767,1.402458900000056,599.8511533000001,None,ScrollDown,정답입니다,599.8511533000001,None,599.8511533000001,None,599.8511533000001,None,599.8511533000001,None,601.1227715000005,None,601.1227715000005,601.6298759999991,,,,,,,,,,,,,,,,218,2022-05-17_15h35.24.816,FishGame,2022.1.1,60.02829733907445,
,42,넌 변덕맞아,5,Orange,B,2.75,2.166666666666667,ScrollUp,ScrollDown,Orange.png,4,Negative,Congruent,,,,,0,0,0,0,,,,,,,,,,,,,,,,,,,,,,,,,0,41,41,41,,,,,,,,,,,,,,,,,,,,,,,,,,,,,,,,,,,,,,,,,,,,,,,,,,,,,,,,,,,,,,,,,,,,,1.8981481492519379,1.0594449000000168,602.3012779000001,None,ScrollUp,정답입니다,602.3012779000001,None,602.3012779000001,None,602.3012779000001,None,602.3012779000001,None,603.2134571999995,None,603.2134571999995,603.7129783,,,,,,,,,,,,,,,,218,2022-05-17_15h35.24.816,FishGame,2022.1.1,60.02829733907445,
,43,나를 데려가줘,6,Orange,B,0,0,ScrollDown,ScrollUp,Orange.png,4,NonTarget,NonTarget,,,,,0,0,0,0,,,,,,,,,,,,,,,,,,,,,,,,,0,42,42,42,,,,,,,,,,,,,,,,,,,,,,,,,,,,,,,,,,,,,,,,,,,,,,,,,,,,,,,,,,,,,,,,,,,,,1.10030863682429,1.0814061999990372,604.3691877000001,None,ScrollDown,정답입니다,604.3691877000001,None,604.3691877000001,None,604.3691877000001,None,604.3691877000001,None,605.3208381000004,None,605.3208381000004,605.8293271999992,,,,,,,,,,,,,,,,218,2022-05-17_15h35.24.816,FishGame,2022.1.1,60.02829733907445,
,44,넌 외로워,4,Orange,B,2.833333333333333,3.3,ScrollUp,ScrollDown,Orange.png,4,Negative,Congruent,,,,,0,0,0,0,,,,,,,,,,,,,,,,,,,,,,,,,0,43,43,43,,,,,,,,,,,,,,,,,,,,,,,,,,,,,,,,,,,,,,,,,,,,,,,,,,,,,,,,,,,,,,,,,,,,,1.8641975422700245,1.030977399999756,606.4860778999991,None,ScrollUp,정답입니다,606.4860778999991,None,606.4860778999991,None,606.4860778999991,None,606.4860778999991,None,607.3843655000001,None,607.3843655000001,607.8956773999998,,,,,,,,,,,,,,,,218,2022-05-17_15h35.24.816,FishGame,2022.1.1,60.02829733907445,
,1,넌 불평스러워,5,Green,A,2.25,2.066666666666667,ScrollDown,ScrollUp,Green.png,5,Negative,Incongruent,,,,,0,0,0,0,,,,,,,,,,,,,,,,,,,,,,,,,,,,,0,0,0,0,,,,,,,,,,,,,,,,,,,,,,,,644.4577528999998,645.9575303999991,645.9908051000002,646.9407159000002,646.9906458000005,647.9405568999991,647.9405568999991,None,,,,,,,,,,,,,,,,,,,,,,,,,,,,,,,,,,1,1.1661131999990175,649.1304533000002,None,ScrollDown,정답입니다,649.1304533000002,None,649.1304533000002,None,649.1304533000002,None,649.1304533000002,None,650.1191586000004,None,650.1191586000004,650.6235861000005,608.3956818000006,None,608.3956818000006,None,0.24259259,-0.0064814813,1,0,0,0.01617357000031916,None,638.3917438999997,None,,,218,2022-05-17_15h35.24.816,FishGame,2022.1.1,60.02829733907445,
,2,나를 보내줘,6,Green,A,0,0,ScrollUp,ScrollDown,Green.png,5,NonTarget,NonTarget,,,,,0,0,0,0,,,,,,,,,,,,,,,,,,,,,,,,,,,,,0,1,1,1,,,,,,,,,,,,,,,,,,,,,,,,,,,,,,,,,,,,,,,,,,,,,,,,,,,,,,,,,,,,,,,,,2,1.09257339999931,651.2701840999998,None,ScrollUp,정답입니다,651.2701840999998,None,651.2701840999998,None,651.2701840999998,None,651.2701840999998,None,652.2401900000004,None,652.2401900000004,652.7398900999997,,,,,,,,,,,,,,,,218,2022-05-17_15h35.24.816,FishGame,2022.1.1,60.02829733907445,
,3,넌 다재다능해,2,Orange,B,6.208333333333333,4.5,ScrollUp,ScrollDown,Orange.png,5,Positive,Incongruent,,,,,0,0,0,0,,,,,,,,,,,,,,,,,,,,,,,,,,,,,0,2,2,2,,,,,,,,,,,,,,,,,,,,,,,,,,,,,,,,,,,,,,,,,,,,,,,,,,,,,,,,,,,,,,,,,1.9583333432674408,0.7852728999987448,653.3988117999997,None,ScrollUp,정답입니다,653.3988117999997,None,653.3988117999997,None,653.3988117999997,None,653.3988117999997,None,654.0494345999996,None,654.0494345999996,654.5563755999992,,,,,,,,,,,,,,,,218,2022-05-17_15h35.24.816,FishGame,2022.1.1,60.02829733907445,
,4,넌 과감해,3,Green,A,4.833333333333334,4.6,ScrollDown,ScrollUp,Green.png,5,Neutral,Neutral,,,,,0,0,0,0,,,,,,,,,,,,,,,,,,,,,,,,,,,,,0,3,3,3,,,,,,,,,,,,,,,,,,,,,,,,,,,,,,,,,,,,,,,,,,,,,,,,,,,,,,,,,,,,,,,,,1,0.9832501000000775,655.1996330999991,None,ScrollDown,정답입니다,655.1996330999991,None,655.1996330999991,None,655.1996330999991,None,655.1996330999991,None,656.0636832,None,656.0636832,656.5727633999995,,,,,,,,,,,,,,,,218,2022-05-17_15h35.24.816,FishGame,2022.1.1,60.02829733907445,
,5,넌 고분고분해,3,Orange,B,3.75,4.033333333333333,ScrollUp,ScrollDown,Orange.png,5,Neutral,Neutral,,,,,0,0,0,0,,,,,,,,,,,,,,,,,,,,,,,,,,,,,0,4,4,4,,,,,,,,,,,,,,,,,,,,,,,,,,,,,,,,,,,,,,,,,,,,,,,,,,,,,,,,,,,,,,,,,1.9706790049870808,1.401660899999115,657.2317184000003,None,ScrollUp,정답입니다,657.2317184000003,None,657.2317184000003,None,657.2317184000003,None,657.2317184000003,None,658.4968797000001,None,658.4968797000001,659.0058050000007,,,,,,,,,,,,,,,,218,2022-05-17_15h35.24.816,FishGame,2022.1.1,60.02829733907445,
,6,나를 보내줘,6,Green,A,0,0,ScrollUp,ScrollDown,Green.png,5,NonTarget,NonTarget,,,,,0,0,0,0,,,,,,,,,,,,,,,,,,,,,,,,,,,,,0,5,5,5,,,,,,,,,,,,,,,,,,,,,,,,,,,,,,,,,,,,,,,,,,,,,,,,,,,,,,,,,,,,,,,,,1.9490740597248077,1.0103999999992084,659.656771599999,None,ScrollUp,정답입니다,659.656771599999,None,659.656771599999,None,659.656771599999,None,659.656771599999,None,660.5398101999999,None,660.5398101999999,661.0554615000001,,,,,,,,,,,,,,,,218,2022-05-17_15h35.24.816,FishGame,2022.1.1,60.02829733907445,
,7,넌 잘 잊어,4,Green,A,3,3.7,ScrollDown,ScrollUp,Green.png,5,Negative,Incongruent,,,,,0,0,0,0,,,,,,,,,,,,,,,,,,,,,,,,,,,,,0,6,6,6,,,,,,,,,,,,,,,,,,,,,,,,,,,,,,,,,,,,,,,,,,,,,,,,,,,,,,,,,,,,,,,,,1,1.0030905000003258,661.7093158999996,None,ScrollDown,정답입니다,661.7093158999996,None,661.7093158999996,None,661.7093158999996,None,661.7093158999996,None,662.5816164999997,None,662.5816164999997,663.0886023999992,,,,,,,,,,,,,,,,218,2022-05-17_15h35.24.816,FishGame,2022.1.1,60.02829733907445,
,8,넌 탐구심이없어,4,Orange,B,2.833333333333333,3.066666666666667,ScrollUp,ScrollDown,Orange.png,5,Negative,Congruent,,,,,0,0,0,0,,,,,,,,,,,,,,,,,,,,,,,,,,,,,0,7,7,7,,,,,,,,,,,,,,,,,,,,,,,,,,,,,,,,,,,,,,,,,,,,,,,,,,,,,,,,,,,,,,,,,1.9182098805904388,0.9354430999992474,663.7534051000002,None,ScrollUp,정답입니다,663.7534051000002,None,663.7534051000002,None,663.7534051000002,None,663.7534051000002,None,664.5551338000005,None,664.5551338000005,665.054936999999,,,,,,,,,,,,,,,,218,2022-05-17_15h35.24.816,FishGame,2022.1.1,60.02829733907445,
,9,나를 데려가줘,6,Orange,B,0,0,ScrollDown,ScrollUp,Orange.png,5,NonTarget,NonTarget,,,,,0,0,0,0,,,,,,,,,,,,,,,,,,,,,,,,,,,,,0,8,8,8,,,,,,,,,,,,,,,,,,,,,,,,,,,,,,,,,,,,,,,,,,,,,,,,,,,,,,,,,,,,,,,,,1.0231481393178303,2.3263301999995747,665.7078615999999,None,ScrollDown,정답입니다,665.7078615999999,None,665.7078615999999,None,665.7078615999999,None,665.7078615999999,None,667.9046641000004,None,667.9046641000004,668.4045045999992,,,,,,,,,,,,,,,,218,2022-05-17_15h35.24.816,FishGame,2022.1.1,60.02829733907445,
,10,넌 참되어,2,Green,A,6.041666666666664,4.733333333333333,ScrollDown,ScrollUp,Green.png,5,Positive,Congruent,,,,,0,0,0,0,,,,,,,,,,,,,,,,,,,,,,,,,,,,,0,9,9,9,,,,,,,,,,,,,,,,,,,,,,,,,,,,,,,,,,,,,,,,,,,,,,,,,,,,,,,,,,,,,,,,,1.0524691541989644,1.2177119000007224,669.0558397999994,None,ScrollDown,정답입니다,669.0558397999994,None,669.0558397999994,None,669.0558397999994,None,669.0558397999994,None,670.1463951000005,None,670.1463951000005,670.6543277000001,,,,,,,,,,,,,,,,218,2022-05-17_15h35.24.816,FishGame,2022.1.1,60.02829733907445,
,11,넌 생기있어,1,Orange,B,5.875,5.633333333333334,ScrollUp,ScrollDown,Orange.png,5,Positive,Incongruent,,,,,0,0,0,0,,,,,,,,,,,,,,,,,,,,,,,,,,,,,0,10,10,10,,,,,,,,,,,,,,,,,,,,,,,,,,,,,,,,,,,,,,,,,,,,,,,,,,,,,,,,,,,,,,,,,1.7577160547176998,0.9496999000002688,671.3162525000007,None,ScrollUp,정답입니다,671.3162525000007,None,671.3162525000007,None,671.3162525000007,None,671.3162525000007,None,672.1282787,None,672.1282787,672.637314399999,,,,,,,,,,,,,,,,218,2022-05-17_15h35.24.816,FishGame,2022.1.1,60.02829733907445,
,12,넌 비사교적이야,4,Orange,B,2.875,2.9,ScrollUp,ScrollDown,Orange.png,5,Negative,Congruent,,,,,0,0,0,0,,,,,,,,,,,,,,,,,,,,,,,,,,,,,0,11,11,11,,,,,,,,,,,,,,,,,,,,,,,,,,,,,,,,,,,,,,,,,,,,,,,,,,,,,,,,,,,,,,,,,1.6512345671653748,1.028108799999245,673.2869823000001,None,ScrollUp,정답입니다,673.2869823000001,None,673.2869823000001,None,673.2869823000001,None,673.2869823000001,None,674.1884090999993,None,674.1884090999993,674.7037017000002,,,,,,,,,,,,,,,,218,2022-05-17_15h35.24.816,FishGame,2022.1.1,60.02829733907445,
,13,나를 데려가줘,6,Orange,B,0,0,ScrollDown,ScrollUp,Orange.png,5,NonTarget,NonTarget,,,,,0,0,0,0,,,,,,,,,,,,,,,,,,,,,,,,,,,,,0,12,12,12,,,,,,,,,,,,,,,,,,,,,,,,,,,,,,,,,,,,,,,,,,,,,,,,,,,,,,,,,,,,,,,,,1.09413580596447,2.30919989999893,675.355388,None,ScrollDown,정답입니다,675.355388,None,675.355388,None,675.355388,None,675.355388,None,677.5367702999993,None,677.5367702999993,678.0365853999992,,,,,,,,,,,,,,,,218,2022-05-17_15h35.24.816,FishGame,2022.1.1,60.02829733907445,
,14,넌 고독해,4,Green,A,2.916666666666667,3.233333333333333,ScrollDown,ScrollUp,Green.png,5,Negative,Incongruent,,,,,0,0,0,0,,,,,,,,,,,,,,,,,,,,,,,,,,,,,0,13,13,13,,,,,,,,,,,,,,,,,,,,,,,,,,,,,,,,,,,,,,,,,,,,,,,,,,,,,,,,,,,,,,,,,1.162037044763565,1.2090260000004491,678.6860414999992,None,ScrollDown,정답입니다,678.6860414999992,None,678.6860414999992,None,678.6860414999992,None,678.6860414999992,None,679.7699690999998,None,679.7699690999998,680.2696957999997,,,,,,,,,,,,,,,,218,2022-05-17_15h35.24.816,FishGame,2022.1.1,60.02829733907445,
,15,넌 신경질적이야,5,Orange,B,2.375,2.233333333333333,ScrollUp,ScrollDown,Orange.png,5,Negative,Congruent,,,,,0,0,0,0,,,,,,,,,,,,,,,,,,,,,,,,,,,,,0,14,14,14,,,,,,,,,,,,,,,,,,,,,,,,,,,,,,,,,,,,,,,,,,,,,,,,,,,,,,,,,,,,,,,,,2,1.109620499999437,680.9287074000003,None,ScrollUp,정답입니다,680.9287074000003,None,680.9287074000003,None,680.9287074000003,None,680.9287074000003,None,681.9029776999996,None,681.9029776999996,682.4027580000002,,,,,,,,,,,,,,,,218,2022-05-17_15h35.24.816,FishGame,2022.1.1,60.02829733907445,
,16,넌 똑똑해,2,Orange,B,5.666666666666667,3.966666666666667,ScrollUp,ScrollDown,Orange.png,5,Positive,Incongruent,,,,,0,0,0,0,,,,,,,,,,,,,,,,,,,,,,,,,,,,,0,15,15,15,,,,,,,,,,,,,,,,,,,,,,,,,,,,,,,,,,,,,,,,,,,,,,,,,,,,,,,,,,,,,,,,,1.9783950746059418,1.0163601000003837,683.0636147999994,None,ScrollUp,정답입니다,683.0636147999994,None,683.0636147999994,None,683.0636147999994,None,683.0636147999994,None,683.9449659000002,None,683.9449659000002,684.4524827000005,,,,,,,,,,,,,,,,218,2022-05-17_15h35.24.816,FishGame,2022.1.1,60.02829733907445,
,17,나를 보내줘,6,Green,A,0,0,ScrollUp,ScrollDown,Green.png,5,NonTarget,NonTarget,,,,,0,0,0,0,,,,,,,,,,,,,,,,,,,,,,,,,,,,,0,16,16,16,,,,,,,,,,,,,,,,,,,,,,,,,,,,,,,,,,,,,,,,,,,,,,,,,,,,,,,,,,,,,,,,,2,1.5828880999997637,685.0965703999991,None,ScrollUp,정답입니다,685.0965703999991,None,685.0965703999991,None,685.0965703999991,None,685.0965703999991,None,686.5585764999996,None,686.5585764999996,687.068680299999,,,,,,,,,,,,,,,,218,2022-05-17_15h35.24.816,FishGame,2022.1.1,60.02829733907445,
,18,넌 협조적이야,1,Green,A,5.625,5.666666666666667,ScrollDown,ScrollUp,Green.png,5,Positive,Congruent,,,,,0,0,0,0,,,,,,,,,,,,,,,,,,,,,,,,,,,,,0,17,17,17,,,,,,,,,,,,,,,,,,,,,,,,,,,,,,,,,,,,,,,,,,,,,,,,,,,,,,,,,,,,,,,,,1,0.9794918000006874,687.7177013,None,ScrollDown,정답입니다,687.7177013,None,687.7177013,None,687.7177013,None,687.7177013,None,688.5742730999991,None,688.5742730999991,689.0851301999992,,,,,,,,,,,,,,,,218,2022-05-17_15h35.24.816,FishGame,2022.1.1,60.02829733907445,
,19,나를 데려가줘,6,Orange,B,0,0,ScrollDown,ScrollUp,Orange.png,5,NonTarget,NonTarget,,,,,0,0,0,0,,,,,,,,,,,,,,,,,,,,,,,,,,,,,0,18,18,18,,,,,,,,,,,,,,,,,,,,,,,,,,,,,,,,,,,,,,,,,,,,,,,,,,,,,,,,,,,,,,,,,1.1666666616996129,1.3086793999991642,689.7405003000003,None,ScrollDown,정답입니다,689.7405003000003,None,689.7405003000003,None,689.7405003000003,None,689.7405003000003,None,690.9132941999997,None,690.9132941999997,691.4182363,,,,,,,,,,,,,,,,218,2022-05-17_15h35.24.816,FishGame,2022.1.1,60.02829733907445,
,20,넌 몰인정해,5,Orange,B,2.541666666666667,2.066666666666667,ScrollUp,ScrollDown,Orange.png,5,Negative,Congruent,,,,,0,0,0,0,,,,,,,,,,,,,,,,,,,,,,,,,,,,,0,19,19,19,,,,,,,,,,,,,,,,,,,,,,,,,,,,,,,,,,,,,,,,,,,,,,,,,,,,,,,,,,,,,,,,,1.8441358109315236,1.0926130000007106,692.0811864999996,None,ScrollUp,정답입니다,692.0811864999996,None,692.0811864999996,None,692.0811864999996,None,692.0811864999996,None,693.034501099999,None,693.034501099999,693.5345913000001,,,,,,,,,,,,,,,,218,2022-05-17_15h35.24.816,FishGame,2022.1.1,60.02829733907445,
,21,나를 데려가줘,6,Orange,B,0,0,ScrollDown,ScrollUp,Orange.png,5,NonTarget,NonTarget,,,,,0,0,0,0,,,,,,,,,,,,,,,,,,,,,,,,,,,,,0,20,20,20,,,,,,,,,,,,,,,,,,,,,,,,,,,,,,,,,,,,,,,,,,,,,,,,,,,,,,,,,,,,,,,,,1.2037036965290706,0.8480791999991197,694.1867982999993,None,ScrollDown,정답입니다,694.1867982999993,None,694.1867982999993,None,694.1867982999993,None,694.1867982999993,None,694.9079005000003,None,694.9079005000003,695.4176723,,,,,,,,,,,,,,,,218,2022-05-17_15h35.24.816,FishGame,2022.1.1,60.02829733907445,
,22,넌 순진해,3,Orange,B,4.125,4.166666666666667,ScrollUp,ScrollDown,Orange.png,5,Neutral,Neutral,,,,,0,0,0,0,,,,,,,,,,,,,,,,,,,,,,,,,,,,,0,21,21,21,,,,,,,,,,,,,,,,,,,,,,,,,,,,,,,,,,,,,,,,,,,,,,,,,,,,,,,,,,,,,,,,,1.5555555584530034,0.8441032999999152,696.0718885000006,None,ScrollUp,정답입니다,696.0718885000006,None,696.0718885000006,None,696.0718885000006,None,696.0718885000006,None,696.784448299999,None,696.784448299999,697.2841358000005,,,,,,,,,,,,,,,,218,2022-05-17_15h35.24.816,FishGame,2022.1.1,60.02829733907445,
,23,넌 신뢰할만해,1,Green,A,6.625,5.533333333333333,ScrollDown,ScrollUp,Green.png,5,Positive,Congruent,,,,,0,0,0,0,,,,,,,,,,,,,,,,,,,,,,,,,,,,,0,22,22,22,,,,,,,,,,,,,,,,,,,,,,,,,,,,,,,,,,,,,,,,,,,,,,,,,,,,,,,,,,,,,,,,,1.2515432039896646,1.0099774999998772,697.9407498,None,ScrollDown,정답입니다,697.9407498,None,697.9407498,None,697.9407498,None,697.9407498,None,698.8206305999993,None,698.8206305999993,699.3338346,,,,,,,,,,,,,,,,218,2022-05-17_15h35.24.816,FishGame,2022.1.1,60.02829733907445,
,24,나를 보내줘,6,Green,A,0,0,ScrollUp,ScrollDown,Green.png,5,NonTarget,NonTarget,,,,,0,0,0,0,,,,,,,,,,,,,,,,,,,,,,,,,,,,,0,23,23,23,,,,,,,,,,,,,,,,,,,,,,,,,,,,,,,,,,,,,,,,,,,,,,,,,,,,,,,,,,,,,,,,,1.4691358022391796,0.9448974999995698,699.9838233999999,None,NoResponse,무응답입니다,699.9838233999999,None,699.9838233999999,None,699.9838233999999,None,699.9838233999999,None,700.8079619,None,700.8079619,701.3169822,,,,,,,,,,,,,,,,218,2022-05-17_15h35.24.816,FishGame,2022.1.1,60.02829733907445,
,25,넌 인색해,5,Green,A,2.625,2.233333333333333,ScrollDown,ScrollUp,Green.png,5,Negative,Incongruent,,,,,0,0,0,0,,,,,,,,,,,,,,,,,,,,,,,,,,,,,0,24,24,24,,,,,,,,,,,,,,,,,,,,,,,,,,,,,,,,,,,,,,,,,,,,,,,,,,,,,,,,,,,,,,,,,1.0570987462997437,1.4317706000001635,701.9724540000007,None,ScrollDown,정답입니다,701.9724540000007,None,701.9724540000007,None,701.9724540000007,None,701.9724540000007,None,703.2750827,None,703.2750827,703.7832744999996,,,,,,,,,,,,,,,,218,2022-05-17_15h35.24.816,FishGame,2022.1.1,60.02829733907445,
