name,TrialNum,Word,WordCategory,FishType,WordList,WordValence,WordReputation,CorrectResp,IncorrectResp,FishTypeFile,Round,WordType,Condition,LoopforOrange.thisRepN,LoopforOrange.thisTrialN,LoopforOrange.thisN,LoopforOrange.thisIndex,OrangeInstLoop.thisRepN,OrangeInstLoop.thisTrialN,OrangeInstLoop.thisN,OrangeInstLoop.thisIndex,OrangePrac.thisRepN,OrangePrac.thisTrialN,OrangePrac.thisN,OrangePrac.thisIndex,temp1.thisRepN,temp1.thisTrialN,temp1.thisN,temp1.thisIndex,OrangeRound1.thisRepN,OrangeRound1.thisTrialN,OrangeRound1.thisN,OrangeRound1.thisIndex,OrangeRound2.thisRepN,OrangeRound2.thisTrialN,OrangeRound2.thisN,OrangeRound2.thisIndex,OrangeRound3.thisRepN,OrangeRound3.thisTrialN,OrangeRound3.thisN,OrangeRound3.thisIndex,OrangeRound4.thisRepN,OrangeRound4.thisTrialN,OrangeRound4.thisN,OrangeRound4.thisIndex,OrangeRound5.thisRepN,OrangeRound5.thisTrialN,OrangeRound5.thisN,OrangeRound5.thisIndex,LoopForGreen.thisRepN,LoopForGreen.thisTrialN,LoopForGreen.thisN,LoopForGreen.thisIndex,text_2.started,text_2.stopped,text_3.started,text_3.stopped,key_resp.keys,key_resp.rt,key_resp.started,key_resp.stopped,PassI_2.started,PassI_2.stopped,PassInst_2.keys,PassInst_2.rt,PassInst_2.started,PassInst_2.stopped,mouse_2.x,mouse_2.y,mouse_2.leftButton,mouse_2.midButton,mouse_2.rightButton,mouse_2.started,mouse_2.stopped,image.started,image.stopped,text_5.started,text_5.stopped,text_6.started,text_6.stopped,text_7.started,text_7.stopped,text_8.started,text_8.stopped,slider_2.response,slider_2.rt,slider_2.started,slider_2.stopped,Response_2,Feedback_2,BackGround_2.started,BackGround_2.stopped,Fish_2.started,Fish_2.stopped,WordBox_2.started,WordBox_2.stopped,Words_2.started,Words_2.stopped,BackGround_Feedback_2.started,BackGround_Feedback_2.stopped,Feedbacks_2.started,Feedbacks_2.stopped,Continue_or_not.keys,Continue_or_not.rt,Continue_or_not.started,Continue_or_not.stopped,image_3.started,image_3.stopped,mouse_3.x,mouse_3.y,mouse_3.leftButton,mouse_3.midButton,mouse_3.rightButton,mouse_3.started,mouse_3.stopped,startmain.started,startmain.stopped,slider.response,slider.rt,slider.started,slider.stopped,Response,Feedback,BackGround.started,BackGround.stopped,Fish.started,Fish.stopped,WordBox.started,WordBox.stopped,Words.started,Words.stopped,BackGround_Feedback.started,BackGround_Feedback.stopped,Feedbacks.started,Feedbacks.stopped,text.started,text.stopped,break_interval.started,break_interval.stopped,mouse.x,mouse.y,mouse.leftButton,mouse.midButton,mouse.rightButton,mouse.started,mouse.stopped,stratnextround.started,stratnextround.stopped,endgame.started,endgame.stopped,participant,date,expName,psychopyVersion,frameRate,
,,,,,,,,,,,,,,,,,,,,,,,,,,,,,,,,,,,,,,,,,,,,,,,,,,,,,,22.343517000000247,None,22.343517000000247,None,space,3.3476393000000826,22.824240100000225,None,,,,,,,,,,,,,,,,,,,,,,,,,,,,,,,,,,,,,,,,,,,,,,,,,,,,,,,,,,,,,,,,,,,,,,,,,,,,,,,,,,,,,,,,,,219,2022-05-18_16h20.25.418,FishGame,2022.1.1,59.96480066192989,
물고기과제_instruction(참가자용)OrangeVersion.mp4,,,,,,,,,,,,,,0,0,0,0,0,0,0,0,,,,,,,,,,,,,,,,,,,,,,,,,,,,,,,,,,,,,,,,,93.07628999999997,None,n,3.411796100000174,93.07628999999997,None,,,,,,,,,,,,,,,,,,,,,,,,,,,,,,,,,,,,,,,,,,,,,,,,,,,,,,,,,,,,,,,,,,,,,,,,,,,,,,,,,,,,219,2022-05-18_16h20.25.418,FishGame,2022.1.1,59.96480066192989,
,1,넌 교활해,5,Green,B,2.333333333333333,2.133333333333333,ScrollUp,ScrollDown,Green.png,practice,,,0,0,0,0,,,,,0,0,0,0,0,0,0,0,,,,,,,,,,,,,,,,,,,,,,,,,,,,,,,,,,,,,,,0.3101852,0.075925924,1,0,0,0.5137716599997475,None,96.5146150999999,None,99.83108279999988,101.330825,101.3640906999999,102.31399509999983,102.36391820000017,103.31382029999986,103.31382029999986,None,1.4938271606030564,1.7959273999999823,104.50024590000021,None,NoResponse,무응답입니다,104.50024590000021,None,104.50024590000021,None,104.50024590000021,None,104.50024590000021,None,106.12423709999985,None,106.12423709999985,106.62990279999985,,,,,,,,,,,,,,,,,,,,,,,,,,,,,,,,,,,,,,,,,,,,,,,,,219,2022-05-18_16h20.25.418,FishGame,2022.1.1,59.96480066192989,
,2,넌 슬기로워,2,Orange,A,6.166666666666667,4.1,ScrollDown,ScrollUp,Orange.png,practice,,,0,0,0,0,,,,,0,0,0,0,0,1,1,1,,,,,,,,,,,,,,,,,,,,,,,,,,,,,,,,,,,,,,,,,,,,,,,,,,,,,,,,1,1.394148700000187,107.29881520000026,None,ScrollDown,정답입니다,107.29881520000026,None,107.29881520000026,None,107.29881520000026,None,107.29881520000026,None,108.54956619999984,None,108.54956619999984,109.06283979999989,,,,,,,,,,,,,,,,,,,,,,,,,,,,,,,,,,,,,,,,,,,,,,,,,219,2022-05-18_16h20.25.418,FishGame,2022.1.1,59.96480066192989,
,3,나를 보내줘,6,Orange,A,0,0,ScrollUp,ScrollDown,Orange.png,practice,,,0,0,0,0,,,,,0,0,0,0,0,2,2,2,,,,,,,,,,,,,,,,,,,,,,,,,,,,,,,,,,,,,,,,,,,,,,,,,,,,,,,,2,1.280721199999789,109.72524920000023,None,ScrollUp,정답입니다,109.72524920000023,None,109.72524920000023,None,109.72524920000023,None,109.72524920000023,None,110.86574780000001,None,110.86574780000001,111.37931620000018,,,,,,,,,,,,,,,,,,,,,,,,,,,,,,,,,,,,,,,,,,,,,,,,,219,2022-05-18_16h20.25.418,FishGame,2022.1.1,59.96480066192989,
,4,나를 데려가줘,6,Green,B,0,0,ScrollDown,ScrollUp,Green.png,practice,,,0,0,0,0,,,,,0,0,0,0,0,3,3,3,,,,,,,,,,,,,,,,,,,,,,,,,,,,,,,,,,,,,,,,,,,,,,,,,,,,,,,,1,1.255446099999972,112.03111780000017,None,ScrollDown,정답입니다,112.03111780000017,None,112.03111780000017,None,112.03111780000017,None,112.03111780000017,None,113.16230410000026,None,113.16230410000026,113.6623239999999,,,,,,,,,,,,,,,,,,,,,,,,,,,,,,,,,,,,,,,,,,,,,,,,,219,2022-05-18_16h20.25.418,FishGame,2022.1.1,59.96480066192989,
,1,넌 교활해,5,Green,B,2.333333333333333,2.133333333333333,ScrollUp,ScrollDown,Green.png,practice,,,0,0,0,0,,,,,0,0,0,0,,,,,,,,,,,,,,,,,,,,,,,,,,,,,,,,,,,,,,,,,,,,,,,,,,,,,,,,,,,,,,,,,,,,,,,,,,,,,,n,2.8429439999999886,114.16216339999983,None,114.16216339999983,None,,,,,,,,,,,,,,,,,,,,,,,,,,,,,,,,,,,,,,,,,,,219,2022-05-18_16h20.25.418,FishGame,2022.1.1,59.96480066192989,
,1,넌 따뜻해,1,Green,B,6.083333333333333,5.6,ScrollUp,ScrollDown,Green.png,1,Positive,Incongruent,0,0,0,0,,,,,,,,,,,,,0,0,0,0,,,,,,,,,,,,,,,,,,,,,,,,,,,,,,,,,,,,,,,,,,,,119.84507660000008,121.34476429999995,121.37809049999987,122.32792830000017,122.3779727000001,123.32781400000022,123.32781400000022,None,,,,,,,,,,,,,,,,,,,,,,,,,0.097222224,0.15462963,1,0,0,0.3136780599998019,None,117.02858860000015,None,2,1.529237799999919,124.53463439999996,None,ScrollUp,정답입니다,124.53463439999996,None,124.53463439999996,None,124.53463439999996,None,124.53463439999996,None,125.88033089999999,None,125.88033089999999,126.39403099999981,,,,,,,,,,,,,,,,219,2022-05-18_16h20.25.418,FishGame,2022.1.1,59.96480066192989,
,2,넌 기품있어,2,Green,B,5.791666666666668,4.5,ScrollUp,ScrollDown,Green.png,1,Positive,Incongruent,0,0,0,0,,,,,,,,,,,,,0,1,1,1,,,,,,,,,,,,,,,,,,,,,,,,,,,,,,,,,,,,,,,,,,,,,,,,,,,,,,,,,,,,,,,,,,,,,,,,,,,,,,,,,,,,,2,1.1565326999998433,127.04170359999989,None,ScrollUp,정답입니다,127.04170359999989,None,127.04170359999989,None,127.04170359999989,None,127.04170359999989,None,128.06085339999981,None,128.06085339999981,128.56054799999993,,,,,,,,,,,,,,,,219,2022-05-18_16h20.25.418,FishGame,2022.1.1,59.96480066192989,
,3,나를 보내줘,6,Orange,A,0,0,ScrollUp,ScrollDown,Orange.png,1,NonTarget,NonTarget,0,0,0,0,,,,,,,,,,,,,0,2,2,2,,,,,,,,,,,,,,,,,,,,,,,,,,,,,,,,,,,,,,,,,,,,,,,,,,,,,,,,,,,,,,,,,,,,,,,,,,,,,,,,,,,,,2,1.3558285000003707,129.23034229999985,None,ScrollUp,정답입니다,129.23034229999985,None,129.23034229999985,None,129.23034229999985,None,129.23034229999985,None,130.44345320000002,None,130.44345320000002,130.94348489999993,,,,,,,,,,,,,,,,219,2022-05-18_16h20.25.418,FishGame,2022.1.1,59.96480066192989,
,4,넌 수동적이야,4,Orange,A,2.833333333333333,2.933333333333333,ScrollDown,ScrollUp,Orange.png,1,Negative,Incongruent,0,0,0,0,,,,,,,,,,,,,0,3,3,3,,,,,,,,,,,,,,,,,,,,,,,,,,,,,,,,,,,,,,,,,,,,,,,,,,,,,,,,,,,,,,,,,,,,,,,,,,,,,,,,,,,,,1,1.512778000000253,131.62405059999992,None,ScrollDown,정답입니다,131.62405059999992,None,131.62405059999992,None,131.62405059999992,None,131.62405059999992,None,132.97910580000007,None,132.97910580000007,133.49311790000002,,,,,,,,,,,,,,,,219,2022-05-18_16h20.25.418,FishGame,2022.1.1,59.96480066192989,
,5,넌 사심이 없어,3,Green,B,4.916666666666666,4.333333333333333,ScrollUp,ScrollDown,Green.png,1,Neutral,Neutral,0,0,0,0,,,,,,,,,,,,,0,4,4,4,,,,,,,,,,,,,,,,,,,,,,,,,,,,,,,,,,,,,,,,,,,,,,,,,,,,,,,,,,,,,,,,,,,,,,,,,,,,,,,,,,,,,1.9891975224018097,1.316961800000172,134.15502419999984,None,ScrollUp,정답입니다,134.15502419999984,None,134.15502419999984,None,134.15502419999984,None,134.15502419999984,None,135.33150680000017,None,135.33150680000017,135.84281340000007,,,,,,,,,,,,,,,,219,2022-05-18_16h20.25.418,FishGame,2022.1.1,59.96480066192989,
,6,넌 헤퍼,5,Orange,A,2.458333333333334,2.233333333333333,ScrollDown,ScrollUp,Orange.png,1,Negative,Incongruent,0,0,0,0,,,,,,,,,,,,,0,5,5,5,,,,,,,,,,,,,,,,,,,,,,,,,,,,,,,,,,,,,,,,,,,,,,,,,,,,,,,,,,,,,,,,,,,,,,,,,,,,,,,,,,,,,1.0324074228604634,1.4504250999998476,136.50582429999986,None,ScrollDown,정답입니다,136.50582429999986,None,136.50582429999986,None,136.50582429999986,None,136.50582429999986,None,137.81544239999994,None,137.81544239999994,138.32577170000013,,,,,,,,,,,,,,,,219,2022-05-18_16h20.25.418,FishGame,2022.1.1,59.96480066192989,
,7,넌 말쑥해,3,Orange,A,4.833333333333334,4.333333333333333,ScrollDown,ScrollUp,Orange.png,1,Neutral,Neutral,0,0,0,0,,,,,,,,,,,,,0,6,6,6,,,,,,,,,,,,,,,,,,,,,,,,,,,,,,,,,,,,,,,,,,,,,,,,,,,,,,,,,,,,,,,,,,,,,,,,,,,,,,,,,,,,,1.0972222338120143,1.07574459999978,138.9890018000001,None,ScrollDown,정답입니다,138.9890018000001,None,138.9890018000001,None,138.9890018000001,None,138.9890018000001,None,139.92570109999997,None,139.92570109999997,140.42552750000004,,,,,,,,,,,,,,,,219,2022-05-18_16h20.25.418,FishGame,2022.1.1,59.96480066192989,
,8,넌 투덜거려,5,Green,B,2.541666666666667,2.266666666666667,ScrollUp,ScrollDown,Green.png,1,Negative,Congruent,0,0,0,0,,,,,,,,,,,,,0,7,7,7,,,,,,,,,,,,,,,,,,,,,,,,,,,,,,,,,,,,,,,,,,,,,,,,,,,,,,,,,,,,,,,,,,,,,,,,,,,,,,,,,,,,,2,1.2606621999998424,141.08990110000013,None,ScrollUp,정답입니다,141.08990110000013,None,141.08990110000013,None,141.08990110000013,None,141.08990110000013,None,142.20862880000004,None,142.20862880000004,142.7085605000002,,,,,,,,,,,,,,,,219,2022-05-18_16h20.25.418,FishGame,2022.1.1,59.96480066192989,
,9,넌 적극적이야,1,Orange,A,5.708333333333333,5.533333333333333,ScrollDown,ScrollUp,Orange.png,1,Positive,Congruent,0,0,0,0,,,,,,,,,,,,,0,8,8,8,,,,,,,,,,,,,,,,,,,,,,,,,,,,,,,,,,,,,,,,,,,,,,,,,,,,,,,,,,,,,,,,,,,,,,,,,,,,,,,,,,,,,1,1.142916199999945,143.37040419999994,None,ScrollDown,정답입니다,143.37040419999994,None,143.37040419999994,None,143.37040419999994,None,143.37040419999994,None,144.37516959999994,None,144.37516959999994,144.87495489999992,,,,,,,,,,,,,,,,219,2022-05-18_16h20.25.418,FishGame,2022.1.1,59.96480066192989,
,10,넌 재미없어,4,Green,B,2.625,2.966666666666667,ScrollUp,ScrollDown,Green.png,1,Negative,Congruent,0,0,0,0,,,,,,,,,,,,,0,9,9,9,,,,,,,,,,,,,,,,,,,,,,,,,,,,,,,,,,,,,,,,,,,,,,,,,,,,,,,,,,,,,,,,,,,,,,,,,,,,,,,,,,,,,1.8703703731298447,1.1381993999998485,145.53322489999982,None,ScrollUp,정답입니다,145.53322489999982,None,145.53322489999982,None,145.53322489999982,None,145.53322489999982,None,146.53450980000025,None,146.53450980000025,147.04134699999986,,,,,,,,,,,,,,,,219,2022-05-18_16h20.25.418,FishGame,2022.1.1,59.96480066192989,
,11,넌 명석해,2,Orange,A,5.875,4.033333333333333,ScrollDown,ScrollUp,Orange.png,1,Positive,Congruent,0,0,0,0,,,,,,,,,,,,,0,10,10,10,,,,,,,,,,,,,,,,,,,,,,,,,,,,,,,,,,,,,,,,,,,,,,,,,,,,,,,,,,,,,,,,,,,,,,,,,,,,,,,,,,,,,1,1.1670890999998846,147.70431529999996,None,ScrollDown,정답입니다,147.70431529999996,None,147.70431529999996,None,147.70431529999996,None,147.70431529999996,None,148.7319652000001,None,148.7319652000001,149.24102270000003,,,,,,,,,,,,,,,,219,2022-05-18_16h20.25.418,FishGame,2022.1.1,59.96480066192989,
,12,나를 데려가줘,6,Green,B,0,0,ScrollDown,ScrollUp,Green.png,1,NonTarget,NonTarget,0,0,0,0,,,,,,,,,,,,,0,11,11,11,,,,,,,,,,,,,,,,,,,,,,,,,,,,,,,,,,,,,,,,,,,,,,,,,,,,,,,,,,,,,,,,,,,,,,,,,,,,,,,,,,,,,1,1.4147851000002447,149.90068810000002,None,ScrollDown,정답입니다,149.90068810000002,None,149.90068810000002,None,149.90068810000002,None,149.90068810000002,None,151.1783061000001,None,151.1783061000001,151.6907701,,,,,,,,,,,,,,,,219,2022-05-18_16h20.25.418,FishGame,2022.1.1,59.96480066192989,
,13,넌 소심해,4,Orange,A,3,3.1,ScrollDown,ScrollUp,Orange.png,1,Negative,Incongruent,0,0,0,0,,,,,,,,,,,,,0,12,12,12,,,,,,,,,,,,,,,,,,,,,,,,,,,,,,,,,,,,,,,,,,,,,,,,,,,,,,,,,,,,,,,,,,,,,,,,,,,,,,,,,,,,,1,1.295198000000255,152.35392790000014,None,ScrollDown,정답입니다,152.35392790000014,None,152.35392790000014,None,152.35392790000014,None,152.35392790000014,None,153.50761610000018,None,153.50761610000018,154.00710459999982,,,,,,,,,,,,,,,,219,2022-05-18_16h20.25.418,FishGame,2022.1.1,59.96480066192989,
,14,넌 합리적이야,2,Orange,A,5.583333333333333,4.733333333333333,ScrollDown,ScrollUp,Orange.png,1,Positive,Congruent,0,0,0,0,,,,,,,,,,,,,0,13,13,13,,,,,,,,,,,,,,,,,,,,,,,,,,,,,,,,,,,,,,,,,,,,,,,,,,,,,,,,,,,,,,,,,,,,,,,,,,,,,,,,,,,,,1.0046296219031017,1.1475839999998243,154.67916160000004,None,ScrollDown,정답입니다,154.67916160000004,None,154.67916160000004,None,154.67916160000004,None,154.67916160000004,None,155.67879840000023,None,155.67879840000023,156.19011420000015,,,,,,,,,,,,,,,,219,2022-05-18_16h20.25.418,FishGame,2022.1.1,59.96480066192989,
,15,넌 무자비해,5,Green,B,2.333333333333333,2.1,ScrollUp,ScrollDown,Green.png,1,Negative,Congruent,0,0,0,0,,,,,,,,,,,,,0,14,14,14,,,,,,,,,,,,,,,,,,,,,,,,,,,,,,,,,,,,,,,,,,,,,,,,,,,,,,,,,,,,,,,,,,,,,,,,,,,,,,,,,,,,,2,1.1810458999998446,156.84884030000012,None,ScrollUp,정답입니다,156.84884030000012,None,156.84884030000012,None,156.84884030000012,None,156.84884030000012,None,157.89378100000022,None,157.89378100000022,158.4066597000001,,,,,,,,,,,,,,,,219,2022-05-18_16h20.25.418,FishGame,2022.1.1,59.96480066192989,
,16,나를 보내줘,6,Orange,A,0,0,ScrollUp,ScrollDown,Orange.png,1,NonTarget,NonTarget,0,0,0,0,,,,,,,,,,,,,0,15,15,15,,,,,,,,,,,,,,,,,,,,,,,,,,,,,,,,,,,,,,,,,,,,,,,,,,,,,,,,,,,,,,,,,,,,,,,,,,,,,,,,,,,,,2,1.2188034000000698,159.06370130000005,None,ScrollUp,정답입니다,159.06370130000005,None,159.06370130000005,None,159.06370130000005,None,159.06370130000005,None,160.14637070000026,None,160.14637070000026,160.65624509999998,,,,,,,,,,,,,,,,219,2022-05-18_16h20.25.418,FishGame,2022.1.1,59.96480066192989,
,17,넌 현실적이야,3,Green,B,4.608695652173913,4.766666666666667,ScrollUp,ScrollDown,Green.png,1,Neutral,Neutral,0,0,0,0,,,,,,,,,,,,,0,16,16,16,,,,,,,,,,,,,,,,,,,,,,,,,,,,,,,,,,,,,,,,,,,,,,,,,,,,,,,,,,,,,,,,,,,,,,,,,,,,,,,,,,,,,2,1.9623563000000104,161.3170841000001,None,ScrollUp,정답입니다,161.3170841000001,None,161.3170841000001,None,161.3170841000001,None,161.3170841000001,None,163.1417623000002,None,163.1417623000002,163.6558771,,,,,,,,,,,,,,,,219,2022-05-18_16h20.25.418,FishGame,2022.1.1,59.96480066192989,
,18,넌 의리있어,1,Green,B,5.833333333333334,5.633333333333334,ScrollUp,ScrollDown,Green.png,1,Positive,Incongruent,0,0,0,0,,,,,,,,,,,,,0,17,17,17,,,,,,,,,,,,,,,,,,,,,,,,,,,,,,,,,,,,,,,,,,,,,,,,,,,,,,,,,,,,,,,,,,,,,,,,,,,,,,,,,,,,,1.9922839502493541,1.0998639999997977,164.3118875,None,ScrollUp,정답입니다,164.3118875,None,164.3118875,None,164.3118875,None,164.3118875,None,165.2776705000001,None,165.2776705000001,165.78890709999996,,,,,,,,,,,,,,,,219,2022-05-18_16h20.25.418,FishGame,2022.1.1,59.96480066192989,
,19,넌 신경과민이야,5,Orange,A,2.541666666666667,2.166666666666667,ScrollDown,ScrollUp,Orange.png,1,Negative,Incongruent,0,0,0,0,,,,,,,,,,,,,0,18,18,18,,,,,,,,,,,,,,,,,,,,,,,,,,,,,,,,,,,,,,,,,,,,,,,,,,,,,,,,,,,,,,,,,,,,,,,,,,,,,,,,,,,,,1,1.2069737000001624,166.45893750000005,None,ScrollDown,정답입니다,166.45893750000005,None,166.45893750000005,None,166.45893750000005,None,166.45893750000005,None,167.52198240000007,None,167.52198240000007,168.0220892000002,,,,,,,,,,,,,,,,219,2022-05-18_16h20.25.418,FishGame,2022.1.1,59.96480066192989,
,20,넌 편안해,1,Orange,A,5.916666666666666,5.866666666666666,ScrollDown,ScrollUp,Orange.png,1,Positive,Congruent,0,0,0,0,,,,,,,,,,,,,0,19,19,19,,,,,,,,,,,,,,,,,,,,,,,,,,,,,,,,,,,,,,,,,,,,,,,,,,,,,,,,,,,,,,,,,,,,,,,,,,,,,,,,,,,,,1,1.3349124000001211,168.70321439999998,None,ScrollDown,정답입니다,168.70321439999998,None,168.70321439999998,None,168.70321439999998,None,168.70321439999998,None,169.87857840000015,None,169.87857840000015,170.38827660000015,,,,,,,,,,,,,,,,219,2022-05-18_16h20.25.418,FishGame,2022.1.1,59.96480066192989,
,21,넌 품위있어,2,Green,B,5.291666666666666,4.466666666666667,ScrollUp,ScrollDown,Green.png,1,Positive,Incongruent,0,0,0,0,,,,,,,,,,,,,0,20,20,20,,,,,,,,,,,,,,,,,,,,,,,,,,,,,,,,,,,,,,,,,,,,,,,,,,,,,,,,,,,,,,,,,,,,,,,,,,,,,,,,,,,,,2,1.1513878999999179,171.04407189999984,None,ScrollUp,정답입니다,171.04407189999984,None,171.04407189999984,None,171.04407189999984,None,171.04407189999984,None,172.06138939999983,None,172.06138939999983,172.57126819999985,,,,,,,,,,,,,,,,219,2022-05-18_16h20.25.418,FishGame,2022.1.1,59.96480066192989,
,22,넌 빈틈없어,3,Orange,A,4.833333333333333,3.966666666666667,ScrollDown,ScrollUp,Orange.png,1,Neutral,Neutral,0,0,0,0,,,,,,,,,,,,,0,21,21,21,,,,,,,,,,,,,,,,,,,,,,,,,,,,,,,,,,,,,,,,,,,,,,,,,,,,,,,,,,,,,,,,,,,,,,,,,,,,,,,,,,,,,1,1.149514900000213,173.23548130000017,None,ScrollDown,정답입니다,173.23548130000017,None,173.23548130000017,None,173.23548130000017,None,173.23548130000017,None,174.24327390000008,None,174.24327390000008,174.75458849999995,,,,,,,,,,,,,,,,219,2022-05-18_16h20.25.418,FishGame,2022.1.1,59.96480066192989,
,23,넌 상상력없어,4,Green,B,2.833333333333333,3.133333333333333,ScrollUp,ScrollDown,Green.png,1,Negative,Congruent,0,0,0,0,,,,,,,,,,,,,0,22,22,22,,,,,,,,,,,,,,,,,,,,,,,,,,,,,,,,,,,,,,,,,,,,,,,,,,,,,,,,,,,,,,,,,,,,,,,,,,,,,,,,,,,,,2,1.1059268999997585,175.40593380000018,None,ScrollUp,정답입니다,175.40593380000018,None,175.40593380000018,None,175.40593380000018,None,175.40593380000018,None,176.38762039999983,None,176.38762039999983,176.88748369999985,,,,,,,,,,,,,,,,219,2022-05-18_16h20.25.418,FishGame,2022.1.1,59.96480066192989,
,24,넌 지혜로워,2,Green,B,6.333333333333334,4.633333333333334,ScrollUp,ScrollDown,Green.png,1,Positive,Incongruent,0,0,0,0,,,,,,,,,,,,,0,23,23,23,,,,,,,,,,,,,,,,,,,,,,,,,,,,,,,,,,,,,,,,,,,,,,,,,,,,,,,,,,,,,,,,,,,,,,,,,,,,,,,,,,,,,2,1.1005326999998033,177.55120269999998,None,ScrollUp,정답입니다,177.55120269999998,None,177.55120269999998,None,177.55120269999998,None,177.55120269999998,None,178.51052389999995,None,178.51052389999995,179.02053090000027,,,,,,,,,,,,,,,,219,2022-05-18_16h20.25.418,FishGame,2022.1.1,59.96480066192989,
,25,넌 시끄러워,4,Orange,A,2.833333333333333,3.033333333333333,ScrollDown,ScrollUp,Orange.png,1,Negative,Incongruent,0,0,0,0,,,,,,,,,,,,,0,24,24,24,,,,,,,,,,,,,,,,,,,,,,,,,,,,,,,,,,,,,,,,,,,,,,,,,,,,,,,,,,,,,,,,,,,,,,,,,,,,,,,,,,,,,1,1.1790095999999721,179.6937582999999,None,ScrollDown,정답입니다,179.6937582999999,None,179.6937582999999,None,179.6937582999999,None,179.6937582999999,None,180.72056699999985,None,180.72056699999985,181.2202268000001,,,,,,,,,,,,,,,,219,2022-05-18_16h20.25.418,FishGame,2022.1.1,59.96480066192989,
,26,넌 만사태평이야,3,Green,B,4,4.333333333333333,ScrollUp,ScrollDown,Green.png,1,Neutral,Neutral,0,0,0,0,,,,,,,,,,,,,0,25,25,25,,,,,,,,,,,,,,,,,,,,,,,,,,,,,,,,,,,,,,,,,,,,,,,,,,,,,,,,,,,,,,,,,,,,,,,,,,,,,,,,,,,,,2,1.1088020999995933,181.88240429999996,None,ScrollUp,정답입니다,181.88240429999996,None,181.88240429999996,None,181.88240429999996,None,181.88240429999996,None,182.85351889999993,None,182.85351889999993,183.3533735000001,,,,,,,,,,,,,,,,219,2022-05-18_16h20.25.418,FishGame,2022.1.1,59.96480066192989,
,27,넌 붙임성있어,1,Orange,A,5.708333333333333,5.633333333333334,ScrollDown,ScrollUp,Orange.png,1,Positive,Congruent,0,0,0,0,,,,,,,,,,,,,0,26,26,26,,,,,,,,,,,,,,,,,,,,,,,,,,,,,,,,,,,,,,,,,,,,,,,,,,,,,,,,,,,,,,,,,,,,,,,,,,,,,,,,,,,,,1,1.2589444999998705,184.01919210000005,None,ScrollDown,정답입니다,184.01919210000005,None,184.01919210000005,None,184.01919210000005,None,184.01919210000005,None,185.13646430000017,None,185.13646430000017,185.63633400000026,,,,,,,,,,,,,,,,219,2022-05-18_16h20.25.418,FishGame,2022.1.1,59.96480066192989,
,28,넌 영리해,2,Orange,A,6,4.033333333333333,ScrollDown,ScrollUp,Orange.png,1,Positive,Congruent,0,0,0,0,,,,,,,,,,,,,0,27,27,27,,,,,,,,,,,,,,,,,,,,,,,,,,,,,,,,,,,,,,,,,,,,,,,,,,,,,,,,,,,,,,,,,,,,,,,,,,,,,,,,,,,,,1,0.9232323999999608,186.2950363,None,ScrollDown,정답입니다,186.2950363,None,186.2950363,None,186.2950363,None,186.2950363,None,187.087,None,187.087,187.58621219999986,,,,,,,,,,,,,,,,219,2022-05-18_16h20.25.418,FishGame,2022.1.1,59.96480066192989,
,29,넌 열심이야,1,Green,B,6.041666666666667,5.833333333333333,ScrollUp,ScrollDown,Green.png,1,Positive,Incongruent,0,0,0,0,,,,,,,,,,,,,0,28,28,28,,,,,,,,,,,,,,,,,,,,,,,,,,,,,,,,,,,,,,,,,,,,,,,,,,,,,,,,,,,,,,,,,,,,,,,,,,,,,,,,,,,,,2,1.0533606999997573,188.24169280000024,None,ScrollUp,정답입니다,188.24169280000024,None,188.24169280000024,None,188.24169280000024,None,188.24169280000024,None,189.16085569999996,None,189.16085569999996,189.66925450000008,,,,,,,,,,,,,,,,219,2022-05-18_16h20.25.418,FishGame,2022.1.1,59.96480066192989,
,30,넌 인기없어,4,Green,B,3,3.3,ScrollUp,ScrollDown,Green.png,1,Negative,Congruent,0,0,0,0,,,,,,,,,,,,,0,29,29,29,,,,,,,,,,,,,,,,,,,,,,,,,,,,,,,,,,,,,,,,,,,,,,,,,,,,,,,,,,,,,,,,,,,,,,,,,,,,,,,,,,,,,2,1.1051079999997455,190.32377170000018,None,ScrollUp,정답입니다,190.32377170000018,None,190.32377170000018,None,190.32377170000018,None,190.32377170000018,None,191.29605570000012,None,191.29605570000012,191.80226380000022,,,,,,,,,,,,,,,,219,2022-05-18_16h20.25.418,FishGame,2022.1.1,59.96480066192989,
,31,넌 익살스러워,3,Orange,A,4.708333333333334,4.833333333333333,ScrollDown,ScrollUp,Orange.png,1,Neutral,Neutral,0,0,0,0,,,,,,,,,,,,,0,30,30,30,,,,,,,,,,,,,,,,,,,,,,,,,,,,,,,,,,,,,,,,,,,,,,,,,,,,,,,,,,,,,,,,,,,,,,,,,,,,,,,,,,,,,1,1.0681592999999339,192.46906609999996,None,ScrollDown,정답입니다,192.46906609999996,None,192.46906609999996,None,192.46906609999996,None,192.46906609999996,None,193.3919664,None,193.3919664,193.90188799999987,,,,,,,,,,,,,,,,219,2022-05-18_16h20.25.418,FishGame,2022.1.1,59.96480066192989,
,32,넌 이기적이야,5,Green,B,2.291666666666667,2.333333333333333,ScrollUp,ScrollDown,Green.png,1,Negative,Congruent,0,0,0,0,,,,,,,,,,,,,0,31,31,31,,,,,,,,,,,,,,,,,,,,,,,,,,,,,,,,,,,,,,,,,,,,,,,,,,,,,,,,,,,,,,,,,,,,,,,,,,,,,,,,,,,,,2,1.135548000000199,194.55156020000004,None,ScrollUp,정답입니다,194.55156020000004,None,194.55156020000004,None,194.55156020000004,None,194.55156020000004,None,195.5595661000002,None,195.5595661000002,196.0683422000002,,,,,,,,,,,,,,,,219,2022-05-18_16h20.25.418,FishGame,2022.1.1,59.96480066192989,
,33,나를 데려가줘,6,Green,B,0,0,ScrollDown,ScrollUp,Green.png,1,NonTarget,NonTarget,0,0,0,0,,,,,,,,,,,,,0,32,32,32,,,,,,,,,,,,,,,,,,,,,,,,,,,,,,,,,,,,,,,,,,,,,,,,,,,,,,,,,,,,,,,,,,,,,,,,,,,,,,,,,,,,,1,1.2835010999997394,196.71759299999985,None,ScrollDown,정답입니다,196.71759299999985,None,196.71759299999985,None,196.71759299999985,None,196.71759299999985,None,197.87374009999985,None,197.87374009999985,198.3846668000001,,,,,,,,,,,,,,,,219,2022-05-18_16h20.25.418,FishGame,2022.1.1,59.96480066192989,
,34,넌 기회주의자야,5,Orange,A,2.875,2.133333333333333,ScrollDown,ScrollUp,Orange.png,1,Negative,Incongruent,0,0,0,0,,,,,,,,,,,,,0,33,33,33,,,,,,,,,,,,,,,,,,,,,,,,,,,,,,,,,,,,,,,,,,,,,,,,,,,,,,,,,,,,,,,,,,,,,,,,,,,,,,,,,,,,,1.0046296219031017,1.2059952999998131,199.0483303000001,None,ScrollDown,정답입니다,199.0483303000001,None,199.0483303000001,None,199.0483303000001,None,199.0483303000001,None,200.11792819999982,None,200.11792819999982,200.61773080000012,,,,,,,,,,,,,,,,219,2022-05-18_16h20.25.418,FishGame,2022.1.1,59.96480066192989,
,1,넌 미성숙해,4,Orange,A,3,3.2,ScrollDown,ScrollUp,Orange.png,2,Negative,Incongruent,0,0,0,0,,,,,,,,,,,,,,,,,0,0,0,0,,,,,,,,,,,,,,,,,,,,,,,,,,,,,,,,,,,,,,,,235.83015549999982,237.32973270000002,237.3630416000001,238.31295709999995,238.3629609999998,239.31280319999996,239.31280319999996,None,,,,,,,,,,,,,,,,,,,,,,,,,,,,,,,,,,1,1.278505799999948,240.51026120000006,None,ScrollDown,정답입니다,240.51026120000006,None,240.51026120000006,None,240.51026120000006,None,240.51026120000006,None,241.60464439999987,None,241.60464439999987,242.11234000000013,201.11767409999993,None,201.11767409999993,None,0.25555557,-0.121296294,1,0,0,0.01603575999979512,None,231.13048740000022,None,,,219,2022-05-18_16h20.25.418,FishGame,2022.1.1,59.96480066192989,
,2,넌 반사회적이야,5,Green,B,2.416666666666667,2.033333333333333,ScrollUp,ScrollDown,Green.png,2,Negative,Congruent,0,0,0,0,,,,,,,,,,,,,,,,,0,1,1,1,,,,,,,,,,,,,,,,,,,,,,,,,,,,,,,,,,,,,,,,,,,,,,,,,,,,,,,,,,,,,,,,,,,,,,,,,,,,,,,,,2,0.9997587000002568,242.76836289999983,None,ScrollUp,정답입니다,242.76836289999983,None,242.76836289999983,None,242.76836289999983,None,242.76836289999983,None,243.6354110000002,None,243.6354110000002,244.14546789999986,,,,,,,,,,,,,,,,219,2022-05-18_16h20.25.418,FishGame,2022.1.1,59.96480066192989,
,3,넌 유능해,2,Orange,A,6.208333333333333,4.433333333333334,ScrollDown,ScrollUp,Orange.png,2,Positive,Congruent,0,0,0,0,,,,,,,,,,,,,,,,,0,2,2,2,,,,,,,,,,,,,,,,,,,,,,,,,,,,,,,,,,,,,,,,,,,,,,,,,,,,,,,,,,,,,,,,,,,,,,,,,,,,,,,,,1.0030864079793294,0.9787126000001081,244.8084214999999,None,ScrollDown,정답입니다,244.8084214999999,None,244.8084214999999,None,244.8084214999999,None,244.8084214999999,None,245.64537830000017,None,245.64537830000017,246.14512819999982,,,,,,,,,,,,,,,,219,2022-05-18_16h20.25.418,FishGame,2022.1.1,59.96480066192989,
,4,넌 능숙해,2,Green,B,5.666666666666667,4.733333333333333,ScrollUp,ScrollDown,Green.png,2,Positive,Incongruent,0,0,0,0,,,,,,,,,,,,,,,,,0,3,3,3,,,,,,,,,,,,,,,,,,,,,,,,,,,,,,,,,,,,,,,,,,,,,,,,,,,,,,,,,,,,,,,,,,,,,,,,,,,,,,,,,1.7839506169160206,1.0566788999999517,246.79381430000012,None,ScrollUp,정답입니다,246.79381430000012,None,246.79381430000012,None,246.79381430000012,None,246.79381430000012,None,247.72521629999983,None,247.72521629999983,248.22820660000025,,,,,,,,,,,,,,,,219,2022-05-18_16h20.25.418,FishGame,2022.1.1,59.96480066192989,
,5,넌 진부해,4,Green,B,2.458333333333333,3.166666666666667,ScrollUp,ScrollDown,Green.png,2,Negative,Congruent,0,0,0,0,,,,,,,,,,,,,,,,,0,4,4,4,,,,,,,,,,,,,,,,,,,,,,,,,,,,,,,,,,,,,,,,,,,,,,,,,,,,,,,,,,,,,,,,,,,,,,,,,,,,,,,,,2,0.9948544999997466,248.88496149999992,None,ScrollUp,정답입니다,248.88496149999992,None,248.88496149999992,None,248.88496149999992,None,248.88496149999992,None,249.74537109999983,None,249.74537109999983,250.24459070000012,,,,,,,,,,,,,,,,219,2022-05-18_16h20.25.418,FishGame,2022.1.1,59.96480066192989,
,6,나를 보내줘,6,Orange,A,0,0,ScrollUp,ScrollDown,Orange.png,2,NonTarget,NonTarget,0,0,0,0,,,,,,,,,,,,,,,,,0,5,5,5,,,,,,,,,,,,,,,,,,,,,,,,,,,,,,,,,,,,,,,,,,,,,,,,,,,,,,,,,,,,,,,,,,,,,,,,,,,,,,,,,1.837962955236435,1.2774136000002727,250.89816419999988,None,ScrollUp,정답입니다,250.89816419999988,None,250.89816419999988,None,250.89816419999988,None,250.89816419999988,None,252.04455460000008,None,252.04455460000008,252.5442908,,,,,,,,,,,,,,,,219,2022-05-18_16h20.25.418,FishGame,2022.1.1,59.96480066192989,
,7,넌 엄격해,3,Orange,A,4.166666666666666,4.1,ScrollDown,ScrollUp,Orange.png,2,Neutral,Neutral,0,0,0,0,,,,,,,,,,,,,,,,,0,6,6,6,,,,,,,,,,,,,,,,,,,,,,,,,,,,,,,,,,,,,,,,,,,,,,,,,,,,,,,,,,,,,,,,,,,,,,,,,,,,,,,,,1,1.0355389000001196,253.20817780000016,None,ScrollDown,정답입니다,253.20817780000016,None,253.20817780000016,None,253.20817780000016,None,253.20817780000016,None,254.10230690000026,None,254.10230690000026,254.61074580000013,,,,,,,,,,,,,,,,219,2022-05-18_16h20.25.418,FishGame,2022.1.1,59.96480066192989,
,8,나를 보내줘,6,Orange,A,0,0,ScrollUp,ScrollDown,Orange.png,2,NonTarget,NonTarget,0,0,0,0,,,,,,,,,,,,,,,,,0,7,7,7,,,,,,,,,,,,,,,,,,,,,,,,,,,,,,,,,,,,,,,,,,,,,,,,,,,,,,,,,,,,,,,,,,,,,,,,,,,,,,,,,2,1.5753896000001077,255.26568959999986,None,ScrollUp,정답입니다,255.26568959999986,None,255.26568959999986,None,255.26568959999986,None,255.26568959999986,None,256.71073049999995,None,256.71073049999995,257.21032849999983,,,,,,,,,,,,,,,,219,2022-05-18_16h20.25.418,FishGame,2022.1.1,59.96480066192989,
,9,넌 대담해,3,Green,B,4.875,4.866666666666666,ScrollUp,ScrollDown,Green.png,2,Neutral,Neutral,0,0,0,0,,,,,,,,,,,,,,,,,0,8,8,8,,,,,,,,,,,,,,,,,,,,,,,,,,,,,,,,,,,,,,,,,,,,,,,,,,,,,,,,,,,,,,,,,,,,,,,,,,,,,,,,,1.9212963084379833,1.0600718000000597,257.86875800000007,None,ScrollUp,정답입니다,257.86875800000007,None,257.86875800000007,None,257.86875800000007,None,257.86875800000007,None,258.79366519999985,None,258.79366519999985,259.2934805,,,,,,,,,,,,,,,,219,2022-05-18_16h20.25.418,FishGame,2022.1.1,59.96480066192989,
,10,넌 꾸준해,1,Orange,A,5.916666666666668,5.8,ScrollDown,ScrollUp,Orange.png,2,Positive,Congruent,0,0,0,0,,,,,,,,,,,,,,,,,0,9,9,9,,,,,,,,,,,,,,,,,,,,,,,,,,,,,,,,,,,,,,,,,,,,,,,,,,,,,,,,,,,,,,,,,,,,,,,,,,,,,,,,,1,1.0622034000002714,259.9567826000002,None,ScrollDown,정답입니다,259.9567826000002,None,259.9567826000002,None,259.9567826000002,None,259.9567826000002,None,260.87710019999986,None,260.87710019999986,261.3765162999998,,,,,,,,,,,,,,,,219,2022-05-18_16h20.25.418,FishGame,2022.1.1,59.96480066192989,
,11,나를 데려가줘,6,Green,B,0,0,ScrollDown,ScrollUp,Green.png,2,NonTarget,NonTarget,0,0,0,0,,,,,,,,,,,,,,,,,0,10,10,10,,,,,,,,,,,,,,,,,,,,,,,,,,,,,,,,,,,,,,,,,,,,,,,,,,,,,,,,,,,,,,,,,,,,,,,,,,,,,,,,,1.1913580348094304,1.1866228999997475,262.02874109999993,None,ScrollDown,정답입니다,262.02874109999993,None,262.02874109999993,None,262.02874109999993,None,262.02874109999993,None,263.0863024,None,263.0863024,263.59282759999996,,,,,,,,,,,,,,,,219,2022-05-18_16h20.25.418,FishGame,2022.1.1,59.96480066192989,
,12,넌 독선적이야,5,Orange,A,2.458333333333333,1.933333333333333,ScrollDown,ScrollUp,Orange.png,2,Negative,Incongruent,0,0,0,0,,,,,,,,,,,,,,,,,0,11,11,11,,,,,,,,,,,,,,,,,,,,,,,,,,,,,,,,,,,,,,,,,,,,,,,,,,,,,,,,,,,,,,,,,,,,,,,,,,,,,,,,,1.0771604776382446,1.0143763000000945,264.2603933999999,None,ScrollDown,정답입니다,264.2603933999999,None,264.2603933999999,None,264.2603933999999,None,264.2603933999999,None,265.1310711000001,None,265.1310711000001,265.642691,,,,,,,,,,,,,,,,219,2022-05-18_16h20.25.418,FishGame,2022.1.1,59.96480066192989,
,13,나를 보내줘,6,Orange,A,0,0,ScrollUp,ScrollDown,Orange.png,2,NonTarget,NonTarget,0,0,0,0,,,,,,,,,,,,,,,,,0,12,12,12,,,,,,,,,,,,,,,,,,,,,,,,,,,,,,,,,,,,,,,,,,,,,,,,,,,,,,,,,,,,,,,,,,,,,,,,,,,,,,,,,1.8657407313585281,1.017958599999929,266.29871820000017,None,ScrollUp,정답입니다,266.29871820000017,None,266.29871820000017,None,266.29871820000017,None,266.29871820000017,None,267.1817762999999,None,267.1817762999999,267.69240249999984,,,,,,,,,,,,,,,,219,2022-05-18_16h20.25.418,FishGame,2022.1.1,59.96480066192989,
,14,넌 책임감있어,1,Green,B,6.347826086956522,6,ScrollUp,ScrollDown,Green.png,2,Positive,Incongruent,0,0,0,0,,,,,,,,,,,,,,,,,0,13,13,13,,,,,,,,,,,,,,,,,,,,,,,,,,,,,,,,,,,,,,,,,,,,,,,,,,,,,,,,,,,,,,,,,,,,,,,,,,,,,,,,,2,1.13229229999979,268.3521267000001,None,ScrollUp,정답입니다,268.3521267000001,None,268.3521267000001,None,268.3521267000001,None,268.3521267000001,None,269.34695839999995,None,269.34695839999995,269.8587889999999,,,,,,,,,,,,,,,,219,2022-05-18_16h20.25.418,FishGame,2022.1.1,59.96480066192989,
,15,넌 문학적이야,3,Orange,A,4.708333333333334,4.333333333333333,ScrollDown,ScrollUp,Orange.png,2,Neutral,Neutral,0,0,0,0,,,,,,,,,,,,,,,,,0,14,14,14,,,,,,,,,,,,,,,,,,,,,,,,,,,,,,,,,,,,,,,,,,,,,,,,,,,,,,,,,,,,,,,,,,,,,,,,,,,,,,,,,1.1095678955316544,1.166096700000253,270.5247081000002,None,ScrollDown,정답입니다,270.5247081000002,None,270.5247081000002,None,270.5247081000002,None,270.5247081000002,None,271.54814590000024,None,271.54814590000024,272.0584632,,,,,,,,,,,,,,,,219,2022-05-18_16h20.25.418,FishGame,2022.1.1,59.96480066192989,
,16,넌 재미있어,1,Green,B,5.875,5.7,ScrollUp,ScrollDown,Green.png,2,Positive,Incongruent,0,0,0,0,,,,,,,,,,,,,,,,,0,15,15,15,,,,,,,,,,,,,,,,,,,,,,,,,,,,,,,,,,,,,,,,,,,,,,,,,,,,,,,,,,,,,,,,,,,,,,,,,,,,,,,,,2,1.0241737000001194,272.7064983999999,None,ScrollUp,정답입니다,272.7064983999999,None,272.7064983999999,None,272.7064983999999,None,272.7064983999999,None,273.60851660000026,None,273.60851660000026,274.10847550000017,,,,,,,,,,,,,,,,219,2022-05-18_16h20.25.418,FishGame,2022.1.1,59.96480066192989,
,17,나를 데려가줘,6,Green,B,0,0,ScrollDown,ScrollUp,Green.png,2,NonTarget,NonTarget,0,0,0,0,,,,,,,,,,,,,,,,,0,16,16,16,,,,,,,,,,,,,,,,,,,,,,,,,,,,,,,,,,,,,,,,,,,,,,,,,,,,,,,,,,,,,,,,,,,,,,,,,,,,,,,,,1,1.1019047999998293,274.7542306,None,ScrollDown,정답입니다,274.7542306,None,274.7542306,None,274.7542306,None,274.7542306,None,275.73253509999995,None,275.73253509999995,276.2413467000001,,,,,,,,,,,,,,,,219,2022-05-18_16h20.25.418,FishGame,2022.1.1,59.96480066192989,
,18,넌 협력적이야,1,Orange,A,5.625,5.633333333333334,ScrollDown,ScrollUp,Orange.png,2,Positive,Congruent,0,0,0,0,,,,,,,,,,,,,,,,,0,17,17,17,,,,,,,,,,,,,,,,,,,,,,,,,,,,,,,,,,,,,,,,,,,,,,,,,,,,,,,,,,,,,,,,,,,,,,,,,,,,,,,,,1.0293209950129192,1.0651640999999472,276.9020848,None,ScrollDown,정답입니다,276.9020848,None,276.9020848,None,276.9020848,None,276.9020848,None,277.82984780000015,None,277.82984780000015,278.34109249999983,,,,,,,,,,,,,,,,219,2022-05-18_16h20.25.418,FishGame,2022.1.1,59.96480066192989,
,19,넌 평범해,3,Green,B,4.333333333333332,4.233333333333333,ScrollUp,ScrollDown,Green.png,2,Neutral,Neutral,0,0,0,0,,,,,,,,,,,,,,,,,0,18,18,18,,,,,,,,,,,,,,,,,,,,,,,,,,,,,,,,,,,,,,,,,,,,,,,,,,,,,,,,,,,,,,,,,,,,,,,,,,,,,,,,,2,1.1165556999999353,278.99607479999986,None,ScrollUp,정답입니다,278.99607479999986,None,278.99607479999986,None,278.99607479999986,None,278.99607479999986,None,279.9794541000001,None,279.9794541000001,280.49067490000016,,,,,,,,,,,,,,,,219,2022-05-18_16h20.25.418,FishGame,2022.1.1,59.96480066192989,
,20,넌 오만해,5,Orange,A,2.333333333333333,2,ScrollDown,ScrollUp,Orange.png,2,Negative,Incongruent,0,0,0,0,,,,,,,,,,,,,,,,,0,19,19,19,,,,,,,,,,,,,,,,,,,,,,,,,,,,,,,,,,,,,,,,,,,,,,,,,,,,,,,,,,,,,,,,,,,,,,,,,,,,,,,,,1.1913580348094304,0.9984020000001692,281.1567433,None,ScrollDown,정답입니다,281.1567433,None,281.1567433,None,281.1567433,None,281.1567433,None,282.0121269000001,None,282.0121269000001,282.5238325,,,,,,,,,,,,,,,,219,2022-05-18_16h20.25.418,FishGame,2022.1.1,59.96480066192989,
,21,넌 운이없어,4,Green,B,3,3.466666666666667,ScrollUp,ScrollDown,Green.png,2,Negative,Congruent,0,0,0,0,,,,,,,,,,,,,,,,,0,20,20,20,,,,,,,,,,,,,,,,,,,,,,,,,,,,,,,,,,,,,,,,,,,,,,,,,,,,,,,,,,,,,,,,,,,,,,,,,,,,,,,,,1.9861110945542653,1.382880799999839,283.18254990000014,None,ScrollUp,정답입니다,283.18254990000014,None,283.18254990000014,None,283.18254990000014,None,283.18254990000014,None,284.42875520000007,None,284.42875520000007,284.94012470000007,,,,,,,,,,,,,,,,219,2022-05-18_16h20.25.418,FishGame,2022.1.1,59.96480066192989,
,22,넌 창조적이야,2,Green,B,6.125,4.633333333333334,ScrollUp,ScrollDown,Green.png,2,Positive,Incongruent,0,0,0,0,,,,,,,,,,,,,,,,,0,21,21,21,,,,,,,,,,,,,,,,,,,,,,,,,,,,,,,,,,,,,,,,,,,,,,,,,,,,,,,,,,,,,,,,,,,,,,,,,,,,,,,,,2,0.9227352999996583,285.5985461,None,ScrollUp,정답입니다,285.5985461,None,285.5985461,None,285.5985461,None,285.5985461,None,286.38993960000016,None,286.38993960000016,286.8900417,,,,,,,,,,,,,,,,219,2022-05-18_16h20.25.418,FishGame,2022.1.1,59.96480066192989,
,23,나를 보내줘,6,Orange,A,0,0,ScrollUp,ScrollDown,Orange.png,2,NonTarget,NonTarget,0,0,0,0,,,,,,,,,,,,,,,,,0,22,22,22,,,,,,,,,,,,,,,,,,,,,,,,,,,,,,,,,,,,,,,,,,,,,,,,,,,,,,,,,,,,,,,,,,,,,,,,,,,,,,,,,2,1.1728220999998484,287.54410700000017,None,ScrollUp,정답입니다,287.54410700000017,None,287.54410700000017,None,287.54410700000017,None,287.54410700000017,None,288.58991289999994,None,288.58991289999994,289.08979980000004,,,,,,,,,,,,,,,,219,2022-05-18_16h20.25.418,FishGame,2022.1.1,59.96480066192989,
,24,넌 통찰력있어,2,Orange,A,6.5,4.8,ScrollDown,ScrollUp,Orange.png,2,Positive,Congruent,0,0,0,0,,,,,,,,,,,,,,,,,0,23,23,23,,,,,,,,,,,,,,,,,,,,,,,,,,,,,,,,,,,,,,,,,,,,,,,,,,,,,,,,,,,,,,,,,,,,,,,,,,,,,,,,,1.1589506169160206,1.0157772999996268,289.75486180000007,None,ScrollDown,정답입니다,289.75486180000007,None,289.75486180000007,None,289.75486180000007,None,289.75486180000007,None,290.6294542999999,None,290.6294542999999,291.13936120000017,,,,,,,,,,,,,,,,219,2022-05-18_16h20.25.418,FishGame,2022.1.1,59.96480066192989,
,25,넌 경솔해,5,Green,B,2.458333333333333,2.266666666666667,ScrollUp,ScrollDown,Green.png,2,Negative,Congruent,0,0,0,0,,,,,,,,,,,,,,,,,0,24,24,24,,,,,,,,,,,,,,,,,,,,,,,,,,,,,,,,,,,,,,,,,,,,,,,,,,,,,,,,,,,,,,,,,,,,,,,,,,,,,,,,,2,0.9993205000000671,291.79371660000015,None,ScrollUp,정답입니다,291.79371660000015,None,291.79371660000015,None,291.79371660000015,None,291.79371660000015,None,292.66132319999997,None,292.66132319999997,293.1724531,,,,,,,,,,,,,,,,219,2022-05-18_16h20.25.418,FishGame,2022.1.1,59.96480066192989,
,26,넌 초조해,4,Orange,A,2.916666666666667,3.133333333333333,ScrollDown,ScrollUp,Orange.png,2,Negative,Incongruent,0,0,0,0,,,,,,,,,,,,,,,,,0,25,25,25,,,,,,,,,,,,,,,,,,,,,,,,,,,,,,,,,,,,,,,,,,,,,,,,,,,,,,,,,,,,,,,,,,,,,,,,,,,,,,,,,1.1697530895471573,1.110381800000141,293.83208079999986,None,ScrollDown,정답입니다,293.83208079999986,None,293.83208079999986,None,293.83208079999986,None,293.83208079999986,None,294.8017451999999,None,294.8017451999999,295.30543050000006,,,,,,,,,,,,,,,,219,2022-05-18_16h20.25.418,FishGame,2022.1.1,59.96480066192989,
,27,넌 무관심해,4,Green,B,2.833333333333333,2.9,ScrollUp,ScrollDown,Green.png,2,Negative,Congruent,0,0,0,0,,,,,,,,,,,,,,,,,0,26,26,26,,,,,,,,,,,,,,,,,,,,,,,,,,,,,,,,,,,,,,,,,,,,,,,,,,,,,,,,,,,,,,,,,,,,,,,,,,,,,,,,,1.9969135920206706,1.0006364000000758,295.95943309999984,None,ScrollUp,정답입니다,295.95943309999984,None,295.95943309999984,None,295.95943309999984,None,295.95943309999984,None,296.8287156000001,None,296.8287156000001,297.33858009999994,,,,,,,,,,,,,,,,219,2022-05-18_16h20.25.418,FishGame,2022.1.1,59.96480066192989,
,28,넌 감성적이야,3,Green,B,4.125,4.166666666666667,ScrollUp,ScrollDown,Green.png,2,Neutral,Neutral,0,0,0,0,,,,,,,,,,,,,,,,,0,27,27,27,,,,,,,,,,,,,,,,,,,,,,,,,,,,,,,,,,,,,,,,,,,,,,,,,,,,,,,,,,,,,,,,,,,,,,,,,,,,,,,,,2,0.9983999999999469,297.9853748999999,None,ScrollUp,정답입니다,297.9853748999999,None,297.9853748999999,None,297.9853748999999,None,297.9853748999999,None,298.8598142000001,None,298.8598142000001,299.37159870000005,,,,,,,,,,,,,,,,219,2022-05-18_16h20.25.418,FishGame,2022.1.1,59.96480066192989,
,29,넌 배려심있어,1,Orange,A,6.083333333333333,5.5,ScrollDown,ScrollUp,Orange.png,2,Positive,Congruent,0,0,0,0,,,,,,,,,,,,,,,,,0,28,28,28,,,,,,,,,,,,,,,,,,,,,,,,,,,,,,,,,,,,,,,,,,,,,,,,,,,,,,,,,,,,,,,,,,,,,,,,,,,,,,,,,1.1095678955316544,0.9058554000002914,300.03393689999984,None,ScrollDown,정답입니다,300.03393689999984,None,300.03393689999984,None,300.03393689999984,None,300.03393689999984,None,300.804721,None,300.804721,301.3047953999999,,,,,,,,,,,,,,,,219,2022-05-18_16h20.25.418,FishGame,2022.1.1,59.96480066192989,
,30,넌 숨김없어,3,Orange,A,4.5,4.933333333333334,ScrollDown,ScrollUp,Orange.png,2,Neutral,Neutral,0,0,0,0,,,,,,,,,,,,,,,,,0,29,29,29,,,,,,,,,,,,,,,,,,,,,,,,,,,,,,,,,,,,,,,,,,,,,,,,,,,,,,,,,,,,,,,,,,,,,,,,,,,,,,,,,1,0.9833404999999402,301.9709361,None,ScrollDown,정답입니다,301.9709361,None,301.9709361,None,301.9709361,None,301.9709361,None,302.8098427,None,302.8098427,303.3211194999999,,,,,,,,,,,,,,,,219,2022-05-18_16h20.25.418,FishGame,2022.1.1,59.96480066192989,
,31,넌 훌륭해,2,Green,B,5.916666666666667,4.033333333333333,ScrollUp,ScrollDown,Green.png,2,Positive,Incongruent,0,0,0,0,,,,,,,,,,,,,,,,,0,30,30,30,,,,,,,,,,,,,,,,,,,,,,,,,,,,,,,,,,,,,,,,,,,,,,,,,,,,,,,,,,,,,,,,,,,,,,,,,,,,,,,,,1.9182098805904388,0.9436585999997078,303.9791209,None,ScrollUp,정답입니다,303.9791209,None,303.9791209,None,303.9791209,None,303.9791209,None,304.7878390999999,None,304.7878390999999,305.2874683,,,,,,,,,,,,,,,,219,2022-05-18_16h20.25.418,FishGame,2022.1.1,59.96480066192989,
,32,넌 슬기로워,2,Orange,A,6.166666666666667,4.1,ScrollDown,ScrollUp,Orange.png,2,Positive,Congruent,0,0,0,0,,,,,,,,,,,,,,,,,0,31,31,31,,,,,,,,,,,,,,,,,,,,,,,,,,,,,,,,,,,,,,,,,,,,,,,,,,,,,,,,,,,,,,,,,,,,,,,,,,,,,,,,,1,0.9014600999998947,305.9430738000001,None,ScrollDown,정답입니다,305.9430738000001,None,305.9430738000001,None,305.9430738000001,None,305.9430738000001,None,306.7116295000001,None,306.7116295000001,307.22070269999995,,,,,,,,,,,,,,,,219,2022-05-18_16h20.25.418,FishGame,2022.1.1,59.96480066192989,
,33,넌 냉혹해,5,Orange,A,2.583333333333333,2.1,ScrollDown,ScrollUp,Orange.png,2,Negative,Incongruent,0,0,0,0,,,,,,,,,,,,,,,,,0,32,32,32,,,,,,,,,,,,,,,,,,,,,,,,,,,,,,,,,,,,,,,,,,,,,,,,,,,,,,,,,,,,,,,,,,,,,,,,,,,,,,,,,1,0.9605607000003147,307.88518479999993,None,ScrollDown,정답입니다,307.88518479999993,None,307.88518479999993,None,307.88518479999993,None,307.88518479999993,None,308.7039711000002,None,308.7039711000002,309.2036962000002,,,,,,,,,,,,,,,,219,2022-05-18_16h20.25.418,FishGame,2022.1.1,59.96480066192989,
,34,나를 데려가줘,6,Green,B,0,0,ScrollDown,ScrollUp,Green.png,2,NonTarget,NonTarget,0,0,0,0,,,,,,,,,,,,,,,,,0,33,33,33,,,,,,,,,,,,,,,,,,,,,,,,,,,,,,,,,,,,,,,,,,,,,,,,,,,,,,,,,,,,,,,,,,,,,,,,,,,,,,,,,1,1.0426971000001686,309.8642556,None,ScrollDown,정답입니다,309.8642556,None,309.8642556,None,309.8642556,None,309.8642556,None,310.77042819999997,None,310.77042819999997,311.27011870000024,,,,,,,,,,,,,,,,219,2022-05-18_16h20.25.418,FishGame,2022.1.1,59.96480066192989,
,35,넌 편파적이야,5,Green,B,2.125,2,ScrollUp,ScrollDown,Green.png,2,Negative,Congruent,0,0,0,0,,,,,,,,,,,,,,,,,0,34,34,34,,,,,,,,,,,,,,,,,,,,,,,,,,,,,,,,,,,,,,,,,,,,,,,,,,,,,,,,,,,,,,,,,,,,,,,,,,,,,,,,,2,1.057232699999986,311.9235738000002,None,ScrollUp,정답입니다,311.9235738000002,None,311.9235738000002,None,311.9235738000002,None,311.9235738000002,None,312.8531158999999,None,312.8531158999999,313.3531366000002,,,,,,,,,,,,,,,,219,2022-05-18_16h20.25.418,FishGame,2022.1.1,59.96480066192989,
,36,넌 슬퍼,4,Orange,A,2.583333333333333,3.066666666666667,ScrollDown,ScrollUp,Orange.png,2,Negative,Incongruent,0,0,0,0,,,,,,,,,,,,,,,,,0,35,35,35,,,,,,,,,,,,,,,,,,,,,,,,,,,,,,,,,,,,,,,,,,,,,,,,,,,,,,,,,,,,,,,,,,,,,,,,,,,,,,,,,1,1.1035517999998774,314.00305419999995,None,ScrollDown,정답입니다,314.00305419999995,None,314.00305419999995,None,314.00305419999995,None,314.00305419999995,None,314.97836860000007,None,314.97836860000007,315.4861721000002,,,,,,,,,,,,,,,,219,2022-05-18_16h20.25.418,FishGame,2022.1.1,59.96480066192989,
,37,나를 데려가줘,6,Green,B,0,0,ScrollDown,ScrollUp,Green.png,2,NonTarget,NonTarget,0,0,0,0,,,,,,,,,,,,,,,,,0,36,36,36,,,,,,,,,,,,,,,,,,,,,,,,,,,,,,,,,,,,,,,,,,,,,,,,,,,,,,,,,,,,,,,,,,,,,,,,,,,,,,,,,1,1.0572956999999406,316.13635780000004,None,ScrollDown,정답입니다,316.13635780000004,None,316.13635780000004,None,316.13635780000004,None,316.13635780000004,None,317.06937800000014,None,317.06937800000014,317.5692419000002,,,,,,,,,,,,,,,,219,2022-05-18_16h20.25.418,FishGame,2022.1.1,59.96480066192989,
,38,넌 친절해,1,Green,B,6.041666666666667,5.533333333333333,ScrollUp,ScrollDown,Green.png,2,Positive,Incongruent,0,0,0,0,,,,,,,,,,,,,,,,,0,37,37,37,,,,,,,,,,,,,,,,,,,,,,,,,,,,,,,,,,,,,,,,,,,,,,,,,,,,,,,,,,,,,,,,,,,,,,,,,,,,,,,,,2,1.201346100000137,318.2356570000002,None,ScrollUp,정답입니다,318.2356570000002,None,318.2356570000002,None,318.2356570000002,None,318.2356570000002,None,319.2915772000001,None,319.2915772000001,319.80234530000007,,,,,,,,,,,,,,,,219,2022-05-18_16h20.25.418,FishGame,2022.1.1,59.96480066192989,
,1,넌 엉성해,4,Orange,A,3,3.3,ScrollDown,ScrollUp,Orange.png,3,Negative,Incongruent,0,0,0,0,,,,,,,,,,,,,,,,,,,,,0,0,0,0,,,,,,,,,,,,,,,,,,,,,,,,,,,,,,,,,,,,352.29842740000004,353.7979911000002,353.83122490000005,354.78126090000023,354.83114539999997,355.7811179,355.7811179,None,,,,,,,,,,,,,,,,,,,,,,,,,,,,,,,,,,1,1.2301887999997234,356.9803815,None,ScrollDown,정답입니다,356.9803815,None,356.9803815,None,356.9803815,None,356.9803815,None,358.02387769999996,None,358.02387769999996,358.5305492000002,320.30247499999996,None,320.30247499999996,None,0.26944444,-0.08055556,1,0,0,0.01623306000010416,None,350.29845220000016,None,,,219,2022-05-18_16h20.25.418,FishGame,2022.1.1,59.96480066192989,
,2,나를 보내줘,6,Orange,A,0,0,ScrollUp,ScrollDown,Orange.png,3,NonTarget,NonTarget,0,0,0,0,,,,,,,,,,,,,,,,,,,,,0,1,1,1,,,,,,,,,,,,,,,,,,,,,,,,,,,,,,,,,,,,,,,,,,,,,,,,,,,,,,,,,,,,,,,,,,,,,,,,,,,,,2,1.2847428000000036,359.1865250000001,None,ScrollUp,정답입니다,359.1865250000001,None,359.1865250000001,None,359.1865250000001,None,359.1865250000001,None,360.3369636000002,None,360.3369636000002,360.8470935999999,,,,,,,,,,,,,,,,219,2022-05-18_16h20.25.418,FishGame,2022.1.1,59.96480066192989,
,3,넌 활발해,1,Green,B,5.666666666666667,5.6,ScrollUp,ScrollDown,Green.png,3,Positive,Incongruent,0,0,0,0,,,,,,,,,,,,,,,,,,,,,0,2,2,2,,,,,,,,,,,,,,,,,,,,,,,,,,,,,,,,,,,,,,,,,,,,,,,,,,,,,,,,,,,,,,,,,,,,,,,,,,,,,1.9382716119289398,1.102161299999807,361.5046975999999,None,ScrollUp,정답입니다,361.5046975999999,None,361.5046975999999,None,361.5046975999999,None,361.5046975999999,None,362.470233,None,362.470233,362.98009170000023,,,,,,,,,,,,,,,,219,2022-05-18_16h20.25.418,FishGame,2022.1.1,59.96480066192989,
,4,넌 논리적이야,2,Orange,A,5.666666666666666,4.633333333333334,ScrollDown,ScrollUp,Orange.png,3,Positive,Congruent,0,0,0,0,,,,,,,,,,,,,,,,,,,,,0,3,3,3,,,,,,,,,,,,,,,,,,,,,,,,,,,,,,,,,,,,,,,,,,,,,,,,,,,,,,,,,,,,,,,,,,,,,,,,,,,,,1,1.0491311999999198,363.6439687000002,None,ScrollDown,정답입니다,363.6439687000002,None,363.6439687000002,None,363.6439687000002,None,363.6439687000002,None,364.5519445,None,364.5519445,365.0632181000001,,,,,,,,,,,,,,,,219,2022-05-18_16h20.25.418,FishGame,2022.1.1,59.96480066192989,
,5,넌 과묵해,3,Orange,A,3.875,4.4,ScrollDown,ScrollUp,Orange.png,3,Neutral,Neutral,0,0,0,0,,,,,,,,,,,,,,,,,,,,,0,4,4,4,,,,,,,,,,,,,,,,,,,,,,,,,,,,,,,,,,,,,,,,,,,,,,,,,,,,,,,,,,,,,,,,,,,,,,,,,,,,,1,0.9604222000002665,365.7242913,None,ScrollDown,정답입니다,365.7242913,None,365.7242913,None,365.7242913,None,365.7242913,None,366.54656920000025,None,366.54656920000025,367.0465088000001,,,,,,,,,,,,,,,,219,2022-05-18_16h20.25.418,FishGame,2022.1.1,59.96480066192989,
,6,나를 데려가줘,6,Green,B,0,0,ScrollDown,ScrollUp,Green.png,3,NonTarget,NonTarget,0,0,0,0,,,,,,,,,,,,,,,,,,,,,0,5,5,5,,,,,,,,,,,,,,,,,,,,,,,,,,,,,,,,,,,,,,,,,,,,,,,,,,,,,,,,,,,,,,,,,,,,,,,,,,,,,1,1.101908800000274,367.69929619999994,None,ScrollDown,정답입니다,367.69929619999994,None,367.69929619999994,None,367.69929619999994,None,367.69929619999994,None,368.67388549999987,None,368.67388549999987,369.1793722000002,,,,,,,,,,,,,,,,219,2022-05-18_16h20.25.418,FishGame,2022.1.1,59.96480066192989,
,7,넌 미숙해,4,Green,B,3,3,ScrollUp,ScrollDown,Green.png,3,Negative,Congruent,0,0,0,0,,,,,,,,,,,,,,,,,,,,,0,6,6,6,,,,,,,,,,,,,,,,,,,,,,,,,,,,,,,,,,,,,,,,,,,,,,,,,,,,,,,,,,,,,,,,,,,,,,,,,,,,,2,1.0600730000001022,369.8292541999999,None,ScrollUp,정답입니다,369.8292541999999,None,369.8292541999999,None,369.8292541999999,None,369.8292541999999,None,370.76234840000006,None,370.76234840000006,371.2623530999999,,,,,,,,,,,,,,,,219,2022-05-18_16h20.25.418,FishGame,2022.1.1,59.96480066192989,
,8,나를 보내줘,6,Orange,A,0,0,ScrollUp,ScrollDown,Orange.png,3,NonTarget,NonTarget,0,0,0,0,,,,,,,,,,,,,,,,,,,,,0,7,7,7,,,,,,,,,,,,,,,,,,,,,,,,,,,,,,,,,,,,,,,,,,,,,,,,,,,,,,,,,,,,,,,,,,,,,,,,,,,,,2,1.1980453999999554,371.9159730000001,None,ScrollUp,정답입니다,371.9159730000001,None,371.9159730000001,None,371.9159730000001,None,371.9159730000001,None,372.98301219999985,None,372.98301219999985,373.4953924000001,,,,,,,,,,,,,,,,219,2022-05-18_16h20.25.418,FishGame,2022.1.1,59.96480066192989,
,9,넌 자신만만해,3,Green,B,4.833333333333334,4.333333333333333,ScrollUp,ScrollDown,Green.png,3,Neutral,Neutral,0,0,0,0,,,,,,,,,,,,,,,,,,,,,0,8,8,8,,,,,,,,,,,,,,,,,,,,,,,,,,,,,,,,,,,,,,,,,,,,,,,,,,,,,,,,,,,,,,,,,,,,,,,,,,,,,2,1.0185238999997637,374.13960910000014,None,ScrollUp,정답입니다,374.13960910000014,None,374.13960910000014,None,374.13960910000014,None,374.13960910000014,None,375.03503120000005,None,375.03503120000005,375.5450016,,,,,,,,,,,,,,,,219,2022-05-18_16h20.25.418,FishGame,2022.1.1,59.96480066192989,
,10,넌 탐욕스러워,5,Orange,A,2.25,2.1,ScrollDown,ScrollUp,Orange.png,3,Negative,Incongruent,0,0,0,0,,,,,,,,,,,,,,,,,,,,,0,9,9,9,,,,,,,,,,,,,,,,,,,,,,,,,,,,,,,,,,,,,,,,,,,,,,,,,,,,,,,,,,,,,,,,,,,,,,,,,,,,,1,1.1532861000000594,376.2116334000002,None,ScrollDown,정답입니다,376.2116334000002,None,376.2116334000002,None,376.2116334000002,None,376.2116334000002,None,377.2205551000002,None,377.2205551000002,377.7280043999999,,,,,,,,,,,,,,,,219,2022-05-18_16h20.25.418,FishGame,2022.1.1,59.96480066192989,
,11,넌 인기있어,2,Orange,A,5.458333333333333,4.5,ScrollDown,ScrollUp,Orange.png,3,Positive,Congruent,0,0,0,0,,,,,,,,,,,,,,,,,,,,,0,10,10,10,,,,,,,,,,,,,,,,,,,,,,,,,,,,,,,,,,,,,,,,,,,,,,,,,,,,,,,,,,,,,,,,,,,,,,,,,,,,,1,1.0282735000000685,378.3843167,None,ScrollDown,정답입니다,378.3843167,None,378.3843167,None,378.3843167,None,378.3843167,None,379.2802366000001,None,379.2802366000001,379.7945267,,,,,,,,,,,,,,,,219,2022-05-18_16h20.25.418,FishGame,2022.1.1,59.96480066192989,
,12,나를 데려가줘,6,Green,B,0,0,ScrollDown,ScrollUp,Green.png,3,NonTarget,NonTarget,0,0,0,0,,,,,,,,,,,,,,,,,,,,,0,11,11,11,,,,,,,,,,,,,,,,,,,,,,,,,,,,,,,,,,,,,,,,,,,,,,,,,,,,,,,,,,,,,,,,,,,,,,,,,,,,,1,1.085981499999889,380.44769099999985,None,ScrollDown,정답입니다,380.44769099999985,None,380.44769099999985,None,380.44769099999985,None,380.44769099999985,None,381.4016747999999,None,381.4016747999999,381.9108805000001,,,,,,,,,,,,,,,,219,2022-05-18_16h20.25.418,FishGame,2022.1.1,59.96480066192989,
,13,넌 뛰어나,2,Green,B,6.166666666666667,4,ScrollUp,ScrollDown,Green.png,3,Positive,Incongruent,0,0,0,0,,,,,,,,,,,,,,,,,,,,,0,12,12,12,,,,,,,,,,,,,,,,,,,,,,,,,,,,,,,,,,,,,,,,,,,,,,,,,,,,,,,,,,,,,,,,,,,,,,,,,,,,,2,0.9823239000002104,382.56118400000014,None,ScrollUp,정답입니다,382.56118400000014,None,382.56118400000014,None,382.56118400000014,None,382.56118400000014,None,383.41606330000013,None,383.41606330000013,383.9272654000001,,,,,,,,,,,,,,,,219,2022-05-18_16h20.25.418,FishGame,2022.1.1,59.96480066192989,
,14,넌 낙관적이야,1,Orange,A,5.75,5.8,ScrollDown,ScrollUp,Orange.png,3,Positive,Congruent,0,0,0,0,,,,,,,,,,,,,,,,,,,,,0,13,13,13,,,,,,,,,,,,,,,,,,,,,,,,,,,,,,,,,,,,,,,,,,,,,,,,,,,,,,,,,,,,,,,,,,,,,,,,,,,,,1,0.9668114999999489,384.58923060000006,None,ScrollDown,정답입니다,384.58923060000006,None,384.58923060000006,None,384.58923060000006,None,384.58923060000006,None,385.4179591000002,None,385.4179591000002,385.92711150000014,,,,,,,,,,,,,,,,219,2022-05-18_16h20.25.418,FishGame,2022.1.1,59.96480066192989,
,15,넌 산만해,4,Green,B,2.695652173913043,3.033333333333333,ScrollUp,ScrollDown,Green.png,3,Negative,Congruent,0,0,0,0,,,,,,,,,,,,,,,,,,,,,0,14,14,14,,,,,,,,,,,,,,,,,,,,,,,,,,,,,,,,,,,,,,,,,,,,,,,,,,,,,,,,,,,,,,,,,,,,,,,,,,,,,2,1.0214384000000791,386.5821934999999,None,ScrollUp,정답입니다,386.5821934999999,None,386.5821934999999,None,386.5821934999999,None,386.5821934999999,None,387.47016380000014,None,387.47016380000014,387.9769104000002,,,,,,,,,,,,,,,,219,2022-05-18_16h20.25.418,FishGame,2022.1.1,59.96480066192989,
,16,나를 보내줘,6,Orange,A,0,0,ScrollUp,ScrollDown,Orange.png,3,NonTarget,NonTarget,0,0,0,0,,,,,,,,,,,,,,,,,,,,,0,15,15,15,,,,,,,,,,,,,,,,,,,,,,,,,,,,,,,,,,,,,,,,,,,,,,,,,,,,,,,,,,,,,,,,,,,,,,,,,,,,,2,1.1222815000000992,388.63288809999995,None,ScrollUp,정답입니다,388.63288809999995,None,388.63288809999995,None,388.63288809999995,None,388.63288809999995,None,389.62035449999985,None,389.62035449999985,390.1264135000001,,,,,,,,,,,,,,,,219,2022-05-18_16h20.25.418,FishGame,2022.1.1,59.96480066192989,
,17,넌 교활해,5,Green,B,2.333333333333333,2.133333333333333,ScrollUp,ScrollDown,Green.png,3,Negative,Congruent,0,0,0,0,,,,,,,,,,,,,,,,,,,,,0,16,16,16,,,,,,,,,,,,,,,,,,,,,,,,,,,,,,,,,,,,,,,,,,,,,,,,,,,,,,,,,,,,,,,,,,,,,,,,,,,,,1.9845678806304932,0.9921818000002531,390.77527869999994,None,ScrollUp,정답입니다,390.77527869999994,None,390.77527869999994,None,390.77527869999994,None,390.77527869999994,None,391.64327890000004,None,391.64327890000004,392.14287590000004,,,,,,,,,,,,,,,,219,2022-05-18_16h20.25.418,FishGame,2022.1.1,59.96480066192989,
,18,나를 보내줘,6,Orange,A,0,0,ScrollUp,ScrollDown,Orange.png,3,NonTarget,NonTarget,0,0,0,0,,,,,,,,,,,,,,,,,,,,,0,17,17,17,,,,,,,,,,,,,,,,,,,,,,,,,,,,,,,,,,,,,,,,,,,,,,,,,,,,,,,,,,,,,,,,,,,,,,,,,,,,,1.9969135920206706,1.1182714999999916,392.79794870000023,None,ScrollUp,정답입니다,392.79794870000023,None,392.79794870000023,None,392.79794870000023,None,392.79794870000023,None,393.7814521,None,393.7814521,394.2926613999998,,,,,,,,,,,,,,,,219,2022-05-18_16h20.25.418,FishGame,2022.1.1,59.96480066192989,
,19,넌 불친절해,5,Green,B,2.208333333333333,2.033333333333333,ScrollUp,ScrollDown,Green.png,3,Negative,Congruent,0,0,0,0,,,,,,,,,,,,,,,,,,,,,0,18,18,18,,,,,,,,,,,,,,,,,,,,,,,,,,,,,,,,,,,,,,,,,,,,,,,,,,,,,,,,,,,,,,,,,,,,,,,,,,,,,2,1.0064023999998426,394.9477471,None,ScrollUp,정답입니다,394.9477471,None,394.9477471,None,394.9477471,None,394.9477471,None,395.8258642999999,None,395.8258642999999,396.3257773999999,,,,,,,,,,,,,,,,219,2022-05-18_16h20.25.418,FishGame,2022.1.1,59.96480066192989,
,20,넌 지적이야,2,Green,B,5.75,4.366666666666666,ScrollUp,ScrollDown,Green.png,3,Positive,Incongruent,0,0,0,0,,,,,,,,,,,,,,,,,,,,,0,19,19,19,,,,,,,,,,,,,,,,,,,,,,,,,,,,,,,,,,,,,,,,,,,,,,,,,,,,,,,,,,,,,,,,,,,,,,,,,,,,,2,0.9582820999999058,396.97413890000007,None,ScrollUp,정답입니다,396.97413890000007,None,396.97413890000007,None,396.97413890000007,None,396.97413890000007,None,397.8092323999999,None,397.8092323999999,398.3089181,,,,,,,,,,,,,,,,219,2022-05-18_16h20.25.418,FishGame,2022.1.1,59.96480066192989,
,21,넌 우유부단해,4,Orange,A,2.666666666666667,3.166666666666667,ScrollDown,ScrollUp,Orange.png,3,Negative,Incongruent,0,0,0,0,,,,,,,,,,,,,,,,,,,,,0,20,20,20,,,,,,,,,,,,,,,,,,,,,,,,,,,,,,,,,,,,,,,,,,,,,,,,,,,,,,,,,,,,,,,,,,,,,,,,,,,,,1,1.7182603999999628,398.9664134999998,None,ScrollDown,정답입니다,398.9664134999998,None,398.9664134999998,None,398.9664134999998,None,398.9664134999998,None,400.55021399999987,None,400.55021399999987,401.0585713999999,,,,,,,,,,,,,,,,219,2022-05-18_16h20.25.418,FishGame,2022.1.1,59.96480066192989,
,22,나를 데려가줘,6,Green,B,0,0,ScrollDown,ScrollUp,Green.png,3,NonTarget,NonTarget,0,0,0,0,,,,,,,,,,,,,,,,,,,,,0,21,21,21,,,,,,,,,,,,,,,,,,,,,,,,,,,,,,,,,,,,,,,,,,,,,,,,,,,,,,,,,,,,,,,,,,,,,,,,,,,,,1,1.1266940000000432,401.7137250999999,None,ScrollDown,정답입니다,401.7137250999999,None,401.7137250999999,None,401.7137250999999,None,401.7137250999999,None,402.70862369999986,None,402.70862369999986,403.20802920000006,,,,,,,,,,,,,,,,219,2022-05-18_16h20.25.418,FishGame,2022.1.1,59.96480066192989,
,23,넌 성실해,1,Green,B,6.041666666666666,5.7,ScrollUp,ScrollDown,Green.png,3,Positive,Incongruent,0,0,0,0,,,,,,,,,,,,,,,,,,,,,0,22,22,22,,,,,,,,,,,,,,,,,,,,,,,,,,,,,,,,,,,,,,,,,,,,,,,,,,,,,,,,,,,,,,,,,,,,,,,,,,,,,2,1.0719558999999208,403.8587216000001,None,ScrollUp,정답입니다,403.8587216000001,None,403.8587216000001,None,403.8587216000001,None,403.8587216000001,None,404.8011486999999,None,404.8011486999999,405.30784649999987,,,,,,,,,,,,,,,,219,2022-05-18_16h20.25.418,FishGame,2022.1.1,59.96480066192989,
,24,넌 현실주의적이야,3,Orange,A,4.625,4.4,ScrollDown,ScrollUp,Orange.png,3,Neutral,Neutral,0,0,0,0,,,,,,,,,,,,,,,,,,,,,0,23,23,23,,,,,,,,,,,,,,,,,,,,,,,,,,,,,,,,,,,,,,,,,,,,,,,,,,,,,,,,,,,,,,,,,,,,,,,,,,,,,1,1.0001074000001609,405.96374560000004,None,ScrollDown,정답입니다,405.96374560000004,None,405.96374560000004,None,405.96374560000004,None,405.96374560000004,None,406.83109460000014,None,406.83109460000014,407.3411000000001,,,,,,,,,,,,,,,,219,2022-05-18_16h20.25.418,FishGame,2022.1.1,59.96480066192989,
,25,넌 진실돼,1,Orange,A,6.625,5.566666666666666,ScrollDown,ScrollUp,Orange.png,3,Positive,Congruent,0,0,0,0,,,,,,,,,,,,,,,,,,,,,0,24,24,24,,,,,,,,,,,,,,,,,,,,,,,,,,,,,,,,,,,,,,,,,,,,,,,,,,,,,,,,,,,,,,,,,,,,,,,,,,,,,1,0.9815278000000944,407.9897820000001,None,ScrollDown,정답입니다,407.9897820000001,None,407.9897820000001,None,407.9897820000001,None,407.9897820000001,None,408.8450246000002,None,408.8450246000002,409.3574822999999,,,,,,,,,,,,,,,,219,2022-05-18_16h20.25.418,FishGame,2022.1.1,59.96480066192989,
,26,넌 천진난만해,3,Green,B,4.958333333333334,4.833333333333333,ScrollUp,ScrollDown,Green.png,3,Neutral,Neutral,0,0,0,0,,,,,,,,,,,,,,,,,,,,,0,25,25,25,,,,,,,,,,,,,,,,,,,,,,,,,,,,,,,,,,,,,,,,,,,,,,,,,,,,,,,,,,,,,,,,,,,,,,,,,,,,,1.9228395223617554,1.2295076000000336,410.0090617999999,None,ScrollUp,정답입니다,410.0090617999999,None,410.0090617999999,None,410.0090617999999,None,410.0090617999999,None,411.1099242,None,411.1099242,411.62367470000027,,,,,,,,,,,,,,,,219,2022-05-18_16h20.25.418,FishGame,2022.1.1,59.96480066192989,
,27,넌 교양없어,5,Orange,A,2.416666666666667,2.2,ScrollDown,ScrollUp,Orange.png,3,Negative,Incongruent,0,0,0,0,,,,,,,,,,,,,,,,,,,,,0,26,26,26,,,,,,,,,,,,,,,,,,,,,,,,,,,,,,,,,,,,,,,,,,,,,,,,,,,,,,,,,,,,,,,,,,,,,,,,,,,,,1,1.1509095000001253,412.2836158,None,ScrollDown,정답입니다,412.2836158,None,412.2836158,None,412.2836158,None,412.2836158,None,413.2968397999998,None,413.2968397999998,413.80686019999985,,,,,,,,,,,,,,,,219,2022-05-18_16h20.25.418,FishGame,2022.1.1,59.96480066192989,
,28,나를 보내줘,6,Orange,A,0,0,ScrollUp,ScrollDown,Orange.png,3,NonTarget,NonTarget,0,0,0,0,,,,,,,,,,,,,,,,,,,,,0,27,27,27,,,,,,,,,,,,,,,,,,,,,,,,,,,,,,,,,,,,,,,,,,,,,,,,,,,,,,,,,,,,,,,,,,,,,,,,,,,,,2,1.1186527999998361,414.47787689999996,None,ScrollUp,정답입니다,414.47787689999996,None,414.47787689999996,None,414.47787689999996,None,414.47787689999996,None,415.4461215000001,None,415.4461215000001,415.9566003,,,,,,,,,,,,,,,,219,2022-05-18_16h20.25.418,FishGame,2022.1.1,59.96480066192989,
,29,넌 엉뚱스러워,3,Orange,A,4.166666666666667,4.133333333333334,ScrollDown,ScrollUp,Orange.png,3,Neutral,Neutral,0,0,0,0,,,,,,,,,,,,,,,,,,,,,0,28,28,28,,,,,,,,,,,,,,,,,,,,,,,,,,,,,,,,,,,,,,,,,,,,,,,,,,,,,,,,,,,,,,,,,,,,,,,,,,,,,1,0.9942111999998815,416.6131838000001,None,ScrollDown,정답입니다,416.6131838000001,None,416.6131838000001,None,416.6131838000001,None,416.6131838000001,None,417.4730817999998,None,417.4730817999998,417.9728820999999,,,,,,,,,,,,,,,,219,2022-05-18_16h20.25.418,FishGame,2022.1.1,59.96480066192989,
,30,넌 무지해,4,Green,B,2.541666666666667,3.066666666666667,ScrollUp,ScrollDown,Green.png,3,Negative,Congruent,0,0,0,0,,,,,,,,,,,,,,,,,,,,,0,29,29,29,,,,,,,,,,,,,,,,,,,,,,,,,,,,,,,,,,,,,,,,,,,,,,,,,,,,,,,,,,,,,,,,,,,,,,,,,,,,,2,1.0171881999999641,418.6259006,None,ScrollUp,정답입니다,418.6259006,None,418.6259006,None,418.6259006,None,418.6259006,None,419.5120998000002,None,419.5120998000002,420.02262640000026,,,,,,,,,,,,,,,,219,2022-05-18_16h20.25.418,FishGame,2022.1.1,59.96480066192989,
,31,넌 음울해,5,Green,B,2.25,2.233333333333333,ScrollUp,ScrollDown,Green.png,3,Negative,Congruent,0,0,0,0,,,,,,,,,,,,,,,,,,,,,0,30,30,30,,,,,,,,,,,,,,,,,,,,,,,,,,,,,,,,,,,,,,,,,,,,,,,,,,,,,,,,,,,,,,,,,,,,,,,,,,,,,1.839506169160207,0.9908376000003045,420.67954800000007,None,ScrollUp,정답입니다,420.67954800000007,None,420.67954800000007,None,420.67954800000007,None,420.67954800000007,None,421.5394529,None,421.5394529,422.0390889999999,,,,,,,,,,,,,,,,219,2022-05-18_16h20.25.418,FishGame,2022.1.1,59.96480066192989,
,32,넌 냉소적이야,5,Orange,A,2.916666666666667,2.4,ScrollDown,ScrollUp,Orange.png,3,Negative,Incongruent,0,0,0,0,,,,,,,,,,,,,,,,,,,,,0,31,31,31,,,,,,,,,,,,,,,,,,,,,,,,,,,,,,,,,,,,,,,,,,,,,,,,,,,,,,,,,,,,,,,,,,,,,,,,,,,,,1,1.0968808000002355,422.69276230000014,None,ScrollDown,정답입니다,422.69276230000014,None,422.69276230000014,None,422.69276230000014,None,422.69276230000014,None,423.65903960000014,None,423.65903960000014,424.172196,,,,,,,,,,,,,,,,219,2022-05-18_16h20.25.418,FishGame,2022.1.1,59.96480066192989,
,33,나를 데려가줘,6,Green,B,0,0,ScrollDown,ScrollUp,Green.png,3,NonTarget,NonTarget,0,0,0,0,,,,,,,,,,,,,,,,,,,,,0,32,32,32,,,,,,,,,,,,,,,,,,,,,,,,,,,,,,,,,,,,,,,,,,,,,,,,,,,,,,,,,,,,,,,,,,,,,,,,,,,,,1,1.1677629999999226,424.8247047,None,ScrollDown,정답입니다,424.8247047,None,424.8247047,None,424.8247047,None,424.8247047,None,425.86163369999986,None,425.86163369999986,426.37184479999996,,,,,,,,,,,,,,,,219,2022-05-18_16h20.25.418,FishGame,2022.1.1,59.96480066192989,
,34,넌 쾌활해,1,Orange,A,5.541666666666666,5.733333333333333,ScrollDown,ScrollUp,Orange.png,3,Positive,Congruent,0,0,0,0,,,,,,,,,,,,,,,,,,,,,0,33,33,33,,,,,,,,,,,,,,,,,,,,,,,,,,,,,,,,,,,,,,,,,,,,,,,,,,,,,,,,,,,,,,,,,,,,,,,,,,,,,1,1.046259199999895,427.0351965,None,ScrollDown,정답입니다,427.0351965,None,427.0351965,None,427.0351965,None,427.0351965,None,427.94150590000027,None,427.94150590000027,428.45488430000023,,,,,,,,,,,,,,,,219,2022-05-18_16h20.25.418,FishGame,2022.1.1,59.96480066192989,
,35,나를 보내줘,6,Orange,A,0,0,ScrollUp,ScrollDown,Orange.png,3,NonTarget,NonTarget,0,0,0,0,,,,,,,,,,,,,,,,,,,,,0,34,34,34,,,,,,,,,,,,,,,,,,,,,,,,,,,,,,,,,,,,,,,,,,,,,,,,,,,,,,,,,,,,,,,,,,,,,,,,,,,,,2,1.069134099999701,429.11207680000007,None,ScrollUp,정답입니다,429.11207680000007,None,429.11207680000007,None,429.11207680000007,None,429.11207680000007,None,430.0460234000002,None,430.0460234000002,430.5546497,,,,,,,,,,,,,,,,219,2022-05-18_16h20.25.418,FishGame,2022.1.1,59.96480066192989,
,36,넌 명랑해,1,Green,B,5.739130434782609,5.666666666666667,ScrollUp,ScrollDown,Green.png,3,Positive,Incongruent,0,0,0,0,,,,,,,,,,,,,,,,,,,,,0,35,35,35,,,,,,,,,,,,,,,,,,,,,,,,,,,,,,,,,,,,,,,,,,,,,,,,,,,,,,,,,,,,,,,,,,,,,,,,,,,,,2,1.2026276000001417,431.2097189000001,None,ScrollUp,정답입니다,431.2097189000001,None,431.2097189000001,None,431.2097189000001,None,431.2097189000001,None,432.2773049000002,None,432.2773049000002,432.78766410000026,,,,,,,,,,,,,,,,219,2022-05-18_16h20.25.418,FishGame,2022.1.1,59.96480066192989,
,37,넌 멍해,4,Orange,A,2.833333333333333,3.4,ScrollDown,ScrollUp,Orange.png,3,Negative,Incongruent,0,0,0,0,,,,,,,,,,,,,,,,,,,,,0,36,36,36,,,,,,,,,,,,,,,,,,,,,,,,,,,,,,,,,,,,,,,,,,,,,,,,,,,,,,,,,,,,,,,,,,,,,,,,,,,,,1,1.0774741000000176,433.4427117,None,ScrollDown,정답입니다,433.4427117,None,433.4427117,None,433.4427117,None,433.4427117,None,434.3883159000002,None,434.3883159000002,434.8874377000002,,,,,,,,,,,,,,,,219,2022-05-18_16h20.25.418,FishGame,2022.1.1,59.96480066192989,
,38,나를 데려가줘,6,Green,B,0,0,ScrollDown,ScrollUp,Green.png,3,NonTarget,NonTarget,0,0,0,0,,,,,,,,,,,,,,,,,,,,,0,37,37,37,,,,,,,,,,,,,,,,,,,,,,,,,,,,,,,,,,,,,,,,,,,,,,,,,,,,,,,,,,,,,,,,,,,,,,,,,,,,,1,1.0391098000000056,435.55462620000026,None,ScrollDown,정답입니다,435.55462620000026,None,435.55462620000026,None,435.55462620000026,None,435.55462620000026,None,436.46390010000005,None,436.46390010000005,436.9704480999999,,,,,,,,,,,,,,,,219,2022-05-18_16h20.25.418,FishGame,2022.1.1,59.96480066192989,
,39,넌 현명해,2,Orange,A,6.541666666666666,4.533333333333333,ScrollDown,ScrollUp,Orange.png,3,Positive,Congruent,0,0,0,0,,,,,,,,,,,,,,,,,,,,,0,38,38,38,,,,,,,,,,,,,,,,,,,,,,,,,,,,,,,,,,,,,,,,,,,,,,,,,,,,,,,,,,,,,,,,,,,,,,,,,,,,,1,1.0984555,437.62472800000023,None,ScrollDown,정답입니다,437.62472800000023,None,437.62472800000023,None,437.62472800000023,None,437.62472800000023,None,438.5925178000002,None,438.5925178000002,439.10361520000015,,,,,,,,,,,,,,,,219,2022-05-18_16h20.25.418,FishGame,2022.1.1,59.96480066192989,
,40,넌 수줍어,3,Green,B,3.541666666666666,4.366666666666666,ScrollUp,ScrollDown,Green.png,3,Neutral,Neutral,0,0,0,0,,,,,,,,,,,,,,,,,,,,,0,39,39,39,,,,,,,,,,,,,,,,,,,,,,,,,,,,,,,,,,,,,,,,,,,,,,,,,,,,,,,,,,,,,,,,,,,,,,,,,,,,,2,1.0481592000001,439.75904979999996,None,ScrollUp,정답입니다,439.75904979999996,None,439.75904979999996,None,439.75904979999996,None,439.75904979999996,None,440.6736654000001,None,440.6736654000001,441.1866525999999,,,,,,,,,,,,,,,,219,2022-05-18_16h20.25.418,FishGame,2022.1.1,59.96480066192989,
,41,나를 데려가줘,6,Green,B,0,0,ScrollDown,ScrollUp,Green.png,3,NonTarget,NonTarget,0,0,0,0,,,,,,,,,,,,,,,,,,,,,0,40,40,40,,,,,,,,,,,,,,,,,,,,,,,,,,,,,,,,,,,,,,,,,,,,,,,,,,,,,,,,,,,,,,,,,,,,,,,,,,,,,1,1.0681328999999096,441.8421011999999,None,ScrollDown,정답입니다,441.8421011999999,None,441.8421011999999,None,441.8421011999999,None,441.8421011999999,None,442.7792208000001,None,442.7792208000001,443.2863000000002,,,,,,,,,,,,,,,,219,2022-05-18_16h20.25.418,FishGame,2022.1.1,59.96480066192989,
,42,넌 성숙해,2,Green,B,5.833333333333333,4.533333333333333,ScrollUp,ScrollDown,Green.png,3,Positive,Incongruent,0,0,0,0,,,,,,,,,,,,,,,,,,,,,0,41,41,41,,,,,,,,,,,,,,,,,,,,,,,,,,,,,,,,,,,,,,,,,,,,,,,,,,,,,,,,,,,,,,,,,,,,,,,,,,,,,2,1.0558246999999028,443.9359092999998,None,ScrollUp,정답입니다,443.9359092999998,None,443.9359092999998,None,443.9359092999998,None,443.9359092999998,None,444.8696576000002,None,444.8696576000002,445.3693736,,,,,,,,,,,,,,,,219,2022-05-18_16h20.25.418,FishGame,2022.1.1,59.96480066192989,
,1,넌 매력적이야,2,Green,B,6.125,4.666666666666667,ScrollUp,ScrollDown,Green.png,4,Positive,Incongruent,0,0,0,0,,,,,,,,,,,,,,,,,,,,,,,,,0,0,0,0,,,,,,,,,,,,,,,,,,,,,,,,,,,,,,,,478.59898440000006,480.0983034000001,480.1314557999999,481.0816325999999,481.1316219999999,482.0814008000002,482.0814008000002,None,,,,,,,,,,,,,,,,,,,,,,,,,,,,,,,,,,1.9876543084780376,1.9410619000000224,483.2679376000001,None,ScrollUp,정답입니다,483.2679376000001,None,483.2679376000001,None,483.2679376000001,None,483.2679376000001,None,485.0309639000002,None,485.0309639000002,485.53080249999994,445.8693057999999,None,445.8693057999999,None,0.23981482,-0.09166667,1,0,0,0.016154359999745793,None,475.88237059999983,None,,,219,2022-05-18_16h20.25.418,FishGame,2022.1.1,59.96480066192989,
,2,나를 보내줘,6,Orange,A,0,0,ScrollUp,ScrollDown,Orange.png,4,NonTarget,NonTarget,0,0,0,0,,,,,,,,,,,,,,,,,,,,,,,,,0,1,1,1,,,,,,,,,,,,,,,,,,,,,,,,,,,,,,,,,,,,,,,,,,,,,,,,,,,,,,,,,,,,,,,,,,,,,,,,,2,1.267841899999894,486.18704560000015,None,ScrollUp,정답입니다,486.18704560000015,None,486.18704560000015,None,486.18704560000015,None,486.18704560000015,None,487.32103289999986,None,487.32103289999986,487.83054900000025,,,,,,,,,,,,,,,,219,2022-05-18_16h20.25.418,FishGame,2022.1.1,59.96480066192989,
,3,넌 조심스러워,3,Orange,A,4.791666666666666,4.666666666666667,ScrollDown,ScrollUp,Orange.png,4,Neutral,Neutral,0,0,0,0,,,,,,,,,,,,,,,,,,,,,,,,,0,2,2,2,,,,,,,,,,,,,,,,,,,,,,,,,,,,,,,,,,,,,,,,,,,,,,,,,,,,,,,,,,,,,,,,,,,,,,,,,1,1.0329037000001335,488.4868784999999,None,ScrollDown,정답입니다,488.4868784999999,None,488.4868784999999,None,488.4868784999999,None,488.4868784999999,None,489.3869659000002,None,489.3869659000002,489.89697849999993,,,,,,,,,,,,,,,,219,2022-05-18_16h20.25.418,FishGame,2022.1.1,59.96480066192989,
,4,넌 철학적이야,3,Green,B,4.5,4.266666666666667,ScrollUp,ScrollDown,Green.png,4,Neutral,Neutral,0,0,0,0,,,,,,,,,,,,,,,,,,,,,,,,,0,3,3,3,,,,,,,,,,,,,,,,,,,,,,,,,,,,,,,,,,,,,,,,,,,,,,,,,,,,,,,,,,,,,,,,,,,,,,,,,2,1.0121712000000116,490.55229629999985,None,ScrollUp,정답입니다,490.55229629999985,None,490.55229629999985,None,490.55229629999985,None,490.55229629999985,None,491.43031659999997,None,491.43031659999997,491.93008169999985,,,,,,,,,,,,,,,,219,2022-05-18_16h20.25.418,FishGame,2022.1.1,59.96480066192989,
,5,넌 쩨쩨해,5,Orange,A,2.375,2.133333333333333,ScrollDown,ScrollUp,Orange.png,4,Negative,Incongruent,0,0,0,0,,,,,,,,,,,,,,,,,,,,,,,,,0,4,4,4,,,,,,,,,,,,,,,,,,,,,,,,,,,,,,,,,,,,,,,,,,,,,,,,,,,,,,,,,,,,,,,,,,,,,,,,,1,1.359211200000118,492.57869949999986,None,ScrollDown,정답입니다,492.57869949999986,None,492.57869949999986,None,492.57869949999986,None,492.57869949999986,None,493.8132043999999,None,493.8132043999999,494.3130378999999,,,,,,,,,,,,,,,,219,2022-05-18_16h20.25.418,FishGame,2022.1.1,59.96480066192989,
,6,나를 데려가줘,6,Green,B,0,0,ScrollDown,ScrollUp,Green.png,4,NonTarget,NonTarget,0,0,0,0,,,,,,,,,,,,,,,,,,,,,,,,,0,5,5,5,,,,,,,,,,,,,,,,,,,,,,,,,,,,,,,,,,,,,,,,,,,,,,,,,,,,,,,,,,,,,,,,,,,,,,,,,1,1.0992050999998355,494.96406920000027,None,ScrollDown,정답입니다,494.96406920000027,None,494.96406920000027,None,494.96406920000027,None,494.96406920000027,None,495.9345139000002,None,495.9345139000002,496.4461130999998,,,,,,,,,,,,,,,,219,2022-05-18_16h20.25.418,FishGame,2022.1.1,59.96480066192989,
,7,넌 고집불통이야,5,Green,B,2.875,2,ScrollUp,ScrollDown,Green.png,4,Negative,Congruent,0,0,0,0,,,,,,,,,,,,,,,,,,,,,,,,,0,6,6,6,,,,,,,,,,,,,,,,,,,,,,,,,,,,,,,,,,,,,,,,,,,,,,,,,,,,,,,,,,,,,,,,,,,,,,,,,2,1.078672600000118,497.1105656,None,ScrollUp,정답입니다,497.1105656,None,497.1105656,None,497.1105656,None,497.1105656,None,498.0461626000001,None,498.0461626000001,498.54584590000013,,,,,,,,,,,,,,,,219,2022-05-18_16h20.25.418,FishGame,2022.1.1,59.96480066192989,
,8,넌 무심해,4,Orange,A,2.875,3.2,ScrollDown,ScrollUp,Orange.png,4,Negative,Incongruent,0,0,0,0,,,,,,,,,,,,,,,,,,,,,,,,,0,7,7,7,,,,,,,,,,,,,,,,,,,,,,,,,,,,,,,,,,,,,,,,,,,,,,,,,,,,,,,,,,,,,,,,,,,,,,,,,1,0.9814874000003329,499.1996616000001,None,ScrollDown,정답입니다,499.1996616000001,None,499.1996616000001,None,499.1996616000001,None,499.1996616000001,None,500.0510975000002,None,500.0510975000002,500.5622742999999,,,,,,,,,,,,,,,,219,2022-05-18_16h20.25.418,FishGame,2022.1.1,59.96480066192989,
,9,넌 정겨워,1,Orange,A,5.791666666666667,5.666666666666667,ScrollDown,ScrollUp,Orange.png,4,Positive,Congruent,0,0,0,0,,,,,,,,,,,,,,,,,,,,,,,,,0,8,8,8,,,,,,,,,,,,,,,,,,,,,,,,,,,,,,,,,,,,,,,,,,,,,,,,,,,,,,,,,,,,,,,,,,,,,,,,,1,1.094557899999927,501.22061810000014,None,ScrollDown,정답입니다,501.22061810000014,None,501.22061810000014,None,501.22061810000014,None,501.22061810000014,None,502.17878599999995,None,502.17878599999995,502.6787058,,,,,,,,,,,,,,,,219,2022-05-18_16h20.25.418,FishGame,2022.1.1,59.96480066192989,
,10,나를 데려가줘,6,Green,B,0,0,ScrollDown,ScrollUp,Green.png,4,NonTarget,NonTarget,0,0,0,0,,,,,,,,,,,,,,,,,,,,,,,,,0,9,9,9,,,,,,,,,,,,,,,,,,,,,,,,,,,,,,,,,,,,,,,,,,,,,,,,,,,,,,,,,,,,,,,,,,,,,,,,,1,1.0890503000000535,503.3295710000002,None,ScrollDown,정답입니다,503.3295710000002,None,503.3295710000002,None,503.3295710000002,None,503.3295710000002,None,504.2890977000002,None,504.2890977000002,504.79509400000006,,,,,,,,,,,,,,,,219,2022-05-18_16h20.25.418,FishGame,2022.1.1,59.96480066192989,
,11,넌 체제순응적이야,4,Green,B,3,3.6,ScrollUp,ScrollDown,Green.png,4,Negative,Congruent,0,0,0,0,,,,,,,,,,,,,,,,,,,,,,,,,0,10,10,10,,,,,,,,,,,,,,,,,,,,,,,,,,,,,,,,,,,,,,,,,,,,,,,,,,,,,,,,,,,,,,,,,,,,,,,,,2,1.1783685000000332,505.45962240000017,None,ScrollUp,정답입니다,505.45962240000017,None,505.45962240000017,None,505.45962240000017,None,505.45962240000017,None,506.49480159999985,None,506.49480159999985,506.9947366000001,,,,,,,,,,,,,,,,219,2022-05-18_16h20.25.418,FishGame,2022.1.1,59.96480066192989,
,12,나를 보내줘,6,Orange,A,0,0,ScrollUp,ScrollDown,Orange.png,4,NonTarget,NonTarget,0,0,0,0,,,,,,,,,,,,,,,,,,,,,,,,,0,11,11,11,,,,,,,,,,,,,,,,,,,,,,,,,,,,,,,,,,,,,,,,,,,,,,,,,,,,,,,,,,,,,,,,,,,,,,,,,1.9891975224018097,1.1960813000000599,507.6479008000001,None,ScrollUp,정답입니다,507.6479008000001,None,507.6479008000001,None,507.6479008000001,None,507.6479008000001,None,508.71247900000026,None,508.71247900000026,509.22772429999986,,,,,,,,,,,,,,,,219,2022-05-18_16h20.25.418,FishGame,2022.1.1,59.96480066192989,
,13,넌 박식해,2,Orange,A,5.625,3.933333333333333,ScrollDown,ScrollUp,Orange.png,4,Positive,Congruent,0,0,0,0,,,,,,,,,,,,,,,,,,,,,,,,,0,12,12,12,,,,,,,,,,,,,,,,,,,,,,,,,,,,,,,,,,,,,,,,,,,,,,,,,,,,,,,,,,,,,,,,,,,,,,,,,1,1.0677033000001757,509.88581010000007,None,ScrollDown,정답입니다,509.88581010000007,None,509.88581010000007,None,509.88581010000007,None,509.88581010000007,None,510.8189375000002,None,510.8189375000002,511.3275453000001,,,,,,,,,,,,,,,,219,2022-05-18_16h20.25.418,FishGame,2022.1.1,59.96480066192989,
,14,나를 보내줘,6,Orange,A,0,0,ScrollUp,ScrollDown,Orange.png,4,NonTarget,NonTarget,0,0,0,0,,,,,,,,,,,,,,,,,,,,,,,,,0,13,13,13,,,,,,,,,,,,,,,,,,,,,,,,,,,,,,,,,,,,,,,,,,,,,,,,,,,,,,,,,,,,,,,,,,,,,,,,,1.8703703731298447,1.1170333000000028,511.98390670000026,None,ScrollUp,정답입니다,511.98390670000026,None,511.98390670000026,None,511.98390670000026,None,511.98390670000026,None,512.9668477999999,None,512.9668477999999,513.4772336999999,,,,,,,,,,,,,,,,219,2022-05-18_16h20.25.418,FishGame,2022.1.1,59.96480066192989,
,15,넌 침착해,1,Green,B,5.458333333333333,5.566666666666666,ScrollUp,ScrollDown,Green.png,4,Positive,Incongruent,0,0,0,0,,,,,,,,,,,,,,,,,,,,,,,,,0,14,14,14,,,,,,,,,,,,,,,,,,,,,,,,,,,,,,,,,,,,,,,,,,,,,,,,,,,,,,,,,,,,,,,,,,,,,,,,,1.7885802586873372,1.0679017000002204,514.1339106999999,None,ScrollUp,정답입니다,514.1339106999999,None,514.1339106999999,None,514.1339106999999,None,514.1339106999999,None,515.0685211999999,None,515.0685211999999,515.5769301999999,,,,,,,,,,,,,,,,219,2022-05-18_16h20.25.418,FishGame,2022.1.1,59.96480066192989,
,16,나를 데려가줘,6,Green,B,0,0,ScrollDown,ScrollUp,Green.png,4,NonTarget,NonTarget,0,0,0,0,,,,,,,,,,,,,,,,,,,,,,,,,0,15,15,15,,,,,,,,,,,,,,,,,,,,,,,,,,,,,,,,,,,,,,,,,,,,,,,,,,,,,,,,,,,,,,,,,,,,,,,,,1,1.077132299999903,516.2279724,None,ScrollDown,정답입니다,516.2279724,None,516.2279724,None,516.2279724,None,516.2279724,None,517.1733245999999,None,517.1733245999999,517.6766600999999,,,,,,,,,,,,,,,,219,2022-05-18_16h20.25.418,FishGame,2022.1.1,59.96480066192989,
,17,넌 행복해,1,Orange,A,6.416666666666666,6.166666666666667,ScrollDown,ScrollUp,Orange.png,4,Positive,Congruent,0,0,0,0,,,,,,,,,,,,,,,,,,,,,,,,,0,16,16,16,,,,,,,,,,,,,,,,,,,,,,,,,,,,,,,,,,,,,,,,,,,,,,,,,,,,,,,,,,,,,,,,,,,,,,,,,1.0879629751046498,1.1680865999996968,518.3405269,None,ScrollDown,정답입니다,518.3405269,None,518.3405269,None,518.3405269,None,518.3405269,None,519.3676181999999,None,519.3676181999999,519.8763061,,,,,,,,,,,,,,,,219,2022-05-18_16h20.25.418,FishGame,2022.1.1,59.96480066192989,
,18,넌 겸손해,2,Green,B,5.791666666666667,4.766666666666667,ScrollUp,ScrollDown,Green.png,4,Positive,Incongruent,0,0,0,0,,,,,,,,,,,,,,,,,,,,,,,,,0,17,17,17,,,,,,,,,,,,,,,,,,,,,,,,,,,,,,,,,,,,,,,,,,,,,,,,,,,,,,,,,,,,,,,,,,,,,,,,,1.8364197413126628,0.9539662000001954,520.5328841999999,None,ScrollUp,정답입니다,520.5328841999999,None,520.5328841999999,None,520.5328841999999,None,520.5328841999999,None,521.3522808000002,None,521.3522808000002,521.8595258,,,,,,,,,,,,,,,,219,2022-05-18_16h20.25.418,FishGame,2022.1.1,59.96480066192989,
,19,나를 보내줘,6,Orange,A,0,0,ScrollUp,ScrollDown,Orange.png,4,NonTarget,NonTarget,0,0,0,0,,,,,,,,,,,,,,,,,,,,,,,,,0,18,18,18,,,,,,,,,,,,,,,,,,,,,,,,,,,,,,,,,,,,,,,,,,,,,,,,,,,,,,,,,,,,,,,,,,,,,,,,,1.7484567960103354,1.0110533000001851,522.5153682999999,None,ScrollUp,정답입니다,522.5153682999999,None,522.5153682999999,None,522.5153682999999,None,522.5153682999999,None,523.3942034000002,None,523.3942034000002,523.9093754999999,,,,,,,,,,,,,,,,219,2022-05-18_16h20.25.418,FishGame,2022.1.1,59.96480066192989,
,20,넌 의심없어,3,Orange,A,4.166666666666667,4.6,ScrollDown,ScrollUp,Orange.png,4,Neutral,Neutral,0,0,0,0,,,,,,,,,,,,,,,,,,,,,,,,,0,19,19,19,,,,,,,,,,,,,,,,,,,,,,,,,,,,,,,,,,,,,,,,,,,,,,,,,,,,,,,,,,,,,,,,,,,,,,,,,1.212962955236435,1.0009408999999323,524.5575131999999,None,ScrollDown,정답입니다,524.5575131999999,None,524.5575131999999,None,524.5575131999999,None,524.5575131999999,None,525.4325033999999,None,525.4325033999999,525.9422832999999,,,,,,,,,,,,,,,,219,2022-05-18_16h20.25.418,FishGame,2022.1.1,59.96480066192989,
,21,넌 시시해,4,Orange,A,2.666666666666667,2.966666666666667,ScrollDown,ScrollUp,Orange.png,4,Negative,Incongruent,0,0,0,0,,,,,,,,,,,,,,,,,,,,,,,,,0,20,20,20,,,,,,,,,,,,,,,,,,,,,,,,,,,,,,,,,,,,,,,,,,,,,,,,,,,,,,,,,,,,,,,,,,,,,,,,,1.2638888905445733,0.9454611999999543,526.5966884,None,ScrollDown,정답입니다,526.5966884,None,526.5966884,None,526.5966884,None,526.5966884,None,527.4095926999998,None,527.4095926999998,527.9087625000002,,,,,,,,,,,,,,,,219,2022-05-18_16h20.25.418,FishGame,2022.1.1,59.96480066192989,
,22,나를 데려가줘,6,Green,B,0,0,ScrollDown,ScrollUp,Green.png,4,NonTarget,NonTarget,0,0,0,0,,,,,,,,,,,,,,,,,,,,,,,,,0,21,21,21,,,,,,,,,,,,,,,,,,,,,,,,,,,,,,,,,,,,,,,,,,,,,,,,,,,,,,,,,,,,,,,,,,,,,,,,,1.3024691392978034,0.9811878999998953,528.5625131000002,None,ScrollDown,정답입니다,528.5625131000002,None,528.5625131000002,None,528.5625131000002,None,528.5625131000002,None,529.4139958999999,None,529.4139958999999,529.9251933999999,,,,,,,,,,,,,,,,219,2022-05-18_16h20.25.418,FishGame,2022.1.1,59.96480066192989,
,23,넌 무정해,5,Orange,A,2.5,2.2,ScrollDown,ScrollUp,Orange.png,4,Negative,Incongruent,0,0,0,0,,,,,,,,,,,,,,,,,,,,,,,,,0,22,22,22,,,,,,,,,,,,,,,,,,,,,,,,,,,,,,,,,,,,,,,,,,,,,,,,,,,,,,,,,,,,,,,,,,,,,,,,,1.256172845760981,1.5556589999996504,530.5824604,None,ScrollDown,정답입니다,530.5824604,None,530.5824604,None,530.5824604,None,530.5824604,None,532.0041028,None,532.0041028,532.5080837999999,,,,,,,,,,,,,,,,219,2022-05-18_16h20.25.418,FishGame,2022.1.1,59.96480066192989,
,24,넌 긍정적이야,1,Green,B,6.041666666666667,6.066666666666666,ScrollUp,ScrollDown,Green.png,4,Positive,Incongruent,0,0,0,0,,,,,,,,,,,,,,,,,,,,,,,,,0,23,23,23,,,,,,,,,,,,,,,,,,,,,,,,,,,,,,,,,,,,,,,,,,,,,,,,,,,,,,,,,,,,,,,,,,,,,,,,,2,1.1647550000002411,533.1658547000002,None,ScrollUp,정답입니다,533.1658547000002,None,533.1658547000002,None,533.1658547000002,None,533.1658547000002,None,534.1972912000001,None,534.1972912000001,534.7078861999998,,,,,,,,,,,,,,,,219,2022-05-18_16h20.25.418,FishGame,2022.1.1,59.96480066192989,
,25,나를 보내줘,6,Orange,A,0,0,ScrollUp,ScrollDown,Orange.png,4,NonTarget,NonTarget,0,0,0,0,,,,,,,,,,,,,,,,,,,,,,,,,0,24,24,24,,,,,,,,,,,,,,,,,,,,,,,,,,,,,,,,,,,,,,,,,,,,,,,,,,,,,,,,,,,,,,,,,,,,,,,,,2,1.1331033000001298,535.3572875,None,ScrollUp,정답입니다,535.3572875,None,535.3572875,None,535.3572875,None,535.3572875,None,536.3633122000001,None,536.3633122000001,536.8742136000001,,,,,,,,,,,,,,,,219,2022-05-18_16h20.25.418,FishGame,2022.1.1,59.96480066192989,
,26,넌 시기심이 많아,5,Green,B,2.458333333333333,2.233333333333333,ScrollUp,ScrollDown,Green.png,4,Negative,Congruent,0,0,0,0,,,,,,,,,,,,,,,,,,,,,,,,,0,25,25,25,,,,,,,,,,,,,,,,,,,,,,,,,,,,,,,,,,,,,,,,,,,,,,,,,,,,,,,,,,,,,,,,,,,,,,,,,1.9490740597248077,1.0498600999999326,537.5345803999999,None,ScrollUp,정답입니다,537.5345803999999,None,537.5345803999999,None,537.5345803999999,None,537.5345803999999,None,538.4459195,None,538.4459195,538.9572757000001,,,,,,,,,,,,,,,,219,2022-05-18_16h20.25.418,FishGame,2022.1.1,59.96480066192989,
,27,넌 탁월해,2,Orange,A,5.708333333333334,4.5,ScrollDown,ScrollUp,Orange.png,4,Positive,Congruent,0,0,0,0,,,,,,,,,,,,,,,,,,,,,,,,,0,26,26,26,,,,,,,,,,,,,,,,,,,,,,,,,,,,,,,,,,,,,,,,,,,,,,,,,,,,,,,,,,,,,,,,,,,,,,,,,1,0.9488707000000431,539.6200899999999,None,ScrollDown,정답입니다,539.6200899999999,None,539.6200899999999,None,539.6200899999999,None,539.6200899999999,None,540.4276675000001,None,540.4276675000001,540.9403173999999,,,,,,,,,,,,,,,,219,2022-05-18_16h20.25.418,FishGame,2022.1.1,59.96480066192989,
,28,나를 데려가줘,6,Green,B,0,0,ScrollDown,ScrollUp,Green.png,4,NonTarget,NonTarget,0,0,0,0,,,,,,,,,,,,,,,,,,,,,,,,,0,27,27,27,,,,,,,,,,,,,,,,,,,,,,,,,,,,,,,,,,,,,,,,,,,,,,,,,,,,,,,,,,,,,,,,,,,,,,,,,1,1.1810743000000912,541.5925791,None,ScrollDown,정답입니다,541.5925791,None,541.5925791,None,541.5925791,None,541.5925791,None,542.6452588000002,None,542.6452588000002,543.1568367999998,,,,,,,,,,,,,,,,219,2022-05-18_16h20.25.418,FishGame,2022.1.1,59.96480066192989,
,29,넌 조용해,3,Green,B,4.333333333333333,4.166666666666667,ScrollUp,ScrollDown,Green.png,4,Neutral,Neutral,0,0,0,0,,,,,,,,,,,,,,,,,,,,,,,,,0,28,28,28,,,,,,,,,,,,,,,,,,,,,,,,,,,,,,,,,,,,,,,,,,,,,,,,,,,,,,,,,,,,,,,,,,,,,,,,,2,1.395027300000038,543.8144299999999,None,ScrollUp,정답입니다,543.8144299999999,None,543.8144299999999,None,543.8144299999999,None,543.8144299999999,None,545.0730527000001,None,545.0730527000001,545.5731200999999,,,,,,,,,,,,,,,,219,2022-05-18_16h20.25.418,FishGame,2022.1.1,59.96480066192989,
,30,넌 다정해,1,Orange,A,5.833333333333334,5.7,ScrollDown,ScrollUp,Orange.png,4,Positive,Congruent,0,0,0,0,,,,,,,,,,,,,,,,,,,,,,,,,0,29,29,29,,,,,,,,,,,,,,,,,,,,,,,,,,,,,,,,,,,,,,,,,,,,,,,,,,,,,,,,,,,,,,,,,,,,,,,,,1,0.8862242000000151,546.2328854000002,None,ScrollDown,정답입니다,546.2328854000002,None,546.2328854000002,None,546.2328854000002,None,546.2328854000002,None,546.9804236999998,None,546.9804236999998,547.4894727000001,,,,,,,,,,,,,,,,219,2022-05-18_16h20.25.418,FishGame,2022.1.1,59.96480066192989,
,31,넌 능력있어,2,Green,B,6.166666666666666,4.6,ScrollUp,ScrollDown,Green.png,4,Positive,Incongruent,0,0,0,0,,,,,,,,,,,,,,,,,,,,,,,,,0,30,30,30,,,,,,,,,,,,,,,,,,,,,,,,,,,,,,,,,,,,,,,,,,,,,,,,,,,,,,,,,,,,,,,,,,,,,,,,,2,1.079403100000036,548.1391413000001,None,ScrollUp,정답입니다,548.1391413000001,None,548.1391413000001,None,548.1391413000001,None,548.1391413000001,None,549.0892423999999,None,549.0892423999999,549.5892950000002,,,,,,,,,,,,,,,,219,2022-05-18_16h20.25.418,FishGame,2022.1.1,59.96480066192989,
,32,넌 불쾌해,5,Orange,A,2.125,1.933333333333333,ScrollDown,ScrollUp,Orange.png,4,Negative,Incongruent,0,0,0,0,,,,,,,,,,,,,,,,,,,,,,,,,0,31,31,31,,,,,,,,,,,,,,,,,,,,,,,,,,,,,,,,,,,,,,,,,,,,,,,,,,,,,,,,,,,,,,,,,,,,,,,,,1,0.9996713000000454,550.2437404000002,None,ScrollDown,정답입니다,550.2437404000002,None,550.2437404000002,None,550.2437404000002,None,550.2437404000002,None,551.1111233000001,None,551.1111233000001,551.6222717,,,,,,,,,,,,,,,,219,2022-05-18_16h20.25.418,FishGame,2022.1.1,59.96480066192989,
,33,나를 데려가줘,6,Green,B,0,0,ScrollDown,ScrollUp,Green.png,4,NonTarget,NonTarget,0,0,0,0,,,,,,,,,,,,,,,,,,,,,,,,,0,32,32,32,,,,,,,,,,,,,,,,,,,,,,,,,,,,,,,,,,,,,,,,,,,,,,,,,,,,,,,,,,,,,,,,,,,,,,,,,1,1.087856500000271,552.2684491999998,None,ScrollDown,정답입니다,552.2684491999998,None,552.2684491999998,None,552.2684491999998,None,552.2684491999998,None,553.2323439000002,None,553.2323439000002,553.7387268000002,,,,,,,,,,,,,,,,219,2022-05-18_16h20.25.418,FishGame,2022.1.1,59.96480066192989,
,34,넌 유순해,3,Orange,A,4.458333333333333,5,ScrollDown,ScrollUp,Orange.png,4,Neutral,Neutral,0,0,0,0,,,,,,,,,,,,,,,,,,,,,,,,,0,33,33,33,,,,,,,,,,,,,,,,,,,,,,,,,,,,,,,,,,,,,,,,,,,,,,,,,,,,,,,,,,,,,,,,,,,,,,,,,1,1.1809308000001693,554.3884297,None,ScrollDown,정답입니다,554.3884297,None,554.3884297,None,554.3884297,None,554.3884297,None,555.4432861999999,None,555.4432861999999,555.9550640000002,,,,,,,,,,,,,,,,219,2022-05-18_16h20.25.418,FishGame,2022.1.1,59.96480066192989,
,35,넌 근심스러워,4,Green,B,2.708333333333333,3.133333333333333,ScrollUp,ScrollDown,Green.png,4,Negative,Congruent,0,0,0,0,,,,,,,,,,,,,,,,,,,,,,,,,0,34,34,34,,,,,,,,,,,,,,,,,,,,,,,,,,,,,,,,,,,,,,,,,,,,,,,,,,,,,,,,,,,,,,,,,,,,,,,,,1.939814825852712,1.074464700000135,556.614908,None,ScrollUp,정답입니다,556.614908,None,556.614908,None,556.614908,None,556.614908,None,557.5548638,None,557.5548638,558.0547344000001,,,,,,,,,,,,,,,,219,2022-05-18_16h20.25.418,FishGame,2022.1.1,59.96480066192989,
,36,넌 세련되었어,2,Orange,A,5.5,4.6,ScrollDown,ScrollUp,Orange.png,4,Positive,Congruent,0,0,0,0,,,,,,,,,,,,,,,,,,,,,,,,,0,35,35,35,,,,,,,,,,,,,,,,,,,,,,,,,,,,,,,,,,,,,,,,,,,,,,,,,,,,,,,,,,,,,,,,,,,,,,,,,1,1.035678000000189,558.7237287000003,None,ScrollDown,정답입니다,558.7237287000003,None,558.7237287000003,None,558.7237287000003,None,558.7237287000003,None,559.611672,None,559.611672,560.1212392000002,,,,,,,,,,,,,,,,219,2022-05-18_16h20.25.418,FishGame,2022.1.1,59.96480066192989,
,37,나를 보내줘,6,Orange,A,0,0,ScrollUp,ScrollDown,Orange.png,4,NonTarget,NonTarget,0,0,0,0,,,,,,,,,,,,,,,,,,,,,,,,,0,36,36,36,,,,,,,,,,,,,,,,,,,,,,,,,,,,,,,,,,,,,,,,,,,,,,,,,,,,,,,,,,,,,,,,,,,,,,,,,1.6929012313485146,1.1105533999998443,560.7777675000002,None,ScrollUp,정답입니다,560.7777675000002,None,560.7777675000002,None,560.7777675000002,None,560.7777675000002,None,561.7545132,None,561.7545132,562.2542465000001,,,,,,,,,,,,,,,,219,2022-05-18_16h20.25.418,FishGame,2022.1.1,59.96480066192989,
,38,넌 확고해,3,Green,B,4.708333333333334,4.566666666666666,ScrollUp,ScrollDown,Green.png,4,Neutral,Neutral,0,0,0,0,,,,,,,,,,,,,,,,,,,,,,,,,0,37,37,37,,,,,,,,,,,,,,,,,,,,,,,,,,,,,,,,,,,,,,,,,,,,,,,,,,,,,,,,,,,,,,,,,,,,,,,,,1.983024666706721,1.1383061000001362,562.9119765999999,None,ScrollUp,정답입니다,562.9119765999999,None,562.9119765999999,None,562.9119765999999,None,562.9119765999999,None,563.9142806,None,563.9142806,564.4205935999998,,,,,,,,,,,,,,,,219,2022-05-18_16h20.25.418,FishGame,2022.1.1,59.96480066192989,
,39,넌 이해심이 많아,1,Green,B,6.041666666666668,5.533333333333333,ScrollUp,ScrollDown,Green.png,4,Positive,Incongruent,0,0,0,0,,,,,,,,,,,,,,,,,,,,,,,,,0,38,38,38,,,,,,,,,,,,,,,,,,,,,,,,,,,,,,,,,,,,,,,,,,,,,,,,,,,,,,,,,,,,,,,,,,,,,,,,,2,0.8995262000003095,565.0733341999999,None,ScrollUp,정답입니다,565.0733341999999,None,565.0733341999999,None,565.0733341999999,None,565.0733341999999,None,565.8443941999999,None,565.8443941999999,566.3537277999999,,,,,,,,,,,,,,,,219,2022-05-18_16h20.25.418,FishGame,2022.1.1,59.96480066192989,
,40,나를 보내줘,6,Orange,A,0,0,ScrollUp,ScrollDown,Orange.png,4,NonTarget,NonTarget,0,0,0,0,,,,,,,,,,,,,,,,,,,,,,,,,0,39,39,39,,,,,,,,,,,,,,,,,,,,,,,,,,,,,,,,,,,,,,,,,,,,,,,,,,,,,,,,,,,,,,,,,,,,,,,,,1.90586419403553,1.283459600000242,567.0080392,None,ScrollUp,정답입니다,567.0080392,None,567.0080392,None,567.0080392,None,567.0080392,None,568.1588307000002,None,568.1588307000002,568.6700682999999,,,,,,,,,,,,,,,,219,2022-05-18_16h20.25.418,FishGame,2022.1.1,59.96480066192989,
,41,넌 거칠어,4,Orange,A,2.625,3.033333333333333,ScrollDown,ScrollUp,Orange.png,4,Negative,Incongruent,0,0,0,0,,,,,,,,,,,,,,,,,,,,,,,,,0,40,40,40,,,,,,,,,,,,,,,,,,,,,,,,,,,,,,,,,,,,,,,,,,,,,,,,,,,,,,,,,,,,,,,,,,,,,,,,,1,1.3393679000000702,569.3256142999999,None,ScrollDown,정답입니다,569.3256142999999,None,569.3256142999999,None,569.3256142999999,None,569.3256142999999,None,570.5364304999998,None,570.5364304999998,571.036419,,,,,,,,,,,,,,,,219,2022-05-18_16h20.25.418,FishGame,2022.1.1,59.96480066192989,
,42,넌 변덕맞아,5,Green,B,2.75,2.166666666666667,ScrollUp,ScrollDown,Green.png,4,Negative,Congruent,0,0,0,0,,,,,,,,,,,,,,,,,,,,,,,,,0,41,41,41,,,,,,,,,,,,,,,,,,,,,,,,,,,,,,,,,,,,,,,,,,,,,,,,,,,,,,,,,,,,,,,,,,,,,,,,,1.89969136317571,1.1053899000003184,571.6982042999998,None,ScrollUp,정답입니다,571.6982042999998,None,571.6982042999998,None,571.6982042999998,None,571.6982042999998,None,572.6634767,None,572.6634767,573.1696362000002,,,,,,,,,,,,,,,,219,2022-05-18_16h20.25.418,FishGame,2022.1.1,59.96480066192989,
,43,나를 데려가줘,6,Green,B,0,0,ScrollDown,ScrollUp,Green.png,4,NonTarget,NonTarget,0,0,0,0,,,,,,,,,,,,,,,,,,,,,,,,,0,42,42,42,,,,,,,,,,,,,,,,,,,,,,,,,,,,,,,,,,,,,,,,,,,,,,,,,,,,,,,,,,,,,,,,,,,,,,,,,1,1.0436929000002237,573.8210924,None,ScrollDown,정답입니다,573.8210924,None,573.8210924,None,573.8210924,None,573.8210924,None,574.7363258999999,None,574.7363258999999,575.2360064,,,,,,,,,,,,,,,,219,2022-05-18_16h20.25.418,FishGame,2022.1.1,59.96480066192989,
,44,넌 외로워,4,Green,B,2.833333333333333,3.3,ScrollUp,ScrollDown,Green.png,4,Negative,Congruent,0,0,0,0,,,,,,,,,,,,,,,,,,,,,,,,,0,43,43,43,,,,,,,,,,,,,,,,,,,,,,,,,,,,,,,,,,,,,,,,,,,,,,,,,,,,,,,,,,,,,,,,,,,,,,,,,1.8688271592060726,1.0778834000002462,575.8886542999999,None,ScrollUp,정답입니다,575.8886542999999,None,575.8886542999999,None,575.8886542999999,None,575.8886542999999,None,576.8359964000001,None,576.8359964000001,577.3357234,,,,,,,,,,,,,,,,219,2022-05-18_16h20.25.418,FishGame,2022.1.1,59.96480066192989,
,1,넌 불평스러워,5,Orange,A,2.25,2.066666666666667,ScrollDown,ScrollUp,Orange.png,5,Negative,Incongruent,0,0,0,0,,,,,,,,,,,,,,,,,,,,,,,,,,,,,0,0,0,0,,,,,,,,,,,,,,,,,,,,,,,,,,,,608.9986417,610.4981232,610.5314539000001,611.4812747000001,611.5312579000001,612.4811927000001,612.4811927000001,None,,,,,,,,,,,,,,,,,,,,,,,,,,,,,,,,,,1.1064814925193787,1.2536098999999012,613.6874607,None,ScrollDown,정답입니다,613.6874607,None,613.6874607,None,613.6874607,None,613.6874607,None,614.7477030999999,None,614.7477030999999,615.2473961000001,577.8356322,None,577.8356322,None,0.15185185,-0.15092592,1,0,0,0.016234359999543813,None,607.8484354000002,None,,,219,2022-05-18_16h20.25.418,FishGame,2022.1.1,59.96480066192989,
,2,나를 보내줘,6,Orange,A,0,0,ScrollUp,ScrollDown,Orange.png,5,NonTarget,NonTarget,0,0,0,0,,,,,,,,,,,,,,,,,,,,,,,,,,,,,0,1,1,1,,,,,,,,,,,,,,,,,,,,,,,,,,,,,,,,,,,,,,,,,,,,,,,,,,,,,,,,,,,,,,,,,,,,,1.8657407313585281,1.0596690000002127,615.9061434,None,ScrollUp,정답입니다,615.9061434,None,615.9061434,None,615.9061434,None,615.9061434,None,616.8260641000002,None,616.8260641000002,617.3305344999999,,,,,,,,,,,,,,,,219,2022-05-18_16h20.25.418,FishGame,2022.1.1,59.96480066192989,
,3,넌 다재다능해,2,Green,B,6.208333333333333,4.5,ScrollUp,ScrollDown,Green.png,5,Positive,Incongruent,0,0,0,0,,,,,,,,,,,,,,,,,,,,,,,,,,,,,0,2,2,2,,,,,,,,,,,,,,,,,,,,,,,,,,,,,,,,,,,,,,,,,,,,,,,,,,,,,,,,,,,,,,,,,,,,,1.7376543233791986,1.0617115000000013,617.9770153,None,ScrollUp,정답입니다,617.9770153,None,617.9770153,None,617.9770153,None,617.9770153,None,618.9148691,None,618.9148691,619.4303442999999,,,,,,,,,,,,,,,,219,2022-05-18_16h20.25.418,FishGame,2022.1.1,59.96480066192989,
,4,넌 과감해,3,Orange,A,4.833333333333334,4.6,ScrollDown,ScrollUp,Orange.png,5,Neutral,Neutral,0,0,0,0,,,,,,,,,,,,,,,,,,,,,,,,,,,,,0,3,3,3,,,,,,,,,,,,,,,,,,,,,,,,,,,,,,,,,,,,,,,,,,,,,,,,,,,,,,,,,,,,,,,,,,,,,1,1.0258530999999493,620.0787148,None,ScrollDown,정답입니다,620.0787148,None,620.0787148,None,620.0787148,None,620.0787148,None,620.9802257000001,None,620.9802257000001,621.4799840999999,,,,,,,,,,,,,,,,219,2022-05-18_16h20.25.418,FishGame,2022.1.1,59.96480066192989,
,5,넌 고분고분해,3,Green,B,3.75,4.033333333333333,ScrollUp,ScrollDown,Green.png,5,Neutral,Neutral,0,0,0,0,,,,,,,,,,,,,,,,,,,,,,,,,,,,,0,4,4,4,,,,,,,,,,,,,,,,,,,,,,,,,,,,,,,,,,,,,,,,,,,,,,,,,,,,,,,,,,,,,,,,,,,,,1.839506169160207,0.9431055000000015,622.1477254000001,None,ScrollUp,정답입니다,622.1477254000001,None,622.1477254000001,None,622.1477254000001,None,622.1477254000001,None,622.9468141000002,None,622.9468141000002,623.4463811999999,,,,,,,,,,,,,,,,219,2022-05-18_16h20.25.418,FishGame,2022.1.1,59.96480066192989,
,6,나를 보내줘,6,Orange,A,0,0,ScrollUp,ScrollDown,Orange.png,5,NonTarget,NonTarget,0,0,0,0,,,,,,,,,,,,,,,,,,,,,,,,,,,,,0,5,5,5,,,,,,,,,,,,,,,,,,,,,,,,,,,,,,,,,,,,,,,,,,,,,,,,,,,,,,,,,,,,,,,,,,,,,1.8549382835626602,1.060503200000312,624.1016015999999,None,ScrollUp,정답입니다,624.1016015999999,None,624.1016015999999,None,624.1016015999999,None,624.1016015999999,None,625.0294122999999,None,625.0294122999999,625.5295018000002,,,,,,,,,,,,,,,,219,2022-05-18_16h20.25.418,FishGame,2022.1.1,59.96480066192989,
,7,넌 잘 잊어,4,Orange,A,3,3.7,ScrollDown,ScrollUp,Orange.png,5,Negative,Incongruent,0,0,0,0,,,,,,,,,,,,,,,,,,,,,,,,,,,,,0,6,6,6,,,,,,,,,,,,,,,,,,,,,,,,,,,,,,,,,,,,,,,,,,,,,,,,,,,,,,,,,,,,,,,,,,,,,1.1435185273488362,1.1759103999997933,626.1945395000002,None,ScrollDown,정답입니다,626.1945395000002,None,626.1945395000002,None,626.1945395000002,None,626.1945395000002,None,627.2249568000002,None,627.2249568000002,627.7290630000002,,,,,,,,,,,,,,,,219,2022-05-18_16h20.25.418,FishGame,2022.1.1,59.96480066192989,
,8,넌 탐구심이없어,4,Green,B,2.833333333333333,3.066666666666667,ScrollUp,ScrollDown,Green.png,5,Negative,Congruent,0,0,0,0,,,,,,,,,,,,,,,,,,,,,,,,,,,,,0,7,7,7,,,,,,,,,,,,,,,,,,,,,,,,,,,,,,,,,,,,,,,,,,,,,,,,,,,,,,,,,,,,,,,,,,,,,1.5262345684071383,0.9494972000002235,628.3884112999999,None,NoResponse,무응답입니다,628.3884112999999,None,628.3884112999999,None,628.3884112999999,None,628.3884112999999,None,629.2054778000002,None,629.2054778000002,629.7121998000002,,,,,,,,,,,,,,,,219,2022-05-18_16h20.25.418,FishGame,2022.1.1,59.96480066192989,
,9,나를 데려가줘,6,Green,B,0,0,ScrollDown,ScrollUp,Green.png,5,NonTarget,NonTarget,0,0,0,0,,,,,,,,,,,,,,,,,,,,,,,,,,,,,0,8,8,8,,,,,,,,,,,,,,,,,,,,,,,,,,,,,,,,,,,,,,,,,,,,,,,,,,,,,,,,,,,,,,,,,,,,,1,1.7338230999998814,630.3622657999999,None,ScrollDown,정답입니다,630.3622657999999,None,630.3622657999999,None,630.3622657999999,None,630.3622657999999,None,631.9701838000001,None,631.9701838000001,632.4784463000001,,,,,,,,,,,,,,,,219,2022-05-18_16h20.25.418,FishGame,2022.1.1,59.96480066192989,
,10,넌 참되어,2,Orange,A,6.041666666666664,4.733333333333333,ScrollDown,ScrollUp,Orange.png,5,Positive,Congruent,0,0,0,0,,,,,,,,,,,,,,,,,,,,,,,,,,,,,0,9,9,9,,,,,,,,,,,,,,,,,,,,,,,,,,,,,,,,,,,,,,,,,,,,,,,,,,,,,,,,,,,,,,,,,,,,,1,1.766789599999811,633.1483545000001,None,ScrollDown,정답입니다,633.1483545000001,None,633.1483545000001,None,633.1483545000001,None,633.1483545000001,None,634.7682527000002,None,634.7682527000002,635.2781227999999,,,,,,,,,,,,,,,,219,2022-05-18_16h20.25.418,FishGame,2022.1.1,59.96480066192989,
,11,넌 생기있어,1,Green,B,5.875,5.633333333333334,ScrollUp,ScrollDown,Green.png,5,Positive,Incongruent,0,0,0,0,,,,,,,,,,,,,,,,,,,,,,,,,,,,,0,10,10,10,,,,,,,,,,,,,,,,,,,,,,,,,,,,,,,,,,,,,,,,,,,,,,,,,,,,,,,,,,,,,,,,,,,,,1.9922839502493541,1.0875989999999547,635.9304987,None,ScrollUp,정답입니다,635.9304987,None,635.9304987,None,635.9304987,None,635.9304987,None,636.8892467999999,None,636.8892467999999,637.3945963000001,,,,,,,,,,,,,,,,219,2022-05-18_16h20.25.418,FishGame,2022.1.1,59.96480066192989,
,12,넌 비사교적이야,4,Green,B,2.875,2.9,ScrollUp,ScrollDown,Green.png,5,Negative,Congruent,0,0,0,0,,,,,,,,,,,,,,,,,,,,,,,,,,,,,0,11,11,11,,,,,,,,,,,,,,,,,,,,,,,,,,,,,,,,,,,,,,,,,,,,,,,,,,,,,,,,,,,,,,,,,,,,,2,1.1455373999997391,638.0463322,None,ScrollUp,정답입니다,638.0463322,None,638.0463322,None,638.0463322,None,638.0463322,None,639.0627551000002,None,639.0627551000002,639.5776934,,,,,,,,,,,,,,,,219,2022-05-18_16h20.25.418,FishGame,2022.1.1,59.96480066192989,
,13,나를 데려가줘,6,Green,B,0,0,ScrollDown,ScrollUp,Green.png,5,NonTarget,NonTarget,0,0,0,0,,,,,,,,,,,,,,,,,,,,,,,,,,,,,0,12,12,12,,,,,,,,,,,,,,,,,,,,,,,,,,,,,,,,,,,,,,,,,,,,,,,,,,,,,,,,,,,,,,,,,,,,,1.0339506367842357,1.167007200000171,640.2229972999999,None,ScrollDown,정답입니다,640.2229972999999,None,640.2229972999999,None,640.2229972999999,None,640.2229972999999,None,641.2670742,None,641.2670742,641.7772604000002,,,,,,,,,,,,,,,,219,2022-05-18_16h20.25.418,FishGame,2022.1.1,59.96480066192989,
,14,넌 고독해,4,Orange,A,2.916666666666667,3.233333333333333,ScrollDown,ScrollUp,Orange.png,5,Negative,Incongruent,0,0,0,0,,,,,,,,,,,,,,,,,,,,,,,,,,,,,0,13,13,13,,,,,,,,,,,,,,,,,,,,,,,,,,,,,,,,,,,,,,,,,,,,,,,,,,,,,,,,,,,,,,,,,,,,,1,1.1145972999997866,642.4321429000001,None,ScrollDown,정답입니다,642.4321429000001,None,642.4321429000001,None,642.4321429000001,None,642.4321429000001,None,643.4139322999999,None,643.4139322999999,643.9271370000001,,,,,,,,,,,,,,,,219,2022-05-18_16h20.25.418,FishGame,2022.1.1,59.96480066192989,
,15,넌 신경질적이야,5,Green,B,2.375,2.233333333333333,ScrollUp,ScrollDown,Green.png,5,Negative,Congruent,0,0,0,0,,,,,,,,,,,,,,,,,,,,,,,,,,,,,0,14,14,14,,,,,,,,,,,,,,,,,,,,,,,,,,,,,,,,,,,,,,,,,,,,,,,,,,,,,,,,,,,,,,,,,,,,,2,1.187332399999832,644.5747967000002,None,ScrollUp,정답입니다,644.5747967000002,None,644.5747967000002,None,644.5747967000002,None,644.5747967000002,None,645.6367527000002,None,645.6367527000002,646.1435333,,,,,,,,,,,,,,,,219,2022-05-18_16h20.25.418,FishGame,2022.1.1,59.96480066192989,
,16,넌 똑똑해,2,Green,B,5.666666666666667,3.966666666666667,ScrollUp,ScrollDown,Green.png,5,Positive,Incongruent,0,0,0,0,,,,,,,,,,,,,,,,,,,,,,,,,,,,,0,15,15,15,,,,,,,,,,,,,,,,,,,,,,,,,,,,,,,,,,,,,,,,,,,,,,,,,,,,,,,,,,,,,,,,,,,,,2,1.032365099999879,646.8014361,None,ScrollUp,정답입니다,646.8014361,None,646.8014361,None,646.8014361,None,646.8014361,None,647.6996477000002,None,647.6996477000002,648.2097859,,,,,,,,,,,,,,,,219,2022-05-18_16h20.25.418,FishGame,2022.1.1,59.96480066192989,
,17,나를 보내줘,6,Orange,A,0,0,ScrollUp,ScrollDown,Orange.png,5,NonTarget,NonTarget,0,0,0,0,,,,,,,,,,,,,,,,,,,,,,,,,,,,,0,16,16,16,,,,,,,,,,,,,,,,,,,,,,,,,,,,,,,,,,,,,,,,,,,,,,,,,,,,,,,,,,,,,,,,,,,,,2,1.668145099999947,648.8656980000001,None,ScrollUp,정답입니다,648.8656980000001,None,648.8656980000001,None,648.8656980000001,None,648.8656980000001,None,650.3998388,None,650.3998388,650.9094562999999,,,,,,,,,,,,,,,,219,2022-05-18_16h20.25.418,FishGame,2022.1.1,59.96480066192989,
,18,넌 협조적이야,1,Orange,A,5.625,5.666666666666667,ScrollDown,ScrollUp,Orange.png,5,Positive,Congruent,0,0,0,0,,,,,,,,,,,,,,,,,,,,,,,,,,,,,0,17,17,17,,,,,,,,,,,,,,,,,,,,,,,,,,,,,,,,,,,,,,,,,,,,,,,,,,,,,,,,,,,,,,,,,,,,,1.0108024775981903,1.0243396999999277,651.5640544000003,None,ScrollDown,정답입니다,651.5640544000003,None,651.5640544000003,None,651.5640544000003,None,651.5640544000003,None,652.4538283000002,None,652.4538283000002,652.9591928999998,,,,,,,,,,,,,,,,219,2022-05-18_16h20.25.418,FishGame,2022.1.1,59.96480066192989,
,19,나를 데려가줘,6,Green,B,0,0,ScrollDown,ScrollUp,Green.png,5,NonTarget,NonTarget,0,0,0,0,,,,,,,,,,,,,,,,,,,,,,,,,,,,,0,18,18,18,,,,,,,,,,,,,,,,,,,,,,,,,,,,,,,,,,,,,,,,,,,,,,,,,,,,,,,,,,,,,,,,,,,,,1,1.115331100000276,653.6073024000002,None,ScrollDown,정답입니다,653.6073024000002,None,653.6073024000002,None,653.6073024000002,None,653.6073024000002,None,654.5980509000001,None,654.5980509000001,655.1090067,,,,,,,,,,,,,,,,219,2022-05-18_16h20.25.418,FishGame,2022.1.1,59.96480066192989,
,20,넌 몰인정해,5,Green,B,2.541666666666667,2.066666666666667,ScrollUp,ScrollDown,Green.png,5,Negative,Congruent,0,0,0,0,,,,,,,,,,,,,,,,,,,,,,,,,,,,,0,19,19,19,,,,,,,,,,,,,,,,,,,,,,,,,,,,,,,,,,,,,,,,,,,,,,,,,,,,,,,,,,,,,,,,,,,,,2,1.221568599999955,655.7734461,None,ScrollUp,정답입니다,655.7734461,None,655.7734461,None,655.7734461,None,655.7734461,None,656.8520287000001,None,656.8520287000001,657.3587143999998,,,,,,,,,,,,,,,,219,2022-05-18_16h20.25.418,FishGame,2022.1.1,59.96480066192989,
,21,나를 데려가줘,6,Green,B,0,0,ScrollDown,ScrollUp,Green.png,5,NonTarget,NonTarget,0,0,0,0,,,,,,,,,,,,,,,,,,,,,,,,,,,,,0,20,20,20,,,,,,,,,,,,,,,,,,,,,,,,,,,,,,,,,,,,,,,,,,,,,,,,,,,,,,,,,,,,,,,,,,,,,1,1.1186930999997458,658.0086042000003,None,ScrollDown,정답입니다,658.0086042000003,None,658.0086042000003,None,658.0086042000003,None,658.0086042000003,None,658.9997859999999,None,658.9997859999999,659.5083518000001,,,,,,,,,,,,,,,,219,2022-05-18_16h20.25.418,FishGame,2022.1.1,59.96480066192989,
,22,넌 순진해,3,Green,B,4.125,4.166666666666667,ScrollUp,ScrollDown,Green.png,5,Neutral,Neutral,0,0,0,0,,,,,,,,,,,,,,,,,,,,,,,,,,,,,0,21,21,21,,,,,,,,,,,,,,,,,,,,,,,,,,,,,,,,,,,,,,,,,,,,,,,,,,,,,,,,,,,,,,,,,,,,,2,1.0837365000002137,660.1577969,None,ScrollUp,정답입니다,660.1577969,None,660.1577969,None,660.1577969,None,660.1577969,None,661.1130585000001,None,661.1130585000001,661.6247432,,,,,,,,,,,,,,,,219,2022-05-18_16h20.25.418,FishGame,2022.1.1,59.96480066192989,
,23,넌 신뢰할만해,1,Orange,A,6.625,5.533333333333333,ScrollDown,ScrollUp,Orange.png,5,Positive,Congruent,0,0,0,0,,,,,,,,,,,,,,,,,,,,,,,,,,,,,0,22,22,22,,,,,,,,,,,,,,,,,,,,,,,,,,,,,,,,,,,,,,,,,,,,,,,,,,,,,,,,,,,,,,,,,,,,,1,1.1339803000000757,662.2854308999999,None,ScrollDown,정답입니다,662.2854308999999,None,662.2854308999999,None,662.2854308999999,None,662.2854308999999,None,663.2808582000002,None,663.2808582000002,663.7912019999999,,,,,,,,,,,,,,,,219,2022-05-18_16h20.25.418,FishGame,2022.1.1,59.96480066192989,
,24,나를 보내줘,6,Orange,A,0,0,ScrollUp,ScrollDown,Orange.png,5,NonTarget,NonTarget,0,0,0,0,,,,,,,,,,,,,,,,,,,,,,,,,,,,,0,23,23,23,,,,,,,,,,,,,,,,,,,,,,,,,,,,,,,,,,,,,,,,,,,,,,,,,,,,,,,,,,,,,,,,,,,,,2,1.148102199999812,664.4475293999999,None,ScrollUp,정답입니다,664.4475293999999,None,664.4475293999999,None,664.4475293999999,None,664.4475293999999,None,665.4618691999999,None,665.4618691999999,665.9741425000002,,,,,,,,,,,,,,,,219,2022-05-18_16h20.25.418,FishGame,2022.1.1,59.96480066192989,
,25,넌 인색해,5,Orange,A,2.625,2.233333333333333,ScrollDown,ScrollUp,Orange.png,5,Negative,Incongruent,0,0,0,0,,,,,,,,,,,,,,,,,,,,,,,,,,,,,0,24,24,24,,,,,,,,,,,,,,,,,,,,,,,,,,,,,,,,,,,,,,,,,,,,,,,,,,,,,,,,,,,,,,,,,,,,,1.1234567960103352,1.0286519000001135,666.6353137000001,None,ScrollDown,정답입니다,666.6353137000001,None,666.6353137000001,None,666.6353137000001,None,666.6353137000001,None,667.523627,None,667.523627,668.023964,,,,,,,,,,,,,,,,219,2022-05-18_16h20.25.418,FishGame,2022.1.1,59.96480066192989,
,26,넌 유쾌해,1,Green,B,5.833333333333333,5.766666666666667,ScrollUp,ScrollDown,Green.png,5,Positive,Incongruent,0,0,0,0,,,,,,,,,,,,,,,,,,,,,,,,,,,,,0,25,25,25,,,,,,,,,,,,,,,,,,,,,,,,,,,,,,,,,,,,,,,,,,,,,,,,,,,,,,,,,,,,,,,,,,,,,2,1.0615703999997095,668.6740662000002,None,ScrollUp,정답입니다,668.6740662000002,None,668.6740662000002,None,668.6740662000002,None,668.6740662000002,None,669.6073731000001,None,669.6073731000001,670.1070675000001,,,,,,,,,,,,,,,,219,2022-05-18_16h20.25.418,FishGame,2022.1.1,59.96480066192989,
,27,나를 보내줘,6,Orange,A,0,0,ScrollUp,ScrollDown,Orange.png,5,NonTarget,NonTarget,0,0,0,0,,,,,,,,,,,,,,,,,,,,,,,,,,,,,0,26,26,26,,,,,,,,,,,,,,,,,,,,,,,,,,,,,,,,,,,,,,,,,,,,,,,,,,,,,,,,,,,,,,,,,,,,,2,1.3539019999998345,670.7571418000002,None,ScrollUp,정답입니다,670.7571418000002,None,670.7571418000002,None,670.7571418000002,None,670.7571418000002,None,671.982074,None,671.982074,672.4899279000001,,,,,,,,,,,,,,,,219,2022-05-18_16h20.25.418,FishGame,2022.1.1,59.96480066192989,
,28,넌 창의력있어,2,Orange,A,5.916666666666667,4.8,ScrollDown,ScrollUp,Orange.png,5,Positive,Congruent,0,0,0,0,,,,,,,,,,,,,,,,,,,,,,,,,,,,,0,27,27,27,,,,,,,,,,,,,,,,,,,,,,,,,,,,,,,,,,,,,,,,,,,,,,,,,,,,,,,,,,,,,,,,,,,,,1,1.1018730000000687,673.1468037999998,None,ScrollDown,정답입니다,673.1468037999998,None,673.1468037999998,None,673.1468037999998,None,673.1468037999998,None,674.1127482000002,None,674.1127482000002,674.6230067000001,,,,,,,,,,,,,,,,219,2022-05-18_16h20.25.418,FishGame,2022.1.1,59.96480066192989,
