name,TrialNum,Word,WordCategory,FishType,WordList,WordValence,WordReputation,CorrectResp,IncorrectResp,FishTypeFile,Round,WordType,Condition,LoopforOrange.thisRepN,LoopforOrange.thisTrialN,LoopforOrange.thisN,LoopforOrange.thisIndex,LoopForGreen.thisRepN,LoopForGreen.thisTrialN,LoopForGreen.thisN,LoopForGreen.thisIndex,GreenInstLoop.thisRepN,GreenInstLoop.thisTrialN,GreenInstLoop.thisN,GreenInstLoop.thisIndex,GreenPrac.thisRepN,GreenPrac.thisTrialN,GreenPrac.thisN,GreenPrac.thisIndex,trials_2.thisRepN,trials_2.thisTrialN,trials_2.thisN,trials_2.thisIndex,GreenRound1.thisRepN,GreenRound1.thisTrialN,GreenRound1.thisN,GreenRound1.thisIndex,GreenRound2.thisRepN,GreenRound2.thisTrialN,GreenRound2.thisN,GreenRound2.thisIndex,GreenRound3.thisRepN,GreenRound3.thisTrialN,GreenRound3.thisN,GreenRound3.thisIndex,GreenRound4.thisRepN,GreenRound4.thisTrialN,GreenRound4.thisN,GreenRound4.thisIndex,GreenRound5.thisRepN,GreenRound5.thisTrialN,GreenRound5.thisN,GreenRound5.thisIndex,text_2.started,text_2.stopped,text_3.started,text_3.stopped,key_resp.keys,key_resp.rt,key_resp.started,key_resp.stopped,PassI.started,PassI.stopped,PassInst.keys,PassInst.rt,PassInst.started,PassInst.stopped,mouse_2.x,mouse_2.y,mouse_2.leftButton,mouse_2.midButton,mouse_2.rightButton,mouse_2.started,mouse_2.stopped,image.started,image.stopped,text_5.started,text_5.stopped,text_6.started,text_6.stopped,text_7.started,text_7.stopped,text_8.started,text_8.stopped,slider_3.response,slider_3.rt,slider_3.started,slider_3.stopped,Response_3,Feedback_3,BackGround_3.started,BackGround_3.stopped,Fish_3.started,Fish_3.stopped,WordBox_3.started,WordBox_3.stopped,Words_3.started,Words_3.stopped,BackGround_Feedback_3.started,BackGround_Feedback_3.stopped,Feedbacks_3.started,Feedbacks_3.stopped,Continue_or_not_2.keys,Continue_or_not_2.rt,Continue_or_not_2.started,Continue_or_not_2.stopped,image_4.started,image_4.stopped,mouse_3.x,mouse_3.y,mouse_3.leftButton,mouse_3.midButton,mouse_3.rightButton,mouse_3.started,mouse_3.stopped,startmain.started,startmain.stopped,slider_4.response,slider_4.rt,slider_4.started,slider_4.stopped,Response_4,Feedback_4,BackGround_4.started,BackGround_4.stopped,Fish_4.started,Fish_4.stopped,WordBox_4.started,WordBox_4.stopped,Words_4.started,Words_4.stopped,BackGround_Feedback_4.started,BackGround_Feedback_4.stopped,Feedbacks_4.started,Feedbacks_4.stopped,text.started,text.stopped,break_interval.started,break_interval.stopped,mouse.x,mouse.y,mouse.leftButton,mouse.midButton,mouse.rightButton,mouse.started,mouse.stopped,stratnextround.started,stratnextround.stopped,endgame.started,endgame.stopped,participant,date,expName,psychopyVersion,frameRate,
,,,,,,,,,,,,,,,,,,,,,,,,,,,,,,,,,,,,,,,,,,,,,,,,,,,,,,21.771439699999974,None,21.771439699999974,None,space,13.038115700000162,22.258137799999986,None,,,,,,,,,,,,,,,,,,,,,,,,,,,,,,,,,,,,,,,,,,,,,,,,,,,,,,,,,,,,,,,,,,,,,,,,,,,,,,,,,,,,,,,,,,220,2022-05-20_13h57.26.633,FishGame,2022.1.1,60.0258471296692,
물고기과제_instruction(참가자용)GreenVersion.mp4,,,,,,,,,,,,,,,,,,0,0,0,0,0,0,0,0,,,,,,,,,,,,,,,,,,,,,,,,,,,,,,,,,,,,,102.60430480000014,None,n,2.775588599999992,102.60430480000014,None,,,,,,,,,,,,,,,,,,,,,,,,,,,,,,,,,,,,,,,,,,,,,,,,,,,,,,,,,,,,,,,,,,,,,,,,,,,,,,,,,,,,220,2022-05-20_13h57.26.633,FishGame,2022.1.1,60.0258471296692,
,1,넌 교활해,5,Orange,B,2.333333333333333,2.133333333333333,ScrollUp,ScrollDown,Orange.png,practice,,,,,,,0,0,0,0,,,,,0,0,0,0,0,0,0,0,,,,,,,,,,,,,,,,,,,,,,,,,,,,,,,,,,,0.05,-0.23888889,1,0,0,0.5133888999998817,None,105.39726969999992,None,118.49599790000002,119.99535980000019,120.02874920000022,120.97865739999997,121.02857519999998,121.97842320000018,121.97842320000018,None,2,1.8437220000000707,123.15025920000016,None,ScrollUp,정답입니다,123.15025920000016,None,123.15025920000016,None,123.15025920000016,None,123.15025920000016,None,124.83406430000014,None,124.83406430000014,125.34458010000026,,,,,,,,,,,,,,,,,,,,,,,,,,,,,,,,,,,,,,,,,,,,,,,,,220,2022-05-20_13h57.26.633,FishGame,2022.1.1,60.0258471296692,
,2,넌 슬기로워,2,Green,A,6.166666666666667,4.1,ScrollDown,ScrollUp,Green.png,practice,,,,,,,0,0,0,0,,,,,0,0,0,0,0,1,1,1,,,,,,,,,,,,,,,,,,,,,,,,,,,,,,,,,,,,,,,,,,,,,,,,,,,,1,1.4316099000002396,126.01064670000005,None,ScrollDown,정답입니다,126.01064670000005,None,126.01064670000005,None,126.01064670000005,None,126.01064670000005,None,127.29898400000002,None,127.29898400000002,127.8109585000002,,,,,,,,,,,,,,,,,,,,,,,,,,,,,,,,,,,,,,,,,,,,,,,,,220,2022-05-20_13h57.26.633,FishGame,2022.1.1,60.0258471296692,
,3,나를 보내줘,6,Green,A,0,0,ScrollUp,ScrollDown,Green.png,practice,,,,,,,0,0,0,0,,,,,0,0,0,0,0,2,2,2,,,,,,,,,,,,,,,,,,,,,,,,,,,,,,,,,,,,,,,,,,,,,,,,,,,,2,1.8289451999999073,128.4645005000002,None,ScrollUp,정답입니다,128.4645005000002,None,128.4645005000002,None,128.4645005000002,None,128.4645005000002,None,130.160797,None,130.160797,130.66086970000015,,,,,,,,,,,,,,,,,,,,,,,,,,,,,,,,,,,,,,,,,,,,,,,,,220,2022-05-20_13h57.26.633,FishGame,2022.1.1,60.0258471296692,
,4,나를 데려가줘,6,Orange,B,0,0,ScrollDown,ScrollUp,Orange.png,practice,,,,,,,0,0,0,0,,,,,0,0,0,0,0,3,3,3,,,,,,,,,,,,,,,,,,,,,,,,,,,,,,,,,,,,,,,,,,,,,,,,,,,,1.1250000099341075,1.2985799000002771,131.3178111000002,None,ScrollDown,정답입니다,131.3178111000002,None,131.3178111000002,None,131.3178111000002,None,131.3178111000002,None,132.48252309999998,None,132.48252309999998,132.99347380000017,,,,,,,,,,,,,,,,,,,,,,,,,,,,,,,,,,,,,,,,,,,,,,,,,220,2022-05-20_13h57.26.633,FishGame,2022.1.1,60.0258471296692,
,1,넌 교활해,5,Orange,B,2.333333333333333,2.133333333333333,ScrollUp,ScrollDown,Orange.png,practice,,,,,,,0,0,0,0,,,,,0,0,0,0,,,,,,,,,,,,,,,,,,,,,,,,,,,,,,,,,,,,,,,,,,,,,,,,,,,,,,,,,,,,,,,,,,,,,,,,,,n,2.068362099999831,133.49348220000002,None,133.49348220000002,None,,,,,,,,,,,,,,,,,,,,,,,,,,,,,,,,,,,,,,,,,,,220,2022-05-20_13h57.26.633,FishGame,2022.1.1,60.0258471296692,
,1,넌 따뜻해,1,Orange,B,6.083333333333333,5.6,ScrollUp,ScrollDown,Orange.png,1,Positive,Incongruent,,,,,0,0,0,0,,,,,,,,,,,,,0,0,0,0,,,,,,,,,,,,,,,,,,,,,,,,,,,,,,,,,,,,,,,,137.77683190000016,139.2762071000002,139.3095559000003,140.25937479999993,140.30924050000021,141.2594164000002,141.2594164000002,None,,,,,,,,,,,,,,,,,,,,,,,,,0.047222223,-0.15277778,1,0,0,0.31353870000020834,None,135.59328330000017,None,1.8533950696388881,1.4228540000003704,142.46056380000027,None,ScrollUp,정답입니다,142.46056380000027,None,142.46056380000027,None,142.46056380000027,None,142.46056380000027,None,143.69946160000018,None,143.69946160000018,144.2086790000003,,,,,,,,,,,,,,,,220,2022-05-20_13h57.26.633,FishGame,2022.1.1,60.0258471296692,
,2,넌 기품있어,2,Orange,B,5.791666666666668,4.5,ScrollUp,ScrollDown,Orange.png,1,Positive,Incongruent,,,,,0,0,0,0,,,,,,,,,,,,,0,1,1,1,,,,,,,,,,,,,,,,,,,,,,,,,,,,,,,,,,,,,,,,,,,,,,,,,,,,,,,,,,,,,,,,,,,,,,,,,,,,,,,,,2,1.3053207000002658,144.9055943000003,None,ScrollUp,정답입니다,144.9055943000003,None,144.9055943000003,None,144.9055943000003,None,144.9055943000003,None,146.0339495000003,None,146.0339495000003,146.54179350000004,,,,,,,,,,,,,,,,220,2022-05-20_13h57.26.633,FishGame,2022.1.1,60.0258471296692,
,3,나를 보내줘,6,Green,A,0,0,ScrollUp,ScrollDown,Green.png,1,NonTarget,NonTarget,,,,,0,0,0,0,,,,,,,,,,,,,0,2,2,2,,,,,,,,,,,,,,,,,,,,,,,,,,,,,,,,,,,,,,,,,,,,,,,,,,,,,,,,,,,,,,,,,,,,,,,,,,,,,,,,,1.765432099501292,1.3337188999998943,147.2083207999999,None,ScrollUp,정답입니다,147.2083207999999,None,147.2083207999999,None,147.2083207999999,None,147.2083207999999,None,148.39920110000003,None,148.39920110000003,148.90815280000015,,,,,,,,,,,,,,,,220,2022-05-20_13h57.26.633,FishGame,2022.1.1,60.0258471296692,
,4,넌 수동적이야,4,Green,A,2.833333333333333,2.933333333333333,ScrollDown,ScrollUp,Green.png,1,Negative,Incongruent,,,,,0,0,0,0,,,,,,,,,,,,,0,3,3,3,,,,,,,,,,,,,,,,,,,,,,,,,,,,,,,,,,,,,,,,,,,,,,,,,,,,,,,,,,,,,,,,,,,,,,,,,,,,,,,,,1.0833333333333333,1.4845737999999074,149.57602580000002,None,ScrollDown,정답입니다,149.57602580000002,None,149.57602580000002,None,149.57602580000002,None,149.57602580000002,None,150.91410450000012,None,150.91410450000012,151.42476830000032,,,,,,,,,,,,,,,,220,2022-05-20_13h57.26.633,FishGame,2022.1.1,60.0258471296692,
,5,넌 사심이 없어,3,Orange,B,4.916666666666666,4.333333333333333,ScrollUp,ScrollDown,Orange.png,1,Neutral,Neutral,,,,,0,0,0,0,,,,,,,,,,,,,0,4,4,4,,,,,,,,,,,,,,,,,,,,,,,,,,,,,,,,,,,,,,,,,,,,,,,,,,,,,,,,,,,,,,,,,,,,,,,,,,,,,,,,,1.7793209999799728,1.6002834000000803,152.09188700000004,None,ScrollUp,정답입니다,152.09188700000004,None,152.09188700000004,None,152.09188700000004,None,152.09188700000004,None,153.54857740000034,None,153.54857740000034,154.0575570000001,,,,,,,,,,,,,,,,220,2022-05-20_13h57.26.633,FishGame,2022.1.1,60.0258471296692,
,6,넌 헤퍼,5,Green,A,2.458333333333334,2.233333333333333,ScrollDown,ScrollUp,Green.png,1,Negative,Incongruent,,,,,0,0,0,0,,,,,,,,,,,,,0,5,5,5,,,,,,,,,,,,,,,,,,,,,,,,,,,,,,,,,,,,,,,,,,,,,,,,,,,,,,,,,,,,,,,,,,,,,,,,,,,,,,,,,1.0308642089366913,1.2618836999999985,154.71690050000007,None,ScrollDown,정답입니다,154.71690050000007,None,154.71690050000007,None,154.71690050000007,None,154.71690050000007,None,155.84083220000002,None,155.84083220000002,156.3406172,,,,,,,,,,,,,,,,220,2022-05-20_13h57.26.633,FishGame,2022.1.1,60.0258471296692,
,7,넌 말쑥해,3,Green,A,4.833333333333334,4.333333333333333,ScrollDown,ScrollUp,Green.png,1,Neutral,Neutral,,,,,0,0,0,0,,,,,,,,,,,,,0,6,6,6,,,,,,,,,,,,,,,,,,,,,,,,,,,,,,,,,,,,,,,,,,,,,,,,,,,,,,,,,,,,,,,,,,,,,,,,,,,,,,,,,1,1.2449360000000524,157.00485590000017,None,ScrollDown,정답입니다,157.00485590000017,None,157.00485590000017,None,157.00485590000017,None,157.00485590000017,None,158.10816160000013,None,158.10816160000013,158.62364849999994,,,,,,,,,,,,,,,,220,2022-05-20_13h57.26.633,FishGame,2022.1.1,60.0258471296692,
,8,넌 투덜거려,5,Orange,B,2.541666666666667,2.266666666666667,ScrollUp,ScrollDown,Orange.png,1,Negative,Congruent,,,,,0,0,0,0,,,,,,,,,,,,,0,7,7,7,,,,,,,,,,,,,,,,,,,,,,,,,,,,,,,,,,,,,,,,,,,,,,,,,,,,,,,,,,,,,,,,,,,,,,,,,,,,,,,,,1.9969135920206706,1.2992519999997967,159.2923555000002,None,ScrollUp,정답입니다,159.2923555000002,None,159.2923555000002,None,159.2923555000002,None,159.2923555000002,None,160.44404630000008,None,160.44404630000008,160.9566577999999,,,,,,,,,,,,,,,,220,2022-05-20_13h57.26.633,FishGame,2022.1.1,60.0258471296692,
,9,넌 적극적이야,1,Green,A,5.708333333333333,5.533333333333333,ScrollDown,ScrollUp,Green.png,1,Positive,Congruent,,,,,0,0,0,0,,,,,,,,,,,,,0,8,8,8,,,,,,,,,,,,,,,,,,,,,,,,,,,,,,,,,,,,,,,,,,,,,,,,,,,,,,,,,,,,,,,,,,,,,,,,,,,,,,,,,1.0910493781169255,1.2422990999998547,161.61380180000015,None,ScrollDown,정답입니다,161.61380180000015,None,161.61380180000015,None,161.61380180000015,None,161.61380180000015,None,162.72327610000002,None,162.72327610000002,163.22290079999993,,,,,,,,,,,,,,,,220,2022-05-20_13h57.26.633,FishGame,2022.1.1,60.0258471296692,
,10,넌 재미없어,4,Orange,B,2.625,2.966666666666667,ScrollUp,ScrollDown,Orange.png,1,Negative,Congruent,,,,,0,0,0,0,,,,,,,,,,,,,0,9,9,9,,,,,,,,,,,,,,,,,,,,,,,,,,,,,,,,,,,,,,,,,,,,,,,,,,,,,,,,,,,,,,,,,,,,,,,,,,,,,,,,,2,1.0876275000000533,163.88848589999998,None,ScrollUp,정답입니다,163.88848589999998,None,163.88848589999998,None,163.88848589999998,None,163.88848589999998,None,164.83150980000028,None,164.83150980000028,165.3393716999999,,,,,,,,,,,,,,,,220,2022-05-20_13h57.26.633,FishGame,2022.1.1,60.0258471296692,
,11,넌 명석해,2,Green,A,5.875,4.033333333333333,ScrollDown,ScrollUp,Green.png,1,Positive,Congruent,,,,,0,0,0,0,,,,,,,,,,,,,0,10,10,10,,,,,,,,,,,,,,,,,,,,,,,,,,,,,,,,,,,,,,,,,,,,,,,,,,,,,,,,,,,,,,,,,,,,,,,,,,,,,,,,,1.0663580298423767,1.0723499999999149,165.99768029999996,None,ScrollDown,정답입니다,165.99768029999996,None,165.99768029999996,None,165.99768029999996,None,165.99768029999996,None,166.93948980000005,None,166.93948980000005,167.4391660000001,,,,,,,,,,,,,,,,220,2022-05-20_13h57.26.633,FishGame,2022.1.1,60.0258471296692,
,12,나를 데려가줘,6,Orange,B,0,0,ScrollDown,ScrollUp,Orange.png,1,NonTarget,NonTarget,,,,,0,0,0,0,,,,,,,,,,,,,0,11,11,11,,,,,,,,,,,,,,,,,,,,,,,,,,,,,,,,,,,,,,,,,,,,,,,,,,,,,,,,,,,,,,,,,,,,,,,,,,,,,,,,,1.1589506169160206,1.2189332999996623,168.1047335000003,None,ScrollDown,정답입니다,168.1047335000003,None,168.1047335000003,None,168.1047335000003,None,168.1047335000003,None,169.17957670000033,None,169.17957670000033,169.68881009999996,,,,,,,,,,,,,,,,220,2022-05-20_13h57.26.633,FishGame,2022.1.1,60.0258471296692,
,13,넌 소심해,4,Green,A,3,3.1,ScrollDown,ScrollUp,Green.png,1,Negative,Incongruent,,,,,0,0,0,0,,,,,,,,,,,,,0,12,12,12,,,,,,,,,,,,,,,,,,,,,,,,,,,,,,,,,,,,,,,,,,,,,,,,,,,,,,,,,,,,,,,,,,,,,,,,,,,,,,,,,1.0108024775981903,1.0771274999997331,170.3444738000003,None,ScrollDown,정답입니다,170.3444738000003,None,170.3444738000003,None,170.3444738000003,None,170.3444738000003,None,171.2885914000003,None,171.2885914000003,171.78852929999994,,,,,,,,,,,,,,,,220,2022-05-20_13h57.26.633,FishGame,2022.1.1,60.0258471296692,
,14,넌 합리적이야,2,Green,A,5.583333333333333,4.733333333333333,ScrollDown,ScrollUp,Green.png,1,Positive,Congruent,,,,,0,0,0,0,,,,,,,,,,,,,0,13,13,13,,,,,,,,,,,,,,,,,,,,,,,,,,,,,,,,,,,,,,,,,,,,,,,,,,,,,,,,,,,,,,,,,,,,,,,,,,,,,,,,,1.0246913532416027,1.0726155000002109,172.4552136000002,None,ScrollDown,정답입니다,172.4552136000002,None,172.4552136000002,None,172.4552136000002,None,172.4552136000002,None,173.38866869999993,None,173.38866869999993,173.88842849999992,,,,,,,,,,,,,,,,220,2022-05-20_13h57.26.633,FishGame,2022.1.1,60.0258471296692,
,15,넌 무자비해,5,Orange,B,2.333333333333333,2.1,ScrollUp,ScrollDown,Orange.png,1,Negative,Congruent,,,,,0,0,0,0,,,,,,,,,,,,,0,14,14,14,,,,,,,,,,,,,,,,,,,,,,,,,,,,,,,,,,,,,,,,,,,,,,,,,,,,,,,,,,,,,,,,,,,,,,,,,,,,,,,,,1.6419753084580102,1.333950200000345,174.55408690000013,None,ScrollUp,정답입니다,174.55408690000013,None,174.55408690000013,None,174.55408690000013,None,174.55408690000013,None,175.74546490000012,None,175.74546490000012,176.25468120000005,,,,,,,,,,,,,,,,220,2022-05-20_13h57.26.633,FishGame,2022.1.1,60.0258471296692,
,16,나를 보내줘,6,Green,A,0,0,ScrollUp,ScrollDown,Green.png,1,NonTarget,NonTarget,,,,,0,0,0,0,,,,,,,,,,,,,0,15,15,15,,,,,,,,,,,,,,,,,,,,,,,,,,,,,,,,,,,,,,,,,,,,,,,,,,,,,,,,,,,,,,,,,,,,,,,,,,,,,,,,,1.8132716069618862,1.1791137000000163,176.90549409999994,None,ScrollUp,정답입니다,176.90549409999994,None,176.90549409999994,None,176.90549409999994,None,176.90549409999994,None,177.9543678,None,177.9543678,178.45440310000004,,,,,,,,,,,,,,,,220,2022-05-20_13h57.26.633,FishGame,2022.1.1,60.0258471296692,
,17,넌 현실적이야,3,Orange,B,4.608695652173913,4.766666666666667,ScrollUp,ScrollDown,Orange.png,1,Neutral,Neutral,,,,,0,0,0,0,,,,,,,,,,,,,0,16,16,16,,,,,,,,,,,,,,,,,,,,,,,,,,,,,,,,,,,,,,,,,,,,,,,,,,,,,,,,,,,,,,,,,,,,,,,,,,,,,,,,,1.703703703979651,1.280898999999863,179.1212430999999,None,ScrollUp,정답입니다,179.1212430999999,None,179.1212430999999,None,179.1212430999999,None,179.1212430999999,None,180.2579108,None,180.2579108,180.77083260000018,,,,,,,,,,,,,,,,220,2022-05-20_13h57.26.633,FishGame,2022.1.1,60.0258471296692,
,18,넌 의리있어,1,Orange,B,5.833333333333334,5.633333333333334,ScrollUp,ScrollDown,Orange.png,1,Positive,Incongruent,,,,,0,0,0,0,,,,,,,,,,,,,0,17,17,17,,,,,,,,,,,,,,,,,,,,,,,,,,,,,,,,,,,,,,,,,,,,,,,,,,,,,,,,,,,,,,,,,,,,,,,,,,,,,,,,,1.7746913582086563,0.9392254999997931,181.43444950000003,None,ScrollUp,정답입니다,181.43444950000003,None,181.43444950000003,None,181.43444950000003,None,181.43444950000003,None,182.23048910000034,None,182.23048910000034,182.7371416000001,,,,,,,,,,,,,,,,220,2022-05-20_13h57.26.633,FishGame,2022.1.1,60.0258471296692,
,19,넌 신경과민이야,5,Green,A,2.541666666666667,2.166666666666667,ScrollDown,ScrollUp,Green.png,1,Negative,Incongruent,,,,,0,0,0,0,,,,,,,,,,,,,0,18,18,18,,,,,,,,,,,,,,,,,,,,,,,,,,,,,,,,,,,,,,,,,,,,,,,,,,,,,,,,,,,,,,,,,,,,,,,,,,,,,,,,,1.2376543283462524,0.9950454999998328,183.4038885,None,ScrollDown,정답입니다,183.4038885,None,183.4038885,None,183.4038885,None,183.4038885,None,184.25348890000032,None,184.25348890000032,184.75358340000002,,,,,,,,,,,,,,,,220,2022-05-20_13h57.26.633,FishGame,2022.1.1,60.0258471296692,
,20,넌 편안해,1,Green,A,5.916666666666666,5.866666666666666,ScrollDown,ScrollUp,Green.png,1,Positive,Congruent,,,,,0,0,0,0,,,,,,,,,,,,,0,19,19,19,,,,,,,,,,,,,,,,,,,,,,,,,,,,,,,,,,,,,,,,,,,,,,,,,,,,,,,,,,,,,,,,,,,,,,,,,,,,,,,,,1.0879629751046498,0.9764109999996435,185.44622759999993,None,ScrollDown,정답입니다,185.44622759999993,None,185.44622759999993,None,185.44622759999993,None,185.44622759999993,None,186.24894220000033,None,186.24894220000033,186.75335640000003,,,,,,,,,,,,,,,,220,2022-05-20_13h57.26.633,FishGame,2022.1.1,60.0258471296692,
,21,넌 품위있어,2,Orange,B,5.291666666666666,4.466666666666667,ScrollUp,ScrollDown,Orange.png,1,Positive,Incongruent,,,,,0,0,0,0,,,,,,,,,,,,,0,20,20,20,,,,,,,,,,,,,,,,,,,,,,,,,,,,,,,,,,,,,,,,,,,,,,,,,,,,,,,,,,,,,,,,,,,,,,,,,,,,,,,,,1.7500000099341075,0.9140818000000763,187.41933569999992,None,ScrollUp,정답입니다,187.41933569999992,None,187.41933569999992,None,187.41933569999992,None,187.41933569999992,None,188.19100800000024,None,188.19100800000024,188.7029935999999,,,,,,,,,,,,,,,,220,2022-05-20_13h57.26.633,FishGame,2022.1.1,60.0258471296692,
,22,넌 빈틈없어,3,Green,A,4.833333333333333,3.966666666666667,ScrollDown,ScrollUp,Green.png,1,Neutral,Neutral,,,,,0,0,0,0,,,,,,,,,,,,,0,21,21,21,,,,,,,,,,,,,,,,,,,,,,,,,,,,,,,,,,,,,,,,,,,,,,,,,,,,,,,,,,,,,,,,,,,,,,,,,,,,,,,,,1.1543209999799728,0.9696847999998681,189.36712510000007,None,ScrollDown,정답입니다,189.36712510000007,None,189.36712510000007,None,189.36712510000007,None,189.36712510000007,None,190.1941993999999,None,190.1941993999999,190.70271600000024,,,,,,,,,,,,,,,,220,2022-05-20_13h57.26.633,FishGame,2022.1.1,60.0258471296692,
,23,넌 상상력없어,4,Orange,B,2.833333333333333,3.133333333333333,ScrollUp,ScrollDown,Orange.png,1,Negative,Congruent,,,,,0,0,0,0,,,,,,,,,,,,,0,22,22,22,,,,,,,,,,,,,,,,,,,,,,,,,,,,,,,,,,,,,,,,,,,,,,,,,,,,,,,,,,,,,,,,,,,,,,,,,,,,,,,,,1.7268518507480621,0.9273023000000649,191.3741113000001,None,ScrollUp,정답입니다,191.3741113000001,None,191.3741113000001,None,191.3741113000001,None,191.3741113000001,None,192.14904290000004,None,192.14904290000004,192.6525870999999,,,,,,,,,,,,,,,,220,2022-05-20_13h57.26.633,FishGame,2022.1.1,60.0258471296692,
,24,넌 지혜로워,2,Orange,B,6.333333333333334,4.633333333333334,ScrollUp,ScrollDown,Orange.png,1,Positive,Incongruent,,,,,0,0,0,0,,,,,,,,,,,,,0,23,23,23,,,,,,,,,,,,,,,,,,,,,,,,,,,,,,,,,,,,,,,,,,,,,,,,,,,,,,,,,,,,,,,,,,,,,,,,,,,,,,,,,1.6311728358268738,0.9513498999999683,193.3219108000003,None,ScrollUp,정답입니다,193.3219108000003,None,193.3219108000003,None,193.3219108000003,None,193.3219108000003,None,194.12899510000034,None,194.12899510000034,194.63551460000008,,,,,,,,,,,,,,,,220,2022-05-20_13h57.26.633,FishGame,2022.1.1,60.0258471296692,
,25,넌 시끄러워,4,Green,A,2.833333333333333,3.033333333333333,ScrollDown,ScrollUp,Green.png,1,Negative,Incongruent,,,,,0,0,0,0,,,,,,,,,,,,,0,24,24,24,,,,,,,,,,,,,,,,,,,,,,,,,,,,,,,,,,,,,,,,,,,,,,,,,,,,,,,,,,,,,,,,,,,,,,,,,,,,,,,,,1.162037044763565,0.9651222999996207,195.29778549999992,None,ScrollDown,정답입니다,195.29778549999992,None,195.29778549999992,None,195.29778549999992,None,195.29778549999992,None,196.12443600000006,None,196.12443600000006,196.63536320000003,,,,,,,,,,,,,,,,220,2022-05-20_13h57.26.633,FishGame,2022.1.1,60.0258471296692,
,26,넌 만사태평이야,3,Orange,B,4,4.333333333333333,ScrollUp,ScrollDown,Orange.png,1,Neutral,Neutral,,,,,0,0,0,0,,,,,,,,,,,,,0,25,25,25,,,,,,,,,,,,,,,,,,,,,,,,,,,,,,,,,,,,,,,,,,,,,,,,,,,,,,,,,,,,,,,,,,,,,,,,,,,,,,,,,1.9490740597248077,1.5726414999999179,197.30264540000007,None,ScrollUp,정답입니다,197.30264540000007,None,197.30264540000007,None,197.30264540000007,None,197.30264540000007,None,198.73516229999996,None,198.73516229999996,199.23493009999993,,,,,,,,,,,,,,,,220,2022-05-20_13h57.26.633,FishGame,2022.1.1,60.0258471296692,
,27,넌 붙임성있어,1,Green,A,5.708333333333333,5.633333333333334,ScrollDown,ScrollUp,Green.png,1,Positive,Congruent,,,,,0,0,0,0,,,,,,,,,,,,,0,26,26,26,,,,,,,,,,,,,,,,,,,,,,,,,,,,,,,,,,,,,,,,,,,,,,,,,,,,,,,,,,,,,,,,,,,,,,,,,,,,,,,,,1.0632716019948323,0.9943078000001151,199.89562220000016,None,ScrollDown,정답입니다,199.89562220000016,None,199.89562220000016,None,199.89562220000016,None,199.89562220000016,None,200.75144,None,200.75144,201.25146519999998,,,,,,,,,,,,,,,,220,2022-05-20_13h57.26.633,FishGame,2022.1.1,60.0258471296692,
,28,넌 영리해,2,Green,A,6,4.033333333333333,ScrollDown,ScrollUp,Green.png,1,Positive,Congruent,,,,,0,0,0,0,,,,,,,,,,,,,0,27,27,27,,,,,,,,,,,,,,,,,,,,,,,,,,,,,,,,,,,,,,,,,,,,,,,,,,,,,,,,,,,,,,,,,,,,,,,,,,,,,,,,,1.2175925970077515,1.081453799999963,201.9069615000003,None,ScrollDown,정답입니다,201.9069615000003,None,201.9069615000003,None,201.9069615000003,None,201.9069615000003,None,202.85644690000026,None,202.85644690000026,203.36782840000023,,,,,,,,,,,,,,,,220,2022-05-20_13h57.26.633,FishGame,2022.1.1,60.0258471296692,
,29,넌 열심이야,1,Orange,B,6.041666666666667,5.833333333333333,ScrollUp,ScrollDown,Orange.png,1,Positive,Incongruent,,,,,0,0,0,0,,,,,,,,,,,,,0,28,28,28,,,,,,,,,,,,,,,,,,,,,,,,,,,,,,,,,,,,,,,,,,,,,,,,,,,,,,,,,,,,,,,,,,,,,,,,,,,,,,,,,1.6898148159186044,0.8928753000000142,204.0296357000002,None,ScrollUp,정답입니다,204.0296357000002,None,204.0296357000002,None,204.0296357000002,None,204.0296357000002,None,204.7844169,None,204.7844169,205.28427230000034,,,,,,,,,,,,,,,,220,2022-05-20_13h57.26.633,FishGame,2022.1.1,60.0258471296692,
,30,넌 인기없어,4,Orange,B,3,3.3,ScrollUp,ScrollDown,Orange.png,1,Negative,Congruent,,,,,0,0,0,0,,,,,,,,,,,,,0,29,29,29,,,,,,,,,,,,,,,,,,,,,,,,,,,,,,,,,,,,,,,,,,,,,,,,,,,,,,,,,,,,,,,,,,,,,,,,,,,,,,,,,1.9274691144625347,0.9320637999999235,205.9450538000001,None,ScrollUp,정답입니다,205.9450538000001,None,205.9450538000001,None,205.9450538000001,None,205.9450538000001,None,206.73895810000022,None,206.73895810000022,207.25079649999998,,,,,,,,,,,,,,,,220,2022-05-20_13h57.26.633,FishGame,2022.1.1,60.0258471296692,
,31,넌 익살스러워,3,Green,A,4.708333333333334,4.833333333333333,ScrollDown,ScrollUp,Green.png,1,Neutral,Neutral,,,,,0,0,0,0,,,,,,,,,,,,,0,30,30,30,,,,,,,,,,,,,,,,,,,,,,,,,,,,,,,,,,,,,,,,,,,,,,,,,,,,,,,,,,,,,,,,,,,,,,,,,,,,,,,,,1.1234567960103352,1.1685711999998603,207.90485119999994,None,ScrollDown,정답입니다,207.90485119999994,None,207.90485119999994,None,207.90485119999994,None,207.90485119999994,None,208.94228340000018,None,208.94228340000018,209.45043510000005,,,,,,,,,,,,,,,,220,2022-05-20_13h57.26.633,FishGame,2022.1.1,60.0258471296692,
,32,넌 이기적이야,5,Orange,B,2.291666666666667,2.333333333333333,ScrollUp,ScrollDown,Orange.png,1,Negative,Congruent,,,,,0,0,0,0,,,,,,,,,,,,,0,31,31,31,,,,,,,,,,,,,,,,,,,,,,,,,,,,,,,,,,,,,,,,,,,,,,,,,,,,,,,,,,,,,,,,,,,,,,,,,,,,,,,,,1.8873456766208012,1.1514088999997512,210.10589320000008,None,ScrollUp,정답입니다,210.10589320000008,None,210.10589320000008,None,210.10589320000008,None,210.10589320000008,None,211.12242940000033,None,211.12242940000033,211.6333967999999,,,,,,,,,,,,,,,,220,2022-05-20_13h57.26.633,FishGame,2022.1.1,60.0258471296692,
,33,나를 데려가줘,6,Orange,B,0,0,ScrollDown,ScrollUp,Orange.png,1,NonTarget,NonTarget,,,,,0,0,0,0,,,,,,,,,,,,,0,32,32,32,,,,,,,,,,,,,,,,,,,,,,,,,,,,,,,,,,,,,,,,,,,,,,,,,,,,,,,,,,,,,,,,,,,,,,,,,,,,,,,,,1.0216049253940582,1.1482676999999057,212.29148440000017,None,ScrollDown,정답입니다,212.29148440000017,None,212.29148440000017,None,212.29148440000017,None,212.29148440000017,None,213.3041791999999,None,213.3041791999999,213.81651060000013,,,,,,,,,,,,,,,,220,2022-05-20_13h57.26.633,FishGame,2022.1.1,60.0258471296692,
,34,넌 기회주의자야,5,Green,A,2.875,2.133333333333333,ScrollDown,ScrollUp,Green.png,1,Negative,Incongruent,,,,,0,0,0,0,,,,,,,,,,,,,0,33,33,33,,,,,,,,,,,,,,,,,,,,,,,,,,,,,,,,,,,,,,,,,,,,,,,,,,,,,,,,,,,,,,,,,,,,,,,,,,,,,,,,,1,1.0672701000003144,214.47047220000013,None,ScrollDown,정답입니다,214.47047220000013,None,214.47047220000013,None,214.47047220000013,None,214.47047220000013,None,215.40899070000023,None,215.40899070000023,215.91622290000032,,,,,,,,,,,,,,,,220,2022-05-20_13h57.26.633,FishGame,2022.1.1,60.0258471296692,
,1,넌 미성숙해,4,Green,A,3,3.2,ScrollDown,ScrollUp,Green.png,2,Negative,Incongruent,,,,,0,0,0,0,,,,,,,,,,,,,,,,,0,0,0,0,,,,,,,,,,,,,,,,,,,,,,,,,,,,,,,,,,,,247.8787926,249.3786645,249.41193109999995,250.36183140000003,250.41173019999997,251.36186130000033,251.36186130000033,None,,,,,,,,,,,,,,,,,,,,,,,,,,,,,,,,,,1.0493827263514202,1.2217074000000139,252.55881480000016,None,ScrollDown,정답입니다,252.55881480000016,None,252.55881480000016,None,252.55881480000016,None,252.55881480000016,None,253.5948857000003,None,253.5948857000003,254.09465649999993,216.41619880000007,None,216.41619880000007,None,-0.11851852,-0.10925926,1,0,0,0.015987999999651947,None,246.42889860000014,None,,,220,2022-05-20_13h57.26.633,FishGame,2022.1.1,60.0258471296692,
,2,넌 반사회적이야,5,Orange,B,2.416666666666667,2.033333333333333,ScrollUp,ScrollDown,Orange.png,2,Negative,Congruent,,,,,0,0,0,0,,,,,,,,,,,,,,,,,0,1,1,1,,,,,,,,,,,,,,,,,,,,,,,,,,,,,,,,,,,,,,,,,,,,,,,,,,,,,,,,,,,,,,,,,,,,,,,,,,,,,1.8904321044683456,1.042432999999619,254.75008329999991,None,ScrollUp,정답입니다,254.75008329999991,None,254.75008329999991,None,254.75008329999991,None,254.75008329999991,None,255.66129260000025,None,255.66129260000025,256.1611022000002,,,,,,,,,,,,,,,,220,2022-05-20_13h57.26.633,FishGame,2022.1.1,60.0258471296692,
,3,넌 유능해,2,Green,A,6.208333333333333,4.433333333333334,ScrollDown,ScrollUp,Green.png,2,Positive,Congruent,,,,,0,0,0,0,,,,,,,,,,,,,,,,,0,2,2,2,,,,,,,,,,,,,,,,,,,,,,,,,,,,,,,,,,,,,,,,,,,,,,,,,,,,,,,,,,,,,,,,,,,,,,,,,,,,,1.0617283880710602,1.0511416999997891,256.8216136000001,None,ScrollDown,정답입니다,256.8216136000001,None,256.8216136000001,None,256.8216136000001,None,256.8216136000001,None,257.7340847999999,None,257.7340847999999,258.2439998,,,,,,,,,,,,,,,,220,2022-05-20_13h57.26.633,FishGame,2022.1.1,60.0258471296692,
,4,넌 능숙해,2,Orange,B,5.666666666666667,4.733333333333333,ScrollUp,ScrollDown,Orange.png,2,Positive,Incongruent,,,,,0,0,0,0,,,,,,,,,,,,,,,,,0,3,3,3,,,,,,,,,,,,,,,,,,,,,,,,,,,,,,,,,,,,,,,,,,,,,,,,,,,,,,,,,,,,,,,,,,,,,,,,,,,,,1.8688271592060726,0.9853142000001753,258.90050210000027,None,ScrollUp,정답입니다,258.90050210000027,None,258.90050210000027,None,258.90050210000027,None,258.90050210000027,None,259.75125660000003,None,259.75125660000003,260.26052759999993,,,,,,,,,,,,,,,,220,2022-05-20_13h57.26.633,FishGame,2022.1.1,60.0258471296692,
,5,넌 진부해,4,Orange,B,2.458333333333333,3.166666666666667,ScrollUp,ScrollDown,Orange.png,2,Negative,Congruent,,,,,0,0,0,0,,,,,,,,,,,,,,,,,0,4,4,4,,,,,,,,,,,,,,,,,,,,,,,,,,,,,,,,,,,,,,,,,,,,,,,,,,,,,,,,,,,,,,,,,,,,,,,,,,,,,1.723765422900518,1.0557830000002468,260.9235865999999,None,ScrollUp,정답입니다,260.9235865999999,None,260.9235865999999,None,260.9235865999999,None,260.9235865999999,None,261.8438672000002,None,261.8438672000002,262.3434843,,,,,,,,,,,,,,,,220,2022-05-20_13h57.26.633,FishGame,2022.1.1,60.0258471296692,
,6,나를 보내줘,6,Green,A,0,0,ScrollUp,ScrollDown,Green.png,2,NonTarget,NonTarget,,,,,0,0,0,0,,,,,,,,,,,,,,,,,0,5,5,5,,,,,,,,,,,,,,,,,,,,,,,,,,,,,,,,,,,,,,,,,,,,,,,,,,,,,,,,,,,,,,,,,,,,,,,,,,,,,1.8950617214043934,1.2439604000001054,262.9942245000002,None,ScrollUp,정답입니다,262.9942245000002,None,262.9942245000002,None,262.9942245000002,None,262.9942245000002,None,264.1101284000001,None,264.1101284000001,264.60998599999994,,,,,,,,,,,,,,,,220,2022-05-20_13h57.26.633,FishGame,2022.1.1,60.0258471296692,
,7,넌 엄격해,3,Green,A,4.166666666666666,4.1,ScrollDown,ScrollUp,Green.png,2,Neutral,Neutral,,,,,0,0,0,0,,,,,,,,,,,,,,,,,0,6,6,6,,,,,,,,,,,,,,,,,,,,,,,,,,,,,,,,,,,,,,,,,,,,,,,,,,,,,,,,,,,,,,,,,,,,,,,,,,,,,1,1.0981996999998955,265.26368820000016,None,ScrollDown,정답입니다,265.26368820000016,None,265.26368820000016,None,265.26368820000016,None,265.26368820000016,None,266.2315607999999,None,266.2315607999999,266.7428874000002,,,,,,,,,,,,,,,,220,2022-05-20_13h57.26.633,FishGame,2022.1.1,60.0258471296692,
,8,나를 보내줘,6,Green,A,0,0,ScrollUp,ScrollDown,Green.png,2,NonTarget,NonTarget,,,,,0,0,0,0,,,,,,,,,,,,,,,,,0,7,7,7,,,,,,,,,,,,,,,,,,,,,,,,,,,,,,,,,,,,,,,,,,,,,,,,,,,,,,,,,,,,,,,,,,,,,,,,,,,,,1.7500000099341075,1.166549699999905,267.3925369000003,None,ScrollUp,정답입니다,267.3925369000003,None,267.3925369000003,None,267.3925369000003,None,267.3925369000003,None,268.4326681000002,None,268.4326681000002,268.94257160000006,,,,,,,,,,,,,,,,220,2022-05-20_13h57.26.633,FishGame,2022.1.1,60.0258471296692,
,9,넌 대담해,3,Orange,B,4.875,4.866666666666666,ScrollUp,ScrollDown,Orange.png,2,Neutral,Neutral,,,,,0,0,0,0,,,,,,,,,,,,,,,,,0,8,8,8,,,,,,,,,,,,,,,,,,,,,,,,,,,,,,,,,,,,,,,,,,,,,,,,,,,,,,,,,,,,,,,,,,,,,,,,,,,,,1.8425925970077515,1.0962257000001046,269.60717750000003,None,ScrollUp,정답입니다,269.60717750000003,None,269.60717750000003,None,269.60717750000003,None,269.60717750000003,None,270.56126170000016,None,270.56126170000016,271.07593110000016,,,,,,,,,,,,,,,,220,2022-05-20_13h57.26.633,FishGame,2022.1.1,60.0258471296692,
,10,넌 꾸준해,1,Green,A,5.916666666666668,5.8,ScrollDown,ScrollUp,Green.png,2,Positive,Congruent,,,,,0,0,0,0,,,,,,,,,,,,,,,,,0,9,9,9,,,,,,,,,,,,,,,,,,,,,,,,,,,,,,,,,,,,,,,,,,,,,,,,,,,,,,,,,,,,,,,,,,,,,,,,,,,,,1.2469135870536168,0.932605799999692,271.72424660000024,None,ScrollDown,정답입니다,271.72424660000024,None,271.72424660000024,None,271.72424660000024,None,271.72424660000024,None,272.53102579999995,None,272.53102579999995,273.0421569,,,,,,,,,,,,,,,,220,2022-05-20_13h57.26.633,FishGame,2022.1.1,60.0258471296692,
,11,나를 데려가줘,6,Orange,B,0,0,ScrollDown,ScrollUp,Orange.png,2,NonTarget,NonTarget,,,,,0,0,0,0,,,,,,,,,,,,,,,,,0,10,10,10,,,,,,,,,,,,,,,,,,,,,,,,,,,,,,,,,,,,,,,,,,,,,,,,,,,,,,,,,,,,,,,,,,,,,,,,,,,,,1.0848765472571056,1.177693999999974,273.6949571,None,ScrollDown,정답입니다,273.6949571,None,273.6949571,None,273.6949571,None,273.6949571,None,274.73826439999993,None,274.73826439999993,275.2419221,,,,,,,,,,,,,,,,220,2022-05-20_13h57.26.633,FishGame,2022.1.1,60.0258471296692,
,12,넌 독선적이야,5,Green,A,2.458333333333333,1.933333333333333,ScrollDown,ScrollUp,Green.png,2,Negative,Incongruent,,,,,0,0,0,0,,,,,,,,,,,,,,,,,0,11,11,11,,,,,,,,,,,,,,,,,,,,,,,,,,,,,,,,,,,,,,,,,,,,,,,,,,,,,,,,,,,,,,,,,,,,,,,,,,,,,1.140432099501292,1.0682517999998709,275.9031044000003,None,ScrollDown,정답입니다,275.9031044000003,None,275.9031044000003,None,275.9031044000003,None,275.9031044000003,None,276.8315312,None,276.8315312,277.34163480000007,,,,,,,,,,,,,,,,220,2022-05-20_13h57.26.633,FishGame,2022.1.1,60.0258471296692,
,13,나를 보내줘,6,Green,A,0,0,ScrollUp,ScrollDown,Green.png,2,NonTarget,NonTarget,,,,,0,0,0,0,,,,,,,,,,,,,,,,,0,12,12,12,,,,,,,,,,,,,,,,,,,,,,,,,,,,,,,,,,,,,,,,,,,,,,,,,,,,,,,,,,,,,,,,,,,,,,,,,,,,,1.7824074029922485,1.0565055000001848,277.9925811000003,None,ScrollUp,정답입니다,277.9925811000003,None,277.9925811000003,None,277.9925811000003,None,277.9925811000003,None,278.9179773999999,None,278.9179773999999,279.4246988,,,,,,,,,,,,,,,,220,2022-05-20_13h57.26.633,FishGame,2022.1.1,60.0258471296692,
,14,넌 책임감있어,1,Orange,B,6.347826086956522,6,ScrollUp,ScrollDown,Orange.png,2,Positive,Incongruent,,,,,0,0,0,0,,,,,,,,,,,,,,,,,0,13,13,13,,,,,,,,,,,,,,,,,,,,,,,,,,,,,,,,,,,,,,,,,,,,,,,,,,,,,,,,,,,,,,,,,,,,,,,,,,,,,1.733024681607882,1.011593200000334,280.0895322000001,None,ScrollUp,정답입니다,280.0895322000001,None,280.0895322000001,None,280.0895322000001,None,280.0895322000001,None,280.95448970000007,None,280.95448970000007,281.4577193,,,,,,,,,,,,,,,,220,2022-05-20_13h57.26.633,FishGame,2022.1.1,60.0258471296692,
,15,넌 문학적이야,3,Green,A,4.708333333333334,4.333333333333333,ScrollDown,ScrollUp,Green.png,2,Neutral,Neutral,,,,,0,0,0,0,,,,,,,,,,,,,,,,,0,14,14,14,,,,,,,,,,,,,,,,,,,,,,,,,,,,,,,,,,,,,,,,,,,,,,,,,,,,,,,,,,,,,,,,,,,,,,,,,,,,,1.1913580348094304,0.909046500000386,282.11211189999995,None,ScrollDown,정답입니다,282.11211189999995,None,282.11211189999995,None,282.11211189999995,None,282.11211189999995,None,282.89091720000033,None,282.89091720000033,283.39087800000016,,,,,,,,,,,,,,,,220,2022-05-20_13h57.26.633,FishGame,2022.1.1,60.0258471296692,
,16,넌 재미있어,1,Orange,B,5.875,5.7,ScrollUp,ScrollDown,Orange.png,2,Positive,Incongruent,,,,,0,0,0,0,,,,,,,,,,,,,,,,,0,15,15,15,,,,,,,,,,,,,,,,,,,,,,,,,,,,,,,,,,,,,,,,,,,,,,,,,,,,,,,,,,,,,,,,,,,,,,,,,,,,,1.71296297510465,0.9643914000002951,284.04719950000026,None,ScrollUp,정답입니다,284.04719950000026,None,284.04719950000026,None,284.04719950000026,None,284.04719950000026,None,284.87896679999994,None,284.87896679999994,285.3906807000003,,,,,,,,,,,,,,,,220,2022-05-20_13h57.26.633,FishGame,2022.1.1,60.0258471296692,
,17,나를 데려가줘,6,Orange,B,0,0,ScrollDown,ScrollUp,Orange.png,2,NonTarget,NonTarget,,,,,0,0,0,0,,,,,,,,,,,,,,,,,0,16,16,16,,,,,,,,,,,,,,,,,,,,,,,,,,,,,,,,,,,,,,,,,,,,,,,,,,,,,,,,,,,,,,,,,,,,,,,,,,,,,1.1851851791143417,1.0601201999998011,286.0487432,None,ScrollDown,정답입니다,286.0487432,None,286.0487432,None,286.0487432,None,286.0487432,None,286.97462170000017,None,286.97462170000017,287.4904249000001,,,,,,,,,,,,,,,,220,2022-05-20_13h57.26.633,FishGame,2022.1.1,60.0258471296692,
,18,넌 협력적이야,1,Green,A,5.625,5.633333333333334,ScrollDown,ScrollUp,Green.png,2,Positive,Congruent,,,,,0,0,0,0,,,,,,,,,,,,,,,,,0,17,17,17,,,,,,,,,,,,,,,,,,,,,,,,,,,,,,,,,,,,,,,,,,,,,,,,,,,,,,,,,,,,,,,,,,,,,,,,,,,,,1.2083333383003871,0.9899936000001617,288.1467459999999,None,ScrollDown,정답입니다,288.1467459999999,None,288.1467459999999,None,288.1467459999999,None,288.1467459999999,None,289.0000765,None,289.0000765,289.5066397999999,,,,,,,,,,,,,,,,220,2022-05-20_13h57.26.633,FishGame,2022.1.1,60.0258471296692,
,19,넌 평범해,3,Orange,B,4.333333333333332,4.233333333333333,ScrollUp,ScrollDown,Orange.png,2,Neutral,Neutral,,,,,0,0,0,0,,,,,,,,,,,,,,,,,0,18,18,18,,,,,,,,,,,,,,,,,,,,,,,,,,,,,,,,,,,,,,,,,,,,,,,,,,,,,,,,,,,,,,,,,,,,,,,,,,,,,1.6682098706563315,1.0113877000003413,290.1630918000001,None,ScrollUp,정답입니다,290.1630918000001,None,290.1630918000001,None,290.1630918000001,None,290.1630918000001,None,291.0418973999999,None,291.0418973999999,291.55647709999994,,,,,,,,,,,,,,,,220,2022-05-20_13h57.26.633,FishGame,2022.1.1,60.0258471296692,
,20,넌 오만해,5,Green,A,2.333333333333333,2,ScrollDown,ScrollUp,Green.png,2,Negative,Incongruent,,,,,0,0,0,0,,,,,,,,,,,,,,,,,0,19,19,19,,,,,,,,,,,,,,,,,,,,,,,,,,,,,,,,,,,,,,,,,,,,,,,,,,,,,,,,,,,,,,,,,,,,,,,,,,,,,1.28703702489535,1.08866050000006,292.2129609000003,None,ScrollDown,정답입니다,292.2129609000003,None,292.2129609000003,None,292.2129609000003,None,292.2129609000003,None,293.1691338999999,None,293.1691338999999,293.6727676999999,,,,,,,,,,,,,,,,220,2022-05-20_13h57.26.633,FishGame,2022.1.1,60.0258471296692,
,21,넌 운이없어,4,Orange,B,3,3.466666666666667,ScrollUp,ScrollDown,Orange.png,2,Negative,Congruent,,,,,0,0,0,0,,,,,,,,,,,,,,,,,0,20,20,20,,,,,,,,,,,,,,,,,,,,,,,,,,,,,,,,,,,,,,,,,,,,,,,,,,,,,,,,,,,,,,,,,,,,,,,,,,,,,1.5617283955216408,0.9115707000000839,294.33575980000023,None,ScrollUp,정답입니다,294.33575980000023,None,294.33575980000023,None,294.33575980000023,None,294.33575980000023,None,295.10613190000004,None,295.10613190000004,295.60579860000007,,,,,,,,,,,,,,,,220,2022-05-20_13h57.26.633,FishGame,2022.1.1,60.0258471296692,
,22,넌 창조적이야,2,Orange,B,6.125,4.633333333333334,ScrollUp,ScrollDown,Orange.png,2,Positive,Incongruent,,,,,0,0,0,0,,,,,,,,,,,,,,,,,0,21,21,21,,,,,,,,,,,,,,,,,,,,,,,,,,,,,,,,,,,,,,,,,,,,,,,,,,,,,,,,,,,,,,,,,,,,,,,,,,,,,1.5169753081475696,0.8290213000000222,296.2696627,None,NoResponse,무응답입니다,296.2696627,None,296.2696627,None,296.2696627,None,296.2696627,None,296.9633289000003,None,296.9633289000003,297.4722925000001,,,,,,,,,,,,,,,,220,2022-05-20_13h57.26.633,FishGame,2022.1.1,60.0258471296692,
,23,나를 보내줘,6,Green,A,0,0,ScrollUp,ScrollDown,Green.png,2,NonTarget,NonTarget,,,,,0,0,0,0,,,,,,,,,,,,,,,,,0,22,22,22,,,,,,,,,,,,,,,,,,,,,,,,,,,,,,,,,,,,,,,,,,,,,,,,,,,,,,,,,,,,,,,,,,,,,,,,,,,,,1.632716049750646,1.1917975000001206,298.11776839999993,None,ScrollUp,정답입니다,298.11776839999993,None,298.11776839999993,None,298.11776839999993,None,298.11776839999993,None,299.18451270000014,None,299.18451270000014,299.68868740000016,,,,,,,,,,,,,,,,220,2022-05-20_13h57.26.633,FishGame,2022.1.1,60.0258471296692,
,24,넌 통찰력있어,2,Green,A,6.5,4.8,ScrollDown,ScrollUp,Green.png,2,Positive,Congruent,,,,,0,0,0,0,,,,,,,,,,,,,,,,,0,23,23,23,,,,,,,,,,,,,,,,,,,,,,,,,,,,,,,,,,,,,,,,,,,,,,,,,,,,,,,,,,,,,,,,,,,,,,,,,,,,,1.2438271592060726,1.0533945999995922,300.3459047000001,None,ScrollDown,정답입니다,300.3459047000001,None,300.3459047000001,None,300.3459047000001,None,300.3459047000001,None,301.26468750000004,None,301.26468750000004,301.7717193000003,,,,,,,,,,,,,,,,220,2022-05-20_13h57.26.633,FishGame,2022.1.1,60.0258471296692,
,25,넌 경솔해,5,Orange,B,2.458333333333333,2.266666666666667,ScrollUp,ScrollDown,Orange.png,2,Negative,Congruent,,,,,0,0,0,0,,,,,,,,,,,,,,,,,0,24,24,24,,,,,,,,,,,,,,,,,,,,,,,,,,,,,,,,,,,,,,,,,,,,,,,,,,,,,,,,,,,,,,,,,,,,,,,,,,,,,1.5864197500050068,1.0530711999999767,302.4362494000002,None,ScrollUp,정답입니다,302.4362494000002,None,302.4362494000002,None,302.4362494000002,None,302.4362494000002,None,303.3481323000001,None,303.3481323000001,303.85479110000006,,,,,,,,,,,,,,,,220,2022-05-20_13h57.26.633,FishGame,2022.1.1,60.0258471296692,
,26,넌 초조해,4,Green,A,2.916666666666667,3.133333333333333,ScrollDown,ScrollUp,Green.png,2,Negative,Incongruent,,,,,0,0,0,0,,,,,,,,,,,,,,,,,0,25,25,25,,,,,,,,,,,,,,,,,,,,,,,,,,,,,,,,,,,,,,,,,,,,,,,,,,,,,,,,,,,,,,,,,,,,,,,,,,,,,1.1635802586873372,1.0367145000000164,304.50861910000003,None,ScrollDown,정답입니다,304.50861910000003,None,304.50861910000003,None,304.50861910000003,None,304.50861910000003,None,305.41448720000017,None,305.41448720000017,305.9211221999999,,,,,,,,,,,,,,,,220,2022-05-20_13h57.26.633,FishGame,2022.1.1,60.0258471296692,
,27,넌 무관심해,4,Orange,B,2.833333333333333,2.9,ScrollUp,ScrollDown,Orange.png,2,Negative,Congruent,,,,,0,0,0,0,,,,,,,,,,,,,,,,,0,26,26,26,,,,,,,,,,,,,,,,,,,,,,,,,,,,,,,,,,,,,,,,,,,,,,,,,,,,,,,,,,,,,,,,,,,,,,,,,,,,,1.8688271592060726,1.0451619000000392,306.57851230000006,None,ScrollUp,정답입니다,306.57851230000006,None,306.57851230000006,None,306.57851230000006,None,306.57851230000006,None,307.4880066999999,None,307.4880066999999,307.9876118000002,,,,,,,,,,,,,,,,220,2022-05-20_13h57.26.633,FishGame,2022.1.1,60.0258471296692,
,28,넌 감성적이야,3,Orange,B,4.125,4.166666666666667,ScrollUp,ScrollDown,Orange.png,2,Neutral,Neutral,,,,,0,0,0,0,,,,,,,,,,,,,,,,,0,27,27,27,,,,,,,,,,,,,,,,,,,,,,,,,,,,,,,,,,,,,,,,,,,,,,,,,,,,,,,,,,,,,,,,,,,,,,,,,,,,,1.9259259502092998,0.9558554000000186,308.64406959999997,None,ScrollUp,정답입니다,308.64406959999997,None,308.64406959999997,None,308.64406959999997,None,308.64406959999997,None,309.47098830000004,None,309.47098830000004,309.97073739999996,,,,,,,,,,,,,,,,220,2022-05-20_13h57.26.633,FishGame,2022.1.1,60.0258471296692,
,29,넌 배려심있어,1,Green,A,6.083333333333333,5.5,ScrollDown,ScrollUp,Green.png,2,Positive,Congruent,,,,,0,0,0,0,,,,,,,,,,,,,,,,,0,28,28,28,,,,,,,,,,,,,,,,,,,,,,,,,,,,,,,,,,,,,,,,,,,,,,,,,,,,,,,,,,,,,,,,,,,,,,,,,,,,,1,1.1233758999997008,310.6260944999999,None,ScrollDown,정답입니다,310.6260944999999,None,310.6260944999999,None,310.6260944999999,None,310.6260944999999,None,311.62077100000033,None,311.62077100000033,312.12044330000026,,,,,,,,,,,,,,,,220,2022-05-20_13h57.26.633,FishGame,2022.1.1,60.0258471296692,
,30,넌 숨김없어,3,Green,A,4.5,4.933333333333334,ScrollDown,ScrollUp,Green.png,2,Neutral,Neutral,,,,,0,0,0,0,,,,,,,,,,,,,,,,,0,29,29,29,,,,,,,,,,,,,,,,,,,,,,,,,,,,,,,,,,,,,,,,,,,,,,,,,,,,,,,,,,,,,,,,,,,,,,,,,,,,,1,1.1215796999999839,312.7798670000002,None,ScrollDown,정답입니다,312.7798670000002,None,312.7798670000002,None,312.7798670000002,None,312.7798670000002,None,313.7705142,None,313.7705142,314.2702205999999,,,,,,,,,,,,,,,,220,2022-05-20_13h57.26.633,FishGame,2022.1.1,60.0258471296692,
,31,넌 훌륭해,2,Orange,B,5.916666666666667,4.033333333333333,ScrollUp,ScrollDown,Orange.png,2,Positive,Incongruent,,,,,0,0,0,0,,,,,,,,,,,,,,,,,0,30,30,30,,,,,,,,,,,,,,,,,,,,,,,,,,,,,,,,,,,,,,,,,,,,,,,,,,,,,,,,,,,,,,,,,,,,,,,,,,,,,1.959876557191213,1.0713087999997697,314.9432526999999,None,ScrollUp,정답입니다,314.9432526999999,None,314.9432526999999,None,314.9432526999999,None,314.9432526999999,None,315.8623379999999,None,315.8623379999999,316.37001770000006,,,,,,,,,,,,,,,,220,2022-05-20_13h57.26.633,FishGame,2022.1.1,60.0258471296692,
,32,넌 슬기로워,2,Green,A,6.166666666666667,4.1,ScrollDown,ScrollUp,Green.png,2,Positive,Congruent,,,,,0,0,0,0,,,,,,,,,,,,,,,,,0,31,31,31,,,,,,,,,,,,,,,,,,,,,,,,,,,,,,,,,,,,,,,,,,,,,,,,,,,,,,,,,,,,,,,,,,,,,,,,,,,,,1,1.0085525999998026,317.01932590000024,None,ScrollDown,정답입니다,317.01932590000024,None,317.01932590000024,None,317.01932590000024,None,317.01932590000024,None,317.9035847,None,317.9035847,318.40288770000006,,,,,,,,,,,,,,,,220,2022-05-20_13h57.26.633,FishGame,2022.1.1,60.0258471296692,
,33,넌 냉혹해,5,Green,A,2.583333333333333,2.1,ScrollDown,ScrollUp,Green.png,2,Negative,Incongruent,,,,,0,0,0,0,,,,,,,,,,,,,,,,,0,32,32,32,,,,,,,,,,,,,,,,,,,,,,,,,,,,,,,,,,,,,,,,,,,,,,,,,,,,,,,,,,,,,,,,,,,,,,,,,,,,,1.1882716069618862,0.9620549999999639,319.0613057999999,None,ScrollDown,정답입니다,319.0613057999999,None,319.0613057999999,None,319.0613057999999,None,319.0613057999999,None,319.8892159000002,None,319.8892159000002,320.40264560000014,,,,,,,,,,,,,,,,220,2022-05-20_13h57.26.633,FishGame,2022.1.1,60.0258471296692,
,34,나를 데려가줘,6,Orange,B,0,0,ScrollDown,ScrollUp,Orange.png,2,NonTarget,NonTarget,,,,,0,0,0,0,,,,,,,,,,,,,,,,,0,33,33,33,,,,,,,,,,,,,,,,,,,,,,,,,,,,,,,,,,,,,,,,,,,,,,,,,,,,,,,,,,,,,,,,,,,,,,,,,,,,,1,1.1018334999998842,321.0552563000001,None,ScrollDown,정답입니다,321.0552563000001,None,321.0552563000001,None,321.0552563000001,None,321.0552563000001,None,322.02552749999995,None,322.02552749999995,322.5356978,,,,,,,,,,,,,,,,220,2022-05-20_13h57.26.633,FishGame,2022.1.1,60.0258471296692,
,35,넌 편파적이야,5,Orange,B,2.125,2,ScrollUp,ScrollDown,Orange.png,2,Negative,Congruent,,,,,0,0,0,0,,,,,,,,,,,,,,,,,0,34,34,34,,,,,,,,,,,,,,,,,,,,,,,,,,,,,,,,,,,,,,,,,,,,,,,,,,,,,,,,,,,,,,,,,,,,,,,,,,,,,1.8719135870536168,0.9858019999996941,323.20934290000014,None,ScrollUp,정답입니다,323.20934290000014,None,323.20934290000014,None,323.20934290000014,None,323.20934290000014,None,324.0422352999999,None,324.0422352999999,324.55234440000004,,,,,,,,,,,,,,,,220,2022-05-20_13h57.26.633,FishGame,2022.1.1,60.0258471296692,
,36,넌 슬퍼,4,Green,A,2.583333333333333,3.066666666666667,ScrollDown,ScrollUp,Green.png,2,Negative,Incongruent,,,,,0,0,0,0,,,,,,,,,,,,,,,,,0,35,35,35,,,,,,,,,,,,,,,,,,,,,,,,,,,,,,,,,,,,,,,,,,,,,,,,,,,,,,,,,,,,,,,,,,,,,,,,,,,,,1.0308642089366913,0.9719030000001112,325.2038047000001,None,ScrollDown,정답입니다,325.2038047000001,None,325.2038047000001,None,325.2038047000001,None,325.2038047000001,None,326.05213140000023,None,326.05213140000023,326.5518090999999,,,,,,,,,,,,,,,,220,2022-05-20_13h57.26.633,FishGame,2022.1.1,60.0258471296692,
,37,나를 데려가줘,6,Orange,B,0,0,ScrollDown,ScrollUp,Orange.png,2,NonTarget,NonTarget,,,,,0,0,0,0,,,,,,,,,,,,,,,,,0,36,36,36,,,,,,,,,,,,,,,,,,,,,,,,,,,,,,,,,,,,,,,,,,,,,,,,,,,,,,,,,,,,,,,,,,,,,,,,,,,,,1.1496913582086563,1.3275548999999955,327.2136023000003,None,ScrollDown,정답입니다,327.2136023000003,None,327.2136023000003,None,327.2136023000003,None,327.2136023000003,None,328.4017755,None,328.4017755,328.90185040000006,,,,,,,,,,,,,,,,220,2022-05-20_13h57.26.633,FishGame,2022.1.1,60.0258471296692,
,38,넌 친절해,1,Orange,B,6.041666666666667,5.533333333333333,ScrollUp,ScrollDown,Orange.png,2,Positive,Incongruent,,,,,0,0,0,0,,,,,,,,,,,,,,,,,0,37,37,37,,,,,,,,,,,,,,,,,,,,,,,,,,,,,,,,,,,,,,,,,,,,,,,,,,,,,,,,,,,,,,,,,,,,,,,,,,,,,1.6250000049670539,0.96757690000004,329.5672988000001,None,ScrollUp,정답입니다,329.5672988000001,None,329.5672988000001,None,329.5672988000001,None,329.5672988000001,None,330.3919132000001,None,330.3919132000001,330.90147509999997,,,,,,,,,,,,,,,,220,2022-05-20_13h57.26.633,FishGame,2022.1.1,60.0258471296692,
,1,넌 엉성해,4,Green,A,3,3.3,ScrollDown,ScrollUp,Green.png,3,Negative,Incongruent,,,,,0,0,0,0,,,,,,,,,,,,,,,,,,,,,0,0,0,0,,,,,,,,,,,,,,,,,,,,,,,,,,,,,,,,362.9975009,364.49729019999995,364.53060460000006,365.48044789999994,365.53048620000027,366.4803313000002,366.4803313000002,None,,,,,,,,,,,,,,,,,,,,,,,,,,,,,,,,,,1.0354938507080078,1.0852703999998994,367.66880170000013,None,ScrollDown,정답입니다,367.66880170000013,None,367.66880170000013,None,367.66880170000013,None,367.66880170000013,None,368.5800025000003,None,368.5800025000003,369.0798499000002,331.40151460000016,None,331.40151460000016,None,-0.053703703,-0.18055555,1,0,0,0.016117399999984627,None,361.41421690000016,None,,,220,2022-05-20_13h57.26.633,FishGame,2022.1.1,60.0258471296692,
,2,나를 보내줘,6,Green,A,0,0,ScrollUp,ScrollDown,Green.png,3,NonTarget,NonTarget,,,,,0,0,0,0,,,,,,,,,,,,,,,,,,,,,0,1,1,1,,,,,,,,,,,,,,,,,,,,,,,,,,,,,,,,,,,,,,,,,,,,,,,,,,,,,,,,,,,,,,,,,,,,,,,,,1.9367283980051677,1.1665177999998377,369.7228224999999,None,ScrollUp,정답입니다,369.7228224999999,None,369.7228224999999,None,369.7228224999999,None,369.7228224999999,None,370.7681249000002,None,370.7681249000002,371.27940960000024,,,,,,,,,,,,,,,,220,2022-05-20_13h57.26.633,FishGame,2022.1.1,60.0258471296692,
,3,넌 활발해,1,Orange,B,5.666666666666667,5.6,ScrollUp,ScrollDown,Orange.png,3,Positive,Incongruent,,,,,0,0,0,0,,,,,,,,,,,,,,,,,,,,,0,2,2,2,,,,,,,,,,,,,,,,,,,,,,,,,,,,,,,,,,,,,,,,,,,,,,,,,,,,,,,,,,,,,,,,,,,,,,,,,1.71296297510465,0.9070099999999002,371.9372892000001,None,ScrollUp,정답입니다,371.9372892000001,None,371.9372892000001,None,371.9372892000001,None,371.9372892000001,None,372.7059761999999,None,372.7059761999999,373.21242570000004,,,,,,,,,,,,,,,,220,2022-05-20_13h57.26.633,FishGame,2022.1.1,60.0258471296692,
,4,넌 논리적이야,2,Green,A,5.666666666666666,4.633333333333334,ScrollDown,ScrollUp,Green.png,3,Positive,Congruent,,,,,0,0,0,0,,,,,,,,,,,,,,,,,,,,,0,3,3,3,,,,,,,,,,,,,,,,,,,,,,,,,,,,,,,,,,,,,,,,,,,,,,,,,,,,,,,,,,,,,,,,,,,,,,,,,1.115740751226743,0.941282499999943,373.87265670000033,None,ScrollDown,정답입니다,373.87265670000033,None,373.87265670000033,None,373.87265670000033,None,373.87265670000033,None,374.6791225000002,None,374.6791225000002,375.17890050000005,,,,,,,,,,,,,,,,220,2022-05-20_13h57.26.633,FishGame,2022.1.1,60.0258471296692,
,5,넌 과묵해,3,Green,A,3.875,4.4,ScrollDown,ScrollUp,Green.png,3,Neutral,Neutral,,,,,0,0,0,0,,,,,,,,,,,,,,,,,,,,,0,4,4,4,,,,,,,,,,,,,,,,,,,,,,,,,,,,,,,,,,,,,,,,,,,,,,,,,,,,,,,,,,,,,,,,,,,,,,,,,1.0756172637144725,0.9496402000004309,375.83609700000034,None,ScrollDown,정답입니다,375.83609700000034,None,375.83609700000034,None,375.83609700000034,None,375.83609700000034,None,376.6512183,None,376.6512183,377.16205990000026,,,,,,,,,,,,,,,,220,2022-05-20_13h57.26.633,FishGame,2022.1.1,60.0258471296692,
,6,나를 데려가줘,6,Orange,B,0,0,ScrollDown,ScrollUp,Orange.png,3,NonTarget,NonTarget,,,,,0,0,0,0,,,,,,,,,,,,,,,,,,,,,0,5,5,5,,,,,,,,,,,,,,,,,,,,,,,,,,,,,,,,,,,,,,,,,,,,,,,,,,,,,,,,,,,,,,,,,,,,,,,,,1,1.0813678999998046,377.81767450000007,None,ScrollDown,정답입니다,377.81767450000007,None,377.81767450000007,None,377.81767450000007,None,377.81767450000007,None,378.7664785000002,None,378.7664785000002,379.2783929000002,,,,,,,,,,,,,,,,220,2022-05-20_13h57.26.633,FishGame,2022.1.1,60.0258471296692,
,7,넌 미숙해,4,Orange,B,3,3,ScrollUp,ScrollDown,Orange.png,3,Negative,Congruent,,,,,0,0,0,0,,,,,,,,,,,,,,,,,,,,,0,6,6,6,,,,,,,,,,,,,,,,,,,,,,,,,,,,,,,,,,,,,,,,,,,,,,,,,,,,,,,,,,,,,,,,,,,,,,,,,1.8086419651905696,0.9060131999999612,379.92970300000025,None,ScrollUp,정답입니다,379.92970300000025,None,379.92970300000025,None,379.92970300000025,None,379.92970300000025,None,380.7119458000002,None,380.7119458000002,381.21140830000013,,,,,,,,,,,,,,,,220,2022-05-20_13h57.26.633,FishGame,2022.1.1,60.0258471296692,
,8,나를 보내줘,6,Green,A,0,0,ScrollUp,ScrollDown,Green.png,3,NonTarget,NonTarget,,,,,0,0,0,0,,,,,,,,,,,,,,,,,,,,,0,7,7,7,,,,,,,,,,,,,,,,,,,,,,,,,,,,,,,,,,,,,,,,,,,,,,,,,,,,,,,,,,,,,,,,,,,,,,,,,1.609567902982235,0.972327899999982,381.8623157000002,None,ScrollUp,정답입니다,381.8623157000002,None,381.8623157000002,None,381.8623157000002,None,381.8623157000002,None,382.7118092999999,None,382.7118092999999,383.21131790000027,,,,,,,,,,,,,,,,220,2022-05-20_13h57.26.633,FishGame,2022.1.1,60.0258471296692,
,9,넌 자신만만해,3,Orange,B,4.833333333333334,4.333333333333333,ScrollUp,ScrollDown,Orange.png,3,Neutral,Neutral,,,,,0,0,0,0,,,,,,,,,,,,,,,,,,,,,0,8,8,8,,,,,,,,,,,,,,,,,,,,,,,,,,,,,,,,,,,,,,,,,,,,,,,,,,,,,,,,,,,,,,,,,,,,,,,,,1.7623456716537476,1.0180045000001883,383.8694752000001,None,ScrollUp,정답입니다,383.8694752000001,None,383.8694752000001,None,383.8694752000001,None,383.8694752000001,None,384.7512550000001,None,384.7512550000001,385.2609328000003,,,,,,,,,,,,,,,,220,2022-05-20_13h57.26.633,FishGame,2022.1.1,60.0258471296692,
,10,넌 탐욕스러워,5,Green,A,2.25,2.1,ScrollDown,ScrollUp,Green.png,3,Negative,Incongruent,,,,,0,0,0,0,,,,,,,,,,,,,,,,,,,,,0,9,9,9,,,,,,,,,,,,,,,,,,,,,,,,,,,,,,,,,,,,,,,,,,,,,,,,,,,,,,,,,,,,,,,,,,,,,,,,,1.1712963034709294,0.9361727999998948,385.9201078000001,None,ScrollDown,정답입니다,385.9201078000001,None,385.9201078000001,None,385.9201078000001,None,385.9201078000001,None,386.71860100000004,None,386.71860100000004,387.22734850000006,,,,,,,,,,,,,,,,220,2022-05-20_13h57.26.633,FishGame,2022.1.1,60.0258471296692,
,11,넌 인기있어,2,Green,A,5.458333333333333,4.5,ScrollDown,ScrollUp,Green.png,3,Positive,Congruent,,,,,0,0,0,0,,,,,,,,,,,,,,,,,,,,,0,10,10,10,,,,,,,,,,,,,,,,,,,,,,,,,,,,,,,,,,,,,,,,,,,,,,,,,,,,,,,,,,,,,,,,,,,,,,,,,1.2793209801117578,0.9193621999997958,387.8723838000001,None,ScrollDown,정답입니다,387.8723838000001,None,387.8723838000001,None,387.8723838000001,None,387.8723838000001,None,388.66984060000004,None,388.66984060000004,389.1771668000001,,,,,,,,,,,,,,,,220,2022-05-20_13h57.26.633,FishGame,2022.1.1,60.0258471296692,
,12,나를 데려가줘,6,Orange,B,0,0,ScrollDown,ScrollUp,Orange.png,3,NonTarget,NonTarget,,,,,0,0,0,0,,,,,,,,,,,,,,,,,,,,,0,11,11,11,,,,,,,,,,,,,,,,,,,,,,,,,,,,,,,,,,,,,,,,,,,,,,,,,,,,,,,,,,,,,,,,,,,,,,,,,1.0385802288850148,1.0333149000002777,389.8339484000003,None,ScrollDown,정답입니다,389.8339484000003,None,389.8339484000003,None,389.8339484000003,None,389.8339484000003,None,390.7326026999999,None,390.7326026999999,391.2435195000003,,,,,,,,,,,,,,,,220,2022-05-20_13h57.26.633,FishGame,2022.1.1,60.0258471296692,
,13,넌 뛰어나,2,Orange,B,6.166666666666667,4,ScrollUp,ScrollDown,Orange.png,3,Positive,Incongruent,,,,,0,0,0,0,,,,,,,,,,,,,,,,,,,,,0,12,12,12,,,,,,,,,,,,,,,,,,,,,,,,,,,,,,,,,,,,,,,,,,,,,,,,,,,,,,,,,,,,,,,,,,,,,,,,,1.5030864196984717,0.9178615999999238,391.9054943000001,None,NoResponse,무응답입니다,391.9054943000001,None,391.9054943000001,None,391.9054943000001,None,391.9054943000001,None,392.6868601000001,None,392.6868601000001,393.19321960000025,,,,,,,,,,,,,,,,220,2022-05-20_13h57.26.633,FishGame,2022.1.1,60.0258471296692,
,14,넌 낙관적이야,1,Green,A,5.75,5.8,ScrollDown,ScrollUp,Green.png,3,Positive,Congruent,,,,,0,0,0,0,,,,,,,,,,,,,,,,,,,,,0,13,13,13,,,,,,,,,,,,,,,,,,,,,,,,,,,,,,,,,,,,,,,,,,,,,,,,,,,,,,,,,,,,,,,,,,,,,,,,,1.2253086417913437,0.9735771000000568,393.8499873999999,None,ScrollDown,정답입니다,393.8499873999999,None,393.8499873999999,None,393.8499873999999,None,393.8499873999999,None,394.6885228000001,None,394.6885228000001,395.19304680000005,,,,,,,,,,,,,,,,220,2022-05-20_13h57.26.633,FishGame,2022.1.1,60.0258471296692,
,15,넌 산만해,4,Orange,B,2.695652173913043,3.033333333333333,ScrollUp,ScrollDown,Orange.png,3,Negative,Congruent,,,,,0,0,0,0,,,,,,,,,,,,,,,,,,,,,0,14,14,14,,,,,,,,,,,,,,,,,,,,,,,,,,,,,,,,,,,,,,,,,,,,,,,,,,,,,,,,,,,,,,,,,,,,,,,,,1.7052469179034233,1.0004889999995612,395.8555580000002,None,ScrollUp,정답입니다,395.8555580000002,None,395.8555580000002,None,395.8555580000002,None,395.8555580000002,None,396.7168469000003,None,396.7168469000003,397.22609090000014,,,,,,,,,,,,,,,,220,2022-05-20_13h57.26.633,FishGame,2022.1.1,60.0258471296692,
,16,나를 보내줘,6,Green,A,0,0,ScrollUp,ScrollDown,Green.png,3,NonTarget,NonTarget,,,,,0,0,0,0,,,,,,,,,,,,,,,,,,,,,0,15,15,15,,,,,,,,,,,,,,,,,,,,,,,,,,,,,,,,,,,,,,,,,,,,,,,,,,,,,,,,,,,,,,,,,,,,,,,,,1.8456790000200272,1.045365099999799,397.8772229000001,None,ScrollUp,정답입니다,397.8772229000001,None,397.8772229000001,None,397.8772229000001,None,397.8772229000001,None,398.7920936999999,None,398.7920936999999,399.29248700000016,,,,,,,,,,,,,,,,220,2022-05-20_13h57.26.633,FishGame,2022.1.1,60.0258471296692,
,17,넌 교활해,5,Orange,B,2.333333333333333,2.133333333333333,ScrollUp,ScrollDown,Orange.png,3,Negative,Congruent,,,,,0,0,0,0,,,,,,,,,,,,,,,,,,,,,0,16,16,16,,,,,,,,,,,,,,,,,,,,,,,,,,,,,,,,,,,,,,,,,,,,,,,,,,,,,,,,,,,,,,,,,,,,,,,,,2,1.768245300000217,399.95487890000004,None,ScrollUp,정답입니다,399.95487890000004,None,399.95487890000004,None,399.95487890000004,None,399.95487890000004,None,401.58244190000005,None,401.58244190000005,402.0921069000001,,,,,,,,,,,,,,,,220,2022-05-20_13h57.26.633,FishGame,2022.1.1,60.0258471296692,
,18,나를 보내줘,6,Green,A,0,0,ScrollUp,ScrollDown,Green.png,3,NonTarget,NonTarget,,,,,0,0,0,0,,,,,,,,,,,,,,,,,,,,,0,17,17,17,,,,,,,,,,,,,,,,,,,,,,,,,,,,,,,,,,,,,,,,,,,,,,,,,,,,,,,,,,,,,,,,,,,,,,,,,1.959876557191213,1.0326369000003979,402.7468630000003,None,ScrollUp,정답입니다,402.7468630000003,None,402.7468630000003,None,402.7468630000003,None,402.7468630000003,None,403.6470554000002,None,403.6470554000002,404.1585202000001,,,,,,,,,,,,,,,,220,2022-05-20_13h57.26.633,FishGame,2022.1.1,60.0258471296692,
,19,넌 불친절해,5,Orange,B,2.208333333333333,2.033333333333333,ScrollUp,ScrollDown,Orange.png,3,Negative,Congruent,,,,,0,0,0,0,,,,,,,,,,,,,,,,,,,,,0,18,18,18,,,,,,,,,,,,,,,,,,,,,,,,,,,,,,,,,,,,,,,,,,,,,,,,,,,,,,,,,,,,,,,,,,,,,,,,,1.8425925970077515,1.106858800000282,404.8235906,None,ScrollUp,정답입니다,404.8235906,None,404.8235906,None,404.8235906,None,404.8235906,None,405.79175480000004,None,405.79175480000004,406.2915750000002,,,,,,,,,,,,,,,,220,2022-05-20_13h57.26.633,FishGame,2022.1.1,60.0258471296692,
,20,넌 지적이야,2,Orange,B,5.75,4.366666666666666,ScrollUp,ScrollDown,Orange.png,3,Positive,Incongruent,,,,,0,0,0,0,,,,,,,,,,,,,,,,,,,,,0,19,19,19,,,,,,,,,,,,,,,,,,,,,,,,,,,,,,,,,,,,,,,,,,,,,,,,,,,,,,,,,,,,,,,,,,,,,,,,,1.9212963084379833,0.9816705000002912,406.9496029000002,None,ScrollUp,정답입니다,406.9496029000002,None,406.9496029000002,None,406.9496029000002,None,406.9496029000002,None,407.79580460000034,None,407.79580460000034,408.3079379999999,,,,,,,,,,,,,,,,220,2022-05-20_13h57.26.633,FishGame,2022.1.1,60.0258471296692,
,21,넌 우유부단해,4,Green,A,2.666666666666667,3.166666666666667,ScrollDown,ScrollUp,Green.png,3,Negative,Incongruent,,,,,0,0,0,0,,,,,,,,,,,,,,,,,,,,,0,20,20,20,,,,,,,,,,,,,,,,,,,,,,,,,,,,,,,,,,,,,,,,,,,,,,,,,,,,,,,,,,,,,,,,,,,,,,,,,1.0416666567325592,0.9629144999998971,408.9672869000001,None,ScrollDown,정답입니다,408.9672869000001,None,408.9672869000001,None,408.9672869000001,None,408.9672869000001,None,409.7916319000001,None,409.7916319000001,410.29109430000017,,,,,,,,,,,,,,,,220,2022-05-20_13h57.26.633,FishGame,2022.1.1,60.0258471296692,
,22,나를 데려가줘,6,Orange,B,0,0,ScrollDown,ScrollUp,Orange.png,3,NonTarget,NonTarget,,,,,0,0,0,0,,,,,,,,,,,,,,,,,,,,,0,21,21,21,,,,,,,,,,,,,,,,,,,,,,,,,,,,,,,,,,,,,,,,,,,,,,,,,,,,,,,,,,,,,,,,,,,,,,,,,1,1.118876900000032,410.9489215000003,None,ScrollDown,정답입니다,410.9489215000003,None,410.9489215000003,None,410.9489215000003,None,410.9489215000003,None,411.93175680000013,None,411.93175680000013,412.44072959999994,,,,,,,,,,,,,,,,220,2022-05-20_13h57.26.633,FishGame,2022.1.1,60.0258471296692,
,23,넌 성실해,1,Orange,B,6.041666666666666,5.7,ScrollUp,ScrollDown,Orange.png,3,Positive,Incongruent,,,,,0,0,0,0,,,,,,,,,,,,,,,,,,,,,0,22,22,22,,,,,,,,,,,,,,,,,,,,,,,,,,,,,,,,,,,,,,,,,,,,,,,,,,,,,,,,,,,,,,,,,,,,,,,,,1.817901223897934,0.9503669000000627,413.0955497,None,ScrollUp,정답입니다,413.0955497,None,413.0955497,None,413.0955497,None,413.0955497,None,413.91328360000034,None,413.91328360000034,414.42381810000006,,,,,,,,,,,,,,,,220,2022-05-20_13h57.26.633,FishGame,2022.1.1,60.0258471296692,
,24,넌 현실주의적이야,3,Green,A,4.625,4.4,ScrollDown,ScrollUp,Green.png,3,Neutral,Neutral,,,,,0,0,0,0,,,,,,,,,,,,,,,,,,,,,0,23,23,23,,,,,,,,,,,,,,,,,,,,,,,,,,,,,,,,,,,,,,,,,,,,,,,,,,,,,,,,,,,,,,,,,,,,,,,,,1.0216049253940582,0.9335642000000917,415.07375709999997,None,ScrollDown,정답입니다,415.07375709999997,None,415.07375709999997,None,415.07375709999997,None,415.07375709999997,None,415.8809543000002,None,415.8809543000002,416.3903378,,,,,,,,,,,,,,,,220,2022-05-20_13h57.26.633,FishGame,2022.1.1,60.0258471296692,
,25,넌 진실돼,1,Green,A,6.625,5.566666666666666,ScrollDown,ScrollUp,Green.png,3,Positive,Congruent,,,,,0,0,0,0,,,,,,,,,,,,,,,,,,,,,0,24,24,24,,,,,,,,,,,,,,,,,,,,,,,,,,,,,,,,,,,,,,,,,,,,,,,,,,,,,,,,,,,,,,,,,,,,,,,,,1.2222222139437993,1.1315951999999925,417.0461006999999,None,ScrollDown,정답입니다,417.0461006999999,None,417.0461006999999,None,417.0461006999999,None,417.0461006999999,None,418.0447661000003,None,418.0447661000003,418.5566967,,,,,,,,,,,,,,,,220,2022-05-20_13h57.26.633,FishGame,2022.1.1,60.0258471296692,
,26,넌 천진난만해,3,Orange,B,4.958333333333334,4.833333333333333,ScrollUp,ScrollDown,Orange.png,3,Neutral,Neutral,,,,,0,0,0,0,,,,,,,,,,,,,,,,,,,,,0,25,25,25,,,,,,,,,,,,,,,,,,,,,,,,,,,,,,,,,,,,,,,,,,,,,,,,,,,,,,,,,,,,,,,,,,,,,,,,,1.8487654278675716,0.910143899999639,419.21654190000027,None,ScrollUp,정답입니다,419.21654190000027,None,419.21654190000027,None,419.21654190000027,None,419.21654190000027,None,419.9899425000003,None,419.9899425000003,420.48977790000026,,,,,,,,,,,,,,,,220,2022-05-20_13h57.26.633,FishGame,2022.1.1,60.0258471296692,
,27,넌 교양없어,5,Green,A,2.416666666666667,2.2,ScrollDown,ScrollUp,Green.png,3,Negative,Incongruent,,,,,0,0,0,0,,,,,,,,,,,,,,,,,,,,,0,26,26,26,,,,,,,,,,,,,,,,,,,,,,,,,,,,,,,,,,,,,,,,,,,,,,,,,,,,,,,,,,,,,,,,,,,,,,,,,1.1311728407939274,0.9109775000001719,421.14503030000014,None,ScrollDown,정답입니다,421.14503030000014,None,421.14503030000014,None,421.14503030000014,None,421.14503030000014,None,421.9241556000002,None,421.9241556000002,422.4395709999999,,,,,,,,,,,,,,,,220,2022-05-20_13h57.26.633,FishGame,2022.1.1,60.0258471296692,
,28,나를 보내줘,6,Green,A,0,0,ScrollUp,ScrollDown,Green.png,3,NonTarget,NonTarget,,,,,0,0,0,0,,,,,,,,,,,,,,,,,,,,,0,27,27,27,,,,,,,,,,,,,,,,,,,,,,,,,,,,,,,,,,,,,,,,,,,,,,,,,,,,,,,,,,,,,,,,,,,,,,,,,1.904320980111758,0.96705669999983,423.0842355,None,ScrollUp,정답입니다,423.0842355,None,423.0842355,None,423.0842355,None,423.0842355,None,423.9286135000002,None,423.9286135000002,424.4392766000001,,,,,,,,,,,,,,,,220,2022-05-20_13h57.26.633,FishGame,2022.1.1,60.0258471296692,
,29,넌 엉뚱스러워,3,Green,A,4.166666666666667,4.133333333333334,ScrollDown,ScrollUp,Green.png,3,Neutral,Neutral,,,,,0,0,0,0,,,,,,,,,,,,,,,,,,,,,0,28,28,28,,,,,,,,,,,,,,,,,,,,,,,,,,,,,,,,,,,,,,,,,,,,,,,,,,,,,,,,,,,,,,,,,,,,,,,,,1.0231481393178303,0.9940526000000318,425.09379370000033,None,ScrollDown,정답입니다,425.09379370000033,None,425.09379370000033,None,425.09379370000033,None,425.09379370000033,None,425.9582461,None,425.9582461,426.4727474000001,,,,,,,,,,,,,,,,220,2022-05-20_13h57.26.633,FishGame,2022.1.1,60.0258471296692,
,30,넌 무지해,4,Orange,B,2.541666666666667,3.066666666666667,ScrollUp,ScrollDown,Orange.png,3,Negative,Congruent,,,,,0,0,0,0,,,,,,,,,,,,,,,,,,,,,0,29,29,29,,,,,,,,,,,,,,,,,,,,,,,,,,,,,,,,,,,,,,,,,,,,,,,,,,,,,,,,,,,,,,,,,,,,,,,,,1.89969136317571,1.0296413999999459,427.1425309000001,None,ScrollUp,정답입니다,427.1425309000001,None,427.1425309000001,None,427.1425309000001,None,427.1425309000001,None,428.02938489999997,None,428.02938489999997,428.53881279999996,,,,,,,,,,,,,,,,220,2022-05-20_13h57.26.633,FishGame,2022.1.1,60.0258471296692,
,31,넌 음울해,5,Orange,B,2.25,2.233333333333333,ScrollUp,ScrollDown,Orange.png,3,Negative,Congruent,,,,,0,0,0,0,,,,,,,,,,,,,,,,,,,,,0,30,30,30,,,,,,,,,,,,,,,,,,,,,,,,,,,,,,,,,,,,,,,,,,,,,,,,,,,,,,,,,,,,,,,,,,,,,,,,,1.7083333333333335,0.8444834999995692,429.2038021000003,None,ScrollUp,정답입니다,429.2038021000003,None,429.2038021000003,None,429.2038021000003,None,429.2038021000003,None,429.9023483000001,None,429.9023483000001,430.4053293000002,,,,,,,,,,,,,,,,220,2022-05-20_13h57.26.633,FishGame,2022.1.1,60.0258471296692,
,32,넌 냉소적이야,5,Green,A,2.916666666666667,2.4,ScrollDown,ScrollUp,Green.png,3,Negative,Incongruent,,,,,0,0,0,0,,,,,,,,,,,,,,,,,,,,,0,31,31,31,,,,,,,,,,,,,,,,,,,,,,,,,,,,,,,,,,,,,,,,,,,,,,,,,,,,,,,,,,,,,,,,,,,,,,,,,1.080246905485789,1.0152290000000903,431.0613659999999,None,ScrollDown,정답입니다,431.0613659999999,None,431.0613659999999,None,431.0613659999999,None,431.0613659999999,None,431.94502390000025,None,431.94502390000025,432.45526830000017,,,,,,,,,,,,,,,,220,2022-05-20_13h57.26.633,FishGame,2022.1.1,60.0258471296692,
,33,나를 데려가줘,6,Orange,B,0,0,ScrollDown,ScrollUp,Orange.png,3,NonTarget,NonTarget,,,,,0,0,0,0,,,,,,,,,,,,,,,,,,,,,0,32,32,32,,,,,,,,,,,,,,,,,,,,,,,,,,,,,,,,,,,,,,,,,,,,,,,,,,,,,,,,,,,,,,,,,,,,,,,,,1.1759259204069774,1.076031999999941,433.11311250000017,None,ScrollDown,정답입니다,433.11311250000017,None,433.11311250000017,None,433.11311250000017,None,433.11311250000017,None,434.05120579999993,None,434.05120579999993,434.5546681999999,,,,,,,,,,,,,,,,220,2022-05-20_13h57.26.633,FishGame,2022.1.1,60.0258471296692,
,34,넌 쾌활해,1,Green,A,5.541666666666666,5.733333333333333,ScrollDown,ScrollUp,Green.png,3,Positive,Congruent,,,,,0,0,0,0,,,,,,,,,,,,,,,,,,,,,0,33,33,33,,,,,,,,,,,,,,,,,,,,,,,,,,,,,,,,,,,,,,,,,,,,,,,,,,,,,,,,,,,,,,,,,,,,,,,,,1.1882716069618862,0.9883804999999484,435.21501560000024,None,ScrollDown,정답입니다,435.21501560000024,None,435.21501560000024,None,435.21501560000024,None,435.21501560000024,None,436.0672628000002,None,436.0672628000002,436.5712563000002,,,,,,,,,,,,,,,,220,2022-05-20_13h57.26.633,FishGame,2022.1.1,60.0258471296692,
,35,나를 보내줘,6,Green,A,0,0,ScrollUp,ScrollDown,Green.png,3,NonTarget,NonTarget,,,,,0,0,0,0,,,,,,,,,,,,,,,,,,,,,0,34,34,34,,,,,,,,,,,,,,,,,,,,,,,,,,,,,,,,,,,,,,,,,,,,,,,,,,,,,,,,,,,,,,,,,,,,,,,,,1.90586419403553,1.1312553999996453,437.22788630000014,None,ScrollUp,정답입니다,437.22788630000014,None,437.22788630000014,None,437.22788630000014,None,437.22788630000014,None,438.22728959999995,None,438.22728959999995,438.7374125000001,,,,,,,,,,,,,,,,220,2022-05-20_13h57.26.633,FishGame,2022.1.1,60.0258471296692,
,36,넌 명랑해,1,Orange,B,5.739130434782609,5.666666666666667,ScrollUp,ScrollDown,Orange.png,3,Positive,Incongruent,,,,,0,0,0,0,,,,,,,,,,,,,,,,,,,,,0,35,35,35,,,,,,,,,,,,,,,,,,,,,,,,,,,,,,,,,,,,,,,,,,,,,,,,,,,,,,,,,,,,,,,,,,,,,,,,,1.8287036965290706,0.9255269000000226,439.3868029,None,ScrollUp,정답입니다,439.3868029,None,439.3868029,None,439.3868029,None,439.3868029,None,440.1872268000002,None,440.1872268000002,440.6871043000001,,,,,,,,,,,,,,,,220,2022-05-20_13h57.26.633,FishGame,2022.1.1,60.0258471296692,
,37,넌 멍해,4,Green,A,2.833333333333333,3.4,ScrollDown,ScrollUp,Green.png,3,Negative,Incongruent,,,,,0,0,0,0,,,,,,,,,,,,,,,,,,,,,0,36,36,36,,,,,,,,,,,,,,,,,,,,,,,,,,,,,,,,,,,,,,,,,,,,,,,,,,,,,,,,,,,,,,,,,,,,,,,,,1.276234577099482,1.044100300000082,441.3382071000001,None,ScrollDown,정답입니다,441.3382071000001,None,441.3382071000001,None,441.3382071000001,None,441.3382071000001,None,442.2498776000002,None,442.2498776000002,442.75348699999995,,,,,,,,,,,,,,,,220,2022-05-20_13h57.26.633,FishGame,2022.1.1,60.0258471296692,
,38,나를 데려가줘,6,Orange,B,0,0,ScrollDown,ScrollUp,Orange.png,3,NonTarget,NonTarget,,,,,0,0,0,0,,,,,,,,,,,,,,,,,,,,,0,37,37,37,,,,,,,,,,,,,,,,,,,,,,,,,,,,,,,,,,,,,,,,,,,,,,,,,,,,,,,,,,,,,,,,,,,,,,,,,1.2469135870536168,1.0451570000000174,443.40981899999997,None,ScrollDown,정답입니다,443.40981899999997,None,443.40981899999997,None,443.40981899999997,None,443.40981899999997,None,444.3218839000001,None,444.3218839000001,444.8366073000002,,,,,,,,,,,,,,,,220,2022-05-20_13h57.26.633,FishGame,2022.1.1,60.0258471296692,
,39,넌 현명해,2,Green,A,6.541666666666666,4.533333333333333,ScrollDown,ScrollUp,Green.png,3,Positive,Congruent,,,,,0,0,0,0,,,,,,,,,,,,,,,,,,,,,0,38,38,38,,,,,,,,,,,,,,,,,,,,,,,,,,,,,,,,,,,,,,,,,,,,,,,,,,,,,,,,,,,,,,,,,,,,,,,,,1.1327160547176998,0.9525496999999632,445.4820856000001,None,ScrollDown,정답입니다,445.4820856000001,None,445.4820856000001,None,445.4820856000001,None,445.4820856000001,None,446.31123320000006,None,446.31123320000006,446.8197666000001,,,,,,,,,,,,,,,,220,2022-05-20_13h57.26.633,FishGame,2022.1.1,60.0258471296692,
,40,넌 수줍어,3,Orange,B,3.541666666666666,4.366666666666666,ScrollUp,ScrollDown,Orange.png,3,Neutral,Neutral,,,,,0,0,0,0,,,,,,,,,,,,,,,,,,,,,0,39,39,39,,,,,,,,,,,,,,,,,,,,,,,,,,,,,,,,,,,,,,,,,,,,,,,,,,,,,,,,,,,,,,,,,,,,,,,,,1.7916666616996129,0.9279767000002721,447.4776042000003,None,ScrollUp,정답입니다,447.4776042000003,None,447.4776042000003,None,447.4776042000003,None,447.4776042000003,None,448.2698362000001,None,448.2698362000001,448.76944090000006,,,,,,,,,,,,,,,,220,2022-05-20_13h57.26.633,FishGame,2022.1.1,60.0258471296692,
,41,나를 데려가줘,6,Orange,B,0,0,ScrollDown,ScrollUp,Orange.png,3,NonTarget,NonTarget,,,,,0,0,0,0,,,,,,,,,,,,,,,,,,,,,0,40,40,40,,,,,,,,,,,,,,,,,,,,,,,,,,,,,,,,,,,,,,,,,,,,,,,,,,,,,,,,,,,,,,,,,,,,,,,,,1.200617293516795,0.9898444000000381,449.42462860000023,None,ScrollDown,정답입니다,449.42462860000023,None,449.42462860000023,None,449.42462860000023,None,449.42462860000023,None,450.2793790999999,None,450.2793790999999,450.7857624000003,,,,,,,,,,,,,,,,220,2022-05-20_13h57.26.633,FishGame,2022.1.1,60.0258471296692,
,42,넌 성숙해,2,Orange,B,5.833333333333333,4.533333333333333,ScrollUp,ScrollDown,Orange.png,3,Positive,Incongruent,,,,,0,0,0,0,,,,,,,,,,,,,,,,,,,,,0,41,41,41,,,,,,,,,,,,,,,,,,,,,,,,,,,,,,,,,,,,,,,,,,,,,,,,,,,,,,,,,,,,,,,,,,,,,,,,,1.9135802388191223,0.9659206000001177,451.4587475000003,None,ScrollUp,정답입니다,451.4587475000003,None,451.4587475000003,None,451.4587475000003,None,451.4587475000003,None,452.27439490000006,None,452.27439490000006,452.7856217000003,,,,,,,,,,,,,,,,220,2022-05-20_13h57.26.633,FishGame,2022.1.1,60.0258471296692,
,1,넌 매력적이야,2,Orange,B,6.125,4.666666666666667,ScrollUp,ScrollDown,Orange.png,4,Positive,Incongruent,,,,,0,0,0,0,,,,,,,,,,,,,,,,,,,,,,,,,0,0,0,0,,,,,,,,,,,,,,,,,,,,,,,,,,,,484.98160740000003,486.48128320000023,486.51449980000007,487.46449310000025,487.5144551000003,488.4644601,488.4644601,None,,,,,,,,,,,,,,,,,,,,,,,,,,,,,,,,,,1.8456790000200272,1.0212722000001122,489.67009770000004,None,ScrollUp,정답입니다,489.67009770000004,None,489.67009770000004,None,489.67009770000004,None,489.67009770000004,None,490.4973143000002,None,490.4973143000002,490.99736239999993,453.2855783,None,453.2855783,None,-0.026851851,-0.13981481,1,0,0,0.01622350000025108,None,483.28160990000015,None,,,220,2022-05-20_13h57.26.633,FishGame,2022.1.1,60.0258471296692,
,2,나를 보내줘,6,Green,A,0,0,ScrollUp,ScrollDown,Green.png,4,NonTarget,NonTarget,,,,,0,0,0,0,,,,,,,,,,,,,,,,,,,,,,,,,0,1,1,1,,,,,,,,,,,,,,,,,,,,,,,,,,,,,,,,,,,,,,,,,,,,,,,,,,,,,,,,,,,,,,,,,,,,,1.7546296268701553,1.1197001999998974,491.64528470000005,None,ScrollUp,정답입니다,491.64528470000005,None,491.64528470000005,None,491.64528470000005,None,491.64528470000005,None,492.6393310000003,None,492.6393310000003,493.1470276,,,,,,,,,,,,,,,,220,2022-05-20_13h57.26.633,FishGame,2022.1.1,60.0258471296692,
,3,넌 조심스러워,3,Green,A,4.791666666666666,4.666666666666667,ScrollDown,ScrollUp,Green.png,4,Neutral,Neutral,,,,,0,0,0,0,,,,,,,,,,,,,,,,,,,,,,,,,0,2,2,2,,,,,,,,,,,,,,,,,,,,,,,,,,,,,,,,,,,,,,,,,,,,,,,,,,,,,,,,,,,,,,,,,,,,,1.1882716069618862,0.9596170999998321,493.7948171000003,None,ScrollDown,정답입니다,493.7948171000003,None,493.7948171000003,None,493.7948171000003,None,493.7948171000003,None,494.62597559999995,None,494.62597559999995,495.13025689999995,,,,,,,,,,,,,,,,220,2022-05-20_13h57.26.633,FishGame,2022.1.1,60.0258471296692,
,4,넌 철학적이야,3,Orange,B,4.5,4.266666666666667,ScrollUp,ScrollDown,Orange.png,4,Neutral,Neutral,,,,,0,0,0,0,,,,,,,,,,,,,,,,,,,,,,,,,0,3,3,3,,,,,,,,,,,,,,,,,,,,,,,,,,,,,,,,,,,,,,,,,,,,,,,,,,,,,,,,,,,,,,,,,,,,,1.654320982595285,0.920852300000206,495.7918955,None,ScrollUp,정답입니다,495.7918955,None,495.7918955,None,495.7918955,None,495.7918955,None,496.5800698000003,None,496.5800698000003,497.07993940000006,,,,,,,,,,,,,,,,220,2022-05-20_13h57.26.633,FishGame,2022.1.1,60.0258471296692,
,5,넌 쩨쩨해,5,Green,A,2.375,2.133333333333333,ScrollDown,ScrollUp,Green.png,4,Negative,Incongruent,,,,,0,0,0,0,,,,,,,,,,,,,,,,,,,,,,,,,0,4,4,4,,,,,,,,,,,,,,,,,,,,,,,,,,,,,,,,,,,,,,,,,,,,,,,,,,,,,,,,,,,,,,,,,,,,,1.266975318392118,0.9339952999998786,497.73077190000004,None,ScrollDown,정답입니다,497.73077190000004,None,497.73077190000004,None,497.73077190000004,None,497.73077190000004,None,498.53728679999995,None,498.53728679999995,499.0463299000003,,,,,,,,,,,,,,,,220,2022-05-20_13h57.26.633,FishGame,2022.1.1,60.0258471296692,
,6,나를 데려가줘,6,Orange,B,0,0,ScrollDown,ScrollUp,Orange.png,4,NonTarget,NonTarget,,,,,0,0,0,0,,,,,,,,,,,,,,,,,,,,,,,,,0,5,5,5,,,,,,,,,,,,,,,,,,,,,,,,,,,,,,,,,,,,,,,,,,,,,,,,,,,,,,,,,,,,,,,,,,,,,1.1496913582086563,1.1169294999999693,499.69998080000005,None,ScrollDown,정답입니다,499.69998080000005,None,499.69998080000005,None,499.69998080000005,None,499.69998080000005,None,500.6862093,None,500.6862093,501.19599160000007,,,,,,,,,,,,,,,,220,2022-05-20_13h57.26.633,FishGame,2022.1.1,60.0258471296692,
,7,넌 고집불통이야,5,Orange,B,2.875,2,ScrollUp,ScrollDown,Orange.png,4,Negative,Congruent,,,,,0,0,0,0,,,,,,,,,,,,,,,,,,,,,,,,,0,6,6,6,,,,,,,,,,,,,,,,,,,,,,,,,,,,,,,,,,,,,,,,,,,,,,,,,,,,,,,,,,,,,,,,,,,,,1.7453703681627908,0.9104967999996916,501.8598172000002,None,ScrollUp,정답입니다,501.8598172000002,None,501.8598172000002,None,501.8598172000002,None,501.8598172000002,None,502.6290939999999,None,502.6290939999999,503.1290604999999,,,,,,,,,,,,,,,,220,2022-05-20_13h57.26.633,FishGame,2022.1.1,60.0258471296692,
,8,넌 무심해,4,Green,A,2.875,3.2,ScrollDown,ScrollUp,Green.png,4,Negative,Incongruent,,,,,0,0,0,0,,,,,,,,,,,,,,,,,,,,,,,,,0,7,7,7,,,,,,,,,,,,,,,,,,,,,,,,,,,,,,,,,,,,,,,,,,,,,,,,,,,,,,,,,,,,,,,,,,,,,1.1543209999799728,0.8763377999998738,503.7759513000001,None,ScrollDown,정답입니다,503.7759513000001,None,503.7759513000001,None,503.7759513000001,None,503.7759513000001,None,504.5248984,None,504.5248984,505.02882530000034,,,,,,,,,,,,,,,,220,2022-05-20_13h57.26.633,FishGame,2022.1.1,60.0258471296692,
,9,넌 정겨워,1,Green,A,5.791666666666667,5.666666666666667,ScrollDown,ScrollUp,Green.png,4,Positive,Congruent,,,,,0,0,0,0,,,,,,,,,,,,,,,,,,,,,,,,,0,8,8,8,,,,,,,,,,,,,,,,,,,,,,,,,,,,,,,,,,,,,,,,,,,,,,,,,,,,,,,,,,,,,,,,,,,,,1.1558641890684764,0.9313403000001017,505.6840694000002,None,ScrollDown,정답입니다,505.6840694000002,None,505.6840694000002,None,505.6840694000002,None,505.6840694000002,None,506.4836825000002,None,506.4836825000002,506.9953776000002,,,,,,,,,,,,,,,,220,2022-05-20_13h57.26.633,FishGame,2022.1.1,60.0258471296692,
,10,나를 데려가줘,6,Orange,B,0,0,ScrollDown,ScrollUp,Orange.png,4,NonTarget,NonTarget,,,,,0,0,0,0,,,,,,,,,,,,,,,,,,,,,,,,,0,9,9,9,,,,,,,,,,,,,,,,,,,,,,,,,,,,,,,,,,,,,,,,,,,,,,,,,,,,,,,,,,,,,,,,,,,,,1.1435185273488362,1.0004549999998744,507.6397783000002,None,ScrollDown,정답입니다,507.6397783000002,None,507.6397783000002,None,507.6397783000002,None,507.6397783000002,None,508.52004590000024,None,508.52004590000024,509.02831190000006,,,,,,,,,,,,,,,,220,2022-05-20_13h57.26.633,FishGame,2022.1.1,60.0258471296692,
,11,넌 체제순응적이야,4,Orange,B,3,3.6,ScrollUp,ScrollDown,Orange.png,4,Negative,Congruent,,,,,0,0,0,0,,,,,,,,,,,,,,,,,,,,,,,,,0,10,10,10,,,,,,,,,,,,,,,,,,,,,,,,,,,,,,,,,,,,,,,,,,,,,,,,,,,,,,,,,,,,,,,,,,,,,1.7824074029922485,0.8785596000002442,509.6937223,None,ScrollUp,정답입니다,509.6937223,None,509.6937223,None,509.6937223,None,509.6937223,None,510.4280027,None,510.4280027,510.9279649,,,,,,,,,,,,,,,,220,2022-05-20_13h57.26.633,FishGame,2022.1.1,60.0258471296692,
,12,나를 보내줘,6,Green,A,0,0,ScrollUp,ScrollDown,Green.png,4,NonTarget,NonTarget,,,,,0,0,0,0,,,,,,,,,,,,,,,,,,,,,,,,,0,11,11,11,,,,,,,,,,,,,,,,,,,,,,,,,,,,,,,,,,,,,,,,,,,,,,,,,,,,,,,,,,,,,,,,,,,,,1.658950611948967,1.003088100000241,511.57872240000006,None,ScrollUp,정답입니다,511.57872240000006,None,511.57872240000006,None,511.57872240000006,None,511.57872240000006,None,512.4542216,None,512.4542216,512.9611394000003,,,,,,,,,,,,,,,,220,2022-05-20_13h57.26.633,FishGame,2022.1.1,60.0258471296692,
,13,넌 박식해,2,Green,A,5.625,3.933333333333333,ScrollDown,ScrollUp,Green.png,4,Positive,Congruent,,,,,0,0,0,0,,,,,,,,,,,,,,,,,,,,,,,,,0,12,12,12,,,,,,,,,,,,,,,,,,,,,,,,,,,,,,,,,,,,,,,,,,,,,,,,,,,,,,,,,,,,,,,,,,,,,1.0046296219031017,1.774362999999994,513.6149022,None,ScrollDown,정답입니다,513.6149022,None,513.6149022,None,513.6149022,None,513.6149022,None,515.2612149000001,None,515.2612149000001,515.7608441000002,,,,,,,,,,,,,,,,220,2022-05-20_13h57.26.633,FishGame,2022.1.1,60.0258471296692,
,14,나를 보내줘,6,Green,A,0,0,ScrollUp,ScrollDown,Green.png,4,NonTarget,NonTarget,,,,,0,0,0,0,,,,,,,,,,,,,,,,,,,,,,,,,0,13,13,13,,,,,,,,,,,,,,,,,,,,,,,,,,,,,,,,,,,,,,,,,,,,,,,,,,,,,,,,,,,,,,,,,,,,,1.9182098805904388,1.1380705999999918,516.4059338000002,None,ScrollUp,정답입니다,516.4059338000002,None,516.4059338000002,None,516.4059338000002,None,516.4059338000002,None,517.4275554000001,None,517.4275554000001,517.927291,,,,,,,,,,,,,,,,220,2022-05-20_13h57.26.633,FishGame,2022.1.1,60.0258471296692,
,15,넌 침착해,1,Orange,B,5.458333333333333,5.566666666666666,ScrollUp,ScrollDown,Orange.png,4,Positive,Incongruent,,,,,0,0,0,0,,,,,,,,,,,,,,,,,,,,,,,,,0,14,14,14,,,,,,,,,,,,,,,,,,,,,,,,,,,,,,,,,,,,,,,,,,,,,,,,,,,,,,,,,,,,,,,,,,,,,1.8533950696388881,1.0395751999999447,518.5839962,None,ScrollUp,정답입니다,518.5839962,None,518.5839962,None,518.5839962,None,518.5839962,None,519.4937299000003,None,519.4937299000003,519.993547,,,,,,,,,,,,,,,,220,2022-05-20_13h57.26.633,FishGame,2022.1.1,60.0258471296692,
,16,나를 데려가줘,6,Orange,B,0,0,ScrollDown,ScrollUp,Orange.png,4,NonTarget,NonTarget,,,,,0,0,0,0,,,,,,,,,,,,,,,,,,,,,,,,,0,15,15,15,,,,,,,,,,,,,,,,,,,,,,,,,,,,,,,,,,,,,,,,,,,,,,,,,,,,,,,,,,,,,,,,,,,,,1,1.0686743999999635,520.6453728000001,None,ScrollDown,정답입니다,520.6453728000001,None,520.6453728000001,None,520.6453728000001,None,520.6453728000001,None,521.5836004000003,None,521.5836004000003,522.0932792000003,,,,,,,,,,,,,,,,220,2022-05-20_13h57.26.633,FishGame,2022.1.1,60.0258471296692,
,17,넌 행복해,1,Green,A,6.416666666666666,6.166666666666667,ScrollDown,ScrollUp,Green.png,4,Positive,Congruent,,,,,0,0,0,0,,,,,,,,,,,,,,,,,,,,,,,,,0,16,16,16,,,,,,,,,,,,,,,,,,,,,,,,,,,,,,,,,,,,,,,,,,,,,,,,,,,,,,,,,,,,,,,,,,,,,1.0462962985038757,0.9854617999999391,522.7495063000001,None,ScrollDown,정답입니다,522.7495063000001,None,522.7495063000001,None,522.7495063000001,None,522.7495063000001,None,523.6012037,None,523.6012037,524.1099147,,,,,,,,,,,,,,,,220,2022-05-20_13h57.26.633,FishGame,2022.1.1,60.0258471296692,
,18,넌 겸손해,2,Orange,B,5.791666666666667,4.766666666666667,ScrollUp,ScrollDown,Orange.png,4,Positive,Incongruent,,,,,0,0,0,0,,,,,,,,,,,,,,,,,,,,,,,,,0,17,17,17,,,,,,,,,,,,,,,,,,,,,,,,,,,,,,,,,,,,,,,,,,,,,,,,,,,,,,,,,,,,,,,,,,,,,1.8719135870536168,1.0740703999999823,524.7660009000001,None,ScrollUp,정답입니다,524.7660009000001,None,524.7660009000001,None,524.7660009000001,None,524.7660009000001,None,525.7095668000002,None,525.7095668000002,526.2094856000003,,,,,,,,,,,,,,,,220,2022-05-20_13h57.26.633,FishGame,2022.1.1,60.0258471296692,
,19,나를 보내줘,6,Green,A,0,0,ScrollUp,ScrollDown,Green.png,4,NonTarget,NonTarget,,,,,0,0,0,0,,,,,,,,,,,,,,,,,,,,,,,,,0,18,18,18,,,,,,,,,,,,,,,,,,,,,,,,,,,,,,,,,,,,,,,,,,,,,,,,,,,,,,,,,,,,,,,,,,,,,1.90586419403553,1.0426017999998294,526.8551273000003,None,ScrollUp,정답입니다,526.8551273000003,None,526.8551273000003,None,526.8551273000003,None,526.8551273000003,None,527.7759488000002,None,527.7759488000002,528.2758637000002,,,,,,,,,,,,,,,,220,2022-05-20_13h57.26.633,FishGame,2022.1.1,60.0258471296692,
,20,넌 의심없어,3,Green,A,4.166666666666667,4.6,ScrollDown,ScrollUp,Green.png,4,Neutral,Neutral,,,,,0,0,0,0,,,,,,,,,,,,,,,,,,,,,,,,,0,19,19,19,,,,,,,,,,,,,,,,,,,,,,,,,,,,,,,,,,,,,,,,,,,,,,,,,,,,,,,,,,,,,,,,,,,,,1.0617283880710602,0.9508648000000903,528.9241583000003,None,ScrollDown,정답입니다,528.9241583000003,None,528.9241583000003,None,528.9241583000003,None,528.9241583000003,None,529.7486449000003,None,529.7486449000003,530.2588157,,,,,,,,,,,,,,,,220,2022-05-20_13h57.26.633,FishGame,2022.1.1,60.0258471296692,
,21,넌 시시해,4,Green,A,2.666666666666667,2.966666666666667,ScrollDown,ScrollUp,Green.png,4,Negative,Incongruent,,,,,0,0,0,0,,,,,,,,,,,,,,,,,,,,,,,,,0,20,20,20,,,,,,,,,,,,,,,,,,,,,,,,,,,,,,,,,,,,,,,,,,,,,,,,,,,,,,,,,,,,,,,,,,,,,1.0231481393178303,0.9095029999998587,530.9033149000002,None,ScrollDown,정답입니다,530.9033149000002,None,530.9033149000002,None,530.9033149000002,None,530.9033149000002,None,531.6867950999999,None,531.6867950999999,532.1918757000003,,,,,,,,,,,,,,,,220,2022-05-20_13h57.26.633,FishGame,2022.1.1,60.0258471296692,
,22,나를 데려가줘,6,Orange,B,0,0,ScrollDown,ScrollUp,Orange.png,4,NonTarget,NonTarget,,,,,0,0,0,0,,,,,,,,,,,,,,,,,,,,,,,,,0,21,21,21,,,,,,,,,,,,,,,,,,,,,,,,,,,,,,,,,,,,,,,,,,,,,,,,,,,,,,,,,,,,,,,,,,,,,1.0663580298423767,1.0683124000001953,532.8451586000001,None,ScrollDown,정답입니다,532.8451586000001,None,532.8451586000001,None,532.8451586000001,None,532.8451586000001,None,533.7819291000001,None,533.7819291000001,534.2916220000002,,,,,,,,,,,,,,,,220,2022-05-20_13h57.26.633,FishGame,2022.1.1,60.0258471296692,
,23,넌 무정해,5,Green,A,2.5,2.2,ScrollDown,ScrollUp,Green.png,4,Negative,Incongruent,,,,,0,0,0,0,,,,,,,,,,,,,,,,,,,,,,,,,0,22,22,22,,,,,,,,,,,,,,,,,,,,,,,,,,,,,,,,,,,,,,,,,,,,,,,,,,,,,,,,,,,,,,,,,,,,,1.248456800977389,0.9527207999999519,534.9398415,None,ScrollDown,정답입니다,534.9398415,None,534.9398415,None,534.9398415,None,534.9398415,None,535.7671948000002,None,535.7671948000002,536.2747449000003,,,,,,,,,,,,,,,,220,2022-05-20_13h57.26.633,FishGame,2022.1.1,60.0258471296692,
,24,넌 긍정적이야,1,Orange,B,6.041666666666667,6.066666666666666,ScrollUp,ScrollDown,Orange.png,4,Positive,Incongruent,,,,,0,0,0,0,,,,,,,,,,,,,,,,,,,,,,,,,0,23,23,23,,,,,,,,,,,,,,,,,,,,,,,,,,,,,,,,,,,,,,,,,,,,,,,,,,,,,,,,,,,,,,,,,,,,,1.6728395000100136,0.9706532000000152,536.9477966,None,ScrollUp,정답입니다,536.9477966,None,536.9477966,None,536.9477966,None,536.9477966,None,537.7675483000003,None,537.7675483000003,538.274523,,,,,,,,,,,,,,,,220,2022-05-20_13h57.26.633,FishGame,2022.1.1,60.0258471296692,
,25,나를 보내줘,6,Green,A,0,0,ScrollUp,ScrollDown,Green.png,4,NonTarget,NonTarget,,,,,0,0,0,0,,,,,,,,,,,,,,,,,,,,,,,,,0,24,24,24,,,,,,,,,,,,,,,,,,,,,,,,,,,,,,,,,,,,,,,,,,,,,,,,,,,,,,,,,,,,,,,,,,,,,1.7083333333333335,1.002028800000062,538.9256946,None,ScrollUp,정답입니다,538.9256946,None,538.9256946,None,538.9256946,None,538.9256946,None,539.7988977,None,539.7988977,540.3076045000003,,,,,,,,,,,,,,,,220,2022-05-20_13h57.26.633,FishGame,2022.1.1,60.0258471296692,
,26,넌 시기심이 많아,5,Orange,B,2.458333333333333,2.233333333333333,ScrollUp,ScrollDown,Orange.png,4,Negative,Congruent,,,,,0,0,0,0,,,,,,,,,,,,,,,,,,,,,,,,,0,25,25,25,,,,,,,,,,,,,,,,,,,,,,,,,,,,,,,,,,,,,,,,,,,,,,,,,,,,,,,,,,,,,,,,,,,,,1.703703703979651,0.9394302000000607,540.9734478,None,ScrollUp,정답입니다,540.9734478,None,540.9734478,None,540.9734478,None,540.9734478,None,541.7678817999999,None,541.7678817999999,542.2739204,,,,,,,,,,,,,,,,220,2022-05-20_13h57.26.633,FishGame,2022.1.1,60.0258471296692,
,27,넌 탁월해,2,Green,A,5.708333333333334,4.5,ScrollDown,ScrollUp,Green.png,4,Positive,Congruent,,,,,0,0,0,0,,,,,,,,,,,,,,,,,,,,,,,,,0,26,26,26,,,,,,,,,,,,,,,,,,,,,,,,,,,,,,,,,,,,,,,,,,,,,,,,,,,,,,,,,,,,,,,,,,,,,1.325617286066214,0.8825967999996465,542.9281615,None,ScrollDown,정답입니다,542.9281615,None,542.9281615,None,542.9281615,None,542.9281615,None,543.6799452,None,543.6799452,544.1904857,,,,,,,,,,,,,,,,220,2022-05-20_13h57.26.633,FishGame,2022.1.1,60.0258471296692,
,28,나를 데려가줘,6,Orange,B,0,0,ScrollDown,ScrollUp,Orange.png,4,NonTarget,NonTarget,,,,,0,0,0,0,,,,,,,,,,,,,,,,,,,,,,,,,0,27,27,27,,,,,,,,,,,,,,,,,,,,,,,,,,,,,,,,,,,,,,,,,,,,,,,,,,,,,,,,,,,,,,,,,,,,,1.3024691392978034,0.9654083999998875,544.8452791,None,ScrollDown,정답입니다,544.8452791,None,544.8452791,None,544.8452791,None,544.8452791,None,545.6789455000003,None,545.6789455000003,546.1901883999999,,,,,,,,,,,,,,,,220,2022-05-20_13h57.26.633,FishGame,2022.1.1,60.0258471296692,
,29,넌 조용해,3,Orange,B,4.333333333333333,4.166666666666667,ScrollUp,ScrollDown,Orange.png,4,Neutral,Neutral,,,,,0,0,0,0,,,,,,,,,,,,,,,,,,,,,,,,,0,28,28,28,,,,,,,,,,,,,,,,,,,,,,,,,,,,,,,,,,,,,,,,,,,,,,,,,,,,,,,,,,,,,,,,,,,,,1.7098765472571054,0.9737719999998262,546.8447912000001,None,ScrollUp,정답입니다,546.8447912000001,None,546.8447912000001,None,546.8447912000001,None,546.8447912000001,None,547.6902072000003,None,547.6902072000003,548.1899205,,,,,,,,,,,,,,,,220,2022-05-20_13h57.26.633,FishGame,2022.1.1,60.0258471296692,
,30,넌 다정해,1,Green,A,5.833333333333334,5.7,ScrollDown,ScrollUp,Green.png,4,Positive,Congruent,,,,,0,0,0,0,,,,,,,,,,,,,,,,,,,,,,,,,0,29,29,29,,,,,,,,,,,,,,,,,,,,,,,,,,,,,,,,,,,,,,,,,,,,,,,,,,,,,,,,,,,,,,,,,,,,,1.040123442808787,0.9615202999998473,548.8410481999999,None,ScrollDown,정답입니다,548.8410481999999,None,548.8410481999999,None,548.8410481999999,None,548.8410481999999,None,549.673139,None,549.673139,550.1730047000001,,,,,,,,,,,,,,,,220,2022-05-20_13h57.26.633,FishGame,2022.1.1,60.0258471296692,
,31,넌 능력있어,2,Orange,B,6.166666666666666,4.6,ScrollUp,ScrollDown,Orange.png,4,Positive,Incongruent,,,,,0,0,0,0,,,,,,,,,,,,,,,,,,,,,,,,,0,30,30,30,,,,,,,,,,,,,,,,,,,,,,,,,,,,,,,,,,,,,,,,,,,,,,,,,,,,,,,,,,,,,,,,,,,,,1.6466049378116927,0.9194978000000447,550.8280952,None,ScrollUp,정답입니다,550.8280952,None,550.8280952,None,550.8280952,None,550.8280952,None,551.6146613999999,None,551.6146613999999,552.1227845000003,,,,,,,,,,,,,,,,220,2022-05-20_13h57.26.633,FishGame,2022.1.1,60.0258471296692,
,32,넌 불쾌해,5,Green,A,2.125,1.933333333333333,ScrollDown,ScrollUp,Green.png,4,Negative,Incongruent,,,,,0,0,0,0,,,,,,,,,,,,,,,,,,,,,,,,,0,31,31,31,,,,,,,,,,,,,,,,,,,,,,,,,,,,,,,,,,,,,,,,,,,,,,,,,,,,,,,,,,,,,,,,,,,,,1.0154321193695068,1.0167593000001034,552.7690233000003,None,ScrollDown,정답입니다,552.7690233000003,None,552.7690233000003,None,552.7690233000003,None,552.7690233000003,None,553.6621104000001,None,553.6621104000001,554.1724863,,,,,,,,,,,,,,,,220,2022-05-20_13h57.26.633,FishGame,2022.1.1,60.0258471296692,
,33,나를 데려가줘,6,Orange,B,0,0,ScrollDown,ScrollUp,Orange.png,4,NonTarget,NonTarget,,,,,0,0,0,0,,,,,,,,,,,,,,,,,,,,,,,,,0,32,32,32,,,,,,,,,,,,,,,,,,,,,,,,,,,,,,,,,,,,,,,,,,,,,,,,,,,,,,,,,,,,,,,,,,,,,1.3395061741272607,0.960479899999882,554.8270186,None,ScrollDown,정답입니다,554.8270186,None,554.8270186,None,554.8270186,None,554.8270186,None,555.6570847000003,None,555.6570847000003,556.1722360000003,,,,,,,,,,,,,,,,220,2022-05-20_13h57.26.633,FishGame,2022.1.1,60.0258471296692,
,34,넌 유순해,3,Green,A,4.458333333333333,5,ScrollDown,ScrollUp,Green.png,4,Neutral,Neutral,,,,,0,0,0,0,,,,,,,,,,,,,,,,,,,,,,,,,0,33,33,33,,,,,,,,,,,,,,,,,,,,,,,,,,,,,,,,,,,,,,,,,,,,,,,,,,,,,,,,,,,,,,,,,,,,,1.1018518507480621,0.9010526000001846,556.8145592999999,None,ScrollDown,정답입니다,556.8145592999999,None,556.8145592999999,None,556.8145592999999,None,556.8145592999999,None,557.5962420999999,None,557.5962420999999,558.1053336,,,,,,,,,,,,,,,,220,2022-05-20_13h57.26.633,FishGame,2022.1.1,60.0258471296692,
,35,넌 근심스러워,4,Orange,B,2.708333333333333,3.133333333333333,ScrollUp,ScrollDown,Orange.png,4,Negative,Congruent,,,,,0,0,0,0,,,,,,,,,,,,,,,,,,,,,,,,,0,34,34,34,,,,,,,,,,,,,,,,,,,,,,,,,,,,,,,,,,,,,,,,,,,,,,,,,,,,,,,,,,,,,,,,,,,,,1.9166666666666667,0.915352299999995,558.7644967000001,None,ScrollUp,정답입니다,558.7644967000001,None,558.7644967000001,None,558.7644967000001,None,558.7644967000001,None,559.544688,None,559.544688,560.0550287000001,,,,,,,,,,,,,,,,220,2022-05-20_13h57.26.633,FishGame,2022.1.1,60.0258471296692,
,36,넌 세련되었어,2,Green,A,5.5,4.6,ScrollDown,ScrollUp,Green.png,4,Positive,Congruent,,,,,0,0,0,0,,,,,,,,,,,,,,,,,,,,,,,,,0,35,35,35,,,,,,,,,,,,,,,,,,,,,,,,,,,,,,,,,,,,,,,,,,,,,,,,,,,,,,,,,,,,,,,,,,,,,1.1574074029922485,1.0129119999996874,560.7192829999999,None,ScrollDown,정답입니다,560.7192829999999,None,560.7192829999999,None,560.7192829999999,None,560.7192829999999,None,561.5904871000002,None,561.5904871000002,562.1047777000003,,,,,,,,,,,,,,,,220,2022-05-20_13h57.26.633,FishGame,2022.1.1,60.0258471296692,
,37,나를 보내줘,6,Green,A,0,0,ScrollUp,ScrollDown,Green.png,4,NonTarget,NonTarget,,,,,0,0,0,0,,,,,,,,,,,,,,,,,,,,,,,,,0,36,36,36,,,,,,,,,,,,,,,,,,,,,,,,,,,,,,,,,,,,,,,,,,,,,,,,,,,,,,,,,,,,,,,,,,,,,1.8549382835626602,0.9163711999999578,562.7429213999999,None,ScrollUp,정답입니다,562.7429213999999,None,562.7429213999999,None,562.7429213999999,None,562.7429213999999,None,563.5445328000001,None,563.5445328000001,564.0544506000001,,,,,,,,,,,,,,,,220,2022-05-20_13h57.26.633,FishGame,2022.1.1,60.0258471296692,
,38,넌 확고해,3,Orange,B,4.708333333333334,4.566666666666666,ScrollUp,ScrollDown,Orange.png,4,Neutral,Neutral,,,,,0,0,0,0,,,,,,,,,,,,,,,,,,,,,,,,,0,37,37,37,,,,,,,,,,,,,,,,,,,,,,,,,,,,,,,,,,,,,,,,,,,,,,,,,,,,,,,,,,,,,,,,,,,,,1.8225308656692505,0.928568499999983,564.7127261999999,None,ScrollUp,정답입니다,564.7127261999999,None,564.7127261999999,None,564.7127261999999,None,564.7127261999999,None,565.5043894,None,565.5043894,566.0043341999999,,,,,,,,,,,,,,,,220,2022-05-20_13h57.26.633,FishGame,2022.1.1,60.0258471296692,
,39,넌 이해심이 많아,1,Orange,B,6.041666666666668,5.533333333333333,ScrollUp,ScrollDown,Orange.png,4,Positive,Incongruent,,,,,0,0,0,0,,,,,,,,,,,,,,,,,,,,,,,,,0,38,38,38,,,,,,,,,,,,,,,,,,,,,,,,,,,,,,,,,,,,,,,,,,,,,,,,,,,,,,,,,,,,,,,,,,,,,1.9120370248953502,0.8990674000001491,566.6610281000003,None,ScrollUp,정답입니다,566.6610281000003,None,566.6610281000003,None,566.6610281000003,None,566.6610281000003,None,567.4257164,None,567.4257164,567.9373946999999,,,,,,,,,,,,,,,,220,2022-05-20_13h57.26.633,FishGame,2022.1.1,60.0258471296692,
,40,나를 보내줘,6,Green,A,0,0,ScrollUp,ScrollDown,Green.png,4,NonTarget,NonTarget,,,,,0,0,0,0,,,,,,,,,,,,,,,,,,,,,,,,,0,39,39,39,,,,,,,,,,,,,,,,,,,,,,,,,,,,,,,,,,,,,,,,,,,,,,,,,,,,,,,,,,,,,,,,,,,,,1.6959876591960588,0.9905791999999565,568.5823500000001,None,ScrollUp,정답입니다,568.5823500000001,None,568.5823500000001,None,568.5823500000001,None,568.5823500000001,None,569.4475030000003,None,569.4475030000003,569.9536980000003,,,,,,,,,,,,,,,,220,2022-05-20_13h57.26.633,FishGame,2022.1.1,60.0258471296692,
,41,넌 거칠어,4,Green,A,2.625,3.033333333333333,ScrollDown,ScrollUp,Green.png,4,Negative,Incongruent,,,,,0,0,0,0,,,,,,,,,,,,,,,,,,,,,,,,,0,40,40,40,,,,,,,,,,,,,,,,,,,,,,,,,,,,,,,,,,,,,,,,,,,,,,,,,,,,,,,,,,,,,,,,,,,,,1.1990740795930226,0.9275102999999945,570.6140699000002,None,ScrollDown,정답입니다,570.6140699000002,None,570.6140699000002,None,570.6140699000002,None,570.6140699000002,None,571.3996096000001,None,571.3996096000001,571.9034889,,,,,,,,,,,,,,,,220,2022-05-20_13h57.26.633,FishGame,2022.1.1,60.0258471296692,
,42,넌 변덕맞아,5,Orange,B,2.75,2.166666666666667,ScrollUp,ScrollDown,Orange.png,4,Negative,Congruent,,,,,0,0,0,0,,,,,,,,,,,,,,,,,,,,,,,,,0,41,41,41,,,,,,,,,,,,,,,,,,,,,,,,,,,,,,,,,,,,,,,,,,,,,,,,,,,,,,,,,,,,,,,,,,,,,1.6496913532416024,0.8614029000000301,572.5716402000003,None,ScrollUp,정답입니다,572.5716402000003,None,572.5716402000003,None,572.5716402000003,None,572.5716402000003,None,573.2868722000003,None,573.2868722000003,573.7866109000001,,,,,,,,,,,,,,,,220,2022-05-20_13h57.26.633,FishGame,2022.1.1,60.0258471296692,
,43,나를 데려가줘,6,Orange,B,0,0,ScrollDown,ScrollUp,Orange.png,4,NonTarget,NonTarget,,,,,0,0,0,0,,,,,,,,,,,,,,,,,,,,,,,,,0,42,42,42,,,,,,,,,,,,,,,,,,,,,,,,,,,,,,,,,,,,,,,,,,,,,,,,,,,,,,,,,,,,,,,,,,,,,1.1126543233791988,0.9841935999997986,574.4380665000003,None,ScrollDown,정답입니다,574.4380665000003,None,574.4380665000003,None,574.4380665000003,None,574.4380665000003,None,575.2928209000002,None,575.2928209000002,575.8029236000002,,,,,,,,,,,,,,,,220,2022-05-20_13h57.26.633,FishGame,2022.1.1,60.0258471296692,
,44,넌 외로워,4,Orange,B,2.833333333333333,3.3,ScrollUp,ScrollDown,Orange.png,4,Negative,Congruent,,,,,0,0,0,0,,,,,,,,,,,,,,,,,,,,,,,,,0,43,43,43,,,,,,,,,,,,,,,,,,,,,,,,,,,,,,,,,,,,,,,,,,,,,,,,,,,,,,,,,,,,,,,,,,,,,1.878086417913437,1.0852387999998427,576.4618661,None,ScrollUp,정답입니다,576.4618661,None,576.4618661,None,576.4618661,None,576.4618661,None,577.4123758999999,None,577.4123758999999,577.9194018000003,,,,,,,,,,,,,,,,220,2022-05-20_13h57.26.633,FishGame,2022.1.1,60.0258471296692,
,1,넌 불평스러워,5,Green,A,2.25,2.066666666666667,ScrollDown,ScrollUp,Green.png,5,Negative,Incongruent,,,,,0,0,0,0,,,,,,,,,,,,,,,,,,,,,,,,,,,,,0,0,0,0,,,,,,,,,,,,,,,,,,,,,,,,610.7487346000003,612.2483397999999,612.2815975000003,613.2314874000003,613.2816213000001,614.2315174,614.2315174,None,,,,,,,,,,,,,,,,,,,,,,,,,,,,,,,,,,1,0.9814775999998346,615.4231702000002,None,ScrollDown,정답입니다,615.4231702000002,None,615.4231702000002,None,615.4231702000002,None,615.4231702000002,None,616.2312605000002,None,616.2312605000002,616.7311215,578.4193202000001,None,578.4193202000001,None,-0.012037037,-0.1,1,0,0,0.0162279999999555,None,608.4320889999999,None,,,220,2022-05-20_13h57.26.633,FishGame,2022.1.1,60.0258471296692,
,2,나를 보내줘,6,Green,A,0,0,ScrollUp,ScrollDown,Green.png,5,NonTarget,NonTarget,,,,,0,0,0,0,,,,,,,,,,,,,,,,,,,,,,,,,,,,,0,1,1,1,,,,,,,,,,,,,,,,,,,,,,,,,,,,,,,,,,,,,,,,,,,,,,,,,,,,,,,,,,,,,,,,,1.7793209999799728,1.1292920000000777,617.37763,None,ScrollUp,정답입니다,617.37763,None,617.37763,None,617.37763,None,617.37763,None,618.3839387000003,None,618.3839387000003,618.8973980999999,,,,,,,,,,,,,,,,220,2022-05-20_13h57.26.633,FishGame,2022.1.1,60.0258471296692,
,3,넌 다재다능해,2,Orange,B,6.208333333333333,4.5,ScrollUp,ScrollDown,Orange.png,5,Positive,Incongruent,,,,,0,0,0,0,,,,,,,,,,,,,,,,,,,,,,,,,,,,,0,2,2,2,,,,,,,,,,,,,,,,,,,,,,,,,,,,,,,,,,,,,,,,,,,,,,,,,,,,,,,,,,,,,,,,,1.785493830839793,1.045696399999997,619.5550886000001,None,ScrollUp,정답입니다,619.5550886000001,None,619.5550886000001,None,619.5550886000001,None,619.5550886000001,None,620.4669876000003,None,620.4669876000003,620.9805224000002,,,,,,,,,,,,,,,,220,2022-05-20_13h57.26.633,FishGame,2022.1.1,60.0258471296692,
,4,넌 과감해,3,Green,A,4.833333333333334,4.6,ScrollDown,ScrollUp,Green.png,5,Neutral,Neutral,,,,,0,0,0,0,,,,,,,,,,,,,,,,,,,,,,,,,,,,,0,3,3,3,,,,,,,,,,,,,,,,,,,,,,,,,,,,,,,,,,,,,,,,,,,,,,,,,,,,,,,,,,,,,,,,,1.1064814925193787,0.8985636999996132,621.6254721,None,ScrollDown,정답입니다,621.6254721,None,621.6254721,None,621.6254721,None,621.6254721,None,622.4012931000002,None,622.4012931000002,622.9136195000001,,,,,,,,,,,,,,,,220,2022-05-20_13h57.26.633,FishGame,2022.1.1,60.0258471296692,
,5,넌 고분고분해,3,Orange,B,3.75,4.033333333333333,ScrollUp,ScrollDown,Orange.png,5,Neutral,Neutral,,,,,0,0,0,0,,,,,,,,,,,,,,,,,,,,,,,,,,,,,0,4,4,4,,,,,,,,,,,,,,,,,,,,,,,,,,,,,,,,,,,,,,,,,,,,,,,,,,,,,,,,,,,,,,,,,1.7962963034709294,0.9757205999999314,623.5672797000002,None,ScrollUp,정답입니다,623.5672797000002,None,623.5672797000002,None,623.5672797000002,None,623.5672797000002,None,624.4084705,None,624.4084705,624.9133070000003,,,,,,,,,,,,,,,,220,2022-05-20_13h57.26.633,FishGame,2022.1.1,60.0258471296692,
,6,나를 보내줘,6,Green,A,0,0,ScrollUp,ScrollDown,Green.png,5,NonTarget,NonTarget,,,,,0,0,0,0,,,,,,,,,,,,,,,,,,,,,,,,,,,,,0,5,5,5,,,,,,,,,,,,,,,,,,,,,,,,,,,,,,,,,,,,,,,,,,,,,,,,,,,,,,,,,,,,,,,,,1.879629631837209,1.0255028000001403,625.6149740000001,None,ScrollUp,정답입니다,625.6149740000001,None,625.6149740000001,None,625.6149740000001,None,625.6149740000001,None,626.4689993000002,None,626.4689993000002,626.9802420000001,,,,,,,,,,,,,,,,220,2022-05-20_13h57.26.633,FishGame,2022.1.1,60.0258471296692,
,7,넌 잘 잊어,4,Green,A,3,3.7,ScrollDown,ScrollUp,Green.png,5,Negative,Incongruent,,,,,0,0,0,0,,,,,,,,,,,,,,,,,,,,,,,,,,,,,0,6,6,6,,,,,,,,,,,,,,,,,,,,,,,,,,,,,,,,,,,,,,,,,,,,,,,,,,,,,,,,,,,,,,,,,1.1635802586873372,0.9430090999999265,627.6558226000002,None,ScrollDown,정답입니다,627.6558226000002,None,627.6558226000002,None,627.6558226000002,None,627.6558226000002,None,628.4468905000003,None,628.4468905000003,628.9462698000002,,,,,,,,,,,,,,,,220,2022-05-20_13h57.26.633,FishGame,2022.1.1,60.0258471296692,
,8,넌 탐구심이없어,4,Orange,B,2.833333333333333,3.066666666666667,ScrollUp,ScrollDown,Orange.png,5,Negative,Congruent,,,,,0,0,0,0,,,,,,,,,,,,,,,,,,,,,,,,,,,,,0,7,7,7,,,,,,,,,,,,,,,,,,,,,,,,,,,,,,,,,,,,,,,,,,,,,,,,,,,,,,,,,,,,,,,,,1.7793209999799728,0.845584300000155,629.6069867000001,None,ScrollUp,정답입니다,629.6069867000001,None,629.6069867000001,None,629.6069867000001,None,629.6069867000001,None,630.3153041,None,630.3153041,630.8294242000002,,,,,,,,,,,,,,,,220,2022-05-20_13h57.26.633,FishGame,2022.1.1,60.0258471296692,
,9,나를 데려가줘,6,Orange,B,0,0,ScrollDown,ScrollUp,Orange.png,5,NonTarget,NonTarget,,,,,0,0,0,0,,,,,,,,,,,,,,,,,,,,,,,,,,,,,0,8,8,8,,,,,,,,,,,,,,,,,,,,,,,,,,,,,,,,,,,,,,,,,,,,,,,,,,,,,,,,,,,,,,,,,1.0740740497907002,1.1134806000000026,631.4966753000003,None,ScrollDown,정답입니다,631.4966753000003,None,631.4966753000003,None,631.4966753000003,None,631.4966753000003,None,632.4724359000002,None,632.4724359000002,632.9790978000001,,,,,,,,,,,,,,,,220,2022-05-20_13h57.26.633,FishGame,2022.1.1,60.0258471296692,
,10,넌 참되어,2,Green,A,6.041666666666664,4.733333333333333,ScrollDown,ScrollUp,Green.png,5,Positive,Congruent,,,,,0,0,0,0,,,,,,,,,,,,,,,,,,,,,,,,,,,,,0,9,9,9,,,,,,,,,,,,,,,,,,,,,,,,,,,,,,,,,,,,,,,,,,,,,,,,,,,,,,,,,,,,,,,,,1.1095678955316544,1.0003345000000081,633.6473743000001,None,ScrollDown,정답입니다,633.6473743000001,None,633.6473743000001,None,633.6473743000001,None,633.6473743000001,None,634.5025983999999,None,634.5025983999999,635.0121001000002,,,,,,,,,,,,,,,,220,2022-05-20_13h57.26.633,FishGame,2022.1.1,60.0258471296692,
,11,넌 생기있어,1,Orange,B,5.875,5.633333333333334,ScrollUp,ScrollDown,Orange.png,5,Positive,Incongruent,,,,,0,0,0,0,,,,,,,,,,,,,,,,,,,,,,,,,,,,,0,10,10,10,,,,,,,,,,,,,,,,,,,,,,,,,,,,,,,,,,,,,,,,,,,,,,,,,,,,,,,,,,,,,,,,,1.8657407313585281,0.9790760999999293,635.6665179000001,None,ScrollUp,정답입니다,635.6665179000001,None,635.6665179000001,None,635.6665179000001,None,635.6665179000001,None,636.5166801,None,636.5166801,637.0288519999999,,,,,,,,,,,,,,,,220,2022-05-20_13h57.26.633,FishGame,2022.1.1,60.0258471296692,
,12,넌 비사교적이야,4,Orange,B,2.875,2.9,ScrollUp,ScrollDown,Orange.png,5,Negative,Congruent,,,,,0,0,0,0,,,,,,,,,,,,,,,,,,,,,,,,,,,,,0,11,11,11,,,,,,,,,,,,,,,,,,,,,,,,,,,,,,,,,,,,,,,,,,,,,,,,,,,,,,,,,,,,,,,,,1.8672839452823002,1.0271610999998302,637.6755020999999,None,ScrollUp,정답입니다,637.6755020999999,None,637.6755020999999,None,637.6755020999999,None,637.6755020999999,None,638.5819675000002,None,638.5819675000002,639.0951867000003,,,,,,,,,,,,,,,,220,2022-05-20_13h57.26.633,FishGame,2022.1.1,60.0258471296692,
,13,나를 데려가줘,6,Orange,B,0,0,ScrollDown,ScrollUp,Orange.png,5,NonTarget,NonTarget,,,,,0,0,0,0,,,,,,,,,,,,,,,,,,,,,,,,,,,,,0,12,12,12,,,,,,,,,,,,,,,,,,,,,,,,,,,,,,,,,,,,,,,,,,,,,,,,,,,,,,,,,,,,,,,,,1.1172839403152466,0.9509046000002854,639.7564502,None,ScrollDown,정답입니다,639.7564502,None,639.7564502,None,639.7564502,None,639.7564502,None,640.5784893,None,640.5784893,641.0781499,,,,,,,,,,,,,,,,220,2022-05-20_13h57.26.633,FishGame,2022.1.1,60.0258471296692,
,14,넌 고독해,4,Green,A,2.916666666666667,3.233333333333333,ScrollDown,ScrollUp,Green.png,5,Negative,Incongruent,,,,,0,0,0,0,,,,,,,,,,,,,,,,,,,,,,,,,,,,,0,13,13,13,,,,,,,,,,,,,,,,,,,,,,,,,,,,,,,,,,,,,,,,,,,,,,,,,,,,,,,,,,,,,,,,,1.0895061641931534,0.8547318000000814,641.7271639999999,None,ScrollDown,정답입니다,641.7271639999999,None,641.7271639999999,None,641.7271639999999,None,641.7271639999999,None,642.4612821999999,None,642.4612821999999,642.9614080000001,,,,,,,,,,,,,,,,220,2022-05-20_13h57.26.633,FishGame,2022.1.1,60.0258471296692,
,15,넌 신경질적이야,5,Orange,B,2.375,2.233333333333333,ScrollUp,ScrollDown,Orange.png,5,Negative,Congruent,,,,,0,0,0,0,,,,,,,,,,,,,,,,,,,,,,,,,,,,,0,14,14,14,,,,,,,,,,,,,,,,,,,,,,,,,,,,,,,,,,,,,,,,,,,,,,,,,,,,,,,,,,,,,,,,,1.819444437821706,0.9604850999999144,643.6146486000002,None,ScrollUp,정답입니다,643.6146486000002,None,643.6146486000002,None,643.6146486000002,None,643.6146486000002,None,644.4441972,None,644.4441972,644.9442615000003,,,,,,,,,,,,,,,,220,2022-05-20_13h57.26.633,FishGame,2022.1.1,60.0258471296692,
,16,넌 똑똑해,2,Orange,B,5.666666666666667,3.966666666666667,ScrollUp,ScrollDown,Orange.png,5,Positive,Incongruent,,,,,0,0,0,0,,,,,,,,,,,,,,,,,,,,,,,,,,,,,0,15,15,15,,,,,,,,,,,,,,,,,,,,,,,,,,,,,,,,,,,,,,,,,,,,,,,,,,,,,,,,,,,,,,,,,1.858024686574936,1.0589740000000347,645.6964144000003,None,ScrollUp,정답입니다,645.6964144000003,None,645.6964144000003,None,645.6964144000003,None,645.6964144000003,None,646.5278945,None,646.5278945,647.0277668000003,,,,,,,,,,,,,,,,220,2022-05-20_13h57.26.633,FishGame,2022.1.1,60.0258471296692,
,17,나를 보내줘,6,Green,A,0,0,ScrollUp,ScrollDown,Green.png,5,NonTarget,NonTarget,,,,,0,0,0,0,,,,,,,,,,,,,,,,,,,,,,,,,,,,,0,16,16,16,,,,,,,,,,,,,,,,,,,,,,,,,,,,,,,,,,,,,,,,,,,,,,,,,,,,,,,,,,,,,,,,,1.9182098805904388,1.0235059999999976,647.6844014000003,None,ScrollUp,정답입니다,647.6844014000003,None,647.6844014000003,None,647.6844014000003,None,647.6844014000003,None,648.579029,None,648.579029,649.0935531,,,,,,,,,,,,,,,,220,2022-05-20_13h57.26.633,FishGame,2022.1.1,60.0258471296692,
,18,넌 협조적이야,1,Green,A,5.625,5.666666666666667,ScrollDown,ScrollUp,Green.png,5,Positive,Congruent,,,,,0,0,0,0,,,,,,,,,,,,,,,,,,,,,,,,,,,,,0,17,17,17,,,,,,,,,,,,,,,,,,,,,,,,,,,,,,,,,,,,,,,,,,,,,,,,,,,,,,,,,,,,,,,,,1.160493830839793,0.9521239999999125,649.7585182000003,None,ScrollDown,정답입니다,649.7585182000003,None,649.7585182000003,None,649.7585182000003,None,649.7585182000003,None,650.5705661000002,None,650.5705661000002,651.0766279,,,,,,,,,,,,,,,,220,2022-05-20_13h57.26.633,FishGame,2022.1.1,60.0258471296692,
,19,나를 데려가줘,6,Orange,B,0,0,ScrollDown,ScrollUp,Orange.png,5,NonTarget,NonTarget,,,,,0,0,0,0,,,,,,,,,,,,,,,,,,,,,,,,,,,,,0,18,18,18,,,,,,,,,,,,,,,,,,,,,,,,,,,,,,,,,,,,,,,,,,,,,,,,,,,,,,,,,,,,,,,,,1,0.9678848999997172,651.7315484000001,None,ScrollDown,정답입니다,651.7315484000001,None,651.7315484000001,None,651.7315484000001,None,651.7315484000001,None,652.5664553000001,None,652.5664553000001,653.0763389000003,,,,,,,,,,,,,,,,220,2022-05-20_13h57.26.633,FishGame,2022.1.1,60.0258471296692,
,20,넌 몰인정해,5,Orange,B,2.541666666666667,2.066666666666667,ScrollUp,ScrollDown,Orange.png,5,Negative,Congruent,,,,,0,0,0,0,,,,,,,,,,,,,,,,,,,,,,,,,,,,,0,19,19,19,,,,,,,,,,,,,,,,,,,,,,,,,,,,,,,,,,,,,,,,,,,,,,,,,,,,,,,,,,,,,,,,,1.8148148208856583,1.0012050999998792,653.7434711000001,None,ScrollUp,정답입니다,653.7434711000001,None,653.7434711000001,None,653.7434711000001,None,653.7434711000001,None,654.5992799,None,654.5992799,655.1094977000002,,,,,,,,,,,,,,,,220,2022-05-20_13h57.26.633,FishGame,2022.1.1,60.0258471296692,
,21,나를 데려가줘,6,Orange,B,0,0,ScrollDown,ScrollUp,Orange.png,5,NonTarget,NonTarget,,,,,0,0,0,0,,,,,,,,,,,,,,,,,,,,,,,,,,,,,0,20,20,20,,,,,,,,,,,,,,,,,,,,,,,,,,,,,,,,,,,,,,,,,,,,,,,,,,,,,,,,,,,,,,,,,1.2175925970077515,0.952831299999616,655.7602663000002,None,ScrollDown,정답입니다,655.7602663000002,None,655.7602663000002,None,655.7602663000002,None,655.7602663000002,None,656.5846961000002,None,656.5846961000002,657.0924840000002,,,,,,,,,,,,,,,,220,2022-05-20_13h57.26.633,FishGame,2022.1.1,60.0258471296692,
,22,넌 순진해,3,Orange,B,4.125,4.166666666666667,ScrollUp,ScrollDown,Orange.png,5,Neutral,Neutral,,,,,0,0,0,0,,,,,,,,,,,,,,,,,,,,,,,,,,,,,0,21,21,21,,,,,,,,,,,,,,,,,,,,,,,,,,,,,,,,,,,,,,,,,,,,,,,,,,,,,,,,,,,,,,,,,1.8827160596847534,1.1570818000000145,657.7428045000001,None,ScrollUp,정답입니다,657.7428045000001,None,657.7428045000001,None,657.7428045000001,None,657.7428045000001,None,658.7758005000001,None,658.7758005000001,659.2755663000003,,,,,,,,,,,,,,,,220,2022-05-20_13h57.26.633,FishGame,2022.1.1,60.0258471296692,
,23,넌 신뢰할만해,1,Green,A,6.625,5.533333333333333,ScrollDown,ScrollUp,Green.png,5,Positive,Congruent,,,,,0,0,0,0,,,,,,,,,,,,,,,,,,,,,,,,,,,,,0,22,22,22,,,,,,,,,,,,,,,,,,,,,,,,,,,,,,,,,,,,,,,,,,,,,,,,,,,,,,,,,,,,,,,,,1.0771604776382446,0.9283504999998513,659.9335504999999,None,ScrollDown,정답입니다,659.9335504999999,None,659.9335504999999,None,659.9335504999999,None,659.9335504999999,None,660.7285271999999,None,660.7285271999999,661.2420405000003,,,,,,,,,,,,,,,,220,2022-05-20_13h57.26.633,FishGame,2022.1.1,60.0258471296692,
,24,나를 보내줘,6,Green,A,0,0,ScrollUp,ScrollDown,Green.png,5,NonTarget,NonTarget,,,,,0,0,0,0,,,,,,,,,,,,,,,,,,,,,,,,,,,,,0,23,23,23,,,,,,,,,,,,,,,,,,,,,,,,,,,,,,,,,,,,,,,,,,,,,,,,,,,,,,,,,,,,,,,,,1.8966049353281658,0.9562310999999681,661.8875308000001,None,ScrollUp,정답입니다,661.8875308000001,None,661.8875308000001,None,661.8875308000001,None,661.8875308000001,None,662.7252252000003,None,662.7252252000003,663.2249801000003,,,,,,,,,,,,,,,,220,2022-05-20_13h57.26.633,FishGame,2022.1.1,60.0258471296692,
