name,TrialNum,Word,WordCategory,FishType,WordList,WordValence,WordReputation,CorrectResp,IncorrectResp,FishTypeFile,Round,WordType,Condition,LoopforOrange.thisRepN,LoopforOrange.thisTrialN,LoopforOrange.thisN,LoopforOrange.thisIndex,OrangeInstLoop.thisRepN,OrangeInstLoop.thisTrialN,OrangeInstLoop.thisN,OrangeInstLoop.thisIndex,OrangePrac.thisRepN,OrangePrac.thisTrialN,OrangePrac.thisN,OrangePrac.thisIndex,temp1.thisRepN,temp1.thisTrialN,temp1.thisN,temp1.thisIndex,OrangeRound1.thisRepN,OrangeRound1.thisTrialN,OrangeRound1.thisN,OrangeRound1.thisIndex,OrangeRound2.thisRepN,OrangeRound2.thisTrialN,OrangeRound2.thisN,OrangeRound2.thisIndex,OrangeRound3.thisRepN,OrangeRound3.thisTrialN,OrangeRound3.thisN,OrangeRound3.thisIndex,OrangeRound4.thisRepN,OrangeRound4.thisTrialN,OrangeRound4.thisN,OrangeRound4.thisIndex,OrangeRound5.thisRepN,OrangeRound5.thisTrialN,OrangeRound5.thisN,OrangeRound5.thisIndex,LoopForGreen.thisRepN,LoopForGreen.thisTrialN,LoopForGreen.thisN,LoopForGreen.thisIndex,text_2.started,text_2.stopped,text_3.started,text_3.stopped,key_resp.keys,key_resp.rt,key_resp.started,key_resp.stopped,PassI_2.started,PassI_2.stopped,PassInst_2.keys,PassInst_2.rt,PassInst_2.started,PassInst_2.stopped,mouse_2.x,mouse_2.y,mouse_2.leftButton,mouse_2.midButton,mouse_2.rightButton,mouse_2.started,mouse_2.stopped,image.started,image.stopped,text_5.started,text_5.stopped,text_6.started,text_6.stopped,text_7.started,text_7.stopped,text_8.started,text_8.stopped,slider_2.response,slider_2.rt,slider_2.started,slider_2.stopped,Response_2,Feedback_2,BackGround_2.started,BackGround_2.stopped,Fish_2.started,Fish_2.stopped,WordBox_2.started,WordBox_2.stopped,Words_2.started,Words_2.stopped,BackGround_Feedback_2.started,BackGround_Feedback_2.stopped,Feedbacks_2.started,Feedbacks_2.stopped,Continue_or_not.keys,Continue_or_not.rt,Continue_or_not.started,Continue_or_not.stopped,image_3.started,image_3.stopped,mouse_3.x,mouse_3.y,mouse_3.leftButton,mouse_3.midButton,mouse_3.rightButton,mouse_3.started,mouse_3.stopped,startmain.started,startmain.stopped,slider.response,slider.rt,slider.started,slider.stopped,Response,Feedback,BackGround.started,BackGround.stopped,Fish.started,Fish.stopped,WordBox.started,WordBox.stopped,Words.started,Words.stopped,BackGround_Feedback.started,BackGround_Feedback.stopped,Feedbacks.started,Feedbacks.stopped,text.started,text.stopped,break_interval.started,break_interval.stopped,mouse.x,mouse.y,mouse.leftButton,mouse.midButton,mouse.rightButton,mouse.started,mouse.stopped,stratnextround.started,stratnextround.stopped,endgame.started,endgame.stopped,participant,date,expName,psychopyVersion,frameRate,
,,,,,,,,,,,,,,,,,,,,,,,,,,,,,,,,,,,,,,,,,,,,,,,,,,,,,,22.794079899998906,None,22.794079899998906,None,space,9.920901999999842,23.277805499999886,None,,,,,,,,,,,,,,,,,,,,,,,,,,,,,,,,,,,,,,,,,,,,,,,,,,,,,,,,,,,,,,,,,,,,,,,,,,,,,,,,,,,,,,,,,,221,2022-05-20_15h40.24.581,FishGame,2022.1.1,60.03810017864712,
물고기과제_instruction(참가자용)OrangeVersion.mp4,,,,,,,,,,,,,,0,0,0,0,0,0,0,0,,,,,,,,,,,,,,,,,,,,,,,,,,,,,,,,,,,,,,,,,99.52711219999946,None,n,5.732643500001359,99.52711219999946,None,,,,,,,,,,,,,,,,,,,,,,,,,,,,,,,,,,,,,,,,,,,,,,,,,,,,,,,,,,,,,,,,,,,,,,,,,,,,,,,,,,,,221,2022-05-20_15h40.24.581,FishGame,2022.1.1,60.03810017864712,
,1,넌 교활해,5,Green,B,2.333333333333333,2.133333333333333,ScrollUp,ScrollDown,Green.png,practice,,,0,0,0,0,,,,,0,0,0,0,0,0,0,0,,,,,,,,,,,,,,,,,,,,,,,,,,,,,,,,,,,,,,,0.59537035,0.34444445,1,0,0,0.513417499996649,None,105.2836299999999,None,120.7155784000006,122.21495639999921,122.24826539999958,123.19825329999912,123.24817319999966,124.19803019999927,124.19803019999927,None,1.67746914178133,1.712811999999758,125.40086060000067,None,ScrollUp,정답입니다,125.40086060000067,None,125.40086060000067,None,125.40086060000067,None,125.40086060000067,None,126.93055350000031,None,126.93055350000031,127.43073550000008,,,,,,,,,,,,,,,,,,,,,,,,,,,,,,,,,,,,,,,,,,,,,,,,,221,2022-05-20_15h40.24.581,FishGame,2022.1.1,60.03810017864712,
,2,넌 슬기로워,2,Orange,A,6.166666666666667,4.1,ScrollDown,ScrollUp,Orange.png,practice,,,0,0,0,0,,,,,0,0,0,0,0,1,1,1,,,,,,,,,,,,,,,,,,,,,,,,,,,,,,,,,,,,,,,,,,,,,,,,,,,,,,,,1.3858024676640828,1.4021902999993472,128.09477270000025,None,ScrollDown,정답입니다,128.09477270000025,None,128.09477270000025,None,128.09477270000025,None,128.09477270000025,None,129.35669880000023,None,129.35669880000023,129.86392700000033,,,,,,,,,,,,,,,,,,,,,,,,,,,,,,,,,,,,,,,,,,,,,,,,,221,2022-05-20_15h40.24.581,FishGame,2022.1.1,60.03810017864712,
,3,나를 보내줘,6,Orange,A,0,0,ScrollUp,ScrollDown,Orange.png,practice,,,0,0,0,0,,,,,0,0,0,0,0,2,2,2,,,,,,,,,,,,,,,,,,,,,,,,,,,,,,,,,,,,,,,,,,,,,,,,,,,,,,,,1.8858024626970291,1.9307513000003382,130.52488409999933,None,ScrollUp,정답입니다,130.52488409999933,None,130.52488409999933,None,130.52488409999933,None,130.52488409999933,None,132.31686509999963,None,132.31686509999963,132.8302033,,,,,,,,,,,,,,,,,,,,,,,,,,,,,,,,,,,,,,,,,,,,,,,,,221,2022-05-20_15h40.24.581,FishGame,2022.1.1,60.03810017864712,
,4,나를 데려가줘,6,Green,B,0,0,ScrollDown,ScrollUp,Green.png,practice,,,0,0,0,0,,,,,0,0,0,0,0,3,3,3,,,,,,,,,,,,,,,,,,,,,,,,,,,,,,,,,,,,,,,,,,,,,,,,,,,,,,,,1.0524691541989644,1.3150485999994999,133.48493719999897,None,ScrollDown,정답입니다,133.48493719999897,None,133.48493719999897,None,133.48493719999897,None,133.48493719999897,None,134.66881730000023,None,134.66881730000023,135.17982080000002,,,,,,,,,,,,,,,,,,,,,,,,,,,,,,,,,,,,,,,,,,,,,,,,,221,2022-05-20_15h40.24.581,FishGame,2022.1.1,60.03810017864712,
,1,넌 교활해,5,Green,B,2.333333333333333,2.133333333333333,ScrollUp,ScrollDown,Green.png,practice,,,0,0,0,0,,,,,0,0,0,0,,,,,,,,,,,,,,,,,,,,,,,,,,,,,,,,,,,,,,,,,,,,,,,,,,,,,,,,,,,,,,,,,,,,,,,,,,,,,,n,3.5230248000007123,135.67977799999971,None,135.67977799999971,None,,,,,,,,,,,,,,,,,,,,,,,,,,,,,,,,,,,,,,,,,,,221,2022-05-20_15h40.24.581,FishGame,2022.1.1,60.03810017864712,
,1,넌 따뜻해,1,Green,B,6.083333333333333,5.6,ScrollUp,ScrollDown,Green.png,1,Positive,Incongruent,0,0,0,0,,,,,,,,,,,,,0,0,0,0,,,,,,,,,,,,,,,,,,,,,,,,,,,,,,,,,,,,,,,,,,,,143.24584709999908,144.74528529999952,144.7787042,145.72861349999948,145.77852949999942,146.72841479999988,146.72841479999988,None,,,,,,,,,,,,,,,,,,,,,,,,,-0.06944445,-0.12407407,1,0,0,0.3131703999970341,None,139.2293909,None,1.7746913582086563,1.7971890999997413,147.94322739999916,None,ScrollUp,정답입니다,147.94322739999916,None,147.94322739999916,None,147.94322739999916,None,147.94322739999916,None,149.5467365000004,None,149.5467365000004,150.06125059999977,,,,,,,,,,,,,,,,221,2022-05-20_15h40.24.581,FishGame,2022.1.1,60.03810017864712,
,2,넌 기품있어,2,Green,B,5.791666666666668,4.5,ScrollUp,ScrollDown,Green.png,1,Positive,Incongruent,0,0,0,0,,,,,,,,,,,,,0,1,1,1,,,,,,,,,,,,,,,,,,,,,,,,,,,,,,,,,,,,,,,,,,,,,,,,,,,,,,,,,,,,,,,,,,,,,,,,,,,,,,,,,,,,,1.8333333383003871,1.350031800000579,150.7262085000002,None,ScrollUp,정답입니다,150.7262085000002,None,150.7262085000002,None,150.7262085000002,None,150.7262085000002,None,151.93353749999915,None,151.93353749999915,152.4441511999994,,,,,,,,,,,,,,,,221,2022-05-20_15h40.24.581,FishGame,2022.1.1,60.03810017864712,
,3,나를 보내줘,6,Orange,A,0,0,ScrollUp,ScrollDown,Orange.png,1,NonTarget,NonTarget,0,0,0,0,,,,,,,,,,,,,0,2,2,2,,,,,,,,,,,,,,,,,,,,,,,,,,,,,,,,,,,,,,,,,,,,,,,,,,,,,,,,,,,,,,,,,,,,,,,,,,,,,,,,,,,,,1.8749999900658925,1.2954952999989473,153.11500709999927,None,ScrollUp,정답입니다,153.11500709999927,None,153.11500709999927,None,153.11500709999927,None,153.11500709999927,None,154.26069859999916,None,154.26069859999916,154.7606180999992,,,,,,,,,,,,,,,,221,2022-05-20_15h40.24.581,FishGame,2022.1.1,60.03810017864712,
,4,넌 수동적이야,4,Orange,A,2.833333333333333,2.933333333333333,ScrollDown,ScrollUp,Orange.png,1,Negative,Incongruent,0,0,0,0,,,,,,,,,,,,,0,3,3,3,,,,,,,,,,,,,,,,,,,,,,,,,,,,,,,,,,,,,,,,,,,,,,,,,,,,,,,,,,,,,,,,,,,,,,,,,,,,,,,,,,,,,1.0694444576899211,1.1665111999991495,155.44000009999945,None,ScrollDown,정답입니다,155.44000009999945,None,155.44000009999945,None,155.44000009999945,None,155.44000009999945,None,156.44994179999958,None,156.44994179999958,156.96038210000006,,,,,,,,,,,,,,,,221,2022-05-20_15h40.24.581,FishGame,2022.1.1,60.03810017864712,
,5,넌 사심이 없어,3,Green,B,4.916666666666666,4.333333333333333,ScrollUp,ScrollDown,Green.png,1,Neutral,Neutral,0,0,0,0,,,,,,,,,,,,,0,4,4,4,,,,,,,,,,,,,,,,,,,,,,,,,,,,,,,,,,,,,,,,,,,,,,,,,,,,,,,,,,,,,,,,,,,,,,,,,,,,,,,,,,,,,1.8024691343307495,1.049414799999795,157.62290179999945,None,ScrollUp,정답입니다,157.62290179999945,None,157.62290179999945,None,157.62290179999945,None,157.62290179999945,None,158.53192809999928,None,158.53192809999928,159.04337130000022,,,,,,,,,,,,,,,,221,2022-05-20_15h40.24.581,FishGame,2022.1.1,60.03810017864712,
,6,넌 헤퍼,5,Orange,A,2.458333333333334,2.233333333333333,ScrollDown,ScrollUp,Orange.png,1,Negative,Incongruent,0,0,0,0,,,,,,,,,,,,,0,5,5,5,,,,,,,,,,,,,,,,,,,,,,,,,,,,,,,,,,,,,,,,,,,,,,,,,,,,,,,,,,,,,,,,,,,,,,,,,,,,,,,,,,,,,1.0987654229005177,1.1985920000006445,159.70694790000016,None,ScrollDown,정답입니다,159.70694790000016,None,159.70694790000016,None,159.70694790000016,None,159.70694790000016,None,160.7655336000007,None,160.7655336000007,161.27656070000012,,,,,,,,,,,,,,,,221,2022-05-20_15h40.24.581,FishGame,2022.1.1,60.03810017864712,
,7,넌 말쑥해,3,Orange,A,4.833333333333334,4.333333333333333,ScrollDown,ScrollUp,Orange.png,1,Neutral,Neutral,0,0,0,0,,,,,,,,,,,,,0,6,6,6,,,,,,,,,,,,,,,,,,,,,,,,,,,,,,,,,,,,,,,,,,,,,,,,,,,,,,,,,,,,,,,,,,,,,,,,,,,,,,,,,,,,,1.0046296219031017,1.1386600999994698,161.94791570000052,None,ScrollDown,정답입니다,161.94791570000052,None,161.94791570000052,None,161.94791570000052,None,161.94791570000052,None,162.93670740000016,None,162.93670740000016,163.44280669999898,,,,,,,,,,,,,,,,221,2022-05-20_15h40.24.581,FishGame,2022.1.1,60.03810017864712,
,8,넌 투덜거려,5,Green,B,2.541666666666667,2.266666666666667,ScrollUp,ScrollDown,Green.png,1,Negative,Congruent,0,0,0,0,,,,,,,,,,,,,0,7,7,7,,,,,,,,,,,,,,,,,,,,,,,,,,,,,,,,,,,,,,,,,,,,,,,,,,,,,,,,,,,,,,,,,,,,,,,,,,,,,,,,,,,,,1.89969136317571,1.1995675999987725,164.10832420000042,None,ScrollUp,정답입니다,164.10832420000042,None,164.10832420000042,None,164.10832420000042,None,164.10832420000042,None,165.16447849999895,None,165.16447849999895,165.67593750000015,,,,,,,,,,,,,,,,221,2022-05-20_15h40.24.581,FishGame,2022.1.1,60.03810017864712,
,9,넌 적극적이야,1,Orange,A,5.708333333333333,5.533333333333333,ScrollDown,ScrollUp,Orange.png,1,Positive,Congruent,0,0,0,0,,,,,,,,,,,,,0,8,8,8,,,,,,,,,,,,,,,,,,,,,,,,,,,,,,,,,,,,,,,,,,,,,,,,,,,,,,,,,,,,,,,,,,,,,,,,,,,,,,,,,,,,,1.0277777810891469,1.176281600000948,166.3398569000001,None,ScrollDown,정답입니다,166.3398569000001,None,166.3398569000001,None,166.3398569000001,None,166.3398569000001,None,167.37589479999951,None,167.37589479999951,167.87562620000062,,,,,,,,,,,,,,,,221,2022-05-20_15h40.24.581,FishGame,2022.1.1,60.03810017864712,
,10,넌 재미없어,4,Green,B,2.625,2.966666666666667,ScrollUp,ScrollDown,Green.png,1,Negative,Congruent,0,0,0,0,,,,,,,,,,,,,0,9,9,9,,,,,,,,,,,,,,,,,,,,,,,,,,,,,,,,,,,,,,,,,,,,,,,,,,,,,,,,,,,,,,,,,,,,,,,,,,,,,,,,,,,,,1.7453703681627908,0.9836434000008012,168.53552970000055,None,ScrollUp,정답입니다,168.53552970000055,None,168.53552970000055,None,168.53552970000055,None,168.53552970000055,None,169.38193800000045,None,169.38193800000045,169.89214790000005,,,,,,,,,,,,,,,,221,2022-05-20_15h40.24.581,FishGame,2022.1.1,60.03810017864712,
,11,넌 명석해,2,Orange,A,5.875,4.033333333333333,ScrollDown,ScrollUp,Orange.png,1,Positive,Congruent,0,0,0,0,,,,,,,,,,,,,0,10,10,10,,,,,,,,,,,,,,,,,,,,,,,,,,,,,,,,,,,,,,,,,,,,,,,,,,,,,,,,,,,,,,,,,,,,,,,,,,,,,,,,,,,,,1.0154321193695068,0.9335382999997819,170.55681390000063,None,ScrollDown,정답입니다,170.55681390000063,None,170.55681390000063,None,170.55681390000063,None,170.55681390000063,None,171.34782789999917,None,171.34782789999917,171.85843939999904,,,,,,,,,,,,,,,,221,2022-05-20_15h40.24.581,FishGame,2022.1.1,60.03810017864712,
,12,나를 데려가줘,6,Green,B,0,0,ScrollDown,ScrollUp,Green.png,1,NonTarget,NonTarget,0,0,0,0,,,,,,,,,,,,,0,11,11,11,,,,,,,,,,,,,,,,,,,,,,,,,,,,,,,,,,,,,,,,,,,,,,,,,,,,,,,,,,,,,,,,,,,,,,,,,,,,,,,,,,,,,1,1.2029175000006944,172.5177779000005,None,ScrollDown,정답입니다,172.5177779000005,None,172.5177779000005,None,172.5177779000005,None,172.5177779000005,None,173.5828889000004,None,173.5828889000004,174.0914969000005,,,,,,,,,,,,,,,,221,2022-05-20_15h40.24.581,FishGame,2022.1.1,60.03810017864712,
,13,넌 소심해,4,Orange,A,3,3.1,ScrollDown,ScrollUp,Orange.png,1,Negative,Incongruent,0,0,0,0,,,,,,,,,,,,,0,12,12,12,,,,,,,,,,,,,,,,,,,,,,,,,,,,,,,,,,,,,,,,,,,,,,,,,,,,,,,,,,,,,,,,,,,,,,,,,,,,,,,,,,,,,1.0679012437661488,1.0728548000006413,174.75250980000055,None,ScrollDown,정답입니다,174.75250980000055,None,174.75250980000055,None,174.75250980000055,None,174.75250980000055,None,175.68534329999966,None,175.68534329999966,176.19123600000057,,,,,,,,,,,,,,,,221,2022-05-20_15h40.24.581,FishGame,2022.1.1,60.03810017864712,
,14,넌 합리적이야,2,Orange,A,5.583333333333333,4.733333333333333,ScrollDown,ScrollUp,Orange.png,1,Positive,Congruent,0,0,0,0,,,,,,,,,,,,,0,13,13,13,,,,,,,,,,,,,,,,,,,,,,,,,,,,,,,,,,,,,,,,,,,,,,,,,,,,,,,,,,,,,,,,,,,,,,,,,,,,,,,,,,,,,1.1111111094554265,0.9654193999995186,176.85866759999954,None,ScrollDown,정답입니다,176.85866759999954,None,176.85866759999954,None,176.85866759999954,None,176.85866759999954,None,177.680550699999,None,177.680550699999,178.19096739999986,,,,,,,,,,,,,,,,221,2022-05-20_15h40.24.581,FishGame,2022.1.1,60.03810017864712,
,15,넌 무자비해,5,Green,B,2.333333333333333,2.1,ScrollUp,ScrollDown,Green.png,1,Negative,Congruent,0,0,0,0,,,,,,,,,,,,,0,14,14,14,,,,,,,,,,,,,,,,,,,,,,,,,,,,,,,,,,,,,,,,,,,,,,,,,,,,,,,,,,,,,,,,,,,,,,,,,,,,,,,,,,,,,2,1.4148604999991221,178.85237039999993,None,ScrollUp,정답입니다,178.85237039999993,None,178.85237039999993,None,178.85237039999993,None,178.85237039999993,None,180.1275497000006,None,180.1275497000006,180.64053400000012,,,,,,,,,,,,,,,,221,2022-05-20_15h40.24.581,FishGame,2022.1.1,60.03810017864712,
,16,나를 보내줘,6,Orange,A,0,0,ScrollUp,ScrollDown,Orange.png,1,NonTarget,NonTarget,0,0,0,0,,,,,,,,,,,,,0,15,15,15,,,,,,,,,,,,,,,,,,,,,,,,,,,,,,,,,,,,,,,,,,,,,,,,,,,,,,,,,,,,,,,,,,,,,,,,,,,,,,,,,,,,,1.8688271592060726,1.3524082000003546,181.2964338999991,None,ScrollUp,정답입니다,181.2964338999991,None,181.2964338999991,None,181.2964338999991,None,181.2964338999991,None,182.5146206999998,None,182.5146206999998,183.02367830000003,,,,,,,,,,,,,,,,221,2022-05-20_15h40.24.581,FishGame,2022.1.1,60.03810017864712,
,17,넌 현실적이야,3,Green,B,4.608695652173913,4.766666666666667,ScrollUp,ScrollDown,Green.png,1,Neutral,Neutral,0,0,0,0,,,,,,,,,,,,,0,16,16,16,,,,,,,,,,,,,,,,,,,,,,,,,,,,,,,,,,,,,,,,,,,,,,,,,,,,,,,,,,,,,,,,,,,,,,,,,,,,,,,,,,,,,1.0308642089366913,1.1808259999997972,183.68451839999943,None,ScrollDown,오답입니다,183.68451839999943,None,183.68451839999943,None,183.68451839999943,None,183.68451839999943,None,184.73084319999907,None,184.73084319999907,185.24003059999995,,,,,,,,,,,,,,,,221,2022-05-20_15h40.24.581,FishGame,2022.1.1,60.03810017864712,
,18,넌 의리있어,1,Green,B,5.833333333333334,5.633333333333334,ScrollUp,ScrollDown,Green.png,1,Positive,Incongruent,0,0,0,0,,,,,,,,,,,,,0,17,17,17,,,,,,,,,,,,,,,,,,,,,,,,,,,,,,,,,,,,,,,,,,,,,,,,,,,,,,,,,,,,,,,,,,,,,,,,,,,,,,,,,,,,,2,1.1199147999996057,185.89778669999941,None,ScrollUp,정답입니다,185.89778669999941,None,185.89778669999941,None,185.89778669999941,None,185.89778669999941,None,186.88268120000066,None,186.88268120000066,187.3897352999993,,,,,,,,,,,,,,,,221,2022-05-20_15h40.24.581,FishGame,2022.1.1,60.03810017864712,
,19,넌 신경과민이야,5,Orange,A,2.541666666666667,2.166666666666667,ScrollDown,ScrollUp,Orange.png,1,Negative,Incongruent,0,0,0,0,,,,,,,,,,,,,0,18,18,18,,,,,,,,,,,,,,,,,,,,,,,,,,,,,,,,,,,,,,,,,,,,,,,,,,,,,,,,,,,,,,,,,,,,,,,,,,,,,,,,,,,,,1,1.0850104999990435,188.06549069999892,None,ScrollDown,정답입니다,188.06549069999892,None,188.06549069999892,None,188.06549069999892,None,188.06549069999892,None,188.99636680000003,None,188.99636680000003,189.50616140000056,,,,,,,,,,,,,,,,221,2022-05-20_15h40.24.581,FishGame,2022.1.1,60.03810017864712,
,20,넌 편안해,1,Orange,A,5.916666666666666,5.866666666666666,ScrollDown,ScrollUp,Orange.png,1,Positive,Congruent,0,0,0,0,,,,,,,,,,,,,0,19,19,19,,,,,,,,,,,,,,,,,,,,,,,,,,,,,,,,,,,,,,,,,,,,,,,,,,,,,,,,,,,,,,,,,,,,,,,,,,,,,,,,,,,,,1,1.244309699999576,190.1705239999992,None,ScrollDown,정답입니다,190.1705239999992,None,190.1705239999992,None,190.1705239999992,None,190.1705239999992,None,191.27272719999928,None,191.27272719999928,191.77261840000028,,,,,,,,,,,,,,,,221,2022-05-20_15h40.24.581,FishGame,2022.1.1,60.03810017864712,
,21,넌 품위있어,2,Green,B,5.291666666666666,4.466666666666667,ScrollUp,ScrollDown,Green.png,1,Positive,Incongruent,0,0,0,0,,,,,,,,,,,,,0,20,20,20,,,,,,,,,,,,,,,,,,,,,,,,,,,,,,,,,,,,,,,,,,,,,,,,,,,,,,,,,,,,,,,,,,,,,,,,,,,,,,,,,,,,,1.7361111094554267,1.182834000001094,192.42713980000008,None,ScrollUp,정답입니다,192.42713980000008,None,192.42713980000008,None,192.42713980000008,None,192.42713980000008,None,193.47849119999955,None,193.47849119999955,193.98881549999896,,,,,,,,,,,,,,,,221,2022-05-20_15h40.24.581,FishGame,2022.1.1,60.03810017864712,
,22,넌 빈틈없어,3,Orange,A,4.833333333333333,3.966666666666667,ScrollDown,ScrollUp,Orange.png,1,Neutral,Neutral,0,0,0,0,,,,,,,,,,,,,0,21,21,21,,,,,,,,,,,,,,,,,,,,,,,,,,,,,,,,,,,,,,,,,,,,,,,,,,,,,,,,,,,,,,,,,,,,,,,,,,,,,,,,,,,,,1.0679012437661488,1.0725837999998475,194.65396449999935,None,ScrollDown,정답입니다,194.65396449999935,None,194.65396449999935,None,194.65396449999935,None,194.65396449999935,None,195.58889049999925,None,195.58889049999925,196.08867219999956,,,,,,,,,,,,,,,,221,2022-05-20_15h40.24.581,FishGame,2022.1.1,60.03810017864712,
,23,넌 상상력없어,4,Green,B,2.833333333333333,3.133333333333333,ScrollUp,ScrollDown,Green.png,1,Negative,Congruent,0,0,0,0,,,,,,,,,,,,,0,22,22,22,,,,,,,,,,,,,,,,,,,,,,,,,,,,,,,,,,,,,,,,,,,,,,,,,,,,,,,,,,,,,,,,,,,,,,,,,,,,,,,,,,,,,1.7932098756233852,0.9983677000000171,196.74781389999953,None,ScrollUp,정답입니다,196.74781389999953,None,196.74781389999953,None,196.74781389999953,None,196.74781389999953,None,197.61043909999898,None,197.61043909999898,198.12162779999926,,,,,,,,,,,,,,,,221,2022-05-20_15h40.24.581,FishGame,2022.1.1,60.03810017864712,
,24,넌 지혜로워,2,Green,B,6.333333333333334,4.633333333333334,ScrollUp,ScrollDown,Green.png,1,Positive,Incongruent,0,0,0,0,,,,,,,,,,,,,0,23,23,23,,,,,,,,,,,,,,,,,,,,,,,,,,,,,,,,,,,,,,,,,,,,,,,,,,,,,,,,,,,,,,,,,,,,,,,,,,,,,,,,,,,,,1.904320980111758,1.1461925000003248,198.7833441999992,None,ScrollUp,정답입니다,198.7833441999992,None,198.7833441999992,None,198.7833441999992,None,198.7833441999992,None,199.7882253000007,None,199.7882253000007,200.28802519999954,,,,,,,,,,,,,,,,221,2022-05-20_15h40.24.581,FishGame,2022.1.1,60.03810017864712,
,25,넌 시끄러워,4,Orange,A,2.833333333333333,3.033333333333333,ScrollDown,ScrollUp,Orange.png,1,Negative,Incongruent,0,0,0,0,,,,,,,,,,,,,0,24,24,24,,,,,,,,,,,,,,,,,,,,,,,,,,,,,,,,,,,,,,,,,,,,,,,,,,,,,,,,,,,,,,,,,,,,,,,,,,,,,,,,,,,,,1.1450617164373398,1.0499773999999888,200.9563388000006,None,ScrollDown,정답입니다,200.9563388000006,None,200.9563388000006,None,200.9563388000006,None,200.9563388000006,None,201.86118589999933,None,201.86118589999933,202.3711893999989,,,,,,,,,,,,,,,,221,2022-05-20_15h40.24.581,FishGame,2022.1.1,60.03810017864712,
,26,넌 만사태평이야,3,Green,B,4,4.333333333333333,ScrollUp,ScrollDown,Green.png,1,Neutral,Neutral,0,0,0,0,,,,,,,,,,,,,0,25,25,25,,,,,,,,,,,,,,,,,,,,,,,,,,,,,,,,,,,,,,,,,,,,,,,,,,,,,,,,,,,,,,,,,,,,,,,,,,,,,,,,,,,,,1.5787037052214146,1.0113718000011431,203.03671500000019,None,ScrollUp,정답입니다,203.03671500000019,None,203.03671500000019,None,203.03671500000019,None,203.03671500000019,None,203.90626209999937,None,203.90626209999937,204.42090889999963,,,,,,,,,,,,,,,,221,2022-05-20_15h40.24.581,FishGame,2022.1.1,60.03810017864712,
,27,넌 붙임성있어,1,Orange,A,5.708333333333333,5.633333333333334,ScrollDown,ScrollUp,Orange.png,1,Positive,Congruent,0,0,0,0,,,,,,,,,,,,,0,26,26,26,,,,,,,,,,,,,,,,,,,,,,,,,,,,,,,,,,,,,,,,,,,,,,,,,,,,,,,,,,,,,,,,,,,,,,,,,,,,,,,,,,,,,1.3086419701576233,1.0276009999997768,205.08727890000046,None,ScrollDown,정답입니다,205.08727890000046,None,205.08727890000046,None,205.08727890000046,None,205.08727890000046,None,205.97086149999996,None,205.97086149999996,206.47062749999895,,,,,,,,,,,,,,,,221,2022-05-20_15h40.24.581,FishGame,2022.1.1,60.03810017864712,
,28,넌 영리해,2,Orange,A,6,4.033333333333333,ScrollDown,ScrollUp,Orange.png,1,Positive,Congruent,0,0,0,0,,,,,,,,,,,,,0,27,27,27,,,,,,,,,,,,,,,,,,,,,,,,,,,,,,,,,,,,,,,,,,,,,,,,,,,,,,,,,,,,,,,,,,,,,,,,,,,,,,,,,,,,,1.0354938507080078,0.9936336999999185,207.13166610000007,None,ScrollDown,정답입니다,207.13166610000007,None,207.13166610000007,None,207.13166610000007,None,207.13166610000007,None,207.9872422999997,None,207.9872422999997,208.4870437999998,,,,,,,,,,,,,,,,221,2022-05-20_15h40.24.581,FishGame,2022.1.1,60.03810017864712,
,29,넌 열심이야,1,Green,B,6.041666666666667,5.833333333333333,ScrollUp,ScrollDown,Green.png,1,Positive,Incongruent,0,0,0,0,,,,,,,,,,,,,0,28,28,28,,,,,,,,,,,,,,,,,,,,,,,,,,,,,,,,,,,,,,,,,,,,,,,,,,,,,,,,,,,,,,,,,,,,,,,,,,,,,,,,,,,,,1.8163580348094304,1.3122358000000531,209.14320319999933,None,ScrollUp,정답입니다,209.14320319999933,None,209.14320319999933,None,209.14320319999933,None,209.14320319999933,None,210.32223599999998,None,210.32223599999998,210.83677779999925,,,,,,,,,,,,,,,,221,2022-05-20_15h40.24.581,FishGame,2022.1.1,60.03810017864712,
,30,넌 인기없어,4,Green,B,3,3.3,ScrollUp,ScrollDown,Green.png,1,Negative,Congruent,0,0,0,0,,,,,,,,,,,,,0,29,29,29,,,,,,,,,,,,,,,,,,,,,,,,,,,,,,,,,,,,,,,,,,,,,,,,,,,,,,,,,,,,,,,,,,,,,,,,,,,,,,,,,,,,,1.7546296268701553,1.3153280999995332,211.49619259999963,None,ScrollUp,정답입니다,211.49619259999963,None,211.49619259999963,None,211.49619259999963,None,211.49619259999963,None,212.67544929999895,None,212.67544929999895,213.1865433999992,,,,,,,,,,,,,,,,221,2022-05-20_15h40.24.581,FishGame,2022.1.1,60.03810017864712,
,31,넌 익살스러워,3,Orange,A,4.708333333333334,4.833333333333333,ScrollDown,ScrollUp,Orange.png,1,Neutral,Neutral,0,0,0,0,,,,,,,,,,,,,0,30,30,30,,,,,,,,,,,,,,,,,,,,,,,,,,,,,,,,,,,,,,,,,,,,,,,,,,,,,,,,,,,,,,,,,,,,,,,,,,,,,,,,,,,,,1.0709876716136932,1.2311733000005916,213.85444749999988,None,ScrollDown,정답입니다,213.85444749999988,None,213.85444749999988,None,213.85444749999988,None,213.85444749999988,None,214.93988999999965,None,214.93988999999965,215.45296430000053,,,,,,,,,,,,,,,,221,2022-05-20_15h40.24.581,FishGame,2022.1.1,60.03810017864712,
,32,넌 이기적이야,5,Green,B,2.291666666666667,2.333333333333333,ScrollUp,ScrollDown,Green.png,1,Negative,Congruent,0,0,0,0,,,,,,,,,,,,,0,31,31,31,,,,,,,,,,,,,,,,,,,,,,,,,,,,,,,,,,,,,,,,,,,,,,,,,,,,,,,,,,,,,,,,,,,,,,,,,,,,,,,,,,,,,1.7685185273488362,1.0434411999995064,216.09760760000063,None,ScrollUp,정답입니다,216.09760760000063,None,216.09760760000063,None,216.09760760000063,None,216.09760760000063,None,217.0193378999993,None,217.0193378999993,217.51921240000047,,,,,,,,,,,,,,,,221,2022-05-20_15h40.24.581,FishGame,2022.1.1,60.03810017864712,
,33,나를 데려가줘,6,Green,B,0,0,ScrollDown,ScrollUp,Green.png,1,NonTarget,NonTarget,0,0,0,0,,,,,,,,,,,,,0,32,32,32,,,,,,,,,,,,,,,,,,,,,,,,,,,,,,,,,,,,,,,,,,,,,,,,,,,,,,,,,,,,,,,,,,,,,,,,,,,,,,,,,,,,,1,1.515564600000289,218.1705404000004,None,ScrollDown,정답입니다,218.1705404000004,None,218.1705404000004,None,218.1705404000004,None,218.1705404000004,None,219.55760229999942,None,219.55760229999942,220.0687966000005,,,,,,,,,,,,,,,,221,2022-05-20_15h40.24.581,FishGame,2022.1.1,60.03810017864712,
,34,넌 기회주의자야,5,Orange,A,2.875,2.133333333333333,ScrollDown,ScrollUp,Orange.png,1,Negative,Incongruent,0,0,0,0,,,,,,,,,,,,,0,33,33,33,,,,,,,,,,,,,,,,,,,,,,,,,,,,,,,,,,,,,,,,,,,,,,,,,,,,,,,,,,,,,,,,,,,,,,,,,,,,,,,,,,,,,1.2453703731298447,1.5218815000007453,220.73664250000002,None,ScrollDown,정답입니다,220.73664250000002,None,220.73664250000002,None,220.73664250000002,None,220.73664250000002,None,222.1184646999991,None,222.1184646999991,222.61846440000045,,,,,,,,,,,,,,,,221,2022-05-20_15h40.24.581,FishGame,2022.1.1,60.03810017864712,
,1,넌 미성숙해,4,Orange,A,3,3.2,ScrollDown,ScrollUp,Orange.png,2,Negative,Incongruent,0,0,0,0,,,,,,,,,,,,,,,,,0,0,0,0,,,,,,,,,,,,,,,,,,,,,,,,,,,,,,,,,,,,,,,,260.8807068999995,262.3802080000005,262.41367999999966,263.36353749999944,263.4134563000007,264.36338029999933,264.36338029999933,None,,,,,,,,,,,,,,,,,,,,,,,,,,,,,,,,,,1,1.5770696999989013,265.5474586,None,ScrollDown,정답입니다,265.5474586,None,265.5474586,None,265.5474586,None,265.5474586,None,266.9527670999996,None,266.9527670999996,267.46269570000004,223.11849299999994,None,223.11849299999994,None,0.2787037,-0.11111111,1,0,0,0.01607250000051863,None,253.13134209999953,None,,,221,2022-05-20_15h40.24.581,FishGame,2022.1.1,60.03810017864712,
,2,넌 반사회적이야,5,Green,B,2.416666666666667,2.033333333333333,ScrollUp,ScrollDown,Green.png,2,Negative,Congruent,0,0,0,0,,,,,,,,,,,,,,,,,0,1,1,1,,,,,,,,,,,,,,,,,,,,,,,,,,,,,,,,,,,,,,,,,,,,,,,,,,,,,,,,,,,,,,,,,,,,,,,,,,,,,,,,,1.5817901206513247,1.02706439999929,268.1212042999996,None,ScrollUp,정답입니다,268.1212042999996,None,268.1212042999996,None,268.1212042999996,None,268.1212042999996,None,269.0146115999996,None,269.0146115999996,269.5291950999999,,,,,,,,,,,,,,,,221,2022-05-20_15h40.24.581,FishGame,2022.1.1,60.03810017864712,
,3,넌 유능해,2,Orange,A,6.208333333333333,4.433333333333334,ScrollDown,ScrollUp,Orange.png,2,Positive,Congruent,0,0,0,0,,,,,,,,,,,,,,,,,0,2,2,2,,,,,,,,,,,,,,,,,,,,,,,,,,,,,,,,,,,,,,,,,,,,,,,,,,,,,,,,,,,,,,,,,,,,,,,,,,,,,,,,,1.180555562178294,1.1289089000001695,270.19316919999983,None,ScrollDown,정답입니다,270.19316919999983,None,270.19316919999983,None,270.19316919999983,None,270.19316919999983,None,271.1792243,None,271.1792243,271.6788637999998,,,,,,,,,,,,,,,,221,2022-05-20_15h40.24.581,FishGame,2022.1.1,60.03810017864712,
,4,넌 능숙해,2,Green,B,5.666666666666667,4.733333333333333,ScrollUp,ScrollDown,Green.png,2,Positive,Incongruent,0,0,0,0,,,,,,,,,,,,,,,,,0,3,3,3,,,,,,,,,,,,,,,,,,,,,,,,,,,,,,,,,,,,,,,,,,,,,,,,,,,,,,,,,,,,,,,,,,,,,,,,,,,,,,,,,1.825617293516795,0.9203392999988864,272.3287356000001,None,ScrollUp,정답입니다,272.3287356000001,None,272.3287356000001,None,272.3287356000001,None,272.3287356000001,None,273.1217037999995,None,273.1217037999995,273.6286911999996,,,,,,,,,,,,,,,,221,2022-05-20_15h40.24.581,FishGame,2022.1.1,60.03810017864712,
,5,넌 진부해,4,Green,B,2.458333333333333,3.166666666666667,ScrollUp,ScrollDown,Green.png,2,Negative,Congruent,0,0,0,0,,,,,,,,,,,,,,,,,0,4,4,4,,,,,,,,,,,,,,,,,,,,,,,,,,,,,,,,,,,,,,,,,,,,,,,,,,,,,,,,,,,,,,,,,,,,,,,,,,,,,,,,,1.7962963034709294,1.1621216999992612,274.2874310999996,None,ScrollUp,정답입니다,274.2874310999996,None,274.2874310999996,None,274.2874310999996,None,274.2874310999996,None,275.31442160000006,None,275.31442160000006,275.8282462999996,,,,,,,,,,,,,,,,221,2022-05-20_15h40.24.581,FishGame,2022.1.1,60.03810017864712,
,6,나를 보내줘,6,Orange,A,0,0,ScrollUp,ScrollDown,Orange.png,2,NonTarget,NonTarget,0,0,0,0,,,,,,,,,,,,,,,,,0,5,5,5,,,,,,,,,,,,,,,,,,,,,,,,,,,,,,,,,,,,,,,,,,,,,,,,,,,,,,,,,,,,,,,,,,,,,,,,,,,,,,,,,1,0.9513384000001679,276.48298199999954,None,ScrollDown,오답입니다,276.48298199999954,None,276.48298199999954,None,276.48298199999954,None,276.48298199999954,None,277.3027144000007,None,277.3027144000007,277.81139489999987,,,,,,,,,,,,,,,,221,2022-05-20_15h40.24.581,FishGame,2022.1.1,60.03810017864712,
,7,넌 엄격해,3,Orange,A,4.166666666666666,4.1,ScrollDown,ScrollUp,Orange.png,2,Neutral,Neutral,0,0,0,0,,,,,,,,,,,,,,,,,0,6,6,6,,,,,,,,,,,,,,,,,,,,,,,,,,,,,,,,,,,,,,,,,,,,,,,,,,,,,,,,,,,,,,,,,,,,,,,,,,,,,,,,,1.1234567960103352,1.409630100000868,278.4753939000002,None,ScrollDown,정답입니다,278.4753939000002,None,278.4753939000002,None,278.4753939000002,None,278.4753939000002,None,279.74022759999934,None,279.74022759999934,280.2444914000007,,,,,,,,,,,,,,,,221,2022-05-20_15h40.24.581,FishGame,2022.1.1,60.03810017864712,
,8,나를 보내줘,6,Orange,A,0,0,ScrollUp,ScrollDown,Orange.png,2,NonTarget,NonTarget,0,0,0,0,,,,,,,,,,,,,,,,,0,7,7,7,,,,,,,,,,,,,,,,,,,,,,,,,,,,,,,,,,,,,,,,,,,,,,,,,,,,,,,,,,,,,,,,,,,,,,,,,,,,,,,,,1.9320987562338512,1.0733301999989635,280.89524580000034,None,ScrollUp,정답입니다,280.89524580000034,None,280.89524580000034,None,280.89524580000034,None,280.89524580000034,None,281.8440620000001,None,281.8440620000001,282.34412560000055,,,,,,,,,,,,,,,,221,2022-05-20_15h40.24.581,FishGame,2022.1.1,60.03810017864712,
,9,넌 대담해,3,Green,B,4.875,4.866666666666666,ScrollUp,ScrollDown,Green.png,2,Neutral,Neutral,0,0,0,0,,,,,,,,,,,,,,,,,0,8,8,8,,,,,,,,,,,,,,,,,,,,,,,,,,,,,,,,,,,,,,,,,,,,,,,,,,,,,,,,,,,,,,,,,,,,,,,,,,,,,,,,,1.837962955236435,1.4657139999999345,283.00471149999976,None,ScrollUp,정답입니다,283.00471149999976,None,283.00471149999976,None,283.00471149999976,None,283.00471149999976,None,284.33323109999947,None,284.33323109999947,284.8440193000006,,,,,,,,,,,,,,,,221,2022-05-20_15h40.24.581,FishGame,2022.1.1,60.03810017864712,
,10,넌 꾸준해,1,Orange,A,5.916666666666668,5.8,ScrollDown,ScrollUp,Orange.png,2,Positive,Congruent,0,0,0,0,,,,,,,,,,,,,,,,,0,9,9,9,,,,,,,,,,,,,,,,,,,,,,,,,,,,,,,,,,,,,,,,,,,,,,,,,,,,,,,,,,,,,,,,,,,,,,,,,,,,,,,,,1,1.408333400000629,285.50177880000047,None,ScrollDown,정답입니다,285.50177880000047,None,285.50177880000047,None,285.50177880000047,None,285.50177880000047,None,286.7772418000004,None,286.7772418000004,287.27692190000016,,,,,,,,,,,,,,,,221,2022-05-20_15h40.24.581,FishGame,2022.1.1,60.03810017864712,
,11,나를 데려가줘,6,Green,B,0,0,ScrollDown,ScrollUp,Green.png,2,NonTarget,NonTarget,0,0,0,0,,,,,,,,,,,,,,,,,0,10,10,10,,,,,,,,,,,,,,,,,,,,,,,,,,,,,,,,,,,,,,,,,,,,,,,,,,,,,,,,,,,,,,,,,,,,,,,,,,,,,,,,,1,1.350257899999633,287.9301190999995,None,ScrollDown,정답입니다,287.9301190999995,None,287.9301190999995,None,287.9301190999995,None,287.9301190999995,None,289.1490869999998,None,289.1490869999998,289.65984129999924,,,,,,,,,,,,,,,,221,2022-05-20_15h40.24.581,FishGame,2022.1.1,60.03810017864712,
,12,넌 독선적이야,5,Orange,A,2.458333333333333,1.933333333333333,ScrollDown,ScrollUp,Orange.png,2,Negative,Incongruent,0,0,0,0,,,,,,,,,,,,,,,,,0,11,11,11,,,,,,,,,,,,,,,,,,,,,,,,,,,,,,,,,,,,,,,,,,,,,,,,,,,,,,,,,,,,,,,,,,,,,,,,,,,,,,,,,1.1141975373029709,1.261656499998935,290.3279989999992,None,ScrollDown,정답입니다,290.3279989999992,None,290.3279989999992,None,290.3279989999992,None,290.3279989999992,None,291.4431934000004,None,291.4431934000004,291.9429177000002,,,,,,,,,,,,,,,,221,2022-05-20_15h40.24.581,FishGame,2022.1.1,60.03810017864712,
,13,나를 보내줘,6,Orange,A,0,0,ScrollUp,ScrollDown,Orange.png,2,NonTarget,NonTarget,0,0,0,0,,,,,,,,,,,,,,,,,0,12,12,12,,,,,,,,,,,,,,,,,,,,,,,,,,,,,,,,,,,,,,,,,,,,,,,,,,,,,,,,,,,,,,,,,,,,,,,,,,,,,,,,,1.9413580397764842,1.1513422999996692,292.59910149999996,None,ScrollUp,정답입니다,292.59910149999996,None,292.59910149999996,None,292.59910149999996,None,292.59910149999996,None,293.6156902999992,None,293.6156902999992,294.1259857999994,,,,,,,,,,,,,,,,221,2022-05-20_15h40.24.581,FishGame,2022.1.1,60.03810017864712,
,14,넌 책임감있어,1,Green,B,6.347826086956522,6,ScrollUp,ScrollDown,Green.png,2,Positive,Incongruent,0,0,0,0,,,,,,,,,,,,,,,,,0,13,13,13,,,,,,,,,,,,,,,,,,,,,,,,,,,,,,,,,,,,,,,,,,,,,,,,,,,,,,,,,,,,,,,,,,,,,,,,,,,,,,,,,1.8950617214043934,1.217778600001111,294.7846783999994,None,ScrollUp,정답입니다,294.7846783999994,None,294.7846783999994,None,294.7846783999994,None,294.7846783999994,None,295.86571249999906,None,295.86571249999906,296.3756472999994,,,,,,,,,,,,,,,,221,2022-05-20_15h40.24.581,FishGame,2022.1.1,60.03810017864712,
,15,넌 문학적이야,3,Orange,A,4.708333333333334,4.333333333333333,ScrollDown,ScrollUp,Orange.png,2,Neutral,Neutral,0,0,0,0,,,,,,,,,,,,,,,,,0,14,14,14,,,,,,,,,,,,,,,,,,,,,,,,,,,,,,,,,,,,,,,,,,,,,,,,,,,,,,,,,,,,,,,,,,,,,,,,,,,,,,,,,1.160493830839793,1.1781286999994336,297.03995120000036,None,ScrollDown,정답입니다,297.03995120000036,None,297.03995120000036,None,297.03995120000036,None,297.03995120000036,None,298.07236960000046,None,298.07236960000046,298.5754147000007,,,,,,,,,,,,,,,,221,2022-05-20_15h40.24.581,FishGame,2022.1.1,60.03810017864712,
,16,넌 재미있어,1,Green,B,5.875,5.7,ScrollUp,ScrollDown,Green.png,2,Positive,Incongruent,0,0,0,0,,,,,,,,,,,,,,,,,0,15,15,15,,,,,,,,,,,,,,,,,,,,,,,,,,,,,,,,,,,,,,,,,,,,,,,,,,,,,,,,,,,,,,,,,,,,,,,,,,,,,,,,,1.5586419738829136,1.0430104000006395,299.2285413999998,None,ScrollUp,정답입니다,299.2285413999998,None,299.2285413999998,None,299.2285413999998,None,299.2285413999998,None,300.1372491000002,None,300.1372491000002,300.6417934000001,,,,,,,,,,,,,,,,221,2022-05-20_15h40.24.581,FishGame,2022.1.1,60.03810017864712,
,17,나를 데려가줘,6,Green,B,0,0,ScrollDown,ScrollUp,Green.png,2,NonTarget,NonTarget,0,0,0,0,,,,,,,,,,,,,,,,,0,16,16,16,,,,,,,,,,,,,,,,,,,,,,,,,,,,,,,,,,,,,,,,,,,,,,,,,,,,,,,,,,,,,,,,,,,,,,,,,,,,,,,,,1.1095678955316544,1.1678671000008762,301.2943878999995,None,ScrollDown,정답입니다,301.2943878999995,None,301.2943878999995,None,301.2943878999995,None,301.2943878999995,None,302.3315132000007,None,302.3315132000007,302.84150319999935,,,,,,,,,,,,,,,,221,2022-05-20_15h40.24.581,FishGame,2022.1.1,60.03810017864712,
,18,넌 협력적이야,1,Orange,A,5.625,5.633333333333334,ScrollDown,ScrollUp,Orange.png,2,Positive,Congruent,0,0,0,0,,,,,,,,,,,,,,,,,0,17,17,17,,,,,,,,,,,,,,,,,,,,,,,,,,,,,,,,,,,,,,,,,,,,,,,,,,,,,,,,,,,,,,,,,,,,,,,,,,,,,,,,,1.2993827114502587,1.08286919999955,303.5120277999995,None,ScrollDown,정답입니다,303.5120277999995,None,303.5120277999995,None,303.5120277999995,None,303.5120277999995,None,304.4478349000001,None,304.4478349000001,304.95785760000035,,,,,,,,,,,,,,,,221,2022-05-20_15h40.24.581,FishGame,2022.1.1,60.03810017864712,
,19,넌 평범해,3,Green,B,4.333333333333332,4.233333333333333,ScrollUp,ScrollDown,Green.png,2,Neutral,Neutral,0,0,0,0,,,,,,,,,,,,,,,,,0,18,18,18,,,,,,,,,,,,,,,,,,,,,,,,,,,,,,,,,,,,,,,,,,,,,,,,,,,,,,,,,,,,,,,,,,,,,,,,,,,,,,,,,1.8148148208856583,1.1031560999999783,305.61397450000004,None,ScrollUp,정답입니다,305.61397450000004,None,305.61397450000004,None,305.61397450000004,None,305.61397450000004,None,306.5826032999994,None,306.5826032999994,307.0909365000007,,,,,,,,,,,,,,,,221,2022-05-20_15h40.24.581,FishGame,2022.1.1,60.03810017864712,
,20,넌 오만해,5,Orange,A,2.333333333333333,2,ScrollDown,ScrollUp,Orange.png,2,Negative,Incongruent,0,0,0,0,,,,,,,,,,,,,,,,,0,19,19,19,,,,,,,,,,,,,,,,,,,,,,,,,,,,,,,,,,,,,,,,,,,,,,,,,,,,,,,,,,,,,,,,,,,,,,,,,,,,,,,,,1.1496913582086563,1.1502352000006795,307.75008479999997,None,ScrollDown,정답입니다,307.75008479999997,None,307.75008479999997,None,307.75008479999997,None,307.75008479999997,None,308.7633117000005,None,308.7633117000005,309.27398899999935,,,,,,,,,,,,,,,,221,2022-05-20_15h40.24.581,FishGame,2022.1.1,60.03810017864712,
,21,넌 운이없어,4,Green,B,3,3.466666666666667,ScrollUp,ScrollDown,Green.png,2,Negative,Congruent,0,0,0,0,,,,,,,,,,,,,,,,,0,20,20,20,,,,,,,,,,,,,,,,,,,,,,,,,,,,,,,,,,,,,,,,,,,,,,,,,,,,,,,,,,,,,,,,,,,,,,,,,,,,,,,,,1.746913582086563,1.1679242999998678,309.9269958999994,None,ScrollUp,정답입니다,309.9269958999994,None,309.9269958999994,None,309.9269958999994,None,309.9269958999994,None,310.96391799999947,None,310.96391799999947,311.4738225000001,,,,,,,,,,,,,,,,221,2022-05-20_15h40.24.581,FishGame,2022.1.1,60.03810017864712,
,22,넌 창조적이야,2,Green,B,6.125,4.633333333333334,ScrollUp,ScrollDown,Green.png,2,Positive,Incongruent,0,0,0,0,,,,,,,,,,,,,,,,,0,21,21,21,,,,,,,,,,,,,,,,,,,,,,,,,,,,,,,,,,,,,,,,,,,,,,,,,,,,,,,,,,,,,,,,,,,,,,,,,,,,,,,,,1.919753094514211,1.1363487999988138,312.13439780000044,None,ScrollUp,정답입니다,312.13439780000044,None,312.13439780000044,None,312.13439780000044,None,312.13439780000044,None,313.13119220000044,None,313.13119220000044,313.6400837000001,,,,,,,,,,,,,,,,221,2022-05-20_15h40.24.581,FishGame,2022.1.1,60.03810017864712,
,23,나를 보내줘,6,Orange,A,0,0,ScrollUp,ScrollDown,Orange.png,2,NonTarget,NonTarget,0,0,0,0,,,,,,,,,,,,,,,,,0,22,22,22,,,,,,,,,,,,,,,,,,,,,,,,,,,,,,,,,,,,,,,,,,,,,,,,,,,,,,,,,,,,,,,,,,,,,,,,,,,,,,,,,1.8441358109315236,1.1031344000002719,314.2953756000006,None,ScrollUp,정답입니다,314.2953756000006,None,314.2953756000006,None,314.2953756000006,None,314.2953756000006,None,315.2652932000001,None,315.2652932000001,315.77331140000024,,,,,,,,,,,,,,,,221,2022-05-20_15h40.24.581,FishGame,2022.1.1,60.03810017864712,
,24,넌 통찰력있어,2,Orange,A,6.5,4.8,ScrollDown,ScrollUp,Orange.png,2,Positive,Congruent,0,0,0,0,,,,,,,,,,,,,,,,,0,23,23,23,,,,,,,,,,,,,,,,,,,,,,,,,,,,,,,,,,,,,,,,,,,,,,,,,,,,,,,,,,,,,,,,,,,,,,,,,,,,,,,,,1.0663580298423767,1.066524899999422,316.43854459999966,None,ScrollDown,정답입니다,316.43854459999966,None,316.43854459999966,None,316.43854459999966,None,316.43854459999966,None,317.36244859999897,None,317.36244859999897,317.8728955000006,,,,,,,,,,,,,,,,221,2022-05-20_15h40.24.581,FishGame,2022.1.1,60.03810017864712,
,25,넌 경솔해,5,Green,B,2.458333333333333,2.266666666666667,ScrollUp,ScrollDown,Green.png,2,Negative,Congruent,0,0,0,0,,,,,,,,,,,,,,,,,0,24,24,24,,,,,,,,,,,,,,,,,,,,,,,,,,,,,,,,,,,,,,,,,,,,,,,,,,,,,,,,,,,,,,,,,,,,,,,,,,,,,,,,,1.67746914178133,1.0696023999989848,318.5275982999992,None,ScrollUp,정답입니다,318.5275982999992,None,318.5275982999992,None,318.5275982999992,None,318.5275982999992,None,319.4659059000005,None,319.4659059000005,319.9725646000006,,,,,,,,,,,,,,,,221,2022-05-20_15h40.24.581,FishGame,2022.1.1,60.03810017864712,
,26,넌 초조해,4,Orange,A,2.916666666666667,3.133333333333333,ScrollDown,ScrollUp,Orange.png,2,Negative,Incongruent,0,0,0,0,,,,,,,,,,,,,,,,,0,25,25,25,,,,,,,,,,,,,,,,,,,,,,,,,,,,,,,,,,,,,,,,,,,,,,,,,,,,,,,,,,,,,,,,,,,,,,,,,,,,,,,,,1.140432099501292,1.3651833000003535,320.63384919999953,None,ScrollDown,정답입니다,320.63384919999953,None,320.63384919999953,None,320.63384919999953,None,320.63384919999953,None,321.8611517999998,None,321.8611517999998,322.3722276999997,,,,,,,,,,,,,,,,221,2022-05-20_15h40.24.581,FishGame,2022.1.1,60.03810017864712,
,27,넌 무관심해,4,Green,B,2.833333333333333,2.9,ScrollUp,ScrollDown,Green.png,2,Negative,Congruent,0,0,0,0,,,,,,,,,,,,,,,,,0,26,26,26,,,,,,,,,,,,,,,,,,,,,,,,,,,,,,,,,,,,,,,,,,,,,,,,,,,,,,,,,,,,,,,,,,,,,,,,,,,,,,,,,1.5246913575877747,1.0512588000001415,323.0578449000004,None,NoResponse,무응답입니다,323.0578449000004,None,323.0578449000004,None,323.0578449000004,None,323.0578449000004,None,323.95177220000005,None,323.95177220000005,324.4553756999994,,,,,,,,,,,,,,,,221,2022-05-20_15h40.24.581,FishGame,2022.1.1,60.03810017864712,
,28,넌 감성적이야,3,Green,B,4.125,4.166666666666667,ScrollUp,ScrollDown,Green.png,2,Neutral,Neutral,0,0,0,0,,,,,,,,,,,,,,,,,0,27,27,27,,,,,,,,,,,,,,,,,,,,,,,,,,,,,,,,,,,,,,,,,,,,,,,,,,,,,,,,,,,,,,,,,,,,,,,,,,,,,,,,,1.5972222226361432,1.0442746999997325,325.109921199999,None,ScrollUp,정답입니다,325.109921199999,None,325.109921199999,None,325.109921199999,None,325.109921199999,None,326.02652409999973,None,326.02652409999973,326.53836090000004,,,,,,,,,,,,,,,,221,2022-05-20_15h40.24.581,FishGame,2022.1.1,60.03810017864712,
,29,넌 배려심있어,1,Orange,A,6.083333333333333,5.5,ScrollDown,ScrollUp,Orange.png,2,Positive,Congruent,0,0,0,0,,,,,,,,,,,,,,,,,0,28,28,28,,,,,,,,,,,,,,,,,,,,,,,,,,,,,,,,,,,,,,,,,,,,,,,,,,,,,,,,,,,,,,,,,,,,,,,,,,,,,,,,,1.2623456766208014,1.1254210999995848,327.2019330000003,None,ScrollDown,정답입니다,327.2019330000003,None,327.2019330000003,None,327.2019330000003,None,327.2019330000003,None,328.1828965000004,None,328.1828965000004,328.68816999999945,,,,,,,,,,,,,,,,221,2022-05-20_15h40.24.581,FishGame,2022.1.1,60.03810017864712,
,30,넌 숨김없어,3,Orange,A,4.5,4.933333333333334,ScrollDown,ScrollUp,Orange.png,2,Neutral,Neutral,0,0,0,0,,,,,,,,,,,,,,,,,0,29,29,29,,,,,,,,,,,,,,,,,,,,,,,,,,,,,,,,,,,,,,,,,,,,,,,,,,,,,,,,,,,,,,,,,,,,,,,,,,,,,,,,,1.192901223897934,1.003038499999093,329.35882429999947,None,ScrollDown,정답입니다,329.35882429999947,None,329.35882429999947,None,329.35882429999947,None,329.35882429999947,None,330.2135632999998,None,330.2135632999998,330.72119229999953,,,,,,,,,,,,,,,,221,2022-05-20_15h40.24.581,FishGame,2022.1.1,60.03810017864712,
,31,넌 훌륭해,2,Green,B,5.916666666666667,4.033333333333333,ScrollUp,ScrollDown,Green.png,2,Positive,Incongruent,0,0,0,0,,,,,,,,,,,,,,,,,0,30,30,30,,,,,,,,,,,,,,,,,,,,,,,,,,,,,,,,,,,,,,,,,,,,,,,,,,,,,,,,,,,,,,,,,,,,,,,,,,,,,,,,,1.6620370397965112,1.2000365000003512,331.37956289999966,None,ScrollUp,정답입니다,331.37956289999966,None,331.37956289999966,None,331.37956289999966,None,331.37956289999966,None,332.4440021999999,None,332.4440021999999,332.9542698000005,,,,,,,,,,,,,,,,221,2022-05-20_15h40.24.581,FishGame,2022.1.1,60.03810017864712,
,32,넌 슬기로워,2,Orange,A,6.166666666666667,4.1,ScrollDown,ScrollUp,Orange.png,2,Positive,Congruent,0,0,0,0,,,,,,,,,,,,,,,,,0,31,31,31,,,,,,,,,,,,,,,,,,,,,,,,,,,,,,,,,,,,,,,,,,,,,,,,,,,,,,,,,,,,,,,,,,,,,,,,,,,,,,,,,1.2083333383003871,0.9754129000011744,333.6108712999994,None,ScrollDown,정답입니다,333.6108712999994,None,333.6108712999994,None,333.6108712999994,None,333.6108712999994,None,334.45426380000026,None,334.45426380000026,334.9541370000006,,,,,,,,,,,,,,,,221,2022-05-20_15h40.24.581,FishGame,2022.1.1,60.03810017864712,
,33,넌 냉혹해,5,Orange,A,2.583333333333333,2.1,ScrollDown,ScrollUp,Orange.png,2,Negative,Incongruent,0,0,0,0,,,,,,,,,,,,,,,,,0,32,32,32,,,,,,,,,,,,,,,,,,,,,,,,,,,,,,,,,,,,,,,,,,,,,,,,,,,,,,,,,,,,,,,,,,,,,,,,,,,,,,,,,1.2515432039896646,1.1989653999989969,335.6206445000007,None,ScrollDown,정답입니다,335.6206445000007,None,335.6206445000007,None,335.6206445000007,None,335.6206445000007,None,336.6771250999991,None,336.6771250999991,337.1871467000001,,,,,,,,,,,,,,,,221,2022-05-20_15h40.24.581,FishGame,2022.1.1,60.03810017864712,
,34,나를 데려가줘,6,Green,B,0,0,ScrollDown,ScrollUp,Green.png,2,NonTarget,NonTarget,0,0,0,0,,,,,,,,,,,,,,,,,0,33,33,33,,,,,,,,,,,,,,,,,,,,,,,,,,,,,,,,,,,,,,,,,,,,,,,,,,,,,,,,,,,,,,,,,,,,,,,,,,,,,,,,,1.1666666616996129,1.1103758999997808,337.8396539000005,None,ScrollDown,정답입니다,337.8396539000005,None,337.8396539000005,None,337.8396539000005,None,337.8396539000005,None,338.8203147000004,None,338.8203147000004,339.3201274999992,,,,,,,,,,,,,,,,221,2022-05-20_15h40.24.581,FishGame,2022.1.1,60.03810017864712,
,35,넌 편파적이야,5,Green,B,2.125,2,ScrollUp,ScrollDown,Green.png,2,Negative,Congruent,0,0,0,0,,,,,,,,,,,,,,,,,0,34,34,34,,,,,,,,,,,,,,,,,,,,,,,,,,,,,,,,,,,,,,,,,,,,,,,,,,,,,,,,,,,,,,,,,,,,,,,,,,,,,,,,,1.632716049750646,1.1107307000002038,339.9788745999995,None,ScrollUp,정답입니다,339.9788745999995,None,339.9788745999995,None,339.9788745999995,None,339.9788745999995,None,340.9534084000006,None,340.9534084000006,341.4530663000005,,,,,,,,,,,,,,,,221,2022-05-20_15h40.24.581,FishGame,2022.1.1,60.03810017864712,
,36,넌 슬퍼,4,Orange,A,2.583333333333333,3.066666666666667,ScrollDown,ScrollUp,Orange.png,2,Negative,Incongruent,0,0,0,0,,,,,,,,,,,,,,,,,0,35,35,35,,,,,,,,,,,,,,,,,,,,,,,,,,,,,,,,,,,,,,,,,,,,,,,,,,,,,,,,,,,,,,,,,,,,,,,,,,,,,,,,,1.2515432039896646,1.0177896999994118,342.1043458000004,None,ScrollDown,정답입니다,342.1043458000004,None,342.1043458000004,None,342.1043458000004,None,342.1043458000004,None,342.9937764999995,None,342.9937764999995,343.50292869999976,,,,,,,,,,,,,,,,221,2022-05-20_15h40.24.581,FishGame,2022.1.1,60.03810017864712,
,37,나를 데려가줘,6,Green,B,0,0,ScrollDown,ScrollUp,Green.png,2,NonTarget,NonTarget,0,0,0,0,,,,,,,,,,,,,,,,,0,36,36,36,,,,,,,,,,,,,,,,,,,,,,,,,,,,,,,,,,,,,,,,,,,,,,,,,,,,,,,,,,,,,,,,,,,,,,,,,,,,,,,,,1.0972222338120143,1.1815581999999267,344.155009099999,None,ScrollDown,정답입니다,344.155009099999,None,344.155009099999,None,344.155009099999,None,344.155009099999,None,345.2077757999996,None,345.2077757999996,345.7192823000005,,,,,,,,,,,,,,,,221,2022-05-20_15h40.24.581,FishGame,2022.1.1,60.03810017864712,
,38,넌 친절해,1,Green,B,6.041666666666667,5.533333333333333,ScrollUp,ScrollDown,Green.png,2,Positive,Incongruent,0,0,0,0,,,,,,,,,,,,,,,,,0,37,37,37,,,,,,,,,,,,,,,,,,,,,,,,,,,,,,,,,,,,,,,,,,,,,,,,,,,,,,,,,,,,,,,,,,,,,,,,,,,,,,,,,1.5046296297417334,1.1040310999997018,346.3800510000001,None,NoResponse,무응답입니다,346.3800510000001,None,346.3800510000001,None,346.3800510000001,None,346.3800510000001,None,347.3552510999998,None,347.3552510999998,347.86905079999997,,,,,,,,,,,,,,,,221,2022-05-20_15h40.24.581,FishGame,2022.1.1,60.03810017864712,
,1,넌 엉성해,4,Orange,A,3,3.3,ScrollDown,ScrollUp,Orange.png,3,Negative,Incongruent,0,0,0,0,,,,,,,,,,,,,,,,,,,,,0,0,0,0,,,,,,,,,,,,,,,,,,,,,,,,,,,,,,,,,,,,383.5311342999994,385.03097549999984,385.06421260000025,386.0141335999997,386.064199299999,387.01411279999957,387.01411279999957,None,,,,,,,,,,,,,,,,,,,,,,,,,,,,,,,,,,1.1666666616996129,1.276470299999346,388.2207036,None,ScrollDown,정답입니다,388.2207036,None,388.2207036,None,388.2207036,None,388.2207036,None,389.30696870000065,None,389.30696870000065,389.8136838999999,348.36893880000025,None,348.36893880000025,None,0.24537037,-0.11666667,1,0,0,0.01622769999994489,None,378.36510830000043,None,,,221,2022-05-20_15h40.24.581,FishGame,2022.1.1,60.03810017864712,
,2,나를 보내줘,6,Orange,A,0,0,ScrollUp,ScrollDown,Orange.png,3,NonTarget,NonTarget,0,0,0,0,,,,,,,,,,,,,,,,,,,,,0,1,1,1,,,,,,,,,,,,,,,,,,,,,,,,,,,,,,,,,,,,,,,,,,,,,,,,,,,,,,,,,,,,,,,,,,,,,,,,,,,,,2,1.2823755000008532,390.47002169999905,None,ScrollUp,정답입니다,390.47002169999905,None,390.47002169999905,None,390.47002169999905,None,390.47002169999905,None,391.61780439999893,None,391.61780439999893,392.1301366000007,,,,,,,,,,,,,,,,221,2022-05-20_15h40.24.581,FishGame,2022.1.1,60.03810017864712,
,3,넌 활발해,1,Green,B,5.666666666666667,5.6,ScrollUp,ScrollDown,Green.png,3,Positive,Incongruent,0,0,0,0,,,,,,,,,,,,,,,,,,,,,0,2,2,2,,,,,,,,,,,,,,,,,,,,,,,,,,,,,,,,,,,,,,,,,,,,,,,,,,,,,,,,,,,,,,,,,,,,,,,,,,,,,1.825617293516795,1.0105889000005845,392.7972200999993,None,ScrollUp,정답입니다,392.7972200999993,None,392.7972200999993,None,392.7972200999993,None,392.7972200999993,None,393.66327119999914,None,393.66327119999914,394.16308039999967,,,,,,,,,,,,,,,,221,2022-05-20_15h40.24.581,FishGame,2022.1.1,60.03810017864712,
,4,넌 논리적이야,2,Orange,A,5.666666666666666,4.633333333333334,ScrollDown,ScrollUp,Orange.png,3,Positive,Congruent,0,0,0,0,,,,,,,,,,,,,,,,,,,,,0,3,3,3,,,,,,,,,,,,,,,,,,,,,,,,,,,,,,,,,,,,,,,,,,,,,,,,,,,,,,,,,,,,,,,,,,,,,,,,,,,,,1.160493830839793,1.0341244000010192,394.82694919999994,None,ScrollDown,정답입니다,394.82694919999994,None,394.82694919999994,None,394.82694919999994,None,394.82694919999994,None,395.7203193000005,None,395.7203193000005,396.2293544999993,,,,,,,,,,,,,,,,221,2022-05-20_15h40.24.581,FishGame,2022.1.1,60.03810017864712,
,5,넌 과묵해,3,Orange,A,3.875,4.4,ScrollDown,ScrollUp,Orange.png,3,Neutral,Neutral,0,0,0,0,,,,,,,,,,,,,,,,,,,,,0,4,4,4,,,,,,,,,,,,,,,,,,,,,,,,,,,,,,,,,,,,,,,,,,,,,,,,,,,,,,,,,,,,,,,,,,,,,,,,,,,,,1.1882716069618862,0.9333554000004369,396.8901375000005,None,ScrollDown,정답입니다,396.8901375000005,None,396.8901375000005,None,396.8901375000005,None,396.8901375000005,None,397.6856731000007,None,397.6856731000007,398.1958391999997,,,,,,,,,,,,,,,,221,2022-05-20_15h40.24.581,FishGame,2022.1.1,60.03810017864712,
,6,나를 데려가줘,6,Green,B,0,0,ScrollDown,ScrollUp,Green.png,3,NonTarget,NonTarget,0,0,0,0,,,,,,,,,,,,,,,,,,,,,0,5,5,5,,,,,,,,,,,,,,,,,,,,,,,,,,,,,,,,,,,,,,,,,,,,,,,,,,,,,,,,,,,,,,,,,,,,,,,,,,,,,1.2021604826052983,1.1013327000000572,398.8452144999992,None,ScrollDown,정답입니다,398.8452144999992,None,398.8452144999992,None,398.8452144999992,None,398.8452144999992,None,399.8199528999994,None,399.8199528999994,400.32888280000043,,,,,,,,,,,,,,,,221,2022-05-20_15h40.24.581,FishGame,2022.1.1,60.03810017864712,
,7,넌 미숙해,4,Green,B,3,3,ScrollUp,ScrollDown,Green.png,3,Negative,Congruent,0,0,0,0,,,,,,,,,,,,,,,,,,,,,0,6,6,6,,,,,,,,,,,,,,,,,,,,,,,,,,,,,,,,,,,,,,,,,,,,,,,,,,,,,,,,,,,,,,,,,,,,,,,,,,,,,1.6697530845801034,1.0533089000000473,400.97547490000034,None,ScrollUp,정답입니다,400.97547490000034,None,400.97547490000034,None,400.97547490000034,None,400.97547490000034,None,401.9049106000002,None,401.9049106000002,402.4119236000006,,,,,,,,,,,,,,,,221,2022-05-20_15h40.24.581,FishGame,2022.1.1,60.03810017864712,
,8,나를 보내줘,6,Orange,A,0,0,ScrollUp,ScrollDown,Orange.png,3,NonTarget,NonTarget,0,0,0,0,,,,,,,,,,,,,,,,,,,,,0,7,7,7,,,,,,,,,,,,,,,,,,,,,,,,,,,,,,,,,,,,,,,,,,,,,,,,,,,,,,,,,,,,,,,,,,,,,,,,,,,,,1.8132716069618862,1.0866572000013548,403.0689292999996,None,ScrollUp,정답입니다,403.0689292999996,None,403.0689292999996,None,403.0689292999996,None,403.0689292999996,None,404.0204529999992,None,404.0204529999992,404.52859119999994,,,,,,,,,,,,,,,,221,2022-05-20_15h40.24.581,FishGame,2022.1.1,60.03810017864712,
,9,넌 자신만만해,3,Green,B,4.833333333333334,4.333333333333333,ScrollUp,ScrollDown,Green.png,3,Neutral,Neutral,0,0,0,0,,,,,,,,,,,,,,,,,,,,,0,8,8,8,,,,,,,,,,,,,,,,,,,,,,,,,,,,,,,,,,,,,,,,,,,,,,,,,,,,,,,,,,,,,,,,,,,,,,,,,,,,,1.766975313425064,1.1116897000010795,405.1883925000002,None,ScrollUp,정답입니다,405.1883925000002,None,405.1883925000002,None,405.1883925000002,None,405.1883925000002,None,406.1679573000001,None,406.1679573000001,406.6780500999994,,,,,,,,,,,,,,,,221,2022-05-20_15h40.24.581,FishGame,2022.1.1,60.03810017864712,
,10,넌 탐욕스러워,5,Orange,A,2.25,2.1,ScrollDown,ScrollUp,Orange.png,3,Negative,Incongruent,0,0,0,0,,,,,,,,,,,,,,,,,,,,,0,9,9,9,,,,,,,,,,,,,,,,,,,,,,,,,,,,,,,,,,,,,,,,,,,,,,,,,,,,,,,,,,,,,,,,,,,,,,,,,,,,,1.1635802586873372,1.0238298999993276,407.3449665999997,None,ScrollDown,정답입니다,407.3449665999997,None,407.3449665999997,None,407.3449665999997,None,407.3449665999997,None,408.2220957999998,None,408.2220957999998,408.7278127999998,,,,,,,,,,,,,,,,221,2022-05-20_15h40.24.581,FishGame,2022.1.1,60.03810017864712,
,11,넌 인기있어,2,Orange,A,5.458333333333333,4.5,ScrollDown,ScrollUp,Orange.png,3,Positive,Congruent,0,0,0,0,,,,,,,,,,,,,,,,,,,,,0,10,10,10,,,,,,,,,,,,,,,,,,,,,,,,,,,,,,,,,,,,,,,,,,,,,,,,,,,,,,,,,,,,,,,,,,,,,,,,,,,,,1,1.0562553999989177,409.380122999999,None,ScrollDown,정답입니다,409.380122999999,None,409.380122999999,None,409.380122999999,None,409.380122999999,None,410.31087019999904,None,410.31087019999904,410.81078250000064,,,,,,,,,,,,,,,,221,2022-05-20_15h40.24.581,FishGame,2022.1.1,60.03810017864712,
,12,나를 데려가줘,6,Green,B,0,0,ScrollDown,ScrollUp,Green.png,3,NonTarget,NonTarget,0,0,0,0,,,,,,,,,,,,,,,,,,,,,0,11,11,11,,,,,,,,,,,,,,,,,,,,,,,,,,,,,,,,,,,,,,,,,,,,,,,,,,,,,,,,,,,,,,,,,,,,,,,,,,,,,1.0308642089366913,1.2492038999989745,411.4616256999998,None,ScrollDown,정답입니다,411.4616256999998,None,411.4616256999998,None,411.4616256999998,None,411.4616256999998,None,412.5823502000003,None,412.5823502000003,413.0939693,,,,,,,,,,,,,,,,221,2022-05-20_15h40.24.581,FishGame,2022.1.1,60.03810017864712,
,13,넌 뛰어나,2,Green,B,6.166666666666667,4,ScrollUp,ScrollDown,Green.png,3,Positive,Incongruent,0,0,0,0,,,,,,,,,,,,,,,,,,,,,0,12,12,12,,,,,,,,,,,,,,,,,,,,,,,,,,,,,,,,,,,,,,,,,,,,,,,,,,,,,,,,,,,,,,,,,,,,,,,,,,,,,1.7546296268701553,1.2684809999991558,413.7511789,None,ScrollUp,정답입니다,413.7511789,None,413.7511789,None,413.7511789,None,413.7511789,None,414.88371089999964,None,414.88371089999964,415.3936520999996,,,,,,,,,,,,,,,,221,2022-05-20_15h40.24.581,FishGame,2022.1.1,60.03810017864712,
,14,넌 낙관적이야,1,Orange,A,5.75,5.8,ScrollDown,ScrollUp,Orange.png,3,Positive,Congruent,0,0,0,0,,,,,,,,,,,,,,,,,,,,,0,13,13,13,,,,,,,,,,,,,,,,,,,,,,,,,,,,,,,,,,,,,,,,,,,,,,,,,,,,,,,,,,,,,,,,,,,,,,,,,,,,,1.1172839403152466,1.0454005999999936,416.0559341999997,None,ScrollDown,정답입니다,416.0559341999997,None,416.0559341999997,None,416.0559341999997,None,416.0559341999997,None,416.9599268000002,None,416.9599268000002,417.4599003000003,,,,,,,,,,,,,,,,221,2022-05-20_15h40.24.581,FishGame,2022.1.1,60.03810017864712,
,15,넌 산만해,4,Green,B,2.695652173913043,3.033333333333333,ScrollUp,ScrollDown,Green.png,3,Negative,Congruent,0,0,0,0,,,,,,,,,,,,,,,,,,,,,0,14,14,14,,,,,,,,,,,,,,,,,,,,,,,,,,,,,,,,,,,,,,,,,,,,,,,,,,,,,,,,,,,,,,,,,,,,,,,,,,,,,1.8024691343307495,1.0762518999999884,418.1117692000007,None,ScrollUp,정답입니다,418.1117692000007,None,418.1117692000007,None,418.1117692000007,None,418.1117692000007,None,419.0601227999996,None,419.0601227999996,419.5596449000004,,,,,,,,,,,,,,,,221,2022-05-20_15h40.24.581,FishGame,2022.1.1,60.03810017864712,
,16,나를 보내줘,6,Orange,A,0,0,ScrollUp,ScrollDown,Orange.png,3,NonTarget,NonTarget,0,0,0,0,,,,,,,,,,,,,,,,,,,,,0,15,15,15,,,,,,,,,,,,,,,,,,,,,,,,,,,,,,,,,,,,,,,,,,,,,,,,,,,,,,,,,,,,,,,,,,,,,,,,,,,,,1.859567900498708,1.3198191999999835,420.2162153999998,None,ScrollUp,정답입니다,420.2162153999998,None,420.2162153999998,None,420.2162153999998,None,420.2162153999998,None,421.4027167999993,None,421.4027167999993,421.90948969999954,,,,,,,,,,,,,,,,221,2022-05-20_15h40.24.581,FishGame,2022.1.1,60.03810017864712,
,17,넌 교활해,5,Green,B,2.333333333333333,2.133333333333333,ScrollUp,ScrollDown,Green.png,3,Negative,Congruent,0,0,0,0,,,,,,,,,,,,,,,,,,,,,0,16,16,16,,,,,,,,,,,,,,,,,,,,,,,,,,,,,,,,,,,,,,,,,,,,,,,,,,,,,,,,,,,,,,,,,,,,,,,,,,,,,1.9104938358068466,1.1920881000005465,422.5877851999994,None,ScrollUp,정답입니다,422.5877851999994,None,422.5877851999994,None,422.5877851999994,None,422.5877851999994,None,423.625833099999,None,423.625833099999,424.1264675000002,,,,,,,,,,,,,,,,221,2022-05-20_15h40.24.581,FishGame,2022.1.1,60.03810017864712,
,18,나를 보내줘,6,Orange,A,0,0,ScrollUp,ScrollDown,Orange.png,3,NonTarget,NonTarget,0,0,0,0,,,,,,,,,,,,,,,,,,,,,0,17,17,17,,,,,,,,,,,,,,,,,,,,,,,,,,,,,,,,,,,,,,,,,,,,,,,,,,,,,,,,,,,,,,,,,,,,,,,,,,,,,1.8117283930381138,1.2453110000005836,424.7866101999989,None,ScrollUp,정답입니다,424.7866101999989,None,424.7866101999989,None,424.7866101999989,None,424.7866101999989,None,425.8945597999991,None,425.8945597999991,426.40901099999974,,,,,,,,,,,,,,,,221,2022-05-20_15h40.24.581,FishGame,2022.1.1,60.03810017864712,
,19,넌 불친절해,5,Green,B,2.208333333333333,2.033333333333333,ScrollUp,ScrollDown,Green.png,3,Negative,Congruent,0,0,0,0,,,,,,,,,,,,,,,,,,,,,0,18,18,18,,,,,,,,,,,,,,,,,,,,,,,,,,,,,,,,,,,,,,,,,,,,,,,,,,,,,,,,,,,,,,,,,,,,,,,,,,,,,1.6851851865649223,1.1442963000008604,427.0649763000001,None,ScrollUp,정답입니다,427.0649763000001,None,427.0649763000001,None,427.0649763000001,None,427.0649763000001,None,428.0756478000003,None,428.0756478000003,428.5753163999998,,,,,,,,,,,,,,,,221,2022-05-20_15h40.24.581,FishGame,2022.1.1,60.03810017864712,
,20,넌 지적이야,2,Green,B,5.75,4.366666666666666,ScrollUp,ScrollDown,Green.png,3,Positive,Incongruent,0,0,0,0,,,,,,,,,,,,,,,,,,,,,0,19,19,19,,,,,,,,,,,,,,,,,,,,,,,,,,,,,,,,,,,,,,,,,,,,,,,,,,,,,,,,,,,,,,,,,,,,,,,,,,,,,1.8765432039896648,1.1022283000002062,429.2160841999994,None,ScrollUp,정답입니다,429.2160841999994,None,429.2160841999994,None,429.2160841999994,None,429.2160841999994,None,430.1985277999993,None,430.1985277999993,430.70830269999897,,,,,,,,,,,,,,,,221,2022-05-20_15h40.24.581,FishGame,2022.1.1,60.03810017864712,
,21,넌 우유부단해,4,Orange,A,2.666666666666667,3.166666666666667,ScrollDown,ScrollUp,Orange.png,3,Negative,Incongruent,0,0,0,0,,,,,,,,,,,,,,,,,,,,,0,20,20,20,,,,,,,,,,,,,,,,,,,,,,,,,,,,,,,,,,,,,,,,,,,,,,,,,,,,,,,,,,,,,,,,,,,,,,,,,,,,,1,1.2789652000010392,431.3723358999996,None,ScrollDown,정답입니다,431.3723358999996,None,431.3723358999996,None,431.3723358999996,None,431.3723358999996,None,432.5082729000005,None,432.5082729000005,433.0079451999991,,,,,,,,,,,,,,,,221,2022-05-20_15h40.24.581,FishGame,2022.1.1,60.03810017864712,
,22,나를 데려가줘,6,Green,B,0,0,ScrollDown,ScrollUp,Green.png,3,NonTarget,NonTarget,0,0,0,0,,,,,,,,,,,,,,,,,,,,,0,21,21,21,,,,,,,,,,,,,,,,,,,,,,,,,,,,,,,,,,,,,,,,,,,,,,,,,,,,,,,,,,,,,,,,,,,,,,,,,,,,,1.095679019888242,1.3665588999992906,433.6551247999996,None,ScrollDown,정답입니다,433.6551247999996,None,433.6551247999996,None,433.6551247999996,None,433.6551247999996,None,434.8972460999994,None,434.8972460999994,435.4076449000004,,,,,,,,,,,,,,,,221,2022-05-20_15h40.24.581,FishGame,2022.1.1,60.03810017864712,
,23,넌 성실해,1,Green,B,6.041666666666666,5.7,ScrollUp,ScrollDown,Green.png,3,Positive,Incongruent,0,0,0,0,,,,,,,,,,,,,,,,,,,,,0,22,22,22,,,,,,,,,,,,,,,,,,,,,,,,,,,,,,,,,,,,,,,,,,,,,,,,,,,,,,,,,,,,,,,,,,,,,,,,,,,,,2,1.199370899999849,436.0530512999994,None,ScrollUp,정답입니다,436.0530512999994,None,436.0530512999994,None,436.0530512999994,None,436.0530512999994,None,437.12939319999896,None,437.12939319999896,437.6407787999997,,,,,,,,,,,,,,,,221,2022-05-20_15h40.24.581,FishGame,2022.1.1,60.03810017864712,
,24,넌 현실주의적이야,3,Orange,A,4.625,4.4,ScrollDown,ScrollUp,Orange.png,3,Neutral,Neutral,0,0,0,0,,,,,,,,,,,,,,,,,,,,,0,23,23,23,,,,,,,,,,,,,,,,,,,,,,,,,,,,,,,,,,,,,,,,,,,,,,,,,,,,,,,,,,,,,,,,,,,,,,,,,,,,,1.1095678955316544,1.2497573999989982,438.297570499999,None,ScrollDown,정답입니다,438.297570499999,None,438.297570499999,None,438.297570499999,None,438.297570499999,None,439.41344129999925,None,439.41344129999925,439.92375849999917,,,,,,,,,,,,,,,,221,2022-05-20_15h40.24.581,FishGame,2022.1.1,60.03810017864712,
,25,넌 진실돼,1,Orange,A,6.625,5.566666666666666,ScrollDown,ScrollUp,Orange.png,3,Positive,Congruent,0,0,0,0,,,,,,,,,,,,,,,,,,,,,0,24,24,24,,,,,,,,,,,,,,,,,,,,,,,,,,,,,,,,,,,,,,,,,,,,,,,,,,,,,,,,,,,,,,,,,,,,,,,,,,,,,1,1.15559790000043,440.5841412999998,None,ScrollDown,정답입니다,440.5841412999998,None,440.5841412999998,None,440.5841412999998,None,440.5841412999998,None,441.60705289999896,None,441.60705289999896,442.10687250000046,,,,,,,,,,,,,,,,221,2022-05-20_15h40.24.581,FishGame,2022.1.1,60.03810017864712,
,26,넌 천진난만해,3,Green,B,4.958333333333334,4.833333333333333,ScrollUp,ScrollDown,Green.png,3,Neutral,Neutral,0,0,0,0,,,,,,,,,,,,,,,,,,,,,0,25,25,25,,,,,,,,,,,,,,,,,,,,,,,,,,,,,,,,,,,,,,,,,,,,,,,,,,,,,,,,,,,,,,,,,,,,,,,,,,,,,1.9691357910633087,1.2101015000007465,442.76524699999936,None,ScrollUp,정답입니다,442.76524699999936,None,442.76524699999936,None,442.76524699999936,None,442.76524699999936,None,443.84006279999994,None,443.84006279999994,444.33979960000033,,,,,,,,,,,,,,,,221,2022-05-20_15h40.24.581,FishGame,2022.1.1,60.03810017864712,
,27,넌 교양없어,5,Orange,A,2.416666666666667,2.2,ScrollDown,ScrollUp,Orange.png,3,Negative,Incongruent,0,0,0,0,,,,,,,,,,,,,,,,,,,,,0,26,26,26,,,,,,,,,,,,,,,,,,,,,,,,,,,,,,,,,,,,,,,,,,,,,,,,,,,,,,,,,,,,,,,,,,,,,,,,,,,,,1,1.164426100000128,445.0005621,None,ScrollDown,정답입니다,445.0005621,None,445.0005621,None,445.0005621,None,445.0005621,None,446.02771960000064,None,446.02771960000064,446.5395460999989,,,,,,,,,,,,,,,,221,2022-05-20_15h40.24.581,FishGame,2022.1.1,60.03810017864712,
,28,나를 보내줘,6,Orange,A,0,0,ScrollUp,ScrollDown,Orange.png,3,NonTarget,NonTarget,0,0,0,0,,,,,,,,,,,,,,,,,,,,,0,27,27,27,,,,,,,,,,,,,,,,,,,,,,,,,,,,,,,,,,,,,,,,,,,,,,,,,,,,,,,,,,,,,,,,,,,,,,,,,,,,,1.8966049353281658,1.2181956999993417,447.19089059999897,None,ScrollUp,정답입니다,447.19089059999897,None,447.19089059999897,None,447.19089059999897,None,447.19089059999897,None,448.2792393999989,None,448.2792393999989,448.7894231999999,,,,,,,,,,,,,,,,221,2022-05-20_15h40.24.581,FishGame,2022.1.1,60.03810017864712,
,29,넌 엉뚱스러워,3,Orange,A,4.166666666666667,4.133333333333334,ScrollDown,ScrollUp,Orange.png,3,Neutral,Neutral,0,0,0,0,,,,,,,,,,,,,,,,,,,,,0,28,28,28,,,,,,,,,,,,,,,,,,,,,,,,,,,,,,,,,,,,,,,,,,,,,,,,,,,,,,,,,,,,,,,,,,,,,,,,,,,,,1.1450617164373398,1.2177251000011893,449.4523929999996,None,ScrollDown,정답입니다,449.4523929999996,None,449.4523929999996,None,449.4523929999996,None,449.4523929999996,None,450.5298333999999,None,450.5298333999999,451.0388810000004,,,,,,,,,,,,,,,,221,2022-05-20_15h40.24.581,FishGame,2022.1.1,60.03810017864712,
,30,넌 무지해,4,Green,B,2.541666666666667,3.066666666666667,ScrollUp,ScrollDown,Green.png,3,Negative,Congruent,0,0,0,0,,,,,,,,,,,,,,,,,,,,,0,29,29,29,,,,,,,,,,,,,,,,,,,,,,,,,,,,,,,,,,,,,,,,,,,,,,,,,,,,,,,,,,,,,,,,,,,,,,,,,,,,,2,1.3321885999994265,451.68331659999967,None,ScrollUp,정답입니다,451.68331659999967,None,451.68331659999967,None,451.68331659999967,None,451.68331659999967,None,452.8937774999995,None,452.8937774999995,453.4053435000005,,,,,,,,,,,,,,,,221,2022-05-20_15h40.24.581,FishGame,2022.1.1,60.03810017864712,
,31,넌 음울해,5,Green,B,2.25,2.233333333333333,ScrollUp,ScrollDown,Green.png,3,Negative,Congruent,0,0,0,0,,,,,,,,,,,,,,,,,,,,,0,30,30,30,,,,,,,,,,,,,,,,,,,,,,,,,,,,,,,,,,,,,,,,,,,,,,,,,,,,,,,,,,,,,,,,,,,,,,,,,,,,,2,1.1345258000001195,454.0603095999995,None,ScrollUp,정답입니다,454.0603095999995,None,454.0603095999995,None,454.0603095999995,None,454.0603095999995,None,455.06958459999987,None,455.06958459999987,455.57162959999914,,,,,,,,,,,,,,,,221,2022-05-20_15h40.24.581,FishGame,2022.1.1,60.03810017864712,
,32,넌 냉소적이야,5,Orange,A,2.916666666666667,2.4,ScrollDown,ScrollUp,Orange.png,3,Negative,Incongruent,0,0,0,0,,,,,,,,,,,,,,,,,,,,,0,31,31,31,,,,,,,,,,,,,,,,,,,,,,,,,,,,,,,,,,,,,,,,,,,,,,,,,,,,,,,,,,,,,,,,,,,,,,,,,,,,,1.0216049253940582,1.3832311999995,456.2285907000005,None,ScrollDown,정답입니다,456.2285907000005,None,456.2285907000005,None,456.2285907000005,None,456.2285907000005,None,457.4780202999991,None,457.4780202999991,457.98812989999897,,,,,,,,,,,,,,,,221,2022-05-20_15h40.24.581,FishGame,2022.1.1,60.03810017864712,
,33,나를 데려가줘,6,Green,B,0,0,ScrollDown,ScrollUp,Green.png,3,NonTarget,NonTarget,0,0,0,0,,,,,,,,,,,,,,,,,,,,,0,32,32,32,,,,,,,,,,,,,,,,,,,,,,,,,,,,,,,,,,,,,,,,,,,,,,,,,,,,,,,,,,,,,,,,,,,,,,,,,,,,,1,1.3133445999992546,458.6357078000001,None,ScrollDown,정답입니다,458.6357078000001,None,458.6357078000001,None,458.6357078000001,None,458.6357078000001,None,459.82370119999905,None,459.82370119999905,460.337794699999,,,,,,,,,,,,,,,,221,2022-05-20_15h40.24.581,FishGame,2022.1.1,60.03810017864712,
,34,넌 쾌활해,1,Orange,A,5.541666666666666,5.733333333333333,ScrollDown,ScrollUp,Orange.png,3,Positive,Congruent,0,0,0,0,,,,,,,,,,,,,,,,,,,,,0,33,33,33,,,,,,,,,,,,,,,,,,,,,,,,,,,,,,,,,,,,,,,,,,,,,,,,,,,,,,,,,,,,,,,,,,,,,,,,,,,,,1.1049382785956066,1.3145615000012185,460.9968093000007,None,ScrollDown,정답입니다,460.9968093000007,None,460.9968093000007,None,460.9968093000007,None,460.9968093000007,None,462.17574799999966,None,462.17574799999966,462.68750700000055,,,,,,,,,,,,,,,,221,2022-05-20_15h40.24.581,FishGame,2022.1.1,60.03810017864712,
,35,나를 보내줘,6,Orange,A,0,0,ScrollUp,ScrollDown,Orange.png,3,NonTarget,NonTarget,0,0,0,0,,,,,,,,,,,,,,,,,,,,,0,34,34,34,,,,,,,,,,,,,,,,,,,,,,,,,,,,,,,,,,,,,,,,,,,,,,,,,,,,,,,,,,,,,,,,,,,,,,,,,,,,,1.9475308458010356,1.2175267999991775,463.34250509999947,None,ScrollUp,정답입니다,463.34250509999947,None,463.34250509999947,None,463.34250509999947,None,463.34250509999947,None,464.4267992999994,None,464.4267992999994,464.93732549999913,,,,,,,,,,,,,,,,221,2022-05-20_15h40.24.581,FishGame,2022.1.1,60.03810017864712,
,36,넌 명랑해,1,Green,B,5.739130434782609,5.666666666666667,ScrollUp,ScrollDown,Green.png,3,Positive,Incongruent,0,0,0,0,,,,,,,,,,,,,,,,,,,,,0,35,35,35,,,,,,,,,,,,,,,,,,,,,,,,,,,,,,,,,,,,,,,,,,,,,,,,,,,,,,,,,,,,,,,,,,,,,,,,,,,,,1.89969136317571,1.3399580999994214,465.5951292999998,None,ScrollUp,정답입니다,465.5951292999998,None,465.5951292999998,None,465.5951292999998,None,465.5951292999998,None,466.80390309999893,None,466.80390309999893,467.3035970000001,,,,,,,,,,,,,,,,221,2022-05-20_15h40.24.581,FishGame,2022.1.1,60.03810017864712,
,37,넌 멍해,4,Orange,A,2.833333333333333,3.4,ScrollDown,ScrollUp,Orange.png,3,Negative,Incongruent,0,0,0,0,,,,,,,,,,,,,,,,,,,,,0,36,36,36,,,,,,,,,,,,,,,,,,,,,,,,,,,,,,,,,,,,,,,,,,,,,,,,,,,,,,,,,,,,,,,,,,,,,,,,,,,,,1.1712963034709294,1.2682659000001877,467.9623441999993,None,ScrollDown,정답입니다,467.9623441999993,None,467.9623441999993,None,467.9623441999993,None,467.9623441999993,None,469.09463909999977,None,469.09463909999977,469.60332089999974,,,,,,,,,,,,,,,,221,2022-05-20_15h40.24.581,FishGame,2022.1.1,60.03810017864712,
,38,나를 데려가줘,6,Green,B,0,0,ScrollDown,ScrollUp,Green.png,3,NonTarget,NonTarget,0,0,0,0,,,,,,,,,,,,,,,,,,,,,0,37,37,37,,,,,,,,,,,,,,,,,,,,,,,,,,,,,,,,,,,,,,,,,,,,,,,,,,,,,,,,,,,,,,,,,,,,,,,,,,,,,1.1435185273488362,1.558494900000369,470.24962679999953,None,ScrollDown,정답입니다,470.24962679999953,None,470.24962679999953,None,470.24962679999953,None,470.24962679999953,None,471.6866915999999,None,471.6866915999999,472.18633709999995,,,,,,,,,,,,,,,,221,2022-05-20_15h40.24.581,FishGame,2022.1.1,60.03810017864712,
,39,넌 현명해,2,Orange,A,6.541666666666666,4.533333333333333,ScrollDown,ScrollUp,Orange.png,3,Positive,Congruent,0,0,0,0,,,,,,,,,,,,,,,,,,,,,0,38,38,38,,,,,,,,,,,,,,,,,,,,,,,,,,,,,,,,,,,,,,,,,,,,,,,,,,,,,,,,,,,,,,,,,,,,,,,,,,,,,1.0709876716136932,1.5952192999993713,472.83842749999894,None,ScrollDown,정답입니다,472.83842749999894,None,472.83842749999894,None,472.83842749999894,None,472.83842749999894,None,474.3047929000004,None,474.3047929000004,474.8192235000006,,,,,,,,,,,,,,,,221,2022-05-20_15h40.24.581,FishGame,2022.1.1,60.03810017864712,
,40,넌 수줍어,3,Green,B,3.541666666666666,4.366666666666666,ScrollUp,ScrollDown,Green.png,3,Neutral,Neutral,0,0,0,0,,,,,,,,,,,,,,,,,,,,,0,39,39,39,,,,,,,,,,,,,,,,,,,,,,,,,,,,,,,,,,,,,,,,,,,,,,,,,,,,,,,,,,,,,,,,,,,,,,,,,,,,,1.733024681607882,1.1625252000012551,475.4753208000002,None,ScrollUp,정답입니다,475.4753208000002,None,475.4753208000002,None,475.4753208000002,None,475.4753208000002,None,476.5052754999997,None,476.5052754999997,477.0190263000004,,,,,,,,,,,,,,,,221,2022-05-20_15h40.24.581,FishGame,2022.1.1,60.03810017864712,
,41,나를 데려가줘,6,Green,B,0,0,ScrollDown,ScrollUp,Green.png,3,NonTarget,NonTarget,0,0,0,0,,,,,,,,,,,,,,,,,,,,,0,40,40,40,,,,,,,,,,,,,,,,,,,,,,,,,,,,,,,,,,,,,,,,,,,,,,,,,,,,,,,,,,,,,,,,,,,,,,,,,,,,,1.0663580298423767,1.210377299999891,477.6658733999993,None,ScrollDown,정답입니다,477.6658733999993,None,477.6658733999993,None,477.6658733999993,None,477.6658733999993,None,478.75200629999927,None,478.75200629999927,479.25205409999944,,,,,,,,,,,,,,,,221,2022-05-20_15h40.24.581,FishGame,2022.1.1,60.03810017864712,
,42,넌 성숙해,2,Green,B,5.833333333333333,4.533333333333333,ScrollUp,ScrollDown,Green.png,3,Positive,Incongruent,0,0,0,0,,,,,,,,,,,,,,,,,,,,,0,41,41,41,,,,,,,,,,,,,,,,,,,,,,,,,,,,,,,,,,,,,,,,,,,,,,,,,,,,,,,,,,,,,,,,,,,,,,,,,,,,,1.9845678806304932,1.2275695000007545,479.8992894999992,None,ScrollUp,정답입니다,479.8992894999992,None,479.8992894999992,None,479.8992894999992,None,479.8992894999992,None,480.9985751000004,None,480.9985751000004,481.50171690000025,,,,,,,,,,,,,,,,221,2022-05-20_15h40.24.581,FishGame,2022.1.1,60.03810017864712,
,1,넌 매력적이야,2,Green,B,6.125,4.666666666666667,ScrollUp,ScrollDown,Green.png,4,Positive,Incongruent,0,0,0,0,,,,,,,,,,,,,,,,,,,,,,,,,0,0,0,0,,,,,,,,,,,,,,,,,,,,,,,,,,,,,,,,522.9467690999991,524.4463137000002,524.4795849000002,525.4294257999991,525.4794041999994,526.4292738999993,526.4292738999993,None,,,,,,,,,,,,,,,,,,,,,,,,,,,,,,,,,,2,1.210420700001123,527.6287209000002,None,ScrollUp,정답입니다,527.6287209000002,None,527.6287209000002,None,527.6287209000002,None,527.6287209000002,None,528.6565628999997,None,528.6565628999997,529.1622224999992,482.0016147000006,None,482.0016147000006,None,0.050925925,0.08611111,1,0,0,0.01616259999900649,None,512.0145085999993,None,,,221,2022-05-20_15h40.24.581,FishGame,2022.1.1,60.03810017864712,
,2,나를 보내줘,6,Orange,A,0,0,ScrollUp,ScrollDown,Orange.png,4,NonTarget,NonTarget,0,0,0,0,,,,,,,,,,,,,,,,,,,,,,,,,0,1,1,1,,,,,,,,,,,,,,,,,,,,,,,,,,,,,,,,,,,,,,,,,,,,,,,,,,,,,,,,,,,,,,,,,,,,,,,,,2,1.1621530000011262,529.8142026000005,None,ScrollUp,정답입니다,529.8142026000005,None,529.8142026000005,None,529.8142026000005,None,529.8142026000005,None,530.8458061999991,None,530.8458061999991,531.3452971999995,,,,,,,,,,,,,,,,221,2022-05-20_15h40.24.581,FishGame,2022.1.1,60.03810017864712,
,3,넌 조심스러워,3,Orange,A,4.791666666666666,4.666666666666667,ScrollDown,ScrollUp,Orange.png,4,Neutral,Neutral,0,0,0,0,,,,,,,,,,,,,,,,,,,,,,,,,0,2,2,2,,,,,,,,,,,,,,,,,,,,,,,,,,,,,,,,,,,,,,,,,,,,,,,,,,,,,,,,,,,,,,,,,,,,,,,,,1.1064814925193787,1.0363749999996799,532.0016159999996,None,ScrollDown,정답입니다,532.0016159999996,None,532.0016159999996,None,532.0016159999996,None,532.0016159999996,None,532.9050900000002,None,532.9050900000002,533.4117329000001,,,,,,,,,,,,,,,,221,2022-05-20_15h40.24.581,FishGame,2022.1.1,60.03810017864712,
,4,넌 철학적이야,3,Green,B,4.5,4.266666666666667,ScrollUp,ScrollDown,Green.png,4,Neutral,Neutral,0,0,0,0,,,,,,,,,,,,,,,,,,,,,,,,,0,3,3,3,,,,,,,,,,,,,,,,,,,,,,,,,,,,,,,,,,,,,,,,,,,,,,,,,,,,,,,,,,,,,,,,,,,,,,,,,1.8950617214043934,1.0554474000000482,534.0659627999994,None,ScrollUp,정답입니다,534.0659627999994,None,534.0659627999994,None,534.0659627999994,None,534.0659627999994,None,534.9883377000006,None,534.9883377000006,535.4947659999998,,,,,,,,,,,,,,,,221,2022-05-20_15h40.24.581,FishGame,2022.1.1,60.03810017864712,
,5,넌 쩨쩨해,5,Orange,A,2.375,2.133333333333333,ScrollDown,ScrollUp,Orange.png,4,Negative,Incongruent,0,0,0,0,,,,,,,,,,,,,,,,,,,,,,,,,0,4,4,4,,,,,,,,,,,,,,,,,,,,,,,,,,,,,,,,,,,,,,,,,,,,,,,,,,,,,,,,,,,,,,,,,,,,,,,,,1.2021604826052983,1.061255099999471,536.1698940000006,None,ScrollDown,정답입니다,536.1698940000006,None,536.1698940000006,None,536.1698940000006,None,536.1698940000006,None,537.0796408000006,None,537.0796408000006,537.5946423000005,,,,,,,,,,,,,,,,221,2022-05-20_15h40.24.581,FishGame,2022.1.1,60.03810017864712,
,6,나를 데려가줘,6,Green,B,0,0,ScrollDown,ScrollUp,Green.png,4,NonTarget,NonTarget,0,0,0,0,,,,,,,,,,,,,,,,,,,,,,,,,0,5,5,5,,,,,,,,,,,,,,,,,,,,,,,,,,,,,,,,,,,,,,,,,,,,,,,,,,,,,,,,,,,,,,,,,,,,,,,,,1.180555562178294,1.1335140999999567,538.2401764999995,None,ScrollDown,정답입니다,538.2401764999995,None,538.2401764999995,None,538.2401764999995,None,538.2401764999995,None,539.2505722999995,None,539.2505722999995,539.760891599999,,,,,,,,,,,,,,,,221,2022-05-20_15h40.24.581,FishGame,2022.1.1,60.03810017864712,
,7,넌 고집불통이야,5,Green,B,2.875,2,ScrollUp,ScrollDown,Green.png,4,Negative,Congruent,0,0,0,0,,,,,,,,,,,,,,,,,,,,,,,,,0,6,6,6,,,,,,,,,,,,,,,,,,,,,,,,,,,,,,,,,,,,,,,,,,,,,,,,,,,,,,,,,,,,,,,,,,,,,,,,,1.8981481492519379,1.1001429999996617,540.4181592999994,None,ScrollUp,정답입니다,540.4181592999994,None,540.4181592999994,None,540.4181592999994,None,540.4181592999994,None,541.3825037000006,None,541.3825037000006,541.8938419999995,,,,,,,,,,,,,,,,221,2022-05-20_15h40.24.581,FishGame,2022.1.1,60.03810017864712,
,8,넌 무심해,4,Orange,A,2.875,3.2,ScrollDown,ScrollUp,Orange.png,4,Negative,Incongruent,0,0,0,0,,,,,,,,,,,,,,,,,,,,,,,,,0,7,7,7,,,,,,,,,,,,,,,,,,,,,,,,,,,,,,,,,,,,,,,,,,,,,,,,,,,,,,,,,,,,,,,,,,,,,,,,,1.3749999950329461,0.9848941000000195,542.5486129000001,None,ScrollDown,정답입니다,542.5486129000001,None,542.5486129000001,None,542.5486129000001,None,542.5486129000001,None,543.4001558,None,543.4001558,543.9103300000006,,,,,,,,,,,,,,,,221,2022-05-20_15h40.24.581,FishGame,2022.1.1,60.03810017864712,
,9,넌 정겨워,1,Orange,A,5.791666666666667,5.666666666666667,ScrollDown,ScrollUp,Orange.png,4,Positive,Congruent,0,0,0,0,,,,,,,,,,,,,,,,,,,,,,,,,0,8,8,8,,,,,,,,,,,,,,,,,,,,,,,,,,,,,,,,,,,,,,,,,,,,,,,,,,,,,,,,,,,,,,,,,,,,,,,,,1.2577160596847534,0.9864259000005404,544.5700400999995,None,ScrollDown,정답입니다,544.5700400999995,None,544.5700400999995,None,544.5700400999995,None,544.5700400999995,None,545.4196427000006,None,545.4196427000006,545.9267275000002,,,,,,,,,,,,,,,,221,2022-05-20_15h40.24.581,FishGame,2022.1.1,60.03810017864712,
,10,나를 데려가줘,6,Green,B,0,0,ScrollDown,ScrollUp,Green.png,4,NonTarget,NonTarget,0,0,0,0,,,,,,,,,,,,,,,,,,,,,,,,,0,9,9,9,,,,,,,,,,,,,,,,,,,,,,,,,,,,,,,,,,,,,,,,,,,,,,,,,,,,,,,,,,,,,,,,,,,,,,,,,1.0540123681227367,1.1601835999990726,546.5756865999992,None,ScrollDown,정답입니다,546.5756865999992,None,546.5756865999992,None,546.5756865999992,None,546.5756865999992,None,547.6100917000003,None,547.6100917000003,548.1098031000001,,,,,,,,,,,,,,,,221,2022-05-20_15h40.24.581,FishGame,2022.1.1,60.03810017864712,
,11,넌 체제순응적이야,4,Green,B,3,3.6,ScrollUp,ScrollDown,Green.png,4,Negative,Congruent,0,0,0,0,,,,,,,,,,,,,,,,,,,,,,,,,0,10,10,10,,,,,,,,,,,,,,,,,,,,,,,,,,,,,,,,,,,,,,,,,,,,,,,,,,,,,,,,,,,,,,,,,,,,,,,,,1.9891975224018097,1.1116056999999273,548.7788406,None,ScrollUp,정답입니다,548.7788406,None,548.7788406,None,548.7788406,None,548.7788406,None,549.7430082999999,None,549.7430082999999,550.2427647999993,,,,,,,,,,,,,,,,221,2022-05-20_15h40.24.581,FishGame,2022.1.1,60.03810017864712,
,12,나를 보내줘,6,Orange,A,0,0,ScrollUp,ScrollDown,Orange.png,4,NonTarget,NonTarget,0,0,0,0,,,,,,,,,,,,,,,,,,,,,,,,,0,11,11,11,,,,,,,,,,,,,,,,,,,,,,,,,,,,,,,,,,,,,,,,,,,,,,,,,,,,,,,,,,,,,,,,,,,,,,,,,1.68364197264115,1.3597420000005513,550.8941642999998,None,ScrollUp,정답입니다,550.8941642999998,None,550.8941642999998,None,550.8941642999998,None,550.8941642999998,None,552.1212398999996,None,552.1212398999996,552.6259506000006,,,,,,,,,,,,,,,,221,2022-05-20_15h40.24.581,FishGame,2022.1.1,60.03810017864712,
,13,넌 박식해,2,Orange,A,5.625,3.933333333333333,ScrollDown,ScrollUp,Orange.png,4,Positive,Congruent,0,0,0,0,,,,,,,,,,,,,,,,,,,,,,,,,0,12,12,12,,,,,,,,,,,,,,,,,,,,,,,,,,,,,,,,,,,,,,,,,,,,,,,,,,,,,,,,,,,,,,,,,,,,,,,,,1.160493830839793,0.9730135000008886,553.2883567999997,None,ScrollDown,정답입니다,553.2883567999997,None,553.2883567999997,None,553.2883567999997,None,553.2883567999997,None,554.1259888000004,None,554.1259888000004,554.6256537999998,,,,,,,,,,,,,,,,221,2022-05-20_15h40.24.581,FishGame,2022.1.1,60.03810017864712,
,14,나를 보내줘,6,Orange,A,0,0,ScrollUp,ScrollDown,Orange.png,4,NonTarget,NonTarget,0,0,0,0,,,,,,,,,,,,,,,,,,,,,,,,,0,13,13,13,,,,,,,,,,,,,,,,,,,,,,,,,,,,,,,,,,,,,,,,,,,,,,,,,,,,,,,,,,,,,,,,,,,,,,,,,1.7592592686414719,1.0517787999997381,555.2856118,None,ScrollUp,정답입니다,555.2856118,None,555.2856118,None,555.2856118,None,555.2856118,None,556.1999097999997,None,556.1999097999997,556.7086629999994,,,,,,,,,,,,,,,,221,2022-05-20_15h40.24.581,FishGame,2022.1.1,60.03810017864712,
,15,넌 침착해,1,Green,B,5.458333333333333,5.566666666666666,ScrollUp,ScrollDown,Green.png,4,Positive,Incongruent,0,0,0,0,,,,,,,,,,,,,,,,,,,,,,,,,0,14,14,14,,,,,,,,,,,,,,,,,,,,,,,,,,,,,,,,,,,,,,,,,,,,,,,,,,,,,,,,,,,,,,,,,,,,,,,,,1.9953703780968983,1.2209583000003477,557.3642920999991,None,ScrollUp,정답입니다,557.3642920999991,None,557.3642920999991,None,557.3642920999991,None,557.3642920999991,None,558.4512087999992,None,558.4512087999992,558.9583122000004,,,,,,,,,,,,,,,,221,2022-05-20_15h40.24.581,FishGame,2022.1.1,60.03810017864712,
,16,나를 데려가줘,6,Green,B,0,0,ScrollDown,ScrollUp,Green.png,4,NonTarget,NonTarget,0,0,0,0,,,,,,,,,,,,,,,,,,,,,,,,,0,15,15,15,,,,,,,,,,,,,,,,,,,,,,,,,,,,,,,,,,,,,,,,,,,,,,,,,,,,,,,,,,,,,,,,,,,,,,,,,1.0787036915620167,1.106164599999829,559.6092905000005,None,ScrollDown,정답입니다,559.6092905000005,None,559.6092905000005,None,559.6092905000005,None,559.6092905000005,None,560.5853795999992,None,560.5853795999992,561.0914570999994,,,,,,,,,,,,,,,,221,2022-05-20_15h40.24.581,FishGame,2022.1.1,60.03810017864712,
,17,넌 행복해,1,Orange,A,6.416666666666666,6.166666666666667,ScrollDown,ScrollUp,Orange.png,4,Positive,Congruent,0,0,0,0,,,,,,,,,,,,,,,,,,,,,,,,,0,16,16,16,,,,,,,,,,,,,,,,,,,,,,,,,,,,,,,,,,,,,,,,,,,,,,,,,,,,,,,,,,,,,,,,,,,,,,,,,1.095679019888242,1.0433204999990267,561.7502439999989,None,ScrollDown,정답입니다,561.7502439999989,None,561.7502439999989,None,561.7502439999989,None,561.7502439999989,None,562.6581442999995,None,562.6581442999995,563.1578527999991,,,,,,,,,,,,,,,,221,2022-05-20_15h40.24.581,FishGame,2022.1.1,60.03810017864712,
,18,넌 겸손해,2,Green,B,5.791666666666667,4.766666666666667,ScrollUp,ScrollDown,Green.png,4,Positive,Incongruent,0,0,0,0,,,,,,,,,,,,,,,,,,,,,,,,,0,17,17,17,,,,,,,,,,,,,,,,,,,,,,,,,,,,,,,,,,,,,,,,,,,,,,,,,,,,,,,,,,,,,,,,,,,,,,,,,1.8333333383003871,1.2159560000000056,563.8146213999989,None,ScrollUp,정답입니다,563.8146213999989,None,563.8146213999989,None,563.8146213999989,None,563.8146213999989,None,564.8969758000003,None,564.8969758000003,565.4075704999996,,,,,,,,,,,,,,,,221,2022-05-20_15h40.24.581,FishGame,2022.1.1,60.03810017864712,
,19,나를 보내줘,6,Orange,A,0,0,ScrollUp,ScrollDown,Orange.png,4,NonTarget,NonTarget,0,0,0,0,,,,,,,,,,,,,,,,,,,,,,,,,0,18,18,18,,,,,,,,,,,,,,,,,,,,,,,,,,,,,,,,,,,,,,,,,,,,,,,,,,,,,,,,,,,,,,,,,,,,,,,,,1.8009259204069774,1.2508785999998508,566.0610342999989,None,ScrollUp,정답입니다,566.0610342999989,None,566.0610342999989,None,566.0610342999989,None,566.0610342999989,None,567.1803980000004,None,567.1803980000004,567.6905712000007,,,,,,,,,,,,,,,,221,2022-05-20_15h40.24.581,FishGame,2022.1.1,60.03810017864712,
,20,넌 의심없어,3,Orange,A,4.166666666666667,4.6,ScrollDown,ScrollUp,Orange.png,4,Neutral,Neutral,0,0,0,0,,,,,,,,,,,,,,,,,,,,,,,,,0,19,19,19,,,,,,,,,,,,,,,,,,,,,,,,,,,,,,,,,,,,,,,,,,,,,,,,,,,,,,,,,,,,,,,,,,,,,,,,,1.0679012437661488,1.0289403999995557,568.3431191999989,None,ScrollDown,정답입니다,568.3431191999989,None,568.3431191999989,None,568.3431191999989,None,568.3431191999989,None,569.2427508000001,None,569.2427508000001,569.757090699999,,,,,,,,,,,,,,,,221,2022-05-20_15h40.24.581,FishGame,2022.1.1,60.03810017864712,
,21,넌 시시해,4,Orange,A,2.666666666666667,2.966666666666667,ScrollDown,ScrollUp,Orange.png,4,Negative,Incongruent,0,0,0,0,,,,,,,,,,,,,,,,,,,,,,,,,0,20,20,20,,,,,,,,,,,,,,,,,,,,,,,,,,,,,,,,,,,,,,,,,,,,,,,,,,,,,,,,,,,,,,,,,,,,,,,,,1.296296296020349,1.034105400000044,570.4093453000005,None,ScrollDown,정답입니다,570.4093453000005,None,570.4093453000005,None,570.4093453000005,None,570.4093453000005,None,571.3144983000002,None,571.3144983000002,571.8234374999993,,,,,,,,,,,,,,,,221,2022-05-20_15h40.24.581,FishGame,2022.1.1,60.03810017864712,
,22,나를 데려가줘,6,Green,B,0,0,ScrollDown,ScrollUp,Green.png,4,NonTarget,NonTarget,0,0,0,0,,,,,,,,,,,,,,,,,,,,,,,,,0,21,21,21,,,,,,,,,,,,,,,,,,,,,,,,,,,,,,,,,,,,,,,,,,,,,,,,,,,,,,,,,,,,,,,,,,,,,,,,,1.2268518557151158,1.1896040999999968,572.4721769000007,None,ScrollDown,정답입니다,572.4721769000007,None,572.4721769000007,None,572.4721769000007,None,572.4721769000007,None,573.5329328999997,None,573.5329328999997,574.0399323999991,,,,,,,,,,,,,,,,221,2022-05-20_15h40.24.581,FishGame,2022.1.1,60.03810017864712,
,23,넌 무정해,5,Orange,A,2.5,2.2,ScrollDown,ScrollUp,Orange.png,4,Negative,Incongruent,0,0,0,0,,,,,,,,,,,,,,,,,,,,,,,,,0,22,22,22,,,,,,,,,,,,,,,,,,,,,,,,,,,,,,,,,,,,,,,,,,,,,,,,,,,,,,,,,,,,,,,,,,,,,,,,,1.3564814776182175,1.1304985000006127,574.6888013999996,None,ScrollDown,정답입니다,574.6888013999996,None,574.6888013999996,None,574.6888013999996,None,574.6888013999996,None,575.6948912000007,None,575.6948912000007,576.2061522999993,,,,,,,,,,,,,,,,221,2022-05-20_15h40.24.581,FishGame,2022.1.1,60.03810017864712,
,24,넌 긍정적이야,1,Green,B,6.041666666666667,6.066666666666666,ScrollUp,ScrollDown,Green.png,4,Positive,Incongruent,0,0,0,0,,,,,,,,,,,,,,,,,,,,,,,,,0,23,23,23,,,,,,,,,,,,,,,,,,,,,,,,,,,,,,,,,,,,,,,,,,,,,,,,,,,,,,,,,,,,,,,,,,,,,,,,,1.8981481492519379,1.4340948999997636,576.8644476999998,None,ScrollUp,정답입니다,576.8644476999998,None,576.8644476999998,None,576.8644476999998,None,576.8644476999998,None,578.162096,None,578.162096,578.6723793000001,,,,,,,,,,,,,,,,221,2022-05-20_15h40.24.581,FishGame,2022.1.1,60.03810017864712,
,25,나를 보내줘,6,Orange,A,0,0,ScrollUp,ScrollDown,Orange.png,4,NonTarget,NonTarget,0,0,0,0,,,,,,,,,,,,,,,,,,,,,,,,,0,24,24,24,,,,,,,,,,,,,,,,,,,,,,,,,,,,,,,,,,,,,,,,,,,,,,,,,,,,,,,,,,,,,,,,,,,,,,,,,1.6820987711350122,1.1936102999989089,579.3236168999993,None,ScrollUp,정답입니다,579.3236168999993,None,579.3236168999993,None,579.3236168999993,None,579.3236168999993,None,580.3850717999994,None,580.3850717999994,580.8889072000002,,,,,,,,,,,,,,,,221,2022-05-20_15h40.24.581,FishGame,2022.1.1,60.03810017864712,
,26,넌 시기심이 많아,5,Green,B,2.458333333333333,2.233333333333333,ScrollUp,ScrollDown,Green.png,4,Negative,Congruent,0,0,0,0,,,,,,,,,,,,,,,,,,,,,,,,,0,25,25,25,,,,,,,,,,,,,,,,,,,,,,,,,,,,,,,,,,,,,,,,,,,,,,,,,,,,,,,,,,,,,,,,,,,,,,,,,1.7638888855775197,1.095159299999068,581.5470807999991,None,ScrollUp,정답입니다,581.5470807999991,None,581.5470807999991,None,581.5470807999991,None,581.5470807999991,None,582.5085409000003,None,582.5085409000003,583.0219739000004,,,,,,,,,,,,,,,,221,2022-05-20_15h40.24.581,FishGame,2022.1.1,60.03810017864712,
,27,넌 탁월해,2,Orange,A,5.708333333333334,4.5,ScrollDown,ScrollUp,Orange.png,4,Positive,Congruent,0,0,0,0,,,,,,,,,,,,,,,,,,,,,,,,,0,26,26,26,,,,,,,,,,,,,,,,,,,,,,,,,,,,,,,,,,,,,,,,,,,,,,,,,,,,,,,,,,,,,,,,,,,,,,,,,1.1450617164373398,1.2454440999990766,583.6852486999996,None,ScrollDown,정답입니다,583.6852486999996,None,583.6852486999996,None,583.6852486999996,None,583.6852486999996,None,584.7905518000007,None,584.7905518000007,585.3049776000007,,,,,,,,,,,,,,,,221,2022-05-20_15h40.24.581,FishGame,2022.1.1,60.03810017864712,
,28,나를 데려가줘,6,Green,B,0,0,ScrollDown,ScrollUp,Green.png,4,NonTarget,NonTarget,0,0,0,0,,,,,,,,,,,,,,,,,,,,,,,,,0,27,27,27,,,,,,,,,,,,,,,,,,,,,,,,,,,,,,,,,,,,,,,,,,,,,,,,,,,,,,,,,,,,,,,,,,,,,,,,,1.0447530845801036,1.3826513000003615,585.9516714999991,None,ScrollDown,정답입니다,585.9516714999991,None,585.9516714999991,None,585.9516714999991,None,585.9516714999991,None,587.2099856000004,None,587.2099856000004,587.7213857000006,,,,,,,,,,,,,,,,221,2022-05-20_15h40.24.581,FishGame,2022.1.1,60.03810017864712,
,29,넌 조용해,3,Green,B,4.333333333333333,4.166666666666667,ScrollUp,ScrollDown,Green.png,4,Neutral,Neutral,0,0,0,0,,,,,,,,,,,,,,,,,,,,,,,,,0,28,28,28,,,,,,,,,,,,,,,,,,,,,,,,,,,,,,,,,,,,,,,,,,,,,,,,,,,,,,,,,,,,,,,,,,,,,,,,,1.9459876318772633,1.1916815000004135,588.3763975000002,None,ScrollUp,정답입니다,588.3763975000002,None,588.3763975000002,None,588.3763975000002,None,588.3763975000002,None,589.4378159000007,None,589.4378159000007,589.9376962999995,,,,,,,,,,,,,,,,221,2022-05-20_15h40.24.581,FishGame,2022.1.1,60.03810017864712,
,30,넌 다정해,1,Orange,A,5.833333333333334,5.7,ScrollDown,ScrollUp,Orange.png,4,Positive,Congruent,0,0,0,0,,,,,,,,,,,,,,,,,,,,,,,,,0,29,29,29,,,,,,,,,,,,,,,,,,,,,,,,,,,,,,,,,,,,,,,,,,,,,,,,,,,,,,,,,,,,,,,,,,,,,,,,,1.2391975422700245,1.0935883000001922,590.5984914000001,None,ScrollDown,정답입니다,590.5984914000001,None,590.5984914000001,None,590.5984914000001,None,590.5984914000001,None,591.5548785999999,None,591.5548785999999,592.0539585000006,,,,,,,,,,,,,,,,221,2022-05-20_15h40.24.581,FishGame,2022.1.1,60.03810017864712,
,31,넌 능력있어,2,Green,B,6.166666666666666,4.6,ScrollUp,ScrollDown,Green.png,4,Positive,Incongruent,0,0,0,0,,,,,,,,,,,,,,,,,,,,,,,,,0,30,30,30,,,,,,,,,,,,,,,,,,,,,,,,,,,,,,,,,,,,,,,,,,,,,,,,,,,,,,,,,,,,,,,,,,,,,,,,,2,1.1778273999989324,592.7045366000002,None,ScrollUp,정답입니다,592.7045366000002,None,592.7045366000002,None,592.7045366000002,None,592.7045366000002,None,593.7541910999989,None,593.7541910999989,594.2538903999994,,,,,,,,,,,,,,,,221,2022-05-20_15h40.24.581,FishGame,2022.1.1,60.03810017864712,
,32,넌 불쾌해,5,Orange,A,2.125,1.933333333333333,ScrollDown,ScrollUp,Orange.png,4,Negative,Incongruent,0,0,0,0,,,,,,,,,,,,,,,,,,,,,,,,,0,31,31,31,,,,,,,,,,,,,,,,,,,,,,,,,,,,,,,,,,,,,,,,,,,,,,,,,,,,,,,,,,,,,,,,,,,,,,,,,1.2793209801117578,1.0065776000010374,594.9073721999994,None,ScrollDown,정답입니다,594.9073721999994,None,594.9073721999994,None,594.9073721999994,None,594.9073721999994,None,595.7814087999996,None,595.7814087999996,596.2869580999995,,,,,,,,,,,,,,,,221,2022-05-20_15h40.24.581,FishGame,2022.1.1,60.03810017864712,
,33,나를 데려가줘,6,Green,B,0,0,ScrollDown,ScrollUp,Green.png,4,NonTarget,NonTarget,0,0,0,0,,,,,,,,,,,,,,,,,,,,,,,,,0,32,32,32,,,,,,,,,,,,,,,,,,,,,,,,,,,,,,,,,,,,,,,,,,,,,,,,,,,,,,,,,,,,,,,,,,,,,,,,,1.1188271542390187,1.267542499999763,596.9380978999998,None,ScrollDown,정답입니다,596.9380978999998,None,596.9380978999998,None,596.9380978999998,None,596.9380978999998,None,598.0770229999998,None,598.0770229999998,598.5867137999994,,,,,,,,,,,,,,,,221,2022-05-20_15h40.24.581,FishGame,2022.1.1,60.03810017864712,
,34,넌 유순해,3,Orange,A,4.458333333333333,5,ScrollDown,ScrollUp,Orange.png,4,Neutral,Neutral,0,0,0,0,,,,,,,,,,,,,,,,,,,,,,,,,0,33,33,33,,,,,,,,,,,,,,,,,,,,,,,,,,,,,,,,,,,,,,,,,,,,,,,,,,,,,,,,,,,,,,,,,,,,,,,,,1.1111111094554265,1.4455129999987548,599.2399033999991,None,ScrollDown,정답입니다,599.2399033999991,None,599.2399033999991,None,599.2399033999991,None,599.2399033999991,None,600.5564001000002,None,600.5564001000002,601.0695797999997,,,,,,,,,,,,,,,,221,2022-05-20_15h40.24.581,FishGame,2022.1.1,60.03810017864712,
,35,넌 근심스러워,4,Green,B,2.708333333333333,3.133333333333333,ScrollUp,ScrollDown,Green.png,4,Negative,Congruent,0,0,0,0,,,,,,,,,,,,,,,,,,,,,,,,,0,34,34,34,,,,,,,,,,,,,,,,,,,,,,,,,,,,,,,,,,,,,,,,,,,,,,,,,,,,,,,,,,,,,,,,,,,,,,,,,1.9490740597248077,1.1522211999999854,601.7282314000004,None,ScrollUp,정답입니다,601.7282314000004,None,601.7282314000004,None,601.7282314000004,None,601.7282314000004,None,602.7428650000002,None,602.7428650000002,603.2526572999996,,,,,,,,,,,,,,,,221,2022-05-20_15h40.24.581,FishGame,2022.1.1,60.03810017864712,
,36,넌 세련되었어,2,Orange,A,5.5,4.6,ScrollDown,ScrollUp,Orange.png,4,Positive,Congruent,0,0,0,0,,,,,,,,,,,,,,,,,,,,,,,,,0,35,35,35,,,,,,,,,,,,,,,,,,,,,,,,,,,,,,,,,,,,,,,,,,,,,,,,,,,,,,,,,,,,,,,,,,,,,,,,,1.1018518507480621,1.0902647999992041,603.9247245000006,None,ScrollDown,정답입니다,603.9247245000006,None,603.9247245000006,None,603.9247245000006,None,603.9247245000006,None,604.8634289000001,None,604.8634289000001,605.3690119000003,,,,,,,,,,,,,,,,221,2022-05-20_15h40.24.581,FishGame,2022.1.1,60.03810017864712,
,37,나를 보내줘,6,Orange,A,0,0,ScrollUp,ScrollDown,Orange.png,4,NonTarget,NonTarget,0,0,0,0,,,,,,,,,,,,,,,,,,,,,,,,,0,36,36,36,,,,,,,,,,,,,,,,,,,,,,,,,,,,,,,,,,,,,,,,,,,,,,,,,,,,,,,,,,,,,,,,,,,,,,,,,1.837962955236435,1.4900511000014376,606.0220456999996,None,ScrollUp,정답입니다,606.0220456999996,None,606.0220456999996,None,606.0220456999996,None,606.0220456999996,None,607.3856123000005,None,607.3856123000005,607.8854076999996,,,,,,,,,,,,,,,,221,2022-05-20_15h40.24.581,FishGame,2022.1.1,60.03810017864712,
,38,넌 확고해,3,Green,B,4.708333333333334,4.566666666666666,ScrollUp,ScrollDown,Green.png,4,Neutral,Neutral,0,0,0,0,,,,,,,,,,,,,,,,,,,,,,,,,0,37,37,37,,,,,,,,,,,,,,,,,,,,,,,,,,,,,,,,,,,,,,,,,,,,,,,,,,,,,,,,,,,,,,,,,,,,,,,,,1.785493830839793,1.0680986999996094,608.5433498000002,None,ScrollUp,정답입니다,608.5433498000002,None,608.5433498000002,None,608.5433498000002,None,608.5433498000002,None,609.4775408999994,None,609.4775408999994,609.9851137000005,,,,,,,,,,,,,,,,221,2022-05-20_15h40.24.581,FishGame,2022.1.1,60.03810017864712,
,39,넌 이해심이 많아,1,Green,B,6.041666666666668,5.533333333333333,ScrollUp,ScrollDown,Green.png,4,Positive,Incongruent,0,0,0,0,,,,,,,,,,,,,,,,,,,,,,,,,0,38,38,38,,,,,,,,,,,,,,,,,,,,,,,,,,,,,,,,,,,,,,,,,,,,,,,,,,,,,,,,,,,,,,,,,,,,,,,,,1.9537037014961243,1.2066513000008854,610.6336701,None,ScrollUp,정답입니다,610.6336701,None,610.6336701,None,610.6336701,None,610.6336701,None,611.7183476999999,None,611.7183476999999,612.2181378000005,,,,,,,,,,,,,,,,221,2022-05-20_15h40.24.581,FishGame,2022.1.1,60.03810017864712,
,40,나를 보내줘,6,Orange,A,0,0,ScrollUp,ScrollDown,Orange.png,4,NonTarget,NonTarget,0,0,0,0,,,,,,,,,,,,,,,,,,,,,,,,,0,39,39,39,,,,,,,,,,,,,,,,,,,,,,,,,,,,,,,,,,,,,,,,,,,,,,,,,,,,,,,,,,,,,,,,,,,,,,,,,1.9783950746059418,1.2978282999993098,612.8708280999999,None,ScrollUp,정답입니다,612.8708280999999,None,612.8708280999999,None,612.8708280999999,None,612.8708280999999,None,614.0386653000005,None,614.0386653000005,614.5512178999998,,,,,,,,,,,,,,,,221,2022-05-20_15h40.24.581,FishGame,2022.1.1,60.03810017864712,
,41,넌 거칠어,4,Orange,A,2.625,3.033333333333333,ScrollDown,ScrollUp,Orange.png,4,Negative,Incongruent,0,0,0,0,,,,,,,,,,,,,,,,,,,,,,,,,0,40,40,40,,,,,,,,,,,,,,,,,,,,,,,,,,,,,,,,,,,,,,,,,,,,,,,,,,,,,,,,,,,,,,,,,,,,,,,,,1.1373456716537476,1.1767591999996512,615.2176505000007,None,ScrollDown,정답입니다,615.2176505000007,None,615.2176505000007,None,615.2176505000007,None,615.2176505000007,None,616.2509871999991,None,616.2509871999991,616.7509131000006,,,,,,,,,,,,,,,,221,2022-05-20_15h40.24.581,FishGame,2022.1.1,60.03810017864712,
,42,넌 변덕맞아,5,Green,B,2.75,2.166666666666667,ScrollUp,ScrollDown,Green.png,4,Negative,Congruent,0,0,0,0,,,,,,,,,,,,,,,,,,,,,,,,,0,41,41,41,,,,,,,,,,,,,,,,,,,,,,,,,,,,,,,,,,,,,,,,,,,,,,,,,,,,,,,,,,,,,,,,,,,,,,,,,1.8888888905445735,1.1646698999993532,617.4089709,None,ScrollUp,정답입니다,617.4089709,None,617.4089709,None,617.4089709,None,617.4089709,None,618.4382549000002,None,618.4382549000002,618.9508079000007,,,,,,,,,,,,,,,,221,2022-05-20_15h40.24.581,FishGame,2022.1.1,60.03810017864712,
,43,나를 데려가줘,6,Green,B,0,0,ScrollDown,ScrollUp,Green.png,4,NonTarget,NonTarget,0,0,0,0,,,,,,,,,,,,,,,,,,,,,,,,,0,42,42,42,,,,,,,,,,,,,,,,,,,,,,,,,,,,,,,,,,,,,,,,,,,,,,,,,,,,,,,,,,,,,,,,,,,,,,,,,1.2253086417913437,1.21649140000045,619.5993075999995,None,ScrollDown,정답입니다,619.5993075999995,None,619.5993075999995,None,619.5993075999995,None,619.5993075999995,None,620.6905305,None,620.6905305,621.2003932999996,,,,,,,,,,,,,,,,221,2022-05-20_15h40.24.581,FishGame,2022.1.1,60.03810017864712,
,44,넌 외로워,4,Green,B,2.833333333333333,3.3,ScrollUp,ScrollDown,Green.png,4,Negative,Congruent,0,0,0,0,,,,,,,,,,,,,,,,,,,,,,,,,0,43,43,43,,,,,,,,,,,,,,,,,,,,,,,,,,,,,,,,,,,,,,,,,,,,,,,,,,,,,,,,,,,,,,,,,,,,,,,,,1.71913580596447,1.1525929999988875,621.855832199999,None,ScrollUp,정답입니다,621.855832199999,None,621.855832199999,None,621.855832199999,None,621.855832199999,None,622.8739112999992,None,622.8739112999992,623.3833620000005,,,,,,,,,,,,,,,,221,2022-05-20_15h40.24.581,FishGame,2022.1.1,60.03810017864712,
,1,넌 불평스러워,5,Orange,A,2.25,2.066666666666667,ScrollDown,ScrollUp,Orange.png,5,Negative,Incongruent,0,0,0,0,,,,,,,,,,,,,,,,,,,,,,,,,,,,,0,0,0,0,,,,,,,,,,,,,,,,,,,,,,,,,,,,655.9628219999995,657.4624203999992,657.4958313000006,658.4456248999995,658.4957623999999,659.4454870999998,659.4454870999998,None,,,,,,,,,,,,,,,,,,,,,,,,,,,,,,,,,,1.0756172637144725,1.188207400000465,660.6324657000005,None,ScrollDown,정답입니다,660.6324657000005,None,660.6324657000005,None,660.6324657000005,None,660.6324657000005,None,661.6403957999992,None,661.6403957999992,662.1451476000002,623.8834912999992,None,623.8834912999992,None,0.26666668,-0.10185185,1,0,0,0.01622049999969022,None,653.8962006999991,None,,,221,2022-05-20_15h40.24.581,FishGame,2022.1.1,60.03810017864712,
,2,나를 보내줘,6,Orange,A,0,0,ScrollUp,ScrollDown,Orange.png,5,NonTarget,NonTarget,0,0,0,0,,,,,,,,,,,,,,,,,,,,,,,,,,,,,0,1,1,1,,,,,,,,,,,,,,,,,,,,,,,,,,,,,,,,,,,,,,,,,,,,,,,,,,,,,,,,,,,,,,,,,,,,,1.8487654278675716,1.054865099999006,662.7922631000001,None,ScrollUp,정답입니다,662.7922631000001,None,662.7922631000001,None,662.7922631000001,None,662.7922631000001,None,663.7281263000004,None,663.7281263000004,664.2281817000003,,,,,,,,,,,,,,,,221,2022-05-20_15h40.24.581,FishGame,2022.1.1,60.03810017864712,
,3,넌 다재다능해,2,Green,B,6.208333333333333,4.5,ScrollUp,ScrollDown,Green.png,5,Positive,Incongruent,0,0,0,0,,,,,,,,,,,,,,,,,,,,,,,,,,,,,0,2,2,2,,,,,,,,,,,,,,,,,,,,,,,,,,,,,,,,,,,,,,,,,,,,,,,,,,,,,,,,,,,,,,,,,,,,,1.8611111144224803,0.9957515000005515,664.879087199999,None,ScrollUp,정답입니다,664.879087199999,None,664.879087199999,None,664.879087199999,None,664.879087199999,None,665.7470336999995,None,665.7470336999995,666.2611756999995,,,,,,,,,,,,,,,,221,2022-05-20_15h40.24.581,FishGame,2022.1.1,60.03810017864712,
,4,넌 과감해,3,Orange,A,4.833333333333334,4.6,ScrollDown,ScrollUp,Orange.png,5,Neutral,Neutral,0,0,0,0,,,,,,,,,,,,,,,,,,,,,,,,,,,,,0,3,3,3,,,,,,,,,,,,,,,,,,,,,,,,,,,,,,,,,,,,,,,,,,,,,,,,,,,,,,,,,,,,,,,,,,,,,1.0200617114702861,1.0660418000006757,666.9118416999991,None,ScrollDown,정답입니다,666.9118416999991,None,666.9118416999991,None,666.9118416999991,None,666.9118416999991,None,667.8491451999998,None,667.8491451999998,668.3610568000004,,,,,,,,,,,,,,,,221,2022-05-20_15h40.24.581,FishGame,2022.1.1,60.03810017864712,
,5,넌 고분고분해,3,Green,B,3.75,4.033333333333333,ScrollUp,ScrollDown,Green.png,5,Neutral,Neutral,0,0,0,0,,,,,,,,,,,,,,,,,,,,,,,,,,,,,0,4,4,4,,,,,,,,,,,,,,,,,,,,,,,,,,,,,,,,,,,,,,,,,,,,,,,,,,,,,,,,,,,,,,,,,,,,,2,1.5064543000007689,669.0115501,None,ScrollUp,정답입니다,669.0115501,None,669.0115501,None,669.0115501,None,669.0115501,None,670.3938785999999,None,670.3938785999999,670.8938815000001,,,,,,,,,,,,,,,,221,2022-05-20_15h40.24.581,FishGame,2022.1.1,60.03810017864712,
,6,나를 보내줘,6,Orange,A,0,0,ScrollUp,ScrollDown,Orange.png,5,NonTarget,NonTarget,0,0,0,0,,,,,,,,,,,,,,,,,,,,,,,,,,,,,0,5,5,5,,,,,,,,,,,,,,,,,,,,,,,,,,,,,,,,,,,,,,,,,,,,,,,,,,,,,,,,,,,,,,,,,,,,,1.8302469104528427,1.0955254000000423,671.5456013999992,None,ScrollUp,정답입니다,671.5456013999992,None,671.5456013999992,None,671.5456013999992,None,671.5456013999992,None,672.5104283000001,None,672.5104283000001,673.0102212999991,,,,,,,,,,,,,,,,221,2022-05-20_15h40.24.581,FishGame,2022.1.1,60.03810017864712,
,7,넌 잘 잊어,4,Orange,A,3,3.7,ScrollDown,ScrollUp,Orange.png,5,Negative,Incongruent,0,0,0,0,,,,,,,,,,,,,,,,,,,,,,,,,,,,,0,6,6,6,,,,,,,,,,,,,,,,,,,,,,,,,,,,,,,,,,,,,,,,,,,,,,,,,,,,,,,,,,,,,,,,,,,,,1.2376543283462524,1.067683000001125,673.6735143000005,None,ScrollDown,정답입니다,673.6735143000005,None,673.6735143000005,None,673.6735143000005,None,673.6735143000005,None,674.6007155000007,None,674.6007155000007,675.1100057000003,,,,,,,,,,,,,,,,221,2022-05-20_15h40.24.581,FishGame,2022.1.1,60.03810017864712,
,8,넌 탐구심이없어,4,Green,B,2.833333333333333,3.066666666666667,ScrollUp,ScrollDown,Green.png,5,Negative,Congruent,0,0,0,0,,,,,,,,,,,,,,,,,,,,,,,,,,,,,0,7,7,7,,,,,,,,,,,,,,,,,,,,,,,,,,,,,,,,,,,,,,,,,,,,,,,,,,,,,,,,,,,,,,,,,,,,,1.5679012325902781,1.1900832000010269,675.7769948000005,None,ScrollUp,정답입니다,675.7769948000005,None,675.7769948000005,None,675.7769948000005,None,675.7769948000005,None,676.8212361999995,None,676.8212361999995,677.3264323000003,,,,,,,,,,,,,,,,221,2022-05-20_15h40.24.581,FishGame,2022.1.1,60.03810017864712,
,9,나를 데려가줘,6,Green,B,0,0,ScrollDown,ScrollUp,Green.png,5,NonTarget,NonTarget,0,0,0,0,,,,,,,,,,,,,,,,,,,,,,,,,,,,,0,8,8,8,,,,,,,,,,,,,,,,,,,,,,,,,,,,,,,,,,,,,,,,,,,,,,,,,,,,,,,,,,,,,,,,,,,,,1.1851851791143417,1.2468747999992047,677.9737845,None,ScrollDown,정답입니다,677.9737845,None,677.9737845,None,677.9737845,None,677.9737845,None,679.0964196999994,None,679.0964196999994,679.6093968000005,,,,,,,,,,,,,,,,221,2022-05-20_15h40.24.581,FishGame,2022.1.1,60.03810017864712,
,10,넌 참되어,2,Orange,A,6.041666666666664,4.733333333333333,ScrollDown,ScrollUp,Orange.png,5,Positive,Congruent,0,0,0,0,,,,,,,,,,,,,,,,,,,,,,,,,,,,,0,9,9,9,,,,,,,,,,,,,,,,,,,,,,,,,,,,,,,,,,,,,,,,,,,,,,,,,,,,,,,,,,,,,,,,,,,,,1.2314814726511638,1.131274499999563,680.2664513,None,ScrollDown,정답입니다,680.2664513,None,680.2664513,None,680.2664513,None,680.2664513,None,681.2641351999991,None,681.2641351999991,681.7761570999992,,,,,,,,,,,,,,,,221,2022-05-20_15h40.24.581,FishGame,2022.1.1,60.03810017864712,
,11,넌 생기있어,1,Green,B,5.875,5.633333333333334,ScrollUp,ScrollDown,Green.png,5,Positive,Incongruent,0,0,0,0,,,,,,,,,,,,,,,,,,,,,,,,,,,,,0,10,10,10,,,,,,,,,,,,,,,,,,,,,,,,,,,,,,,,,,,,,,,,,,,,,,,,,,,,,,,,,,,,,,,,,,,,,1.9567901293436687,1.1160245000010036,682.4302783000003,None,ScrollUp,정답입니다,682.4302783000003,None,682.4302783000003,None,682.4302783000003,None,682.4302783000003,None,683.4140914,None,683.4140914,683.9257288999997,,,,,,,,,,,,,,,,221,2022-05-20_15h40.24.581,FishGame,2022.1.1,60.03810017864712,
,12,넌 비사교적이야,4,Green,B,2.875,2.9,ScrollUp,ScrollDown,Green.png,5,Negative,Congruent,0,0,0,0,,,,,,,,,,,,,,,,,,,,,,,,,,,,,0,11,11,11,,,,,,,,,,,,,,,,,,,,,,,,,,,,,,,,,,,,,,,,,,,,,,,,,,,,,,,,,,,,,,,,,,,,,1.5046296297417334,1.1722737000000052,684.5660704999991,None,NoResponse,무응답입니다,684.5660704999991,None,684.5660704999991,None,684.5660704999991,None,684.5660704999991,None,685.6194756999994,None,685.6194756999994,686.1253414000003,,,,,,,,,,,,,,,,221,2022-05-20_15h40.24.581,FishGame,2022.1.1,60.03810017864712,
,13,나를 데려가줘,6,Green,B,0,0,ScrollDown,ScrollUp,Green.png,5,NonTarget,NonTarget,0,0,0,0,,,,,,,,,,,,,,,,,,,,,,,,,,,,,0,12,12,12,,,,,,,,,,,,,,,,,,,,,,,,,,,,,,,,,,,,,,,,,,,,,,,,,,,,,,,,,,,,,,,,,,,,,1.9969135920206706,1.24550150000141,686.7793538000005,None,ScrollUp,오답입니다,686.7793538000005,None,686.7793538000005,None,686.7793538000005,None,686.7793538000005,None,687.8929422000001,None,687.8929422000001,688.4083924000006,,,,,,,,,,,,,,,,221,2022-05-20_15h40.24.581,FishGame,2022.1.1,60.03810017864712,
,14,넌 고독해,4,Orange,A,2.916666666666667,3.233333333333333,ScrollDown,ScrollUp,Orange.png,5,Negative,Incongruent,0,0,0,0,,,,,,,,,,,,,,,,,,,,,,,,,,,,,0,13,13,13,,,,,,,,,,,,,,,,,,,,,,,,,,,,,,,,,,,,,,,,,,,,,,,,,,,,,,,,,,,,,,,,,,,,,1.09413580596447,1.199797799999942,689.0595847000004,None,ScrollDown,정답입니다,689.0595847000004,None,689.0595847000004,None,689.0595847000004,None,689.0595847000004,None,690.1319201999995,None,690.1319201999995,690.6413599999996,,,,,,,,,,,,,,,,221,2022-05-20_15h40.24.581,FishGame,2022.1.1,60.03810017864712,
,15,넌 신경질적이야,5,Green,B,2.375,2.233333333333333,ScrollUp,ScrollDown,Green.png,5,Negative,Congruent,0,0,0,0,,,,,,,,,,,,,,,,,,,,,,,,,,,,,0,14,14,14,,,,,,,,,,,,,,,,,,,,,,,,,,,,,,,,,,,,,,,,,,,,,,,,,,,,,,,,,,,,,,,,,,,,,1.9567901293436687,1.127777400000923,691.2946231999995,None,ScrollUp,정답입니다,691.2946231999995,None,691.2946231999995,None,691.2946231999995,None,691.2946231999995,None,692.2881462999994,None,692.2881462999994,692.791296899999,,,,,,,,,,,,,,,,221,2022-05-20_15h40.24.581,FishGame,2022.1.1,60.03810017864712,
,16,넌 똑똑해,2,Green,B,5.666666666666667,3.966666666666667,ScrollUp,ScrollDown,Green.png,5,Positive,Incongruent,0,0,0,0,,,,,,,,,,,,,,,,,,,,,,,,,,,,,0,15,15,15,,,,,,,,,,,,,,,,,,,,,,,,,,,,,,,,,,,,,,,,,,,,,,,,,,,,,,,,,,,,,,,,,,,,,1.7453703681627908,1.3599494000009145,693.4379405999989,None,ScrollUp,정답입니다,693.4379405999989,None,693.4379405999989,None,693.4379405999989,None,693.4379405999989,None,694.6743938999989,None,694.6743938999989,695.1741364999998,,,,,,,,,,,,,,,,221,2022-05-20_15h40.24.581,FishGame,2022.1.1,60.03810017864712,
,17,나를 보내줘,6,Orange,A,0,0,ScrollUp,ScrollDown,Orange.png,5,NonTarget,NonTarget,0,0,0,0,,,,,,,,,,,,,,,,,,,,,,,,,,,,,0,16,16,16,,,,,,,,,,,,,,,,,,,,,,,,,,,,,,,,,,,,,,,,,,,,,,,,,,,,,,,,,,,,,,,,,,,,,2,1.466030600000522,695.8244744000003,None,ScrollUp,정답입니다,695.8244744000003,None,695.8244744000003,None,695.8244744000003,None,695.8244744000003,None,697.1616801,None,697.1616801,697.6736803999993,,,,,,,,,,,,,,,,221,2022-05-20_15h40.24.581,FishGame,2022.1.1,60.03810017864712,
,18,넌 협조적이야,1,Orange,A,5.625,5.666666666666667,ScrollDown,ScrollUp,Orange.png,5,Positive,Congruent,0,0,0,0,,,,,,,,,,,,,,,,,,,,,,,,,,,,,0,17,17,17,,,,,,,,,,,,,,,,,,,,,,,,,,,,,,,,,,,,,,,,,,,,,,,,,,,,,,,,,,,,,,,,,,,,,1.0848765472571056,1.4357388999997056,698.3272388999994,None,ScrollDown,정답입니다,698.3272388999994,None,698.3272388999994,None,698.3272388999994,None,698.3272388999994,None,699.6309352999997,None,699.6309352999997,700.1402423,,,,,,,,,,,,,,,,221,2022-05-20_15h40.24.581,FishGame,2022.1.1,60.03810017864712,
,19,나를 데려가줘,6,Green,B,0,0,ScrollDown,ScrollUp,Green.png,5,NonTarget,NonTarget,0,0,0,0,,,,,,,,,,,,,,,,,,,,,,,,,,,,,0,18,18,18,,,,,,,,,,,,,,,,,,,,,,,,,,,,,,,,,,,,,,,,,,,,,,,,,,,,,,,,,,,,,,,,,,,,,1.0293209950129192,1.283457700001236,700.7913821000002,None,ScrollDown,정답입니다,700.7913821000002,None,700.7913821000002,None,700.7913821000002,None,700.7913821000002,None,701.9466045999998,None,701.9466045999998,702.4566128999995,,,,,,,,,,,,,,,,221,2022-05-20_15h40.24.581,FishGame,2022.1.1,60.03810017864712,
,20,넌 몰인정해,5,Green,B,2.541666666666667,2.066666666666667,ScrollUp,ScrollDown,Green.png,5,Negative,Congruent,0,0,0,0,,,,,,,,,,,,,,,,,,,,,,,,,,,,,0,19,19,19,,,,,,,,,,,,,,,,,,,,,,,,,,,,,,,,,,,,,,,,,,,,,,,,,,,,,,,,,,,,,,,,,,,,,1.9274691144625347,1.316146099999969,703.1057791000003,None,ScrollUp,정답입니다,703.1057791000003,None,703.1057791000003,None,703.1057791000003,None,703.1057791000003,None,704.2947399000004,None,704.2947399000004,704.8063000000002,,,,,,,,,,,,,,,,221,2022-05-20_15h40.24.581,FishGame,2022.1.1,60.03810017864712,
,21,나를 데려가줘,6,Green,B,0,0,ScrollDown,ScrollUp,Green.png,5,NonTarget,NonTarget,0,0,0,0,,,,,,,,,,,,,,,,,,,,,,,,,,,,,0,20,20,20,,,,,,,,,,,,,,,,,,,,,,,,,,,,,,,,,,,,,,,,,,,,,,,,,,,,,,,,,,,,,,,,,,,,,1,1.1359681999983877,705.451855199999,None,ScrollDown,정답입니다,705.451855199999,None,705.451855199999,None,705.451855199999,None,705.451855199999,None,706.4632806999998,None,706.4632806999998,706.9725498999996,,,,,,,,,,,,,,,,221,2022-05-20_15h40.24.581,FishGame,2022.1.1,60.03810017864712,
,22,넌 순진해,3,Green,B,4.125,4.166666666666667,ScrollUp,ScrollDown,Green.png,5,Neutral,Neutral,0,0,0,0,,,,,,,,,,,,,,,,,,,,,,,,,,,,,0,21,21,21,,,,,,,,,,,,,,,,,,,,,,,,,,,,,,,,,,,,,,,,,,,,,,,,,,,,,,,,,,,,,,,,,,,,,1.9182098805904388,1.001466800000344,707.6181596000006,None,ScrollUp,정답입니다,707.6181596000006,None,707.6181596000006,None,707.6181596000006,None,707.6181596000006,None,708.4955217000006,None,708.4955217000006,709.0055740000007,,,,,,,,,,,,,,,,221,2022-05-20_15h40.24.581,FishGame,2022.1.1,60.03810017864712,
,23,넌 신뢰할만해,1,Orange,A,6.625,5.533333333333333,ScrollDown,ScrollUp,Orange.png,5,Positive,Congruent,0,0,0,0,,,,,,,,,,,,,,,,,,,,,,,,,,,,,0,22,22,22,,,,,,,,,,,,,,,,,,,,,,,,,,,,,,,,,,,,,,,,,,,,,,,,,,,,,,,,,,,,,,,,,,,,,1.0787036915620167,1.0998073999999178,709.6685928999996,None,ScrollDown,정답입니다,709.6685928999996,None,709.6685928999996,None,709.6685928999996,None,709.6685928999996,None,710.6281880999995,None,710.6281880999995,711.138809,,,,,,,,,,,,,,,,221,2022-05-20_15h40.24.581,FishGame,2022.1.1,60.03810017864712,
