name,TrialNum,Word,WordCategory,FishType,WordList,WordValence,WordReputation,CorrectResp,IncorrectResp,FishTypeFile,Round,WordType,Condition,LoopforOrange.thisRepN,LoopforOrange.thisTrialN,LoopforOrange.thisN,LoopforOrange.thisIndex,LoopForGreen.thisRepN,LoopForGreen.thisTrialN,LoopForGreen.thisN,LoopForGreen.thisIndex,GreenInstLoop.thisRepN,GreenInstLoop.thisTrialN,GreenInstLoop.thisN,GreenInstLoop.thisIndex,GreenPrac.thisRepN,GreenPrac.thisTrialN,GreenPrac.thisN,GreenPrac.thisIndex,trials_2.thisRepN,trials_2.thisTrialN,trials_2.thisN,trials_2.thisIndex,GreenRound1.thisRepN,GreenRound1.thisTrialN,GreenRound1.thisN,GreenRound1.thisIndex,GreenRound2.thisRepN,GreenRound2.thisTrialN,GreenRound2.thisN,GreenRound2.thisIndex,GreenRound3.thisRepN,GreenRound3.thisTrialN,GreenRound3.thisN,GreenRound3.thisIndex,GreenRound4.thisRepN,GreenRound4.thisTrialN,GreenRound4.thisN,GreenRound4.thisIndex,GreenRound5.thisRepN,GreenRound5.thisTrialN,GreenRound5.thisN,GreenRound5.thisIndex,text_2.started,text_2.stopped,text_3.started,text_3.stopped,key_resp.keys,key_resp.rt,key_resp.started,key_resp.stopped,PassI.started,PassI.stopped,PassInst.keys,PassInst.rt,PassInst.started,PassInst.stopped,mouse_2.x,mouse_2.y,mouse_2.leftButton,mouse_2.midButton,mouse_2.rightButton,mouse_2.started,mouse_2.stopped,image.started,image.stopped,text_5.started,text_5.stopped,text_6.started,text_6.stopped,text_7.started,text_7.stopped,text_8.started,text_8.stopped,slider_3.response,slider_3.rt,slider_3.started,slider_3.stopped,Response_3,Feedback_3,BackGround_3.started,BackGround_3.stopped,Fish_3.started,Fish_3.stopped,WordBox_3.started,WordBox_3.stopped,Words_3.started,Words_3.stopped,BackGround_Feedback_3.started,BackGround_Feedback_3.stopped,Feedbacks_3.started,Feedbacks_3.stopped,Continue_or_not_2.keys,Continue_or_not_2.rt,Continue_or_not_2.started,Continue_or_not_2.stopped,image_4.started,image_4.stopped,mouse_3.x,mouse_3.y,mouse_3.leftButton,mouse_3.midButton,mouse_3.rightButton,mouse_3.started,mouse_3.stopped,startmain.started,startmain.stopped,slider_4.response,slider_4.rt,slider_4.started,slider_4.stopped,Response_4,Feedback_4,BackGround_4.started,BackGround_4.stopped,Fish_4.started,Fish_4.stopped,WordBox_4.started,WordBox_4.stopped,Words_4.started,Words_4.stopped,BackGround_Feedback_4.started,BackGround_Feedback_4.stopped,Feedbacks_4.started,Feedbacks_4.stopped,text.started,text.stopped,break_interval.started,break_interval.stopped,mouse.x,mouse.y,mouse.leftButton,mouse.midButton,mouse.rightButton,mouse.started,mouse.stopped,stratnextround.started,stratnextround.stopped,endgame.started,endgame.stopped,participant,date,expName,psychopyVersion,frameRate,
,,,,,,,,,,,,,,,,,,,,,,,,,,,,,,,,,,,,,,,,,,,,,,,,,,,,,,19.99404360000017,None,19.99404360000017,None,space,1.9484019999999873,20.488360400000147,None,,,,,,,,,,,,,,,,,,,,,,,,,,,,,,,,,,,,,,,,,,,,,,,,,,,,,,,,,,,,,,,,,,,,,,,,,,,,,,,,,,,,,,,,,,222,2022-05-23_14h19.58.894,FishGame,2022.1.1,60.040263000226716,
물고기과제_instruction(참가자용)GreenVersion.mp4,,,,,,,,,,,,,,,,,,0,0,0,0,0,0,0,0,,,,,,,,,,,,,,,,,,,,,,,,,,,,,,,,,,,,,89.78562569999985,None,n,3.619024399999944,89.78562569999985,None,,,,,,,,,,,,,,,,,,,,,,,,,,,,,,,,,,,,,,,,,,,,,,,,,,,,,,,,,,,,,,,,,,,,,,,,,,,,,,,,,,,,222,2022-05-23_14h19.58.894,FishGame,2022.1.1,60.040263000226716,
,1,넌 교활해,5,Orange,B,2.333333333333333,2.133333333333333,ScrollUp,ScrollDown,Orange.png,practice,,,,,,,0,0,0,0,,,,,0,0,0,0,0,0,0,0,,,,,,,,,,,,,,,,,,,,,,,,,,,,,,,,,,,0.019444445,-0.23518519,1,0,0,0.5136208300000362,None,93.42909360000021,None,102.04488480000009,103.54441069999984,103.5777208999998,104.52765230000023,104.5776264000001,105.52745980000009,105.52745980000009,None,2,1.8631611000000703,106.72610709999981,None,ScrollUp,정답입니다,106.72610709999981,None,106.72610709999981,None,106.72610709999981,None,106.72610709999981,None,108.40163250000023,None,108.40163250000023,108.91041489999998,,,,,,,,,,,,,,,,,,,,,,,,,,,,,,,,,,,,,,,,,,,,,,,,,222,2022-05-23_14h19.58.894,FishGame,2022.1.1,60.040263000226716,
,2,넌 슬기로워,2,Green,A,6.166666666666667,4.1,ScrollDown,ScrollUp,Green.png,practice,,,,,,,0,0,0,0,,,,,0,0,0,0,0,1,1,1,,,,,,,,,,,,,,,,,,,,,,,,,,,,,,,,,,,,,,,,,,,,,,,,,,,,1,1.4040290000002642,109.56415960000004,None,ScrollDown,정답입니다,109.56415960000004,None,109.56415960000004,None,109.56415960000004,None,109.56415960000004,None,110.83413830000018,None,110.83413830000018,111.34327759999996,,,,,,,,,,,,,,,,,,,,,,,,,,,,,,,,,,,,,,,,,,,,,,,,,222,2022-05-23_14h19.58.894,FishGame,2022.1.1,60.040263000226716,
,3,나를 보내줘,6,Green,A,0,0,ScrollUp,ScrollDown,Green.png,practice,,,,,,,0,0,0,0,,,,,0,0,0,0,0,2,2,2,,,,,,,,,,,,,,,,,,,,,,,,,,,,,,,,,,,,,,,,,,,,,,,,,,,,2,1.3314402000000882,111.98833319999994,None,ScrollUp,정답입니다,111.98833319999994,None,111.98833319999994,None,111.98833319999994,None,111.98833319999994,None,113.19425589999992,None,113.19425589999992,113.70970500000021,,,,,,,,,,,,,,,,,,,,,,,,,,,,,,,,,,,,,,,,,,,,,,,,,222,2022-05-23_14h19.58.894,FishGame,2022.1.1,60.040263000226716,
,4,나를 데려가줘,6,Orange,B,0,0,ScrollDown,ScrollUp,Orange.png,practice,,,,,,,0,0,0,0,,,,,0,0,0,0,0,3,3,3,,,,,,,,,,,,,,,,,,,,,,,,,,,,,,,,,,,,,,,,,,,,,,,,,,,,1,1.4068874999998116,114.3602036000002,None,ScrollDown,정답입니다,114.3602036000002,None,114.3602036000002,None,114.3602036000002,None,114.3602036000002,None,115.63576069999999,None,115.63576069999999,116.14279410000017,,,,,,,,,,,,,,,,,,,,,,,,,,,,,,,,,,,,,,,,,,,,,,,,,222,2022-05-23_14h19.58.894,FishGame,2022.1.1,60.040263000226716,
,1,넌 교활해,5,Orange,B,2.333333333333333,2.133333333333333,ScrollUp,ScrollDown,Orange.png,practice,,,,,,,0,0,0,0,,,,,0,0,0,0,,,,,,,,,,,,,,,,,,,,,,,,,,,,,,,,,,,,,,,,,,,,,,,,,,,,,,,,,,,,,,,,,,,,,,,,,,n,3.2591761000003316,116.64280210000015,None,116.64280210000015,None,,,,,,,,,,,,,,,,,,,,,,,,,,,,,,,,,,,,,,,,,,,222,2022-05-23_14h19.58.894,FishGame,2022.1.1,60.040263000226716,
,1,넌 따뜻해,1,Orange,B,6.083333333333333,5.6,ScrollUp,ScrollDown,Orange.png,1,Positive,Incongruent,,,,,0,0,0,0,,,,,,,,,,,,,0,0,0,0,,,,,,,,,,,,,,,,,,,,,,,,,,,,,,,,,,,,,,,,127.32477449999988,128.82449110000016,128.85779809999985,129.80778999999984,129.85773010000003,130.80743250000023,130.80743250000023,None,,,,,,,,,,,,,,,,,,,,,,,,,0.009259259,-0.13148148,1,0,0,0.3137951300000168,None,119.9256521000002,None,2,1.3320981000001666,131.96493400000008,None,ScrollUp,정답입니다,131.96493400000008,None,131.96493400000008,None,131.96493400000008,None,131.96493400000008,None,133.15083730000015,None,133.15083730000015,133.6570111000001,,,,,,,,,,,,,,,,222,2022-05-23_14h19.58.894,FishGame,2022.1.1,60.040263000226716,
,2,넌 기품있어,2,Orange,B,5.791666666666668,4.5,ScrollUp,ScrollDown,Orange.png,1,Positive,Incongruent,,,,,0,0,0,0,,,,,,,,,,,,,0,1,1,1,,,,,,,,,,,,,,,,,,,,,,,,,,,,,,,,,,,,,,,,,,,,,,,,,,,,,,,,,,,,,,,,,,,,,,,,,,,,,,,,,2,1.262238900000284,134.32078790000014,None,ScrollUp,정답입니다,134.32078790000014,None,134.32078790000014,None,134.32078790000014,None,134.32078790000014,None,135.4399929000001,None,135.4399929000001,135.94011170000022,,,,,,,,,,,,,,,,222,2022-05-23_14h19.58.894,FishGame,2022.1.1,60.040263000226716,
,3,나를 보내줘,6,Green,A,0,0,ScrollUp,ScrollDown,Green.png,1,NonTarget,NonTarget,,,,,0,0,0,0,,,,,,,,,,,,,0,2,2,2,,,,,,,,,,,,,,,,,,,,,,,,,,,,,,,,,,,,,,,,,,,,,,,,,,,,,,,,,,,,,,,,,,,,,,,,,,,,,,,,,2,1.5253496000000268,136.59555630000023,None,ScrollUp,정답입니다,136.59555630000023,None,136.59555630000023,None,136.59555630000023,None,136.59555630000023,None,137.98987540000007,None,137.98987540000007,138.48975090000022,,,,,,,,,,,,,,,,222,2022-05-23_14h19.58.894,FishGame,2022.1.1,60.040263000226716,
,4,넌 수동적이야,4,Green,A,2.833333333333333,2.933333333333333,ScrollDown,ScrollUp,Green.png,1,Negative,Incongruent,,,,,0,0,0,0,,,,,,,,,,,,,0,3,3,3,,,,,,,,,,,,,,,,,,,,,,,,,,,,,,,,,,,,,,,,,,,,,,,,,,,,,,,,,,,,,,,,,,,,,,,,,,,,,,,,,1,1.436401499999647,139.1541612000001,None,ScrollDown,정답입니다,139.1541612000001,None,139.1541612000001,None,139.1541612000001,None,139.1541612000001,None,140.44653479999988,None,140.44653479999988,140.95618969999987,,,,,,,,,,,,,,,,222,2022-05-23_14h19.58.894,FishGame,2022.1.1,60.040263000226716,
,5,넌 사심이 없어,3,Orange,B,4.916666666666666,4.333333333333333,ScrollUp,ScrollDown,Orange.png,1,Neutral,Neutral,,,,,0,0,0,0,,,,,,,,,,,,,0,4,4,4,,,,,,,,,,,,,,,,,,,,,,,,,,,,,,,,,,,,,,,,,,,,,,,,,,,,,,,,,,,,,,,,,,,,,,,,,,,,,,,,,2,2.099373100000321,141.61576019999984,None,ScrollUp,정답입니다,141.61576019999984,None,141.61576019999984,None,141.61576019999984,None,141.61576019999984,None,143.57534729999998,None,143.57534729999998,144.08907580000005,,,,,,,,,,,,,,,,222,2022-05-23_14h19.58.894,FishGame,2022.1.1,60.040263000226716,
,6,넌 헤퍼,5,Green,A,2.458333333333334,2.233333333333333,ScrollDown,ScrollUp,Green.png,1,Negative,Incongruent,,,,,0,0,0,0,,,,,,,,,,,,,0,5,5,5,,,,,,,,,,,,,,,,,,,,,,,,,,,,,,,,,,,,,,,,,,,,,,,,,,,,,,,,,,,,,,,,,,,,,,,,,,,,,,,,,1,1.4985763999998198,144.736496,None,ScrollDown,정답입니다,144.736496,None,144.736496,None,144.736496,None,144.736496,None,146.10852609999984,None,146.10852609999984,146.62209940000002,,,,,,,,,,,,,,,,222,2022-05-23_14h19.58.894,FishGame,2022.1.1,60.040263000226716,
,7,넌 말쑥해,3,Green,A,4.833333333333334,4.333333333333333,ScrollDown,ScrollUp,Green.png,1,Neutral,Neutral,,,,,0,0,0,0,,,,,,,,,,,,,0,6,6,6,,,,,,,,,,,,,,,,,,,,,,,,,,,,,,,,,,,,,,,,,,,,,,,,,,,,,,,,,,,,,,,,,,,,,,,,,,,,,,,,,1,1.3674857000000884,147.27730470000006,None,ScrollDown,정답입니다,147.27730470000006,None,147.27730470000006,None,147.27730470000006,None,147.27730470000006,None,148.5102194000001,None,148.5102194000001,149.02192259999993,,,,,,,,,,,,,,,,222,2022-05-23_14h19.58.894,FishGame,2022.1.1,60.040263000226716,
,8,넌 투덜거려,5,Orange,B,2.541666666666667,2.266666666666667,ScrollUp,ScrollDown,Orange.png,1,Negative,Congruent,,,,,0,0,0,0,,,,,,,,,,,,,0,7,7,7,,,,,,,,,,,,,,,,,,,,,,,,,,,,,,,,,,,,,,,,,,,,,,,,,,,,,,,,,,,,,,,,,,,,,,,,,,,,,,,,,2,1.2667515999996795,149.68676659999983,None,ScrollUp,정답입니다,149.68676659999983,None,149.68676659999983,None,149.68676659999983,None,149.68676659999983,None,150.8090940000002,None,150.8090940000002,151.3216523000001,,,,,,,,,,,,,,,,222,2022-05-23_14h19.58.894,FishGame,2022.1.1,60.040263000226716,
,9,넌 적극적이야,1,Green,A,5.708333333333333,5.533333333333333,ScrollDown,ScrollUp,Green.png,1,Positive,Congruent,,,,,0,0,0,0,,,,,,,,,,,,,0,8,8,8,,,,,,,,,,,,,,,,,,,,,,,,,,,,,,,,,,,,,,,,,,,,,,,,,,,,,,,,,,,,,,,,,,,,,,,,,,,,,,,,,1,1.3116225999997368,151.96913670000004,None,ScrollDown,정답입니다,151.96913670000004,None,151.96913670000004,None,151.96913670000004,None,151.96913670000004,None,153.15472709999995,None,153.15472709999995,153.65466930000002,,,,,,,,,,,,,,,,222,2022-05-23_14h19.58.894,FishGame,2022.1.1,60.040263000226716,
,10,넌 재미없어,4,Orange,B,2.625,2.966666666666667,ScrollUp,ScrollDown,Orange.png,1,Negative,Congruent,,,,,0,0,0,0,,,,,,,,,,,,,0,9,9,9,,,,,,,,,,,,,,,,,,,,,,,,,,,,,,,,,,,,,,,,,,,,,,,,,,,,,,,,,,,,,,,,,,,,,,,,,,,,,,,,,2,1.1792590999998538,154.31034490000002,None,ScrollUp,정답입니다,154.31034490000002,None,154.31034490000002,None,154.31034490000002,None,154.31034490000002,None,155.3544148000001,None,155.3544148000001,155.8542864000001,,,,,,,,,,,,,,,,222,2022-05-23_14h19.58.894,FishGame,2022.1.1,60.040263000226716,
,11,넌 명석해,2,Green,A,5.875,4.033333333333333,ScrollDown,ScrollUp,Green.png,1,Positive,Congruent,,,,,0,0,0,0,,,,,,,,,,,,,0,10,10,10,,,,,,,,,,,,,,,,,,,,,,,,,,,,,,,,,,,,,,,,,,,,,,,,,,,,,,,,,,,,,,,,,,,,,,,,,,,,,,,,,1,1.254880299999968,156.50398829999995,None,ScrollDown,정답입니다,156.50398829999995,None,156.50398829999995,None,156.50398829999995,None,156.50398829999995,None,157.6290626,None,157.6290626,158.13730940000005,,,,,,,,,,,,,,,,222,2022-05-23_14h19.58.894,FishGame,2022.1.1,60.040263000226716,
,12,나를 데려가줘,6,Orange,B,0,0,ScrollDown,ScrollUp,Orange.png,1,NonTarget,NonTarget,,,,,0,0,0,0,,,,,,,,,,,,,0,11,11,11,,,,,,,,,,,,,,,,,,,,,,,,,,,,,,,,,,,,,,,,,,,,,,,,,,,,,,,,,,,,,,,,,,,,,,,,,,,,,,,,,1,1.667038699999921,158.79287639999984,None,ScrollDown,정답입니다,158.79287639999984,None,158.79287639999984,None,158.79287639999984,None,158.79287639999984,None,160.3255677000002,None,160.3255677000002,160.8370264,,,,,,,,,,,,,,,,222,2022-05-23_14h19.58.894,FishGame,2022.1.1,60.040263000226716,
,13,넌 소심해,4,Green,A,3,3.1,ScrollDown,ScrollUp,Green.png,1,Negative,Incongruent,,,,,0,0,0,0,,,,,,,,,,,,,0,12,12,12,,,,,,,,,,,,,,,,,,,,,,,,,,,,,,,,,,,,,,,,,,,,,,,,,,,,,,,,,,,,,,,,,,,,,,,,,,,,,,,,,1,1.3661671999998362,161.48499690000017,None,ScrollDown,정답입니다,161.48499690000017,None,161.48499690000017,None,161.48499690000017,None,161.48499690000017,None,162.72386310000002,None,162.72386310000002,163.23657219999996,,,,,,,,,,,,,,,,222,2022-05-23_14h19.58.894,FishGame,2022.1.1,60.040263000226716,
,14,넌 합리적이야,2,Green,A,5.583333333333333,4.733333333333333,ScrollDown,ScrollUp,Green.png,1,Positive,Congruent,,,,,0,0,0,0,,,,,,,,,,,,,0,13,13,13,,,,,,,,,,,,,,,,,,,,,,,,,,,,,,,,,,,,,,,,,,,,,,,,,,,,,,,,,,,,,,,,,,,,,,,,,,,,,,,,,1,1.237241499999982,163.88685560000022,None,ScrollDown,정답입니다,163.88685560000022,None,163.88685560000022,None,163.88685560000022,None,163.88685560000022,None,164.99428769999986,None,164.99428769999986,165.50317200000018,,,,,,,,,,,,,,,,222,2022-05-23_14h19.58.894,FishGame,2022.1.1,60.040263000226716,
,15,넌 무자비해,5,Orange,B,2.333333333333333,2.1,ScrollUp,ScrollDown,Orange.png,1,Negative,Congruent,,,,,0,0,0,0,,,,,,,,,,,,,0,14,14,14,,,,,,,,,,,,,,,,,,,,,,,,,,,,,,,,,,,,,,,,,,,,,,,,,,,,,,,,,,,,,,,,,,,,,,,,,,,,,,,,,1.983024666706721,1.2441557000001922,166.15906369999993,None,ScrollUp,정답입니다,166.15906369999993,None,166.15906369999993,None,166.15906369999993,None,166.15906369999993,None,167.26956359999986,None,167.26956359999986,167.7695136000002,,,,,,,,,,,,,,,,222,2022-05-23_14h19.58.894,FishGame,2022.1.1,60.040263000226716,
,16,나를 보내줘,6,Green,A,0,0,ScrollUp,ScrollDown,Green.png,1,NonTarget,NonTarget,,,,,0,0,0,0,,,,,,,,,,,,,0,15,15,15,,,,,,,,,,,,,,,,,,,,,,,,,,,,,,,,,,,,,,,,,,,,,,,,,,,,,,,,,,,,,,,,,,,,,,,,,,,,,,,,,2,1.394057900000007,168.41154069999993,None,ScrollUp,정답입니다,168.41154069999993,None,168.41154069999993,None,168.41154069999993,None,168.41154069999993,None,169.68588920000002,None,169.68588920000002,170.18582340000012,,,,,,,,,,,,,,,,222,2022-05-23_14h19.58.894,FishGame,2022.1.1,60.040263000226716,
,17,넌 현실적이야,3,Orange,B,4.608695652173913,4.766666666666667,ScrollUp,ScrollDown,Orange.png,1,Neutral,Neutral,,,,,0,0,0,0,,,,,,,,,,,,,0,16,16,16,,,,,,,,,,,,,,,,,,,,,,,,,,,,,,,,,,,,,,,,,,,,,,,,,,,,,,,,,,,,,,,,,,,,,,,,,,,,,,,,,2,1.0935679999997774,170.84722409999995,None,ScrollUp,정답입니다,170.84722409999995,None,170.84722409999995,None,170.84722409999995,None,170.84722409999995,None,171.80230970000002,None,171.80230970000002,172.30216440000004,,,,,,,,,,,,,,,,222,2022-05-23_14h19.58.894,FishGame,2022.1.1,60.040263000226716,
,18,넌 의리있어,1,Orange,B,5.833333333333334,5.633333333333334,ScrollUp,ScrollDown,Orange.png,1,Positive,Incongruent,,,,,0,0,0,0,,,,,,,,,,,,,0,17,17,17,,,,,,,,,,,,,,,,,,,,,,,,,,,,,,,,,,,,,,,,,,,,,,,,,,,,,,,,,,,,,,,,,,,,,,,,,,,,,,,,,2,1.136824599999727,172.9550132999998,None,ScrollUp,정답입니다,172.9550132999998,None,172.9550132999998,None,172.9550132999998,None,172.9550132999998,None,173.96668309999995,None,173.96668309999995,174.46869890000016,,,,,,,,,,,,,,,,222,2022-05-23_14h19.58.894,FishGame,2022.1.1,60.040263000226716,
,19,넌 신경과민이야,5,Green,A,2.541666666666667,2.166666666666667,ScrollDown,ScrollUp,Green.png,1,Negative,Incongruent,,,,,0,0,0,0,,,,,,,,,,,,,0,18,18,18,,,,,,,,,,,,,,,,,,,,,,,,,,,,,,,,,,,,,,,,,,,,,,,,,,,,,,,,,,,,,,,,,,,,,,,,,,,,,,,,,1.2114197413126628,1.6679911000001084,175.12766340000007,None,ScrollDown,정답입니다,175.12766340000007,None,175.12766340000007,None,175.12766340000007,None,175.12766340000007,None,176.65635770000017,None,176.65635770000017,177.16834879999988,,,,,,,,,,,,,,,,222,2022-05-23_14h19.58.894,FishGame,2022.1.1,60.040263000226716,
,20,넌 편안해,1,Green,A,5.916666666666666,5.866666666666666,ScrollDown,ScrollUp,Green.png,1,Positive,Congruent,,,,,0,0,0,0,,,,,,,,,,,,,0,19,19,19,,,,,,,,,,,,,,,,,,,,,,,,,,,,,,,,,,,,,,,,,,,,,,,,,,,,,,,,,,,,,,,,,,,,,,,,,,,,,,,,,1.266975318392118,1.154406999999992,177.8170227999999,None,ScrollDown,정답입니다,177.8170227999999,None,177.8170227999999,None,177.8170227999999,None,177.8170227999999,None,178.8432170000001,None,178.8432170000001,179.35138890000007,,,,,,,,,,,,,,,,222,2022-05-23_14h19.58.894,FishGame,2022.1.1,60.040263000226716,
,21,넌 품위있어,2,Orange,B,5.291666666666666,4.466666666666667,ScrollUp,ScrollDown,Orange.png,1,Positive,Incongruent,,,,,0,0,0,0,,,,,,,,,,,,,0,20,20,20,,,,,,,,,,,,,,,,,,,,,,,,,,,,,,,,,,,,,,,,,,,,,,,,,,,,,,,,,,,,,,,,,,,,,,,,,,,,,,,,,2,1.1109684999996716,180.00470889999997,None,ScrollUp,정답입니다,180.00470889999997,None,180.00470889999997,None,180.00470889999997,None,180.00470889999997,None,180.98420690000012,None,180.98420690000012,181.48461369999995,,,,,,,,,,,,,,,,222,2022-05-23_14h19.58.894,FishGame,2022.1.1,60.040263000226716,
,22,넌 빈틈없어,3,Green,A,4.833333333333333,3.966666666666667,ScrollDown,ScrollUp,Green.png,1,Neutral,Neutral,,,,,0,0,0,0,,,,,,,,,,,,,0,21,21,21,,,,,,,,,,,,,,,,,,,,,,,,,,,,,,,,,,,,,,,,,,,,,,,,,,,,,,,,,,,,,,,,,,,,,,,,,,,,,,,,,1.0540123681227367,1.2781178000000182,182.1345627999999,None,ScrollDown,정답입니다,182.1345627999999,None,182.1345627999999,None,182.1345627999999,None,182.1345627999999,None,183.28429000000006,None,183.28429000000006,183.78416319999997,,,,,,,,,,,,,,,,222,2022-05-23_14h19.58.894,FishGame,2022.1.1,60.040263000226716,
,23,넌 상상력없어,4,Orange,B,2.833333333333333,3.133333333333333,ScrollUp,ScrollDown,Orange.png,1,Negative,Congruent,,,,,0,0,0,0,,,,,,,,,,,,,0,22,22,22,,,,,,,,,,,,,,,,,,,,,,,,,,,,,,,,,,,,,,,,,,,,,,,,,,,,,,,,,,,,,,,,,,,,,,,,,,,,,,,,,2,1.072131100000206,184.43989250000004,None,ScrollUp,정답입니다,184.43989250000004,None,184.43989250000004,None,184.43989250000004,None,184.43989250000004,None,185.3818497000002,None,185.3818497000002,185.88380499999994,,,,,,,,,,,,,,,,222,2022-05-23_14h19.58.894,FishGame,2022.1.1,60.040263000226716,
,24,넌 지혜로워,2,Orange,B,6.333333333333334,4.633333333333334,ScrollUp,ScrollDown,Orange.png,1,Positive,Incongruent,,,,,0,0,0,0,,,,,,,,,,,,,0,23,23,23,,,,,,,,,,,,,,,,,,,,,,,,,,,,,,,,,,,,,,,,,,,,,,,,,,,,,,,,,,,,,,,,,,,,,,,,,,,,,,,,,1.825617293516795,1.0060426999998526,186.5432105,None,ScrollUp,정답입니다,186.5432105,None,186.5432105,None,186.5432105,None,186.5432105,None,187.40984740000022,None,187.40984740000022,187.91692969999986,,,,,,,,,,,,,,,,222,2022-05-23_14h19.58.894,FishGame,2022.1.1,60.040263000226716,
,25,넌 시끄러워,4,Green,A,2.833333333333333,3.033333333333333,ScrollDown,ScrollUp,Green.png,1,Negative,Incongruent,,,,,0,0,0,0,,,,,,,,,,,,,0,24,24,24,,,,,,,,,,,,,,,,,,,,,,,,,,,,,,,,,,,,,,,,,,,,,,,,,,,,,,,,,,,,,,,,,,,,,,,,,,,,,,,,,1.1558641890684764,1.0446452000001045,188.57576830000016,None,ScrollDown,정답입니다,188.57576830000016,None,188.57576830000016,None,188.57576830000016,None,188.57576830000016,None,189.48339579999993,None,189.48339579999993,189.98328189999984,,,,,,,,,,,,,,,,222,2022-05-23_14h19.58.894,FishGame,2022.1.1,60.040263000226716,
,26,넌 만사태평이야,3,Orange,B,4,4.333333333333333,ScrollUp,ScrollDown,Orange.png,1,Neutral,Neutral,,,,,0,0,0,0,,,,,,,,,,,,,0,25,25,25,,,,,,,,,,,,,,,,,,,,,,,,,,,,,,,,,,,,,,,,,,,,,,,,,,,,,,,,,,,,,,,,,,,,,,,,,,,,,,,,,1.8719135870536168,1.0676462999999785,190.64220209999985,None,ScrollUp,정답입니다,190.64220209999985,None,190.64220209999985,None,190.64220209999985,None,190.64220209999985,None,191.57129579999992,None,191.57129579999992,192.08300039999995,,,,,,,,,,,,,,,,222,2022-05-23_14h19.58.894,FishGame,2022.1.1,60.040263000226716,
,27,넌 붙임성있어,1,Green,A,5.708333333333333,5.633333333333334,ScrollDown,ScrollUp,Green.png,1,Positive,Congruent,,,,,0,0,0,0,,,,,,,,,,,,,0,26,26,26,,,,,,,,,,,,,,,,,,,,,,,,,,,,,,,,,,,,,,,,,,,,,,,,,,,,,,,,,,,,,,,,,,,,,,,,,,,,,,,,,1.3981481480101745,1.0475562999999966,192.73615550000022,None,ScrollDown,정답입니다,192.73615550000022,None,192.73615550000022,None,192.73615550000022,None,192.73615550000022,None,193.65241090000018,None,193.65241090000018,194.16612179999993,,,,,,,,,,,,,,,,222,2022-05-23_14h19.58.894,FishGame,2022.1.1,60.040263000226716,
,28,넌 영리해,2,Green,A,6,4.033333333333333,ScrollDown,ScrollUp,Green.png,1,Positive,Congruent,,,,,0,0,0,0,,,,,,,,,,,,,0,27,27,27,,,,,,,,,,,,,,,,,,,,,,,,,,,,,,,,,,,,,,,,,,,,,,,,,,,,,,,,,,,,,,,,,,,,,,,,,,,,,,,,,1.1898148208856583,1.1052663000000393,194.8132569999998,None,ScrollDown,정답입니다,194.8132569999998,None,194.8132569999998,None,194.8132569999998,None,194.8132569999998,None,195.7915763000001,None,195.7915763000001,196.2990622000002,,,,,,,,,,,,,,,,222,2022-05-23_14h19.58.894,FishGame,2022.1.1,60.040263000226716,
,29,넌 열심이야,1,Orange,B,6.041666666666667,5.833333333333333,ScrollUp,ScrollDown,Orange.png,1,Positive,Incongruent,,,,,0,0,0,0,,,,,,,,,,,,,0,28,28,28,,,,,,,,,,,,,,,,,,,,,,,,,,,,,,,,,,,,,,,,,,,,,,,,,,,,,,,,,,,,,,,,,,,,,,,,,,,,,,,,,1.919753094514211,1.0555762000003597,196.9617177,None,ScrollUp,정답입니다,196.9617177,None,196.9617177,None,196.9617177,None,196.9617177,None,197.88206020000007,None,197.88206020000007,198.3821968000002,,,,,,,,,,,,,,,,222,2022-05-23_14h19.58.894,FishGame,2022.1.1,60.040263000226716,
,30,넌 인기없어,4,Orange,B,3,3.3,ScrollUp,ScrollDown,Orange.png,1,Negative,Congruent,,,,,0,0,0,0,,,,,,,,,,,,,0,29,29,29,,,,,,,,,,,,,,,,,,,,,,,,,,,,,,,,,,,,,,,,,,,,,,,,,,,,,,,,,,,,,,,,,,,,,,,,,,,,,,,,,2,1.0285658000002513,199.03533779999998,None,ScrollUp,정답입니다,199.03533779999998,None,199.03533779999998,None,199.03533779999998,None,199.03533779999998,None,199.9320198999999,None,199.9320198999999,200.4317117999999,,,,,,,,,,,,,,,,222,2022-05-23_14h19.58.894,FishGame,2022.1.1,60.040263000226716,
,31,넌 익살스러워,3,Green,A,4.708333333333334,4.833333333333333,ScrollDown,ScrollUp,Green.png,1,Neutral,Neutral,,,,,0,0,0,0,,,,,,,,,,,,,0,30,30,30,,,,,,,,,,,,,,,,,,,,,,,,,,,,,,,,,,,,,,,,,,,,,,,,,,,,,,,,,,,,,,,,,,,,,,,,,,,,,,,,,1,1.1727732000003925,201.08422410000003,None,ScrollDown,정답입니다,201.08422410000003,None,201.08422410000003,None,201.08422410000003,None,201.08422410000003,None,202.13166769999998,None,202.13166769999998,202.63168970000015,,,,,,,,,,,,,,,,222,2022-05-23_14h19.58.894,FishGame,2022.1.1,60.040263000226716,
,32,넌 이기적이야,5,Orange,B,2.291666666666667,2.333333333333333,ScrollUp,ScrollDown,Orange.png,1,Negative,Congruent,,,,,0,0,0,0,,,,,,,,,,,,,0,31,31,31,,,,,,,,,,,,,,,,,,,,,,,,,,,,,,,,,,,,,,,,,,,,,,,,,,,,,,,,,,,,,,,,,,,,,,,,,,,,,,,,,2,1.1114145000001372,203.2967146000001,None,ScrollUp,정답입니다,203.2967146000001,None,203.2967146000001,None,203.2967146000001,None,203.2967146000001,None,204.26478069999985,None,204.26478069999985,204.76480020000008,,,,,,,,,,,,,,,,222,2022-05-23_14h19.58.894,FishGame,2022.1.1,60.040263000226716,
,33,나를 데려가줘,6,Orange,B,0,0,ScrollDown,ScrollUp,Orange.png,1,NonTarget,NonTarget,,,,,0,0,0,0,,,,,,,,,,,,,0,32,32,32,,,,,,,,,,,,,,,,,,,,,,,,,,,,,,,,,,,,,,,,,,,,,,,,,,,,,,,,,,,,,,,,,,,,,,,,,,,,,,,,,1.1188271542390187,2.1539059000001544,205.41403949999994,None,ScrollDown,정답입니다,205.41403949999994,None,205.41403949999994,None,205.41403949999994,None,205.41403949999994,None,207.4392845000002,None,207.4392845000002,207.94760020000012,,,,,,,,,,,,,,,,222,2022-05-23_14h19.58.894,FishGame,2022.1.1,60.040263000226716,
,34,넌 기회주의자야,5,Green,A,2.875,2.133333333333333,ScrollDown,ScrollUp,Green.png,1,Negative,Incongruent,,,,,0,0,0,0,,,,,,,,,,,,,0,33,33,33,,,,,,,,,,,,,,,,,,,,,,,,,,,,,,,,,,,,,,,,,,,,,,,,,,,,,,,,,,,,,,,,,,,,,,,,,,,,,,,,,1.0462962985038757,1.2491540999999415,208.59948669999994,None,ScrollDown,정답입니다,208.59948669999994,None,208.59948669999994,None,208.59948669999994,None,208.59948669999994,None,209.71815460000016,None,209.71815460000016,210.2307409,,,,,,,,,,,,,,,,222,2022-05-23_14h19.58.894,FishGame,2022.1.1,60.040263000226716,
,1,넌 미성숙해,4,Green,A,3,3.2,ScrollDown,ScrollUp,Green.png,2,Negative,Incongruent,,,,,0,0,0,0,,,,,,,,,,,,,,,,,0,0,0,0,,,,,,,,,,,,,,,,,,,,,,,,,,,,,,,,,,,,248.54269190000014,250.0423050999998,250.07577029999993,251.02552980000019,251.0755696000001,252.02537250000023,252.02537250000023,None,,,,,,,,,,,,,,,,,,,,,,,,,,,,,,,,,,1,1.3709995999997773,253.20803800000022,None,ScrollDown,정답입니다,253.20803800000022,None,253.20803800000022,None,253.20803800000022,None,253.20803800000022,None,254.40775799999983,None,254.40775799999983,254.90821830000004,210.73077109999986,None,210.73077109999986,None,0.24444444,-0.10277778,1,0,0,0.016106529999888153,None,240.7268454,None,,,222,2022-05-23_14h19.58.894,FishGame,2022.1.1,60.040263000226716,
,2,넌 반사회적이야,5,Orange,B,2.416666666666667,2.033333333333333,ScrollUp,ScrollDown,Orange.png,2,Negative,Congruent,,,,,0,0,0,0,,,,,,,,,,,,,,,,,0,1,1,1,,,,,,,,,,,,,,,,,,,,,,,,,,,,,,,,,,,,,,,,,,,,,,,,,,,,,,,,,,,,,,,,,,,,,,,,,,,,,2,1.181648000000223,255.55746469999985,None,ScrollUp,정답입니다,255.55746469999985,None,255.55746469999985,None,255.55746469999985,None,255.55746469999985,None,256.6107247,None,256.6107247,257.1246298000001,,,,,,,,,,,,,,,,222,2022-05-23_14h19.58.894,FishGame,2022.1.1,60.040263000226716,
,3,넌 유능해,2,Green,A,6.208333333333333,4.433333333333334,ScrollDown,ScrollUp,Green.png,2,Positive,Congruent,,,,,0,0,0,0,,,,,,,,,,,,,,,,,0,2,2,2,,,,,,,,,,,,,,,,,,,,,,,,,,,,,,,,,,,,,,,,,,,,,,,,,,,,,,,,,,,,,,,,,,,,,,,,,,,,,1,1.2117607000000135,257.774175,None,ScrollDown,정답입니다,257.774175,None,257.774175,None,257.774175,None,257.774175,None,258.8578109,None,258.8578109,259.3576662999999,,,,,,,,,,,,,,,,222,2022-05-23_14h19.58.894,FishGame,2022.1.1,60.040263000226716,
,4,넌 능숙해,2,Orange,B,5.666666666666667,4.733333333333333,ScrollUp,ScrollDown,Orange.png,2,Positive,Incongruent,,,,,0,0,0,0,,,,,,,,,,,,,,,,,0,3,3,3,,,,,,,,,,,,,,,,,,,,,,,,,,,,,,,,,,,,,,,,,,,,,,,,,,,,,,,,,,,,,,,,,,,,,,,,,,,,,2,1.154445399999986,260.0051595,None,ScrollUp,정답입니다,260.0051595,None,260.0051595,None,260.0051595,None,260.0051595,None,261.03897159999997,None,261.03897159999997,261.5406831,,,,,,,,,,,,,,,,222,2022-05-23_14h19.58.894,FishGame,2022.1.1,60.040263000226716,
,5,넌 진부해,4,Orange,B,2.458333333333333,3.166666666666667,ScrollUp,ScrollDown,Orange.png,2,Negative,Congruent,,,,,0,0,0,0,,,,,,,,,,,,,,,,,0,4,4,4,,,,,,,,,,,,,,,,,,,,,,,,,,,,,,,,,,,,,,,,,,,,,,,,,,,,,,,,,,,,,,,,,,,,,,,,,,,,,2,1.083151899999848,262.1959095000002,None,ScrollUp,정답입니다,262.1959095000002,None,262.1959095000002,None,262.1959095000002,None,262.1959095000002,None,263.1435970000002,None,263.1435970000002,263.6572242000002,,,,,,,,,,,,,,,,222,2022-05-23_14h19.58.894,FishGame,2022.1.1,60.040263000226716,
,6,나를 보내줘,6,Green,A,0,0,ScrollUp,ScrollDown,Green.png,2,NonTarget,NonTarget,,,,,0,0,0,0,,,,,,,,,,,,,,,,,0,5,5,5,,,,,,,,,,,,,,,,,,,,,,,,,,,,,,,,,,,,,,,,,,,,,,,,,,,,,,,,,,,,,,,,,,,,,,,,,,,,,1.9274691144625347,2.6529740999999376,264.30255739999984,None,ScrollUp,정답입니다,264.30255739999984,None,264.30255739999984,None,264.30255739999984,None,264.30255739999984,None,266.83039039999994,None,266.83039039999994,267.3401094000001,,,,,,,,,,,,,,,,222,2022-05-23_14h19.58.894,FishGame,2022.1.1,60.040263000226716,
,7,넌 엄격해,3,Green,A,4.166666666666666,4.1,ScrollDown,ScrollUp,Green.png,2,Neutral,Neutral,,,,,0,0,0,0,,,,,,,,,,,,,,,,,0,6,6,6,,,,,,,,,,,,,,,,,,,,,,,,,,,,,,,,,,,,,,,,,,,,,,,,,,,,,,,,,,,,,,,,,,,,,,,,,,,,,1.060185174147288,1.2989769000000706,267.9900057,None,ScrollDown,정답입니다,267.9900057,None,267.9900057,None,267.9900057,None,267.9900057,None,269.1598537,None,269.1598537,269.6732133999999,,,,,,,,,,,,,,,,222,2022-05-23_14h19.58.894,FishGame,2022.1.1,60.040263000226716,
,8,나를 보내줘,6,Green,A,0,0,ScrollUp,ScrollDown,Green.png,2,NonTarget,NonTarget,,,,,0,0,0,0,,,,,,,,,,,,,,,,,0,7,7,7,,,,,,,,,,,,,,,,,,,,,,,,,,,,,,,,,,,,,,,,,,,,,,,,,,,,,,,,,,,,,,,,,,,,,,,,,,,,,2,1.1611751999998887,270.3147770999999,None,ScrollUp,정답입니다,270.3147770999999,None,270.3147770999999,None,270.3147770999999,None,270.3147770999999,None,271.35624450000023,None,271.35624450000023,271.85618109999996,,,,,,,,,,,,,,,,222,2022-05-23_14h19.58.894,FishGame,2022.1.1,60.040263000226716,
,9,넌 대담해,3,Orange,B,4.875,4.866666666666666,ScrollUp,ScrollDown,Orange.png,2,Neutral,Neutral,,,,,0,0,0,0,,,,,,,,,,,,,,,,,0,8,8,8,,,,,,,,,,,,,,,,,,,,,,,,,,,,,,,,,,,,,,,,,,,,,,,,,,,,,,,,,,,,,,,,,,,,,,,,,,,,,1.8904321044683456,1.1890594999999848,272.5140236000002,None,ScrollUp,정답입니다,272.5140236000002,None,272.5140236000002,None,272.5140236000002,None,272.5140236000002,None,273.5705680000001,None,273.5705680000001,274.0725434000001,,,,,,,,,,,,,,,,222,2022-05-23_14h19.58.894,FishGame,2022.1.1,60.040263000226716,
,10,넌 꾸준해,1,Green,A,5.916666666666668,5.8,ScrollDown,ScrollUp,Green.png,2,Positive,Congruent,,,,,0,0,0,0,,,,,,,,,,,,,,,,,0,9,9,9,,,,,,,,,,,,,,,,,,,,,,,,,,,,,,,,,,,,,,,,,,,,,,,,,,,,,,,,,,,,,,,,,,,,,,,,,,,,,1.1111111094554265,1.144587700000102,274.7203599999998,None,ScrollDown,정답입니다,274.7203599999998,None,274.7203599999998,None,274.7203599999998,None,274.7203599999998,None,275.7388371000002,None,275.7388371000002,276.23882319999984,,,,,,,,,,,,,,,,222,2022-05-23_14h19.58.894,FishGame,2022.1.1,60.040263000226716,
,11,나를 데려가줘,6,Orange,B,0,0,ScrollDown,ScrollUp,Orange.png,2,NonTarget,NonTarget,,,,,0,0,0,0,,,,,,,,,,,,,,,,,0,10,10,10,,,,,,,,,,,,,,,,,,,,,,,,,,,,,,,,,,,,,,,,,,,,,,,,,,,,,,,,,,,,,,,,,,,,,,,,,,,,,1.1172839403152466,1.6014562000000296,276.8887543999999,None,ScrollDown,정답입니다,276.8887543999999,None,276.8887543999999,None,276.8887543999999,None,276.8887543999999,None,278.3615196999999,None,278.3615196999999,278.87195789999987,,,,,,,,,,,,,,,,222,2022-05-23_14h19.58.894,FishGame,2022.1.1,60.040263000226716,
,12,넌 독선적이야,5,Green,A,2.458333333333333,1.933333333333333,ScrollDown,ScrollUp,Green.png,2,Negative,Incongruent,,,,,0,0,0,0,,,,,,,,,,,,,,,,,0,11,11,11,,,,,,,,,,,,,,,,,,,,,,,,,,,,,,,,,,,,,,,,,,,,,,,,,,,,,,,,,,,,,,,,,,,,,,,,,,,,,1.1033950646718342,1.301582900000085,279.5193386000001,None,ScrollDown,정답입니다,279.5193386000001,None,279.5193386000001,None,279.5193386000001,None,279.5193386000001,None,280.69344649999994,None,280.69344649999994,281.20503599999984,,,,,,,,,,,,,,,,222,2022-05-23_14h19.58.894,FishGame,2022.1.1,60.040263000226716,
,13,나를 보내줘,6,Green,A,0,0,ScrollUp,ScrollDown,Green.png,2,NonTarget,NonTarget,,,,,0,0,0,0,,,,,,,,,,,,,,,,,0,12,12,12,,,,,,,,,,,,,,,,,,,,,,,,,,,,,,,,,,,,,,,,,,,,,,,,,,,,,,,,,,,,,,,,,,,,,,,,,,,,,2,1.2781400999997459,281.8533480000001,None,ScrollUp,정답입니다,281.8533480000001,None,281.8533480000001,None,281.8533480000001,None,281.8533480000001,None,283.0008831,None,283.0008831,283.50476260000005,,,,,,,,,,,,,,,,222,2022-05-23_14h19.58.894,FishGame,2022.1.1,60.040263000226716,
,14,넌 책임감있어,1,Orange,B,6.347826086956522,6,ScrollUp,ScrollDown,Orange.png,2,Positive,Incongruent,,,,,0,0,0,0,,,,,,,,,,,,,,,,,0,13,13,13,,,,,,,,,,,,,,,,,,,,,,,,,,,,,,,,,,,,,,,,,,,,,,,,,,,,,,,,,,,,,,,,,,,,,,,,,,,,,1.9984568059444427,1.1735160000002907,284.1613404,None,ScrollUp,정답입니다,284.1613404,None,284.1613404,None,284.1613404,None,284.1613404,None,285.2046759,None,285.2046759,285.70445229999996,,,,,,,,,,,,,,,,222,2022-05-23_14h19.58.894,FishGame,2022.1.1,60.040263000226716,
,15,넌 문학적이야,3,Green,A,4.708333333333334,4.333333333333333,ScrollDown,ScrollUp,Green.png,2,Neutral,Neutral,,,,,0,0,0,0,,,,,,,,,,,,,,,,,0,14,14,14,,,,,,,,,,,,,,,,,,,,,,,,,,,,,,,,,,,,,,,,,,,,,,,,,,,,,,,,,,,,,,,,,,,,,,,,,,,,,1.2391975422700245,1.1819141999999374,286.3553790000001,None,ScrollDown,정답입니다,286.3553790000001,None,286.3553790000001,None,286.3553790000001,None,286.3553790000001,None,287.4077034000002,None,287.4077034000002,287.92086400000017,,,,,,,,,,,,,,,,222,2022-05-23_14h19.58.894,FishGame,2022.1.1,60.040263000226716,
,16,넌 재미있어,1,Orange,B,5.875,5.7,ScrollUp,ScrollDown,Orange.png,2,Positive,Incongruent,,,,,0,0,0,0,,,,,,,,,,,,,,,,,0,15,15,15,,,,,,,,,,,,,,,,,,,,,,,,,,,,,,,,,,,,,,,,,,,,,,,,,,,,,,,,,,,,,,,,,,,,,,,,,,,,,1.9367283980051677,1.2010691000000406,288.56854269999985,None,ScrollUp,정답입니다,288.56854269999985,None,288.56854269999985,None,288.56854269999985,None,288.56854269999985,None,289.6416773000001,None,289.6416773000001,290.1537720000001,,,,,,,,,,,,,,,,222,2022-05-23_14h19.58.894,FishGame,2022.1.1,60.040263000226716,
,17,나를 데려가줘,6,Orange,B,0,0,ScrollDown,ScrollUp,Orange.png,2,NonTarget,NonTarget,,,,,0,0,0,0,,,,,,,,,,,,,,,,,0,16,16,16,,,,,,,,,,,,,,,,,,,,,,,,,,,,,,,,,,,,,,,,,,,,,,,,,,,,,,,,,,,,,,,,,,,,,,,,,,,,,1.2098765522241592,1.3723073000001023,290.80151449999994,None,ScrollDown,정답입니다,290.80151449999994,None,290.80151449999994,None,290.80151449999994,None,290.80151449999994,None,292.0462865999998,None,292.0462865999998,292.55359550000003,,,,,,,,,,,,,,,,222,2022-05-23_14h19.58.894,FishGame,2022.1.1,60.040263000226716,
,18,넌 협력적이야,1,Green,A,5.625,5.633333333333334,ScrollDown,ScrollUp,Green.png,2,Positive,Congruent,,,,,0,0,0,0,,,,,,,,,,,,,,,,,0,17,17,17,,,,,,,,,,,,,,,,,,,,,,,,,,,,,,,,,,,,,,,,,,,,,,,,,,,,,,,,,,,,,,,,,,,,,,,,,,,,,1.1296296268701553,1.2011750000001484,293.20819930000016,None,ScrollDown,정답입니다,293.20819930000016,None,293.20819930000016,None,293.20819930000016,None,293.20819930000016,None,294.2755603999999,None,294.2755603999999,294.78661779999993,,,,,,,,,,,,,,,,222,2022-05-23_14h19.58.894,FishGame,2022.1.1,60.040263000226716,
,19,넌 평범해,3,Orange,B,4.333333333333332,4.233333333333333,ScrollUp,ScrollDown,Orange.png,2,Neutral,Neutral,,,,,0,0,0,0,,,,,,,,,,,,,,,,,0,18,18,18,,,,,,,,,,,,,,,,,,,,,,,,,,,,,,,,,,,,,,,,,,,,,,,,,,,,,,,,,,,,,,,,,,,,,,,,,,,,,2,1.2876423000002433,295.43315680000023,None,ScrollUp,정답입니다,295.43315680000023,None,295.43315680000023,None,295.43315680000023,None,295.43315680000023,None,296.60107819999985,None,296.60107819999985,297.1029168,,,,,,,,,,,,,,,,222,2022-05-23_14h19.58.894,FishGame,2022.1.1,60.040263000226716,
,20,넌 오만해,5,Green,A,2.333333333333333,2,ScrollDown,ScrollUp,Green.png,2,Negative,Incongruent,,,,,0,0,0,0,,,,,,,,,,,,,,,,,0,19,19,19,,,,,,,,,,,,,,,,,,,,,,,,,,,,,,,,,,,,,,,,,,,,,,,,,,,,,,,,,,,,,,,,,,,,,,,,,,,,,1.2052469104528427,1.1397922999999537,297.74629300000015,None,ScrollDown,정답입니다,297.74629300000015,None,297.74629300000015,None,297.74629300000015,None,297.74629300000015,None,298.76923209999995,None,298.76923209999995,299.2695434000002,,,,,,,,,,,,,,,,222,2022-05-23_14h19.58.894,FishGame,2022.1.1,60.040263000226716,
,21,넌 운이없어,4,Orange,B,3,3.466666666666667,ScrollUp,ScrollDown,Orange.png,2,Negative,Congruent,,,,,0,0,0,0,,,,,,,,,,,,,,,,,0,20,20,20,,,,,,,,,,,,,,,,,,,,,,,,,,,,,,,,,,,,,,,,,,,,,,,,,,,,,,,,,,,,,,,,,,,,,,,,,,,,,2,1.1713267000000087,299.9262865999999,None,ScrollUp,정답입니다,299.9262865999999,None,299.9262865999999,None,299.9262865999999,None,299.9262865999999,None,300.9672182999998,None,300.9672182999998,301.4689407999999,,,,,,,,,,,,,,,,222,2022-05-23_14h19.58.894,FishGame,2022.1.1,60.040263000226716,
,22,넌 창조적이야,2,Orange,B,6.125,4.633333333333334,ScrollUp,ScrollDown,Orange.png,2,Positive,Incongruent,,,,,0,0,0,0,,,,,,,,,,,,,,,,,0,21,21,21,,,,,,,,,,,,,,,,,,,,,,,,,,,,,,,,,,,,,,,,,,,,,,,,,,,,,,,,,,,,,,,,,,,,,,,,,,,,,2,1.3203886999999668,302.12045709999984,None,ScrollUp,정답입니다,302.12045709999984,None,302.12045709999984,None,302.12045709999984,None,302.12045709999984,None,303.3167223999999,None,303.3167223999999,303.81873959999984,,,,,,,,,,,,,,,,222,2022-05-23_14h19.58.894,FishGame,2022.1.1,60.040263000226716,
,23,나를 보내줘,6,Green,A,0,0,ScrollUp,ScrollDown,Green.png,2,NonTarget,NonTarget,,,,,0,0,0,0,,,,,,,,,,,,,,,,,0,22,22,22,,,,,,,,,,,,,,,,,,,,,,,,,,,,,,,,,,,,,,,,,,,,,,,,,,,,,,,,,,,,,,,,,,,,,,,,,,,,,2,1.1892775999999685,304.4589848999999,None,ScrollUp,정답입니다,304.4589848999999,None,304.4589848999999,None,304.4589848999999,None,304.4589848999999,None,305.53338269999995,None,305.53338269999995,306.0353319999999,,,,,,,,,,,,,,,,222,2022-05-23_14h19.58.894,FishGame,2022.1.1,60.040263000226716,
,24,넌 통찰력있어,2,Green,A,6.5,4.8,ScrollDown,ScrollUp,Green.png,2,Positive,Congruent,,,,,0,0,0,0,,,,,,,,,,,,,,,,,0,23,23,23,,,,,,,,,,,,,,,,,,,,,,,,,,,,,,,,,,,,,,,,,,,,,,,,,,,,,,,,,,,,,,,,,,,,,,,,,,,,,1,1.3218918000002304,306.68591430000015,None,ScrollDown,정답입니다,306.68591430000015,None,306.68591430000015,None,306.68591430000015,None,306.68591430000015,None,307.8768749999999,None,307.8768749999999,308.3848902,,,,,,,,,,,,,,,,222,2022-05-23_14h19.58.894,FishGame,2022.1.1,60.040263000226716,
,25,넌 경솔해,5,Orange,B,2.458333333333333,2.266666666666667,ScrollUp,ScrollDown,Orange.png,2,Negative,Congruent,,,,,0,0,0,0,,,,,,,,,,,,,,,,,0,24,24,24,,,,,,,,,,,,,,,,,,,,,,,,,,,,,,,,,,,,,,,,,,,,,,,,,,,,,,,,,,,,,,,,,,,,,,,,,,,,,2,1.2522921999998289,309.0327705999998,None,ScrollUp,정답입니다,309.0327705999998,None,309.0327705999998,None,309.0327705999998,None,309.0327705999998,None,310.1659353,None,310.1659353,310.66797099999985,,,,,,,,,,,,,,,,222,2022-05-23_14h19.58.894,FishGame,2022.1.1,60.040263000226716,
,26,넌 초조해,4,Green,A,2.916666666666667,3.133333333333333,ScrollDown,ScrollUp,Green.png,2,Negative,Incongruent,,,,,0,0,0,0,,,,,,,,,,,,,,,,,0,25,25,25,,,,,,,,,,,,,,,,,,,,,,,,,,,,,,,,,,,,,,,,,,,,,,,,,,,,,,,,,,,,,,,,,,,,,,,,,,,,,1,1.2824531000001116,311.31025709999994,None,ScrollDown,정답입니다,311.31025709999994,None,311.31025709999994,None,311.31025709999994,None,311.31025709999994,None,312.47095339999987,None,312.47095339999987,312.9842672,,,,,,,,,,,,,,,,222,2022-05-23_14h19.58.894,FishGame,2022.1.1,60.040263000226716,
,27,넌 무관심해,4,Orange,B,2.833333333333333,2.9,ScrollUp,ScrollDown,Orange.png,2,Negative,Congruent,,,,,0,0,0,0,,,,,,,,,,,,,,,,,0,26,26,26,,,,,,,,,,,,,,,,,,,,,,,,,,,,,,,,,,,,,,,,,,,,,,,,,,,,,,,,,,,,,,,,,,,,,,,,,,,,,2,1.1903474000000642,313.63740559999997,None,ScrollUp,정답입니다,313.63740559999997,None,313.63740559999997,None,313.63740559999997,None,313.63740559999997,None,314.6988314,None,314.6988314,315.20095219999985,,,,,,,,,,,,,,,,222,2022-05-23_14h19.58.894,FishGame,2022.1.1,60.040263000226716,
,28,넌 감성적이야,3,Orange,B,4.125,4.166666666666667,ScrollUp,ScrollDown,Orange.png,2,Neutral,Neutral,,,,,0,0,0,0,,,,,,,,,,,,,,,,,0,27,27,27,,,,,,,,,,,,,,,,,,,,,,,,,,,,,,,,,,,,,,,,,,,,,,,,,,,,,,,,,,,,,,,,,,,,,,,,,,,,,1.9753086467583973,1.3168806999997287,315.8471811999998,None,ScrollUp,정답입니다,315.8471811999998,None,315.8471811999998,None,315.8471811999998,None,315.8471811999998,None,317.0379979999998,None,317.0379979999998,317.5503815000002,,,,,,,,,,,,,,,,222,2022-05-23_14h19.58.894,FishGame,2022.1.1,60.040263000226716,
,29,넌 배려심있어,1,Green,A,6.083333333333333,5.5,ScrollDown,ScrollUp,Green.png,2,Positive,Congruent,,,,,0,0,0,0,,,,,,,,,,,,,,,,,0,28,28,28,,,,,,,,,,,,,,,,,,,,,,,,,,,,,,,,,,,,,,,,,,,,,,,,,,,,,,,,,,,,,,,,,,,,,,,,,,,,,1,1.2434862999998586,318.1980944000002,None,ScrollDown,정답입니다,318.1980944000002,None,318.1980944000002,None,318.1980944000002,None,318.1980944000002,None,319.3164929999998,None,319.3164929999998,319.8164446999999,,,,,,,,,,,,,,,,222,2022-05-23_14h19.58.894,FishGame,2022.1.1,60.040263000226716,
,30,넌 숨김없어,3,Green,A,4.5,4.933333333333334,ScrollDown,ScrollUp,Green.png,2,Neutral,Neutral,,,,,0,0,0,0,,,,,,,,,,,,,,,,,0,29,29,29,,,,,,,,,,,,,,,,,,,,,,,,,,,,,,,,,,,,,,,,,,,,,,,,,,,,,,,,,,,,,,,,,,,,,,,,,,,,,1.1697530895471573,1.1835194000000229,320.46729700000014,None,ScrollDown,정답입니다,320.46729700000014,None,320.46729700000014,None,320.46729700000014,None,320.46729700000014,None,321.52119700000003,None,321.52119700000003,322.03298170000016,,,,,,,,,,,,,,,,222,2022-05-23_14h19.58.894,FishGame,2022.1.1,60.040263000226716,
,31,넌 훌륭해,2,Orange,B,5.916666666666667,4.033333333333333,ScrollUp,ScrollDown,Orange.png,2,Positive,Incongruent,,,,,0,0,0,0,,,,,,,,,,,,,,,,,0,30,30,30,,,,,,,,,,,,,,,,,,,,,,,,,,,,,,,,,,,,,,,,,,,,,,,,,,,,,,,,,,,,,,,,,,,,,,,,,,,,,2,1.3541431000003286,322.68395210000017,None,ScrollUp,정답입니다,322.68395210000017,None,322.68395210000017,None,322.68395210000017,None,322.68395210000017,None,323.9063943000001,None,323.9063943000001,324.4160978,,,,,,,,,,,,,,,,222,2022-05-23_14h19.58.894,FishGame,2022.1.1,60.040263000226716,
,32,넌 슬기로워,2,Green,A,6.166666666666667,4.1,ScrollDown,ScrollUp,Green.png,2,Positive,Congruent,,,,,0,0,0,0,,,,,,,,,,,,,,,,,0,31,31,31,,,,,,,,,,,,,,,,,,,,,,,,,,,,,,,,,,,,,,,,,,,,,,,,,,,,,,,,,,,,,,,,,,,,,,,,,,,,,1.0262345671653748,1.1611374000003707,325.0619842000001,None,ScrollDown,정답입니다,325.0619842000001,None,325.0619842000001,None,325.0619842000001,None,325.0619842000001,None,326.0990697000002,None,326.0990697000002,326.59937260000015,,,,,,,,,,,,,,,,222,2022-05-23_14h19.58.894,FishGame,2022.1.1,60.040263000226716,
,33,넌 냉혹해,5,Green,A,2.583333333333333,2.1,ScrollDown,ScrollUp,Green.png,2,Negative,Incongruent,,,,,0,0,0,0,,,,,,,,,,,,,,,,,0,32,32,32,,,,,,,,,,,,,,,,,,,,,,,,,,,,,,,,,,,,,,,,,,,,,,,,,,,,,,,,,,,,,,,,,,,,,,,,,,,,,1.0138889054457347,1.117079399999966,327.24263470000005,None,ScrollDown,정답입니다,327.24263470000005,None,327.24263470000005,None,327.24263470000005,None,327.24263470000005,None,328.23669789999985,None,328.23669789999985,328.7488950000002,,,,,,,,,,,,,,,,222,2022-05-23_14h19.58.894,FishGame,2022.1.1,60.040263000226716,
,34,나를 데려가줘,6,Orange,B,0,0,ScrollDown,ScrollUp,Orange.png,2,NonTarget,NonTarget,,,,,0,0,0,0,,,,,,,,,,,,,,,,,0,33,33,33,,,,,,,,,,,,,,,,,,,,,,,,,,,,,,,,,,,,,,,,,,,,,,,,,,,,,,,,,,,,,,,,,,,,,,,,,,,,,1,1.2899797999998555,329.3950702000002,None,ScrollDown,정답입니다,329.3950702000002,None,329.3950702000002,None,329.3950702000002,None,329.3950702000002,None,330.55827899999986,None,330.55827899999986,331.0652699000002,,,,,,,,,,,,,,,,222,2022-05-23_14h19.58.894,FishGame,2022.1.1,60.040263000226716,
,35,넌 편파적이야,5,Orange,B,2.125,2,ScrollUp,ScrollDown,Orange.png,2,Negative,Congruent,,,,,0,0,0,0,,,,,,,,,,,,,,,,,0,34,34,34,,,,,,,,,,,,,,,,,,,,,,,,,,,,,,,,,,,,,,,,,,,,,,,,,,,,,,,,,,,,,,,,,,,,,,,,,,,,,2,1.1950016999999207,331.71896370000013,None,ScrollUp,정답입니다,331.71896370000013,None,331.71896370000013,None,331.71896370000013,None,331.71896370000013,None,332.78165020000006,None,332.78165020000006,333.28160260000004,,,,,,,,,,,,,,,,222,2022-05-23_14h19.58.894,FishGame,2022.1.1,60.040263000226716,
,36,넌 슬퍼,4,Green,A,2.583333333333333,3.066666666666667,ScrollDown,ScrollUp,Green.png,2,Negative,Incongruent,,,,,0,0,0,0,,,,,,,,,,,,,,,,,0,35,35,35,,,,,,,,,,,,,,,,,,,,,,,,,,,,,,,,,,,,,,,,,,,,,,,,,,,,,,,,,,,,,,,,,,,,,,,,,,,,,1.0648148159186046,1.133556299999782,333.9180458000001,None,ScrollDown,정답입니다,333.9180458000001,None,333.9180458000001,None,333.9180458000001,None,333.9180458000001,None,334.9360485000002,None,334.9360485000002,335.44808749999993,,,,,,,,,,,,,,,,222,2022-05-23_14h19.58.894,FishGame,2022.1.1,60.040263000226716,
,37,나를 데려가줘,6,Orange,B,0,0,ScrollDown,ScrollUp,Orange.png,2,NonTarget,NonTarget,,,,,0,0,0,0,,,,,,,,,,,,,,,,,0,36,36,36,,,,,,,,,,,,,,,,,,,,,,,,,,,,,,,,,,,,,,,,,,,,,,,,,,,,,,,,,,,,,,,,,,,,,,,,,,,,,1.016975333293279,1.4840472000000773,336.09166830000004,None,ScrollDown,정답입니다,336.09166830000004,None,336.09166830000004,None,336.09166830000004,None,336.09166830000004,None,337.4525103000001,None,337.4525103000001,337.9643949000001,,,,,,,,,,,,,,,,222,2022-05-23_14h19.58.894,FishGame,2022.1.1,60.040263000226716,
,38,넌 친절해,1,Orange,B,6.041666666666667,5.533333333333333,ScrollUp,ScrollDown,Orange.png,2,Positive,Incongruent,,,,,0,0,0,0,,,,,,,,,,,,,,,,,0,37,37,37,,,,,,,,,,,,,,,,,,,,,,,,,,,,,,,,,,,,,,,,,,,,,,,,,,,,,,,,,,,,,,,,,,,,,,,,,,,,,1.9135802388191223,1.1857675999999628,338.6188241,None,ScrollUp,정답입니다,338.6188241,None,338.6188241,None,338.6188241,None,338.6188241,None,339.66885319999983,None,339.66885319999983,340.18081789999997,,,,,,,,,,,,,,,,222,2022-05-23_14h19.58.894,FishGame,2022.1.1,60.040263000226716,
,1,넌 엉성해,4,Green,A,3,3.3,ScrollDown,ScrollUp,Green.png,3,Negative,Incongruent,,,,,0,0,0,0,,,,,,,,,,,,,,,,,,,,,0,0,0,0,,,,,,,,,,,,,,,,,,,,,,,,,,,,,,,,379.52592319999985,381.0255026,381.0589485999999,382.00873189999993,382.0587704999998,383.0086766999998,383.0086766999998,None,,,,,,,,,,,,,,,,,,,,,,,,,,,,,,,,,,1.2901234527428946,1.21483679999983,384.18788159999986,None,ScrollDown,정답입니다,384.18788159999986,None,384.18788159999986,None,384.18788159999986,None,384.18788159999986,None,385.231937,None,385.231937,385.74165219999986,340.68062009999994,None,340.68062009999994,None,0.2462963,-0.062962964,1,0,0,0.01623693000010462,None,370.67676949999986,None,,,222,2022-05-23_14h19.58.894,FishGame,2022.1.1,60.040263000226716,
,2,나를 보내줘,6,Green,A,0,0,ScrollUp,ScrollDown,Green.png,3,NonTarget,NonTarget,,,,,0,0,0,0,,,,,,,,,,,,,,,,,,,,,0,1,1,1,,,,,,,,,,,,,,,,,,,,,,,,,,,,,,,,,,,,,,,,,,,,,,,,,,,,,,,,,,,,,,,,,,,,,,,,,1.7283950646718345,1.284721200000149,386.3786433999999,None,ScrollUp,정답입니다,386.3786433999999,None,386.3786433999999,None,386.3786433999999,None,386.3786433999999,None,387.5469588000001,None,387.5469588000001,388.0579195,,,,,,,,,,,,,,,,222,2022-05-23_14h19.58.894,FishGame,2022.1.1,60.040263000226716,
,3,넌 활발해,1,Orange,B,5.666666666666667,5.6,ScrollUp,ScrollDown,Orange.png,3,Positive,Incongruent,,,,,0,0,0,0,,,,,,,,,,,,,,,,,,,,,0,2,2,2,,,,,,,,,,,,,,,,,,,,,,,,,,,,,,,,,,,,,,,,,,,,,,,,,,,,,,,,,,,,,,,,,,,,,,,,,2,1.054765700000189,388.70872670000017,None,ScrollUp,정답입니다,388.70872670000017,None,388.70872670000017,None,388.70872670000017,None,388.70872670000017,None,389.63904460000003,None,389.63904460000003,390.1409792999998,,,,,,,,,,,,,,,,222,2022-05-23_14h19.58.894,FishGame,2022.1.1,60.040263000226716,
,4,넌 논리적이야,2,Green,A,5.666666666666666,4.633333333333334,ScrollDown,ScrollUp,Green.png,3,Positive,Congruent,,,,,0,0,0,0,,,,,,,,,,,,,,,,,,,,,0,3,3,3,,,,,,,,,,,,,,,,,,,,,,,,,,,,,,,,,,,,,,,,,,,,,,,,,,,,,,,,,,,,,,,,,,,,,,,,,1.0092592636744182,1.1029727999998613,390.7965571999998,None,ScrollDown,정답입니다,390.7965571999998,None,390.7965571999998,None,390.7965571999998,None,390.7965571999998,None,391.76334510000015,None,391.76334510000015,392.2740917000001,,,,,,,,,,,,,,,,222,2022-05-23_14h19.58.894,FishGame,2022.1.1,60.040263000226716,
,5,넌 과묵해,3,Green,A,3.875,4.4,ScrollDown,ScrollUp,Green.png,3,Neutral,Neutral,,,,,0,0,0,0,,,,,,,,,,,,,,,,,,,,,0,4,4,4,,,,,,,,,,,,,,,,,,,,,,,,,,,,,,,,,,,,,,,,,,,,,,,,,,,,,,,,,,,,,,,,,,,,,,,,,1.09413580596447,1.0451334000003953,392.9146768999999,None,ScrollDown,정답입니다,392.9146768999999,None,392.9146768999999,None,392.9146768999999,None,392.9146768999999,None,393.8403526000002,None,393.8403526000002,394.34037850000004,,,,,,,,,,,,,,,,222,2022-05-23_14h19.58.894,FishGame,2022.1.1,60.040263000226716,
,6,나를 데려가줘,6,Orange,B,0,0,ScrollDown,ScrollUp,Orange.png,3,NonTarget,NonTarget,,,,,0,0,0,0,,,,,,,,,,,,,,,,,,,,,0,5,5,5,,,,,,,,,,,,,,,,,,,,,,,,,,,,,,,,,,,,,,,,,,,,,,,,,,,,,,,,,,,,,,,,,,,,,,,,,1.1959876517454784,1.286997799999881,394.9821866000002,None,ScrollDown,정답입니다,394.9821866000002,None,394.9821866000002,None,394.9821866000002,None,394.9821866000002,None,396.1480351,None,396.1480351,396.6568398999998,,,,,,,,,,,,,,,,222,2022-05-23_14h19.58.894,FishGame,2022.1.1,60.040263000226716,
,7,넌 미숙해,4,Orange,B,3,3,ScrollUp,ScrollDown,Orange.png,3,Negative,Congruent,,,,,0,0,0,0,,,,,,,,,,,,,,,,,,,,,0,6,6,6,,,,,,,,,,,,,,,,,,,,,,,,,,,,,,,,,,,,,,,,,,,,,,,,,,,,,,,,,,,,,,,,,,,,,,,,,1.6620370397965112,1.1209760000001552,397.3022670999999,None,ScrollUp,정답입니다,397.3022670999999,None,397.3022670999999,None,397.3022670999999,None,397.3022670999999,None,398.29814339999984,None,398.29814339999984,398.80666280000014,,,,,,,,,,,,,,,,222,2022-05-23_14h19.58.894,FishGame,2022.1.1,60.040263000226716,
,8,나를 보내줘,6,Green,A,0,0,ScrollUp,ScrollDown,Green.png,3,NonTarget,NonTarget,,,,,0,0,0,0,,,,,,,,,,,,,,,,,,,,,0,7,7,7,,,,,,,,,,,,,,,,,,,,,,,,,,,,,,,,,,,,,,,,,,,,,,,,,,,,,,,,,,,,,,,,,,,,,,,,,2,1.294125399999757,399.4477714999998,None,ScrollUp,정답입니다,399.4477714999998,None,399.4477714999998,None,399.4477714999998,None,399.4477714999998,None,400.6231886999999,None,400.6231886999999,401.1228059,,,,,,,,,,,,,,,,222,2022-05-23_14h19.58.894,FishGame,2022.1.1,60.040263000226716,
,9,넌 자신만만해,3,Orange,B,4.833333333333334,4.333333333333333,ScrollUp,ScrollDown,Orange.png,3,Neutral,Neutral,,,,,0,0,0,0,,,,,,,,,,,,,,,,,,,,,0,8,8,8,,,,,,,,,,,,,,,,,,,,,,,,,,,,,,,,,,,,,,,,,,,,,,,,,,,,,,,,,,,,,,,,,,,,,,,,,1.9413580397764842,1.0596949000000677,401.7662747999998,None,ScrollUp,정답입니다,401.7662747999998,None,401.7662747999998,None,401.7662747999998,None,401.7662747999998,None,402.7061391000002,None,402.7061391000002,403.2059562999998,,,,,,,,,,,,,,,,222,2022-05-23_14h19.58.894,FishGame,2022.1.1,60.040263000226716,
,10,넌 탐욕스러워,5,Green,A,2.25,2.1,ScrollDown,ScrollUp,Green.png,3,Negative,Incongruent,,,,,0,0,0,0,,,,,,,,,,,,,,,,,,,,,0,9,9,9,,,,,,,,,,,,,,,,,,,,,,,,,,,,,,,,,,,,,,,,,,,,,,,,,,,,,,,,,,,,,,,,,,,,,,,,,1.3842592537403107,1.1089133000000402,403.85874749999994,None,ScrollDown,정답입니다,403.85874749999994,None,403.85874749999994,None,403.85874749999994,None,403.85874749999994,None,404.8393879,None,404.8393879,405.3391418000001,,,,,,,,,,,,,,,,222,2022-05-23_14h19.58.894,FishGame,2022.1.1,60.040263000226716,
,11,넌 인기있어,2,Green,A,5.458333333333333,4.5,ScrollDown,ScrollUp,Green.png,3,Positive,Congruent,,,,,0,0,0,0,,,,,,,,,,,,,,,,,,,,,0,10,10,10,,,,,,,,,,,,,,,,,,,,,,,,,,,,,,,,,,,,,,,,,,,,,,,,,,,,,,,,,,,,,,,,,,,,,,,,,1.2577160596847534,1.020995700000185,405.98155050000014,None,ScrollDown,정답입니다,405.98155050000014,None,405.98155050000014,None,405.98155050000014,None,405.98155050000014,None,406.88177099999984,None,406.88177099999984,407.3887586000001,,,,,,,,,,,,,,,,222,2022-05-23_14h19.58.894,FishGame,2022.1.1,60.040263000226716,
,12,나를 데려가줘,6,Orange,B,0,0,ScrollDown,ScrollUp,Orange.png,3,NonTarget,NonTarget,,,,,0,0,0,0,,,,,,,,,,,,,,,,,,,,,0,11,11,11,,,,,,,,,,,,,,,,,,,,,,,,,,,,,,,,,,,,,,,,,,,,,,,,,,,,,,,,,,,,,,,,,,,,,,,,,1.2407407313585281,1.1659199000000626,408.0396746000001,None,ScrollDown,정답입니다,408.0396746000001,None,408.0396746000001,None,408.0396746000001,None,408.0396746000001,None,409.0762725999998,None,409.0762725999998,409.5885082,,,,,,,,,,,,,,,,222,2022-05-23_14h19.58.894,FishGame,2022.1.1,60.040263000226716,
,13,넌 뛰어나,2,Orange,B,6.166666666666667,4,ScrollUp,ScrollDown,Orange.png,3,Positive,Incongruent,,,,,0,0,0,0,,,,,,,,,,,,,,,,,,,,,0,12,12,12,,,,,,,,,,,,,,,,,,,,,,,,,,,,,,,,,,,,,,,,,,,,,,,,,,,,,,,,,,,,,,,,,,,,,,,,,1.819444437821706,1.1784327000000303,410.2355768000002,None,ScrollUp,정답입니다,410.2355768000002,None,410.2355768000002,None,410.2355768000002,None,410.2355768000002,None,411.28548200000023,None,411.28548200000023,411.7883683,,,,,,,,,,,,,,,,222,2022-05-23_14h19.58.894,FishGame,2022.1.1,60.040263000226716,
,14,넌 낙관적이야,1,Green,A,5.75,5.8,ScrollDown,ScrollUp,Green.png,3,Positive,Congruent,,,,,0,0,0,0,,,,,,,,,,,,,,,,,,,,,0,13,13,13,,,,,,,,,,,,,,,,,,,,,,,,,,,,,,,,,,,,,,,,,,,,,,,,,,,,,,,,,,,,,,,,,,,,,,,,,1.2037036965290706,1.1484418000000005,412.4324557,None,ScrollDown,정답입니다,412.4324557,None,412.4324557,None,412.4324557,None,412.4324557,None,413.4583705,None,413.4583705,413.9713932999998,,,,,,,,,,,,,,,,222,2022-05-23_14h19.58.894,FishGame,2022.1.1,60.040263000226716,
,15,넌 산만해,4,Orange,B,2.695652173913043,3.033333333333333,ScrollUp,ScrollDown,Orange.png,3,Negative,Congruent,,,,,0,0,0,0,,,,,,,,,,,,,,,,,,,,,0,14,14,14,,,,,,,,,,,,,,,,,,,,,,,,,,,,,,,,,,,,,,,,,,,,,,,,,,,,,,,,,,,,,,,,,,,,,,,,,1.634259263674418,1.1171054999999797,414.6232243999998,None,ScrollUp,정답입니다,414.6232243999998,None,414.6232243999998,None,414.6232243999998,None,414.6232243999998,None,415.6091857000001,None,415.6091857000001,416.1209923000001,,,,,,,,,,,,,,,,222,2022-05-23_14h19.58.894,FishGame,2022.1.1,60.040263000226716,
,16,나를 보내줘,6,Green,A,0,0,ScrollUp,ScrollDown,Green.png,3,NonTarget,NonTarget,,,,,0,0,0,0,,,,,,,,,,,,,,,,,,,,,0,15,15,15,,,,,,,,,,,,,,,,,,,,,,,,,,,,,,,,,,,,,,,,,,,,,,,,,,,,,,,,,,,,,,,,,,,,,,,,,1.7484567960103354,1.1273449000000255,416.7563583000001,None,ScrollUp,정답입니다,416.7563583000001,None,416.7563583000001,None,416.7563583000001,None,416.7563583000001,None,417.7707626000001,None,417.7707626000001,418.27084109999987,,,,,,,,,,,,,,,,222,2022-05-23_14h19.58.894,FishGame,2022.1.1,60.040263000226716,
,17,넌 교활해,5,Orange,B,2.333333333333333,2.133333333333333,ScrollUp,ScrollDown,Orange.png,3,Negative,Congruent,,,,,0,0,0,0,,,,,,,,,,,,,,,,,,,,,0,16,16,16,,,,,,,,,,,,,,,,,,,,,,,,,,,,,,,,,,,,,,,,,,,,,,,,,,,,,,,,,,,,,,,,,,,,,,,,,1.7638888855775197,1.1115197000003718,418.91874370000005,None,ScrollUp,정답입니다,418.91874370000005,None,418.91874370000005,None,418.91874370000005,None,418.91874370000005,None,419.9036228,None,419.9036228,420.4039299000001,,,,,,,,,,,,,,,,222,2022-05-23_14h19.58.894,FishGame,2022.1.1,60.040263000226716,
,18,나를 보내줘,6,Green,A,0,0,ScrollUp,ScrollDown,Green.png,3,NonTarget,NonTarget,,,,,0,0,0,0,,,,,,,,,,,,,,,,,,,,,0,17,17,17,,,,,,,,,,,,,,,,,,,,,,,,,,,,,,,,,,,,,,,,,,,,,,,,,,,,,,,,,,,,,,,,,,,,,,,,,1.7222222338120141,1.0805209999998624,421.04775010000003,None,ScrollUp,정답입니다,421.04775010000003,None,421.04775010000003,None,421.04775010000003,None,421.04775010000003,None,422.0060314000002,None,422.0060314000002,422.52017990000013,,,,,,,,,,,,,,,,222,2022-05-23_14h19.58.894,FishGame,2022.1.1,60.040263000226716,
,19,넌 불친절해,5,Orange,B,2.208333333333333,2.033333333333333,ScrollUp,ScrollDown,Orange.png,3,Negative,Congruent,,,,,0,0,0,0,,,,,,,,,,,,,,,,,,,,,0,18,18,18,,,,,,,,,,,,,,,,,,,,,,,,,,,,,,,,,,,,,,,,,,,,,,,,,,,,,,,,,,,,,,,,,,,,,,,,,1.7361111094554267,1.094923199999812,423.16859750000003,None,ScrollUp,정답입니다,423.16859750000003,None,423.16859750000003,None,423.16859750000003,None,423.16859750000003,None,424.1364967999998,None,424.1364967999998,424.6365856000002,,,,,,,,,,,,,,,,222,2022-05-23_14h19.58.894,FishGame,2022.1.1,60.040263000226716,
,20,넌 지적이야,2,Orange,B,5.75,4.366666666666666,ScrollUp,ScrollDown,Orange.png,3,Positive,Incongruent,,,,,0,0,0,0,,,,,,,,,,,,,,,,,,,,,0,19,19,19,,,,,,,,,,,,,,,,,,,,,,,,,,,,,,,,,,,,,,,,,,,,,,,,,,,,,,,,,,,,,,,,,,,,,,,,,1.959876557191213,1.2461675999998079,425.2845287,None,ScrollUp,정답입니다,425.2845287,None,425.2845287,None,425.2845287,None,425.2845287,None,426.4028194000002,None,426.4028194000002,426.9030733999998,,,,,,,,,,,,,,,,222,2022-05-23_14h19.58.894,FishGame,2022.1.1,60.040263000226716,
,21,넌 우유부단해,4,Green,A,2.666666666666667,3.166666666666667,ScrollDown,ScrollUp,Green.png,3,Negative,Incongruent,,,,,0,0,0,0,,,,,,,,,,,,,,,,,,,,,0,20,20,20,,,,,,,,,,,,,,,,,,,,,,,,,,,,,,,,,,,,,,,,,,,,,,,,,,,,,,,,,,,,,,,,,,,,,,,,,1.0787036915620167,1.0988726000000497,427.54839119999997,None,ScrollDown,정답입니다,427.54839119999997,None,427.54839119999997,None,427.54839119999997,None,427.54839119999997,None,428.5234068,None,428.5234068,429.03596070000003,,,,,,,,,,,,,,,,222,2022-05-23_14h19.58.894,FishGame,2022.1.1,60.040263000226716,
,22,나를 데려가줘,6,Orange,B,0,0,ScrollDown,ScrollUp,Orange.png,3,NonTarget,NonTarget,,,,,0,0,0,0,,,,,,,,,,,,,,,,,,,,,0,21,21,21,,,,,,,,,,,,,,,,,,,,,,,,,,,,,,,,,,,,,,,,,,,,,,,,,,,,,,,,,,,,,,,,,,,,,,,,,1.180555562178294,1.545130799999697,429.6805943999998,None,ScrollDown,정답입니다,429.6805943999998,None,429.6805943999998,None,429.6805943999998,None,429.6805943999998,None,431.10226120000016,None,431.10226120000016,431.6022014,,,,,,,,,,,,,,,,222,2022-05-23_14h19.58.894,FishGame,2022.1.1,60.040263000226716,
,23,넌 성실해,1,Orange,B,6.041666666666666,5.7,ScrollUp,ScrollDown,Orange.png,3,Positive,Incongruent,,,,,0,0,0,0,,,,,,,,,,,,,,,,,,,,,0,22,22,22,,,,,,,,,,,,,,,,,,,,,,,,,,,,,,,,,,,,,,,,,,,,,,,,,,,,,,,,,,,,,,,,,,,,,,,,,1.9799382885297139,1.1557975999999144,432.2488059000002,None,ScrollUp,정답입니다,432.2488059000002,None,432.2488059000002,None,432.2488059000002,None,432.2488059000002,None,433.2780972999999,None,433.2780972999999,433.7855565,,,,,,,,,,,,,,,,222,2022-05-23_14h19.58.894,FishGame,2022.1.1,60.040263000226716,
,24,넌 현실주의적이야,3,Green,A,4.625,4.4,ScrollDown,ScrollUp,Green.png,3,Neutral,Neutral,,,,,0,0,0,0,,,,,,,,,,,,,,,,,,,,,0,23,23,23,,,,,,,,,,,,,,,,,,,,,,,,,,,,,,,,,,,,,,,,,,,,,,,,,,,,,,,,,,,,,,,,,,,,,,,,,1.1851851791143417,1.1947759999998198,434.4248177999998,None,ScrollDown,정답입니다,434.4248177999998,None,434.4248177999998,None,434.4248177999998,None,434.4248177999998,None,435.50196719999985,None,435.50196719999985,436.0017957,,,,,,,,,,,,,,,,222,2022-05-23_14h19.58.894,FishGame,2022.1.1,60.040263000226716,
,25,넌 진실돼,1,Green,A,6.625,5.566666666666666,ScrollDown,ScrollUp,Green.png,3,Positive,Congruent,,,,,0,0,0,0,,,,,,,,,,,,,,,,,,,,,0,24,24,24,,,,,,,,,,,,,,,,,,,,,,,,,,,,,,,,,,,,,,,,,,,,,,,,,,,,,,,,,,,,,,,,,,,,,,,,,1.1481481442848842,1.3914703999998892,436.6466731999999,None,ScrollDown,정답입니다,436.6466731999999,None,436.6466731999999,None,436.6466731999999,None,436.6466731999999,None,437.9148146000002,None,437.9148146000002,438.41819769999984,,,,,,,,,,,,,,,,222,2022-05-23_14h19.58.894,FishGame,2022.1.1,60.040263000226716,
,26,넌 천진난만해,3,Orange,B,4.958333333333334,4.833333333333333,ScrollUp,ScrollDown,Orange.png,3,Neutral,Neutral,,,,,0,0,0,0,,,,,,,,,,,,,,,,,,,,,0,25,25,25,,,,,,,,,,,,,,,,,,,,,,,,,,,,,,,,,,,,,,,,,,,,,,,,,,,,,,,,,,,,,,,,,,,,,,,,,1.839506169160207,1.3375644999996439,439.07470409999996,None,ScrollUp,정답입니다,439.07470409999996,None,439.07470409999996,None,439.07470409999996,None,439.07470409999996,None,440.2760291999998,None,440.2760291999998,440.78455650000024,,,,,,,,,,,,,,,,222,2022-05-23_14h19.58.894,FishGame,2022.1.1,60.040263000226716,
,27,넌 교양없어,5,Green,A,2.416666666666667,2.2,ScrollDown,ScrollUp,Green.png,3,Negative,Incongruent,,,,,0,0,0,0,,,,,,,,,,,,,,,,,,,,,0,26,26,26,,,,,,,,,,,,,,,,,,,,,,,,,,,,,,,,,,,,,,,,,,,,,,,,,,,,,,,,,,,,,,,,,,,,,,,,,1.180555562178294,1.160976699999992,441.42768650000016,None,ScrollDown,정답입니다,441.42768650000016,None,441.42768650000016,None,441.42768650000016,None,441.42768650000016,None,442.4677044,None,442.4677044,442.96770849999984,,,,,,,,,,,,,,,,222,2022-05-23_14h19.58.894,FishGame,2022.1.1,60.040263000226716,
,28,나를 보내줘,6,Green,A,0,0,ScrollUp,ScrollDown,Green.png,3,NonTarget,NonTarget,,,,,0,0,0,0,,,,,,,,,,,,,,,,,,,,,0,27,27,27,,,,,,,,,,,,,,,,,,,,,,,,,,,,,,,,,,,,,,,,,,,,,,,,,,,,,,,,,,,,,,,,,,,,,,,,,1.7345678955316544,1.7852976999997736,443.60856349999995,None,ScrollUp,정답입니다,443.60856349999995,None,443.60856349999995,None,443.60856349999995,None,443.60856349999995,None,445.2732348999998,None,445.2732348999998,445.7840947999998,,,,,,,,,,,,,,,,222,2022-05-23_14h19.58.894,FishGame,2022.1.1,60.040263000226716,
,29,넌 엉뚱스러워,3,Green,A,4.166666666666667,4.133333333333334,ScrollDown,ScrollUp,Green.png,3,Neutral,Neutral,,,,,0,0,0,0,,,,,,,,,,,,,,,,,,,,,0,28,28,28,,,,,,,,,,,,,,,,,,,,,,,,,,,,,,,,,,,,,,,,,,,,,,,,,,,,,,,,,,,,,,,,,,,,,,,,,1.345679017404715,1.0889108999999735,446.4313591,None,ScrollDown,정답입니다,446.4313591,None,446.4313591,None,446.4313591,None,446.4313591,None,447.3930970000001,None,447.3930970000001,447.90035290000014,,,,,,,,,,,,,,,,222,2022-05-23_14h19.58.894,FishGame,2022.1.1,60.040263000226716,
,30,넌 무지해,4,Orange,B,2.541666666666667,3.066666666666667,ScrollUp,ScrollDown,Orange.png,3,Negative,Congruent,,,,,0,0,0,0,,,,,,,,,,,,,,,,,,,,,0,29,29,29,,,,,,,,,,,,,,,,,,,,,,,,,,,,,,,,,,,,,,,,,,,,,,,,,,,,,,,,,,,,,,,,,,,,,,,,,1.5817901206513247,1.1556798999999955,448.5441946000001,None,ScrollUp,정답입니다,448.5441946000001,None,448.5441946000001,None,448.5441946000001,None,448.5441946000001,None,449.5835456,None,449.5835456,450.0834681000001,,,,,,,,,,,,,,,,222,2022-05-23_14h19.58.894,FishGame,2022.1.1,60.040263000226716,
,31,넌 음울해,5,Orange,B,2.25,2.233333333333333,ScrollUp,ScrollDown,Orange.png,3,Negative,Congruent,,,,,0,0,0,0,,,,,,,,,,,,,,,,,,,,,0,30,30,30,,,,,,,,,,,,,,,,,,,,,,,,,,,,,,,,,,,,,,,,,,,,,,,,,,,,,,,,,,,,,,,,,,,,,,,,,1.9259259502092998,1.078352300000006,450.7391677999999,None,ScrollUp,정답입니다,450.7391677999999,None,450.7391677999999,None,450.7391677999999,None,450.7391677999999,None,451.6797554999998,None,451.6797554999998,452.1831385999999,,,,,,,,,,,,,,,,222,2022-05-23_14h19.58.894,FishGame,2022.1.1,60.040263000226716,
,32,넌 냉소적이야,5,Green,A,2.916666666666667,2.4,ScrollDown,ScrollUp,Green.png,3,Negative,Incongruent,,,,,0,0,0,0,,,,,,,,,,,,,,,,,,,,,0,31,31,31,,,,,,,,,,,,,,,,,,,,,,,,,,,,,,,,,,,,,,,,,,,,,,,,,,,,,,,,,,,,,,,,,,,,,,,,,1.1466049303611119,1.0940909999999349,452.8202685000001,None,ScrollDown,정답입니다,452.8202685000001,None,452.8202685000001,None,452.8202685000001,None,452.8202685000001,None,453.79637779999985,None,453.79637779999985,454.2995971,,,,,,,,,,,,,,,,222,2022-05-23_14h19.58.894,FishGame,2022.1.1,60.040263000226716,
,33,나를 데려가줘,6,Orange,B,0,0,ScrollDown,ScrollUp,Orange.png,3,NonTarget,NonTarget,,,,,0,0,0,0,,,,,,,,,,,,,,,,,,,,,0,32,32,32,,,,,,,,,,,,,,,,,,,,,,,,,,,,,,,,,,,,,,,,,,,,,,,,,,,,,,,,,,,,,,,,,,,,,,,,,1.3086419701576233,1.0867826000003333,454.94488150000006,None,ScrollDown,정답입니다,454.94488150000006,None,454.94488150000006,None,454.94488150000006,None,454.94488150000006,None,455.9070581000001,None,455.9070581000001,456.41582229999995,,,,,,,,,,,,,,,,222,2022-05-23_14h19.58.894,FishGame,2022.1.1,60.040263000226716,
,34,넌 쾌활해,1,Green,A,5.541666666666666,5.733333333333333,ScrollDown,ScrollUp,Green.png,3,Positive,Congruent,,,,,0,0,0,0,,,,,,,,,,,,,,,,,,,,,0,33,33,33,,,,,,,,,,,,,,,,,,,,,,,,,,,,,,,,,,,,,,,,,,,,,,,,,,,,,,,,,,,,,,,,,,,,,,,,,1.336419758697351,1.2660304000000906,457.0670716999998,None,ScrollDown,정답입니다,457.0670716999998,None,457.0670716999998,None,457.0670716999998,None,457.0670716999998,None,458.2032377999999,None,458.2032377999999,458.7157097999998,,,,,,,,,,,,,,,,222,2022-05-23_14h19.58.894,FishGame,2022.1.1,60.040263000226716,
,35,나를 보내줘,6,Green,A,0,0,ScrollUp,ScrollDown,Green.png,3,NonTarget,NonTarget,,,,,0,0,0,0,,,,,,,,,,,,,,,,,,,,,0,34,34,34,,,,,,,,,,,,,,,,,,,,,,,,,,,,,,,,,,,,,,,,,,,,,,,,,,,,,,,,,,,,,,,,,,,,,,,,,1.7530864129463832,1.1324173999996674,459.35208009999997,None,ScrollUp,정답입니다,459.35208009999997,None,459.35208009999997,None,459.35208009999997,None,459.35208009999997,None,460.3688010000001,None,460.3688010000001,460.8820074999999,,,,,,,,,,,,,,,,222,2022-05-23_14h19.58.894,FishGame,2022.1.1,60.040263000226716,
,36,넌 명랑해,1,Orange,B,5.739130434782609,5.666666666666667,ScrollUp,ScrollDown,Orange.png,3,Positive,Incongruent,,,,,0,0,0,0,,,,,,,,,,,,,,,,,,,,,0,35,35,35,,,,,,,,,,,,,,,,,,,,,,,,,,,,,,,,,,,,,,,,,,,,,,,,,,,,,,,,,,,,,,,,,,,,,,,,,2,1.1776503000000957,461.5304467000001,None,ScrollUp,정답입니다,461.5304467000001,None,461.5304467000001,None,461.5304467000001,None,461.5304467000001,None,462.58183529999997,None,462.58183529999997,463.0817609999999,,,,,,,,,,,,,,,,222,2022-05-23_14h19.58.894,FishGame,2022.1.1,60.040263000226716,
,37,넌 멍해,4,Green,A,2.833333333333333,3.4,ScrollDown,ScrollUp,Green.png,3,Negative,Incongruent,,,,,0,0,0,0,,,,,,,,,,,,,,,,,,,,,0,36,36,36,,,,,,,,,,,,,,,,,,,,,,,,,,,,,,,,,,,,,,,,,,,,,,,,,,,,,,,,,,,,,,,,,,,,,,,,,1.1774691343307495,1.15352699999994,463.7284863,None,ScrollDown,정답입니다,463.7284863,None,463.7284863,None,463.7284863,None,463.7284863,None,464.75511480000023,None,464.75511480000023,465.2646800000002,,,,,,,,,,,,,,,,222,2022-05-23_14h19.58.894,FishGame,2022.1.1,60.040263000226716,
,38,나를 데려가줘,6,Orange,B,0,0,ScrollDown,ScrollUp,Orange.png,3,NonTarget,NonTarget,,,,,0,0,0,0,,,,,,,,,,,,,,,,,,,,,0,37,37,37,,,,,,,,,,,,,,,,,,,,,,,,,,,,,,,,,,,,,,,,,,,,,,,,,,,,,,,,,,,,,,,,,,,,,,,,,1.1496913582086563,1.5039891000001262,465.9086610999998,None,ScrollDown,정답입니다,465.9086610999998,None,465.9086610999998,None,465.9086610999998,None,465.9086610999998,None,467.28864509999994,None,467.28864509999994,467.7979129999999,,,,,,,,,,,,,,,,222,2022-05-23_14h19.58.894,FishGame,2022.1.1,60.040263000226716,
,39,넌 현명해,2,Green,A,6.541666666666666,4.533333333333333,ScrollDown,ScrollUp,Green.png,3,Positive,Congruent,,,,,0,0,0,0,,,,,,,,,,,,,,,,,,,,,0,38,38,38,,,,,,,,,,,,,,,,,,,,,,,,,,,,,,,,,,,,,,,,,,,,,,,,,,,,,,,,,,,,,,,,,,,,,,,,,1.3919753109415371,1.077651799999785,468.44002709999995,None,ScrollDown,정답입니다,468.44002709999995,None,468.44002709999995,None,468.44002709999995,None,468.44002709999995,None,469.3974323000002,None,469.3974323000002,469.89765910000006,,,,,,,,,,,,,,,,222,2022-05-23_14h19.58.894,FishGame,2022.1.1,60.040263000226716,
,40,넌 수줍어,3,Orange,B,3.541666666666666,4.366666666666666,ScrollUp,ScrollDown,Orange.png,3,Neutral,Neutral,,,,,0,0,0,0,,,,,,,,,,,,,,,,,,,,,0,39,39,39,,,,,,,,,,,,,,,,,,,,,,,,,,,,,,,,,,,,,,,,,,,,,,,,,,,,,,,,,,,,,,,,,,,,,,,,,1.68364197264115,1.3844385000002148,470.5499135,None,ScrollUp,정답입니다,470.5499135,None,470.5499135,None,470.5499135,None,470.5499135,None,471.8023959000002,None,471.8023959000002,472.3138503,,,,,,,,,,,,,,,,222,2022-05-23_14h19.58.894,FishGame,2022.1.1,60.040263000226716,
,41,나를 데려가줘,6,Orange,B,0,0,ScrollDown,ScrollUp,Orange.png,3,NonTarget,NonTarget,,,,,0,0,0,0,,,,,,,,,,,,,,,,,,,,,0,40,40,40,,,,,,,,,,,,,,,,,,,,,,,,,,,,,,,,,,,,,,,,,,,,,,,,,,,,,,,,,,,,,,,,,,,,,,,,,1.2268518557151158,1.2985509999998612,472.9596418000001,None,ScrollDown,정답입니다,472.9596418000001,None,472.9596418000001,None,472.9596418000001,None,472.9596418000001,None,474.13392410000006,None,474.13392410000006,474.6468911000002,,,,,,,,,,,,,,,,222,2022-05-23_14h19.58.894,FishGame,2022.1.1,60.040263000226716,
,42,넌 성숙해,2,Orange,B,5.833333333333333,4.533333333333333,ScrollUp,ScrollDown,Orange.png,3,Positive,Incongruent,,,,,0,0,0,0,,,,,,,,,,,,,,,,,,,,,0,41,41,41,,,,,,,,,,,,,,,,,,,,,,,,,,,,,,,,,,,,,,,,,,,,,,,,,,,,,,,,,,,,,,,,,,,,,,,,,1.702160490055879,1.1566179000001284,475.29404079999995,None,ScrollUp,정답입니다,475.29404079999995,None,475.29404079999995,None,475.29404079999995,None,475.29404079999995,None,476.3299353000002,None,476.3299353000002,476.8301169000001,,,,,,,,,,,,,,,,222,2022-05-23_14h19.58.894,FishGame,2022.1.1,60.040263000226716,
,1,넌 매력적이야,2,Orange,B,6.125,4.666666666666667,ScrollUp,ScrollDown,Orange.png,4,Positive,Incongruent,,,,,0,0,0,0,,,,,,,,,,,,,,,,,,,,,,,,,0,0,0,0,,,,,,,,,,,,,,,,,,,,,,,,,,,,509.24268440000014,510.74215430000004,510.7755123000002,511.7254201999999,511.7755999000001,512.7254044000001,512.7254044000001,None,,,,,,,,,,,,,,,,,,,,,,,,,,,,,,,,,,1.6265432064731917,1.157507600000372,513.9061354,None,ScrollUp,정답입니다,513.9061354,None,513.9061354,None,513.9061354,None,513.9061354,None,514.8915701000001,None,514.8915701000001,515.3917464000001,477.33005,None,477.33005,None,0.42685184,-0.09351852,1,0,0,0.01624543000025369,None,507.3426338999998,None,,,222,2022-05-23_14h19.58.894,FishGame,2022.1.1,60.040263000226716,
,2,나를 보내줘,6,Green,A,0,0,ScrollUp,ScrollDown,Green.png,4,NonTarget,NonTarget,,,,,0,0,0,0,,,,,,,,,,,,,,,,,,,,,,,,,0,1,1,1,,,,,,,,,,,,,,,,,,,,,,,,,,,,,,,,,,,,,,,,,,,,,,,,,,,,,,,,,,,,,,,,,,,,,1.5262345684071383,1.0791395999999622,516.0352670000002,None,NoResponse,무응답입니다,516.0352670000002,None,516.0352670000002,None,516.0352670000002,None,516.0352670000002,None,516.9962658999998,None,516.9962658999998,517.5081639999999,,,,,,,,,,,,,,,,222,2022-05-23_14h19.58.894,FishGame,2022.1.1,60.040263000226716,
,3,넌 조심스러워,3,Green,A,4.791666666666666,4.666666666666667,ScrollDown,ScrollUp,Green.png,4,Neutral,Neutral,,,,,0,0,0,0,,,,,,,,,,,,,,,,,,,,,,,,,0,2,2,2,,,,,,,,,,,,,,,,,,,,,,,,,,,,,,,,,,,,,,,,,,,,,,,,,,,,,,,,,,,,,,,,,,,,,1.1558641890684764,3.353486299999986,518.1495767000001,None,ScrollDown,정답입니다,518.1495767000001,None,518.1495767000001,None,518.1495767000001,None,518.1495767000001,None,521.3839075999999,None,521.3839075999999,521.8907816999999,,,,,,,,,,,,,,,,222,2022-05-23_14h19.58.894,FishGame,2022.1.1,60.040263000226716,
,4,넌 철학적이야,3,Orange,B,4.5,4.266666666666667,ScrollUp,ScrollDown,Orange.png,4,Neutral,Neutral,,,,,0,0,0,0,,,,,,,,,,,,,,,,,,,,,,,,,0,3,3,3,,,,,,,,,,,,,,,,,,,,,,,,,,,,,,,,,,,,,,,,,,,,,,,,,,,,,,,,,,,,,,,,,,,,,1.6450617238879204,1.2587656999999126,522.5794427999999,None,ScrollUp,정답입니다,522.5794427999999,None,522.5794427999999,None,522.5794427999999,None,522.5794427999999,None,523.6740865000002,None,523.6740865000002,524.1740129999998,,,,,,,,,,,,,,,,222,2022-05-23_14h19.58.894,FishGame,2022.1.1,60.040263000226716,
,5,넌 쩨쩨해,5,Green,A,2.375,2.133333333333333,ScrollDown,ScrollUp,Green.png,4,Negative,Incongruent,,,,,0,0,0,0,,,,,,,,,,,,,,,,,,,,,,,,,0,4,4,4,,,,,,,,,,,,,,,,,,,,,,,,,,,,,,,,,,,,,,,,,,,,,,,,,,,,,,,,,,,,,,,,,,,,,1.3595679054657617,1.2106651999997666,524.8175231,None,ScrollDown,정답입니다,524.8175231,None,524.8175231,None,524.8175231,None,524.8175231,None,525.9068858,None,525.9068858,526.4070244,,,,,,,,,,,,,,,,222,2022-05-23_14h19.58.894,FishGame,2022.1.1,60.040263000226716,
,6,나를 데려가줘,6,Orange,B,0,0,ScrollDown,ScrollUp,Orange.png,4,NonTarget,NonTarget,,,,,0,0,0,0,,,,,,,,,,,,,,,,,,,,,,,,,0,5,5,5,,,,,,,,,,,,,,,,,,,,,,,,,,,,,,,,,,,,,,,,,,,,,,,,,,,,,,,,,,,,,,,,,,,,,1.1728395173947017,1.556061100000079,527.0573336000002,None,ScrollDown,정답입니다,527.0573336000002,None,527.0573336000002,None,527.0573336000002,None,527.0573336000002,None,528.4899524000002,None,528.4899524000002,528.9902677999999,,,,,,,,,,,,,,,,222,2022-05-23_14h19.58.894,FishGame,2022.1.1,60.040263000226716,
,7,넌 고집불통이야,5,Orange,B,2.875,2,ScrollUp,ScrollDown,Orange.png,4,Negative,Congruent,,,,,0,0,0,0,,,,,,,,,,,,,,,,,,,,,,,,,0,6,6,6,,,,,,,,,,,,,,,,,,,,,,,,,,,,,,,,,,,,,,,,,,,,,,,,,,,,,,,,,,,,,,,,,,,,,1.6265432064731917,1.1626760999997714,529.6470383999999,None,ScrollUp,정답입니다,529.6470383999999,None,529.6470383999999,None,529.6470383999999,None,529.6470383999999,None,530.6757972999999,None,530.6757972999999,531.1897862000001,,,,,,,,,,,,,,,,222,2022-05-23_14h19.58.894,FishGame,2022.1.1,60.040263000226716,
,8,넌 무심해,4,Green,A,2.875,3.2,ScrollDown,ScrollUp,Green.png,4,Negative,Incongruent,,,,,0,0,0,0,,,,,,,,,,,,,,,,,,,,,,,,,0,7,7,7,,,,,,,,,,,,,,,,,,,,,,,,,,,,,,,,,,,,,,,,,,,,,,,,,,,,,,,,,,,,,,,,,,,,,1.1574074029922485,1.2455614999998943,531.8281427000002,None,ScrollDown,정답입니다,531.8281427000002,None,531.8281427000002,None,531.8281427000002,None,531.8281427000002,None,532.955899,None,532.955899,533.4559691999998,,,,,,,,,,,,,,,,222,2022-05-23_14h19.58.894,FishGame,2022.1.1,60.040263000226716,
,9,넌 정겨워,1,Green,A,5.791666666666667,5.666666666666667,ScrollDown,ScrollUp,Green.png,4,Positive,Congruent,,,,,0,0,0,0,,,,,,,,,,,,,,,,,,,,,,,,,0,8,8,8,,,,,,,,,,,,,,,,,,,,,,,,,,,,,,,,,,,,,,,,,,,,,,,,,,,,,,,,,,,,,,,,,,,,,1.2453703731298447,1.1821098000000347,534.1072732000002,None,ScrollDown,정답입니다,534.1072732000002,None,534.1072732000002,None,534.1072732000002,None,534.1072732000002,None,535.1609747000002,None,535.1609747000002,535.6724663,,,,,,,,,,,,,,,,222,2022-05-23_14h19.58.894,FishGame,2022.1.1,60.040263000226716,
,10,나를 데려가줘,6,Orange,B,0,0,ScrollDown,ScrollUp,Orange.png,4,NonTarget,NonTarget,,,,,0,0,0,0,,,,,,,,,,,,,,,,,,,,,,,,,0,9,9,9,,,,,,,,,,,,,,,,,,,,,,,,,,,,,,,,,,,,,,,,,,,,,,,,,,,,,,,,,,,,,,,,,,,,,1.1064814925193787,1.297941400000127,536.3180848000002,None,ScrollDown,정답입니다,536.3180848000002,None,536.3180848000002,None,536.3180848000002,None,536.3180848000002,None,537.4914966000001,None,537.4914966000001,538.0054421999998,,,,,,,,,,,,,,,,222,2022-05-23_14h19.58.894,FishGame,2022.1.1,60.040263000226716,
,11,넌 체제순응적이야,4,Orange,B,3,3.6,ScrollUp,ScrollDown,Orange.png,4,Negative,Congruent,,,,,0,0,0,0,,,,,,,,,,,,,,,,,,,,,,,,,0,10,10,10,,,,,,,,,,,,,,,,,,,,,,,,,,,,,,,,,,,,,,,,,,,,,,,,,,,,,,,,,,,,,,,,,,,,,1.7839506169160206,1.2055205999999998,538.6700062,None,ScrollUp,정답입니다,538.6700062,None,538.6700062,None,538.6700062,None,538.6700062,None,539.7315395,None,539.7315395,540.2384766999999,,,,,,,,,,,,,,,,222,2022-05-23_14h19.58.894,FishGame,2022.1.1,60.040263000226716,
,12,나를 보내줘,6,Green,A,0,0,ScrollUp,ScrollDown,Green.png,4,NonTarget,NonTarget,,,,,0,0,0,0,,,,,,,,,,,,,,,,,,,,,,,,,0,11,11,11,,,,,,,,,,,,,,,,,,,,,,,,,,,,,,,,,,,,,,,,,,,,,,,,,,,,,,,,,,,,,,,,,,,,,1.4506172848244507,1.3280589999999393,540.8805130000001,None,NoResponse,무응답입니다,540.8805130000001,None,540.8805130000001,None,540.8805130000001,None,540.8805130000001,None,542.0848000000001,None,542.0848000000001,542.5882741999999,,,,,,,,,,,,,,,,222,2022-05-23_14h19.58.894,FishGame,2022.1.1,60.040263000226716,
,13,넌 박식해,2,Green,A,5.625,3.933333333333333,ScrollDown,ScrollUp,Green.png,4,Positive,Congruent,,,,,0,0,0,0,,,,,,,,,,,,,,,,,,,,,,,,,0,12,12,12,,,,,,,,,,,,,,,,,,,,,,,,,,,,,,,,,,,,,,,,,,,,,,,,,,,,,,,,,,,,,,,,,,,,,1.1635802586873372,2.949531599999773,543.2332286999999,None,ScrollDown,정답입니다,543.2332286999999,None,543.2332286999999,None,543.2332286999999,None,543.2332286999999,None,546.0608158,None,546.0608158,546.5710488,,,,,,,,,,,,,,,,222,2022-05-23_14h19.58.894,FishGame,2022.1.1,60.040263000226716,
,14,나를 보내줘,6,Green,A,0,0,ScrollUp,ScrollDown,Green.png,4,NonTarget,NonTarget,,,,,0,0,0,0,,,,,,,,,,,,,,,,,,,,,,,,,0,13,13,13,,,,,,,,,,,,,,,,,,,,,,,,,,,,,,,,,,,,,,,,,,,,,,,,,,,,,,,,,,,,,,,,,,,,,1.858024686574936,1.3530488000001242,547.2080793999999,None,ScrollUp,정답입니다,547.2080793999999,None,547.2080793999999,None,547.2080793999999,None,547.2080793999999,None,548.4435858000002,None,548.4435858000002,548.9541457,,,,,,,,,,,,,,,,222,2022-05-23_14h19.58.894,FishGame,2022.1.1,60.040263000226716,
,15,넌 침착해,1,Orange,B,5.458333333333333,5.566666666666666,ScrollUp,ScrollDown,Orange.png,4,Positive,Incongruent,,,,,0,0,0,0,,,,,,,,,,,,,,,,,,,,,,,,,0,14,14,14,,,,,,,,,,,,,,,,,,,,,,,,,,,,,,,,,,,,,,,,,,,,,,,,,,,,,,,,,,,,,,,,,,,,,1.9891975224018097,1.791722099999788,549.6078618000001,None,ScrollUp,정답입니다,549.6078618000001,None,549.6078618000001,None,549.6078618000001,None,549.6078618000001,None,551.2686263,None,551.2686263,551.7704625000001,,,,,,,,,,,,,,,,222,2022-05-23_14h19.58.894,FishGame,2022.1.1,60.040263000226716,
,16,나를 데려가줘,6,Orange,B,0,0,ScrollDown,ScrollUp,Orange.png,4,NonTarget,NonTarget,,,,,0,0,0,0,,,,,,,,,,,,,,,,,,,,,,,,,0,15,15,15,,,,,,,,,,,,,,,,,,,,,,,,,,,,,,,,,,,,,,,,,,,,,,,,,,,,,,,,,,,,,,,,,,,,,1,2.500573400000121,552.4117169000001,None,ScrollDown,정답입니다,552.4117169000001,None,552.4117169000001,None,552.4117169000001,None,552.4117169000001,None,554.7914492,None,554.7914492,555.3031030000002,,,,,,,,,,,,,,,,222,2022-05-23_14h19.58.894,FishGame,2022.1.1,60.040263000226716,
,17,넌 행복해,1,Green,A,6.416666666666666,6.166666666666667,ScrollDown,ScrollUp,Green.png,4,Positive,Congruent,,,,,0,0,0,0,,,,,,,,,,,,,,,,,,,,,,,,,0,16,16,16,,,,,,,,,,,,,,,,,,,,,,,,,,,,,,,,,,,,,,,,,,,,,,,,,,,,,,,,,,,,,,,,,,,,,1.1496913582086563,1.3056824999998753,555.9489911999999,None,ScrollDown,정답입니다,555.9489911999999,None,555.9489911999999,None,555.9489911999999,None,555.9489911999999,None,557.1365605000001,None,557.1365605000001,557.6362519999998,,,,,,,,,,,,,,,,222,2022-05-23_14h19.58.894,FishGame,2022.1.1,60.040263000226716,
,18,넌 겸손해,2,Orange,B,5.791666666666667,4.766666666666667,ScrollUp,ScrollDown,Orange.png,4,Positive,Incongruent,,,,,0,0,0,0,,,,,,,,,,,,,,,,,,,,,,,,,0,17,17,17,,,,,,,,,,,,,,,,,,,,,,,,,,,,,,,,,,,,,,,,,,,,,,,,,,,,,,,,,,,,,,,,,,,,,1.7345678955316544,1.6940534000000298,558.2898834000002,None,ScrollUp,정답입니다,558.2898834000002,None,558.2898834000002,None,558.2898834000002,None,558.2898834000002,None,559.8525663,None,559.8525663,560.3525899000001,,,,,,,,,,,,,,,,222,2022-05-23_14h19.58.894,FishGame,2022.1.1,60.040263000226716,
,19,나를 보내줘,6,Green,A,0,0,ScrollUp,ScrollDown,Green.png,4,NonTarget,NonTarget,,,,,0,0,0,0,,,,,,,,,,,,,,,,,,,,,,,,,0,18,18,18,,,,,,,,,,,,,,,,,,,,,,,,,,,,,,,,,,,,,,,,,,,,,,,,,,,,,,,,,,,,,,,,,,,,,1.873456800977389,1.231408999999985,560.9882891000002,None,ScrollUp,정답입니다,560.9882891000002,None,560.9882891000002,None,560.9882891000002,None,560.9882891000002,None,562.1047149000001,None,562.1047149000001,562.6190455999999,,,,,,,,,,,,,,,,222,2022-05-23_14h19.58.894,FishGame,2022.1.1,60.040263000226716,
,20,넌 의심없어,3,Green,A,4.166666666666667,4.6,ScrollDown,ScrollUp,Green.png,4,Neutral,Neutral,,,,,0,0,0,0,,,,,,,,,,,,,,,,,,,,,,,,,0,19,19,19,,,,,,,,,,,,,,,,,,,,,,,,,,,,,,,,,,,,,,,,,,,,,,,,,,,,,,,,,,,,,,,,,,,,,1.1975308656692505,1.4854365000001053,563.2560572000002,None,ScrollDown,정답입니다,563.2560572000002,None,563.2560572000002,None,563.2560572000002,None,563.2560572000002,None,564.6240057999998,None,564.6240057999998,565.1353008000001,,,,,,,,,,,,,,,,222,2022-05-23_14h19.58.894,FishGame,2022.1.1,60.040263000226716,
,21,넌 시시해,4,Green,A,2.666666666666667,2.966666666666667,ScrollDown,ScrollUp,Green.png,4,Negative,Incongruent,,,,,0,0,0,0,,,,,,,,,,,,,,,,,,,,,,,,,0,20,20,20,,,,,,,,,,,,,,,,,,,,,,,,,,,,,,,,,,,,,,,,,,,,,,,,,,,,,,,,,,,,,,,,,,,,,1,1.3226537000000462,565.7765260000001,None,ScrollDown,정답입니다,565.7765260000001,None,565.7765260000001,None,565.7765260000001,None,565.7765260000001,None,566.9769667,None,566.9769667,567.4851583999998,,,,,,,,,,,,,,,,222,2022-05-23_14h19.58.894,FishGame,2022.1.1,60.040263000226716,
,22,나를 데려가줘,6,Orange,B,0,0,ScrollDown,ScrollUp,Orange.png,4,NonTarget,NonTarget,,,,,0,0,0,0,,,,,,,,,,,,,,,,,,,,,,,,,0,21,21,21,,,,,,,,,,,,,,,,,,,,,,,,,,,,,,,,,,,,,,,,,,,,,,,,,,,,,,,,,,,,,,,,,,,,,1,1.3332512999995743,568.1271281999998,None,ScrollDown,정답입니다,568.1271281999998,None,568.1271281999998,None,568.1271281999998,None,568.1271281999998,None,569.3393218000001,None,569.3393218000001,569.8513394000001,,,,,,,,,,,,,,,,222,2022-05-23_14h19.58.894,FishGame,2022.1.1,60.040263000226716,
,23,넌 무정해,5,Green,A,2.5,2.2,ScrollDown,ScrollUp,Green.png,4,Negative,Incongruent,,,,,0,0,0,0,,,,,,,,,,,,,,,,,,,,,,,,,0,22,22,22,,,,,,,,,,,,,,,,,,,,,,,,,,,,,,,,,,,,,,,,,,,,,,,,,,,,,,,,,,,,,,,,,,,,,1,1.732300799999848,570.4888145,None,ScrollDown,정답입니다,570.4888145,None,570.4888145,None,570.4888145,None,570.4888145,None,572.1039807000002,None,572.1039807000002,572.6180041000002,,,,,,,,,,,,,,,,222,2022-05-23_14h19.58.894,FishGame,2022.1.1,60.040263000226716,
,24,넌 긍정적이야,1,Orange,B,6.041666666666667,6.066666666666666,ScrollUp,ScrollDown,Orange.png,4,Positive,Incongruent,,,,,0,0,0,0,,,,,,,,,,,,,,,,,,,,,,,,,0,23,23,23,,,,,,,,,,,,,,,,,,,,,,,,,,,,,,,,,,,,,,,,,,,,,,,,,,,,,,,,,,,,,,,,,,,,,2,1.3707260999999562,573.2738026000002,None,ScrollUp,정답입니다,573.2738026000002,None,573.2738026000002,None,573.2738026000002,None,573.2738026000002,None,574.5156127999999,None,574.5156127999999,575.0175227,,,,,,,,,,,,,,,,222,2022-05-23_14h19.58.894,FishGame,2022.1.1,60.040263000226716,
,25,나를 보내줘,6,Green,A,0,0,ScrollUp,ScrollDown,Green.png,4,NonTarget,NonTarget,,,,,0,0,0,0,,,,,,,,,,,,,,,,,,,,,,,,,0,24,24,24,,,,,,,,,,,,,,,,,,,,,,,,,,,,,,,,,,,,,,,,,,,,,,,,,,,,,,,,,,,,,,,,,,,,,1.8101851791143417,1.272795600000336,575.6532665999998,None,ScrollUp,정답입니다,575.6532665999998,None,575.6532665999998,None,575.6532665999998,None,575.6532665999998,None,576.8101838000002,None,576.8101838000002,577.3173849,,,,,,,,,,,,,,,,222,2022-05-23_14h19.58.894,FishGame,2022.1.1,60.040263000226716,
,26,넌 시기심이 많아,5,Orange,B,2.458333333333333,2.233333333333333,ScrollUp,ScrollDown,Orange.png,4,Negative,Congruent,,,,,0,0,0,0,,,,,,,,,,,,,,,,,,,,,,,,,0,25,25,25,,,,,,,,,,,,,,,,,,,,,,,,,,,,,,,,,,,,,,,,,,,,,,,,,,,,,,,,,,,,,,,,,,,,,2,1.3754374000000098,577.9689469999998,None,ScrollUp,정답입니다,577.9689469999998,None,577.9689469999998,None,577.9689469999998,None,577.9689469999998,None,579.2170227000001,None,579.2170227000001,579.7167706999999,,,,,,,,,,,,,,,,222,2022-05-23_14h19.58.894,FishGame,2022.1.1,60.040263000226716,
,27,넌 탁월해,2,Green,A,5.708333333333334,4.5,ScrollDown,ScrollUp,Green.png,4,Positive,Congruent,,,,,0,0,0,0,,,,,,,,,,,,,,,,,,,,,,,,,0,26,26,26,,,,,,,,,,,,,,,,,,,,,,,,,,,,,,,,,,,,,,,,,,,,,,,,,,,,,,,,,,,,,,,,,,,,,1,1.271844300000339,580.3880580999999,None,ScrollDown,정답입니다,580.3880580999999,None,580.3880580999999,None,580.3880580999999,None,580.3880580999999,None,581.5084225999999,None,581.5084225999999,582.0166216000002,,,,,,,,,,,,,,,,222,2022-05-23_14h19.58.894,FishGame,2022.1.1,60.040263000226716,
,28,나를 데려가줘,6,Orange,B,0,0,ScrollDown,ScrollUp,Orange.png,4,NonTarget,NonTarget,,,,,0,0,0,0,,,,,,,,,,,,,,,,,,,,,,,,,0,27,27,27,,,,,,,,,,,,,,,,,,,,,,,,,,,,,,,,,,,,,,,,,,,,,,,,,,,,,,,,,,,,,,,,,,,,,1.1280864129463832,1.2395927000002303,582.6590938999998,None,ScrollDown,정답입니다,582.6590938999998,None,582.6590938999998,None,582.6590938999998,None,582.6590938999998,None,583.7828389000001,None,583.7828389000001,584.2830472,,,,,,,,,,,,,,,,222,2022-05-23_14h19.58.894,FishGame,2022.1.1,60.040263000226716,
,29,넌 조용해,3,Orange,B,4.333333333333333,4.166666666666667,ScrollUp,ScrollDown,Orange.png,4,Neutral,Neutral,,,,,0,0,0,0,,,,,,,,,,,,,,,,,,,,,,,,,0,28,28,28,,,,,,,,,,,,,,,,,,,,,,,,,,,,,,,,,,,,,,,,,,,,,,,,,,,,,,,,,,,,,,,,,,,,,1.8688271592060726,1.3335105000001022,584.9355756,None,ScrollUp,정답입니다,584.9355756,None,584.9355756,None,584.9355756,None,584.9355756,None,586.1374089000001,None,586.1374089000001,586.6493178000001,,,,,,,,,,,,,,,,222,2022-05-23_14h19.58.894,FishGame,2022.1.1,60.040263000226716,
,30,넌 다정해,1,Green,A,5.833333333333334,5.7,ScrollDown,ScrollUp,Green.png,4,Positive,Congruent,,,,,0,0,0,0,,,,,,,,,,,,,,,,,,,,,,,,,0,29,29,29,,,,,,,,,,,,,,,,,,,,,,,,,,,,,,,,,,,,,,,,,,,,,,,,,,,,,,,,,,,,,,,,,,,,,1.1697530895471573,2.0182558999999856,587.2934985000002,None,ScrollDown,정답입니다,587.2934985000002,None,587.2934985000002,None,587.2934985000002,None,587.2934985000002,None,589.1875138,None,589.1875138,589.6989159999998,,,,,,,,,,,,,,,,222,2022-05-23_14h19.58.894,FishGame,2022.1.1,60.040263000226716,
,31,넌 능력있어,2,Orange,B,6.166666666666666,4.6,ScrollUp,ScrollDown,Orange.png,4,Positive,Incongruent,,,,,0,0,0,0,,,,,,,,,,,,,,,,,,,,,,,,,0,30,30,30,,,,,,,,,,,,,,,,,,,,,,,,,,,,,,,,,,,,,,,,,,,,,,,,,,,,,,,,,,,,,,,,,,,,,1.8209876517454784,1.1924411999998483,590.3421056000002,None,ScrollUp,정답입니다,590.3421056000002,None,590.3421056000002,None,590.3421056000002,None,590.3421056000002,None,591.4150890999999,None,591.4150890999999,591.9152782000001,,,,,,,,,,,,,,,,222,2022-05-23_14h19.58.894,FishGame,2022.1.1,60.040263000226716,
,32,넌 불쾌해,5,Green,A,2.125,1.933333333333333,ScrollDown,ScrollUp,Green.png,4,Negative,Incongruent,,,,,0,0,0,0,,,,,,,,,,,,,,,,,,,,,,,,,0,31,31,31,,,,,,,,,,,,,,,,,,,,,,,,,,,,,,,,,,,,,,,,,,,,,,,,,,,,,,,,,,,,,,,,,,,,,1.0308642089366913,1.322431399999914,592.5586981000001,None,ScrollDown,정답입니다,592.5586981000001,None,592.5586981000001,None,592.5586981000001,None,592.5586981000001,None,593.7575022999999,None,593.7575022999999,594.2649528000002,,,,,,,,,,,,,,,,222,2022-05-23_14h19.58.894,FishGame,2022.1.1,60.040263000226716,
,33,나를 데려가줘,6,Orange,B,0,0,ScrollDown,ScrollUp,Orange.png,4,NonTarget,NonTarget,,,,,0,0,0,0,,,,,,,,,,,,,,,,,,,,,,,,,0,32,32,32,,,,,,,,,,,,,,,,,,,,,,,,,,,,,,,,,,,,,,,,,,,,,,,,,,,,,,,,,,,,,,,,,,,,,1,1.5712711000001036,594.9093521,None,ScrollDown,정답입니다,594.9093521,None,594.9093521,None,594.9093521,None,594.9093521,None,596.3560640999999,None,596.3560640999999,596.8647273000001,,,,,,,,,,,,,,,,222,2022-05-23_14h19.58.894,FishGame,2022.1.1,60.040263000226716,
,34,넌 유순해,3,Green,A,4.458333333333333,5,ScrollDown,ScrollUp,Green.png,4,Neutral,Neutral,,,,,0,0,0,0,,,,,,,,,,,,,,,,,,,,,,,,,0,33,33,33,,,,,,,,,,,,,,,,,,,,,,,,,,,,,,,,,,,,,,,,,,,,,,,,,,,,,,,,,,,,,,,,,,,,,1,1.3546416999997746,597.5059577000002,None,ScrollDown,정답입니다,597.5059577000002,None,597.5059577000002,None,597.5059577000002,None,597.5059577000002,None,598.7394598999999,None,598.7394598999999,599.2476922999999,,,,,,,,,,,,,,,,222,2022-05-23_14h19.58.894,FishGame,2022.1.1,60.040263000226716,
,35,넌 근심스러워,4,Orange,B,2.708333333333333,3.133333333333333,ScrollUp,ScrollDown,Orange.png,4,Negative,Congruent,,,,,0,0,0,0,,,,,,,,,,,,,,,,,,,,,,,,,0,34,34,34,,,,,,,,,,,,,,,,,,,,,,,,,,,,,,,,,,,,,,,,,,,,,,,,,,,,,,,,,,,,,,,,,,,,,1.7253086368242898,1.3979147000000012,599.9059394000001,None,ScrollUp,정답입니다,599.9059394000001,None,599.9059394000001,None,599.9059394000001,None,599.9059394000001,None,601.1665102000002,None,601.1665102000002,601.6808630999999,,,,,,,,,,,,,,,,222,2022-05-23_14h19.58.894,FishGame,2022.1.1,60.040263000226716,
,36,넌 세련되었어,2,Green,A,5.5,4.6,ScrollDown,ScrollUp,Green.png,4,Positive,Congruent,,,,,0,0,0,0,,,,,,,,,,,,,,,,,,,,,,,,,0,35,35,35,,,,,,,,,,,,,,,,,,,,,,,,,,,,,,,,,,,,,,,,,,,,,,,,,,,,,,,,,,,,,,,,,,,,,1.0709876716136932,1.5283541000003424,602.3375621,None,ScrollDown,정답입니다,602.3375621,None,602.3375621,None,602.3375621,None,602.3375621,None,603.7302298999998,None,603.7302298999998,604.2302697,,,,,,,,,,,,,,,,222,2022-05-23_14h19.58.894,FishGame,2022.1.1,60.040263000226716,
,37,나를 보내줘,6,Green,A,0,0,ScrollUp,ScrollDown,Green.png,4,NonTarget,NonTarget,,,,,0,0,0,0,,,,,,,,,,,,,,,,,,,,,,,,,0,36,36,36,,,,,,,,,,,,,,,,,,,,,,,,,,,,,,,,,,,,,,,,,,,,,,,,,,,,,,,,,,,,,,,,,,,,,1.9166666666666667,1.114072099999703,604.8689061,None,ScrollUp,정답입니다,604.8689061,None,604.8689061,None,604.8689061,None,604.8689061,None,605.8648933999998,None,605.8648933999998,606.3801497999998,,,,,,,,,,,,,,,,222,2022-05-23_14h19.58.894,FishGame,2022.1.1,60.040263000226716,
,38,넌 확고해,3,Orange,B,4.708333333333334,4.566666666666666,ScrollUp,ScrollDown,Orange.png,4,Neutral,Neutral,,,,,0,0,0,0,,,,,,,,,,,,,,,,,,,,,,,,,0,37,37,37,,,,,,,,,,,,,,,,,,,,,,,,,,,,,,,,,,,,,,,,,,,,,,,,,,,,,,,,,,,,,,,,,,,,,1.9876543084780376,1.264230199999929,607.0347620000002,None,ScrollUp,정답입니다,607.0347620000002,None,607.0347620000002,None,607.0347620000002,None,607.0347620000002,None,608.1643262000002,None,608.1643262000002,608.6798159,,,,,,,,,,,,,,,,222,2022-05-23_14h19.58.894,FishGame,2022.1.1,60.040263000226716,
,39,넌 이해심이 많아,1,Orange,B,6.041666666666668,5.533333333333333,ScrollUp,ScrollDown,Orange.png,4,Positive,Incongruent,,,,,0,0,0,0,,,,,,,,,,,,,,,,,,,,,,,,,0,38,38,38,,,,,,,,,,,,,,,,,,,,,,,,,,,,,,,,,,,,,,,,,,,,,,,,,,,,,,,,,,,,,,,,,,,,,2,1.2622888999999304,609.3233205000001,None,ScrollUp,정답입니다,609.3233205000001,None,609.3233205000001,None,609.3233205000001,None,609.3233205000001,None,610.4598394999998,None,610.4598394999998,610.9627366,,,,,,,,,,,,,,,,222,2022-05-23_14h19.58.894,FishGame,2022.1.1,60.040263000226716,
,40,나를 보내줘,6,Green,A,0,0,ScrollUp,ScrollDown,Green.png,4,NonTarget,NonTarget,,,,,0,0,0,0,,,,,,,,,,,,,,,,,,,,,,,,,0,39,39,39,,,,,,,,,,,,,,,,,,,,,,,,,,,,,,,,,,,,,,,,,,,,,,,,,,,,,,,,,,,,,,,,,,,,,2,1.266084000000319,611.6015607999998,None,ScrollUp,정답입니다,611.6015607999998,None,611.6015607999998,None,611.6015607999998,None,611.6015607999998,None,612.7492931000002,None,612.7492931000002,613.2626270000001,,,,,,,,,,,,,,,,222,2022-05-23_14h19.58.894,FishGame,2022.1.1,60.040263000226716,
,41,넌 거칠어,4,Green,A,2.625,3.033333333333333,ScrollDown,ScrollUp,Green.png,4,Negative,Incongruent,,,,,0,0,0,0,,,,,,,,,,,,,,,,,,,,,,,,,0,40,40,40,,,,,,,,,,,,,,,,,,,,,,,,,,,,,,,,,,,,,,,,,,,,,,,,,,,,,,,,,,,,,,,,,,,,,1,1.4436663999999837,613.9124529999999,None,ScrollDown,정답입니다,613.9124529999999,None,613.9124529999999,None,613.9124529999999,None,613.9124529999999,None,615.2288441999999,None,615.2288441999999,615.7289196000002,,,,,,,,,,,,,,,,222,2022-05-23_14h19.58.894,FishGame,2022.1.1,60.040263000226716,
,42,넌 변덕맞아,5,Orange,B,2.75,2.166666666666667,ScrollUp,ScrollDown,Orange.png,4,Negative,Congruent,,,,,0,0,0,0,,,,,,,,,,,,,,,,,,,,,,,,,0,41,41,41,,,,,,,,,,,,,,,,,,,,,,,,,,,,,,,,,,,,,,,,,,,,,,,,,,,,,,,,,,,,,,,,,,,,,1.8749999900658925,1.1878452000000834,616.3825029,None,ScrollUp,정답입니다,616.3825029,None,616.3825029,None,616.3825029,None,616.3825029,None,617.436886,None,617.436886,617.9453693,,,,,,,,,,,,,,,,222,2022-05-23_14h19.58.894,FishGame,2022.1.1,60.040263000226716,
,43,나를 데려가줘,6,Orange,B,0,0,ScrollDown,ScrollUp,Orange.png,4,NonTarget,NonTarget,,,,,0,0,0,0,,,,,,,,,,,,,,,,,,,,,,,,,0,42,42,42,,,,,,,,,,,,,,,,,,,,,,,,,,,,,,,,,,,,,,,,,,,,,,,,,,,,,,,,,,,,,,,,,,,,,1,1.3495753000001969,618.5931228,None,ScrollDown,정답입니다,618.5931228,None,618.5931228,None,618.5931228,None,618.5931228,None,619.8161614999999,None,619.8161614999999,620.3284253000002,,,,,,,,,,,,,,,,222,2022-05-23_14h19.58.894,FishGame,2022.1.1,60.040263000226716,
,44,넌 외로워,4,Orange,B,2.833333333333333,3.3,ScrollUp,ScrollDown,Orange.png,4,Negative,Congruent,,,,,0,0,0,0,,,,,,,,,,,,,,,,,,,,,,,,,0,43,43,43,,,,,,,,,,,,,,,,,,,,,,,,,,,,,,,,,,,,,,,,,,,,,,,,,,,,,,,,,,,,,,,,,,,,,1.8024691343307495,1.2178275000001122,620.9774308000001,None,ScrollUp,정답입니다,620.9774308000001,None,620.9774308000001,None,620.9774308000001,None,620.9774308000001,None,622.0663607000001,None,622.0663607000001,622.5781133,,,,,,,,,,,,,,,,222,2022-05-23_14h19.58.894,FishGame,2022.1.1,60.040263000226716,
,1,넌 불평스러워,5,Green,A,2.25,2.066666666666667,ScrollDown,ScrollUp,Green.png,5,Negative,Incongruent,,,,,0,0,0,0,,,,,,,,,,,,,,,,,,,,,,,,,,,,,0,0,0,0,,,,,,,,,,,,,,,,,,,,,,,,661.0400048000001,662.5397822999998,662.5729277,663.5228751999998,663.5728898000002,664.5226422999999,664.5226422999999,None,,,,,,,,,,,,,,,,,,,,,,,,,,,,,,,,,,1.0524691541989644,1.3479835000002822,665.6949605,None,ScrollDown,정답입니다,665.6949605,None,665.6949605,None,665.6949605,None,665.6949605,None,666.8778333,None,666.8778333,667.3890239000002,623.0779851000002,None,623.0779851000002,None,0.275,-0.121296294,1,0,0,0.016229530000146042,None,653.0742604000002,None,,,222,2022-05-23_14h19.58.894,FishGame,2022.1.1,60.040263000226716,
,2,나를 보내줘,6,Green,A,0,0,ScrollUp,ScrollDown,Green.png,5,NonTarget,NonTarget,,,,,0,0,0,0,,,,,,,,,,,,,,,,,,,,,,,,,,,,,0,1,1,1,,,,,,,,,,,,,,,,,,,,,,,,,,,,,,,,,,,,,,,,,,,,,,,,,,,,,,,,,,,,,,,,,1.9907407363255818,1.1729826999999204,668.0255803999999,None,ScrollUp,정답입니다,668.0255803999999,None,668.0255803999999,None,668.0255803999999,None,668.0255803999999,None,669.0868043,None,669.0868043,669.5886959,,,,,,,,,,,,,,,,222,2022-05-23_14h19.58.894,FishGame,2022.1.1,60.040263000226716,
,3,넌 다재다능해,2,Orange,B,6.208333333333333,4.5,ScrollUp,ScrollDown,Orange.png,5,Positive,Incongruent,,,,,0,0,0,0,,,,,,,,,,,,,,,,,,,,,,,,,,,,,0,2,2,2,,,,,,,,,,,,,,,,,,,,,,,,,,,,,,,,,,,,,,,,,,,,,,,,,,,,,,,,,,,,,,,,,1.9104938358068466,1.1633550999999898,670.2350142999999,None,ScrollUp,정답입니다,670.2350142999999,None,670.2350142999999,None,670.2350142999999,None,670.2350142999999,None,671.2734959,None,671.2734959,671.7883983000002,,,,,,,,,,,,,,,,222,2022-05-23_14h19.58.894,FishGame,2022.1.1,60.040263000226716,
,4,넌 과감해,3,Green,A,4.833333333333334,4.6,ScrollDown,ScrollUp,Green.png,5,Neutral,Neutral,,,,,0,0,0,0,,,,,,,,,,,,,,,,,,,,,,,,,,,,,0,3,3,3,,,,,,,,,,,,,,,,,,,,,,,,,,,,,,,,,,,,,,,,,,,,,,,,,,,,,,,,,,,,,,,,,1,1.484643799999958,672.4396955000002,None,ScrollDown,정답입니다,672.4396955000002,None,672.4396955000002,None,672.4396955000002,None,672.4396955000002,None,673.7928757,None,673.7928757,674.3048383,,,,,,,,,,,,,,,,222,2022-05-23_14h19.58.894,FishGame,2022.1.1,60.040263000226716,
,5,넌 고분고분해,3,Orange,B,3.75,4.033333333333333,ScrollUp,ScrollDown,Orange.png,5,Neutral,Neutral,,,,,0,0,0,0,,,,,,,,,,,,,,,,,,,,,,,,,,,,,0,4,4,4,,,,,,,,,,,,,,,,,,,,,,,,,,,,,,,,,,,,,,,,,,,,,,,,,,,,,,,,,,,,,,,,,1.8672839452823002,1.248188200000186,674.9573272000002,None,ScrollUp,정답입니다,674.9573272000002,None,674.9573272000002,None,674.9573272000002,None,674.9573272000002,None,676.0737859999999,None,676.0737859999999,676.5878932,,,,,,,,,,,,,,,,222,2022-05-23_14h19.58.894,FishGame,2022.1.1,60.040263000226716,
,6,나를 보내줘,6,Green,A,0,0,ScrollUp,ScrollDown,Green.png,5,NonTarget,NonTarget,,,,,0,0,0,0,,,,,,,,,,,,,,,,,,,,,,,,,,,,,0,5,5,5,,,,,,,,,,,,,,,,,,,,,,,,,,,,,,,,,,,,,,,,,,,,,,,,,,,,,,,,,,,,,,,,,1.8966049353281658,1.1832081999996262,677.2292274000001,None,ScrollUp,정답입니다,677.2292274000001,None,677.2292274000001,None,677.2292274000001,None,677.2292274000001,None,678.2911668000002,None,678.2911668000002,678.8042587999998,,,,,,,,,,,,,,,,222,2022-05-23_14h19.58.894,FishGame,2022.1.1,60.040263000226716,
,7,넌 잘 잊어,4,Green,A,3,3.7,ScrollDown,ScrollUp,Green.png,5,Negative,Incongruent,,,,,0,0,0,0,,,,,,,,,,,,,,,,,,,,,,,,,,,,,0,6,6,6,,,,,,,,,,,,,,,,,,,,,,,,,,,,,,,,,,,,,,,,,,,,,,,,,,,,,,,,,,,,,,,,,1,1.2513380999998844,679.4516051999999,None,ScrollDown,정답입니다,679.4516051999999,None,679.4516051999999,None,679.4516051999999,None,679.4516051999999,None,680.5756443,None,680.5756443,681.0871179999999,,,,,,,,,,,,,,,,222,2022-05-23_14h19.58.894,FishGame,2022.1.1,60.040263000226716,
,8,넌 탐구심이없어,4,Orange,B,2.833333333333333,3.066666666666667,ScrollUp,ScrollDown,Orange.png,5,Negative,Congruent,,,,,0,0,0,0,,,,,,,,,,,,,,,,,,,,,,,,,,,,,0,7,7,7,,,,,,,,,,,,,,,,,,,,,,,,,,,,,,,,,,,,,,,,,,,,,,,,,,,,,,,,,,,,,,,,,2,1.2438869000002342,681.7401408000001,None,ScrollUp,정답입니다,681.7401408000001,None,681.7401408000001,None,681.7401408000001,None,681.7401408000001,None,682.8537243000001,None,682.8537243000001,683.3536807999999,,,,,,,,,,,,,,,,222,2022-05-23_14h19.58.894,FishGame,2022.1.1,60.040263000226716,
,9,나를 데려가줘,6,Orange,B,0,0,ScrollDown,ScrollUp,Orange.png,5,NonTarget,NonTarget,,,,,0,0,0,0,,,,,,,,,,,,,,,,,,,,,,,,,,,,,0,8,8,8,,,,,,,,,,,,,,,,,,,,,,,,,,,,,,,,,,,,,,,,,,,,,,,,,,,,,,,,,,,,,,,,,1,1.3023410000000695,684.0053229,None,ScrollDown,정답입니다,684.0053229,None,684.0053229,None,684.0053229,None,684.0053229,None,685.1754283,None,685.1754283,685.6867192999998,,,,,,,,,,,,,,,,222,2022-05-23_14h19.58.894,FishGame,2022.1.1,60.040263000226716,
,10,넌 참되어,2,Green,A,6.041666666666664,4.733333333333333,ScrollDown,ScrollUp,Green.png,5,Positive,Congruent,,,,,0,0,0,0,,,,,,,,,,,,,,,,,,,,,,,,,,,,,0,9,9,9,,,,,,,,,,,,,,,,,,,,,,,,,,,,,,,,,,,,,,,,,,,,,,,,,,,,,,,,,,,,,,,,,1,1.2791683000000376,686.3302159999998,None,ScrollDown,정답입니다,686.3302159999998,None,686.3302159999998,None,686.3302159999998,None,686.3302159999998,None,687.4861286,None,687.4861286,687.9862913000002,,,,,,,,,,,,,,,,222,2022-05-23_14h19.58.894,FishGame,2022.1.1,60.040263000226716,
,11,넌 생기있어,1,Orange,B,5.875,5.633333333333334,ScrollUp,ScrollDown,Orange.png,5,Positive,Incongruent,,,,,0,0,0,0,,,,,,,,,,,,,,,,,,,,,,,,,,,,,0,10,10,10,,,,,,,,,,,,,,,,,,,,,,,,,,,,,,,,,,,,,,,,,,,,,,,,,,,,,,,,,,,,,,,,,2,1.254146799999944,688.6371261999998,None,ScrollUp,정답입니다,688.6371261999998,None,688.6371261999998,None,688.6371261999998,None,688.6371261999998,None,689.7602532999999,None,689.7602532999999,690.2694179999999,,,,,,,,,,,,,,,,222,2022-05-23_14h19.58.894,FishGame,2022.1.1,60.040263000226716,
,12,넌 비사교적이야,4,Orange,B,2.875,2.9,ScrollUp,ScrollDown,Orange.png,5,Negative,Congruent,,,,,0,0,0,0,,,,,,,,,,,,,,,,,,,,,,,,,,,,,0,11,11,11,,,,,,,,,,,,,,,,,,,,,,,,,,,,,,,,,,,,,,,,,,,,,,,,,,,,,,,,,,,,,,,,,1.89969136317571,1.1998107999997956,690.9180200999999,None,ScrollUp,정답입니다,690.9180200999999,None,690.9180200999999,None,690.9180200999999,None,690.9180200999999,None,691.9897658999998,None,691.9897658999998,692.5024956000002,,,,,,,,,,,,,,,,222,2022-05-23_14h19.58.894,FishGame,2022.1.1,60.040263000226716,
,13,나를 데려가줘,6,Orange,B,0,0,ScrollDown,ScrollUp,Orange.png,5,NonTarget,NonTarget,,,,,0,0,0,0,,,,,,,,,,,,,,,,,,,,,,,,,,,,,0,12,12,12,,,,,,,,,,,,,,,,,,,,,,,,,,,,,,,,,,,,,,,,,,,,,,,,,,,,,,,,,,,,,,,,,1,1.3844043000003694,693.1515058,None,ScrollDown,정답입니다,693.1515058,None,693.1515058,None,693.1515058,None,693.1515058,None,694.4078239999999,None,694.4078239999999,694.9187192999998,,,,,,,,,,,,,,,,222,2022-05-23_14h19.58.894,FishGame,2022.1.1,60.040263000226716,
,14,넌 고독해,4,Green,A,2.916666666666667,3.233333333333333,ScrollDown,ScrollUp,Green.png,5,Negative,Incongruent,,,,,0,0,0,0,,,,,,,,,,,,,,,,,,,,,,,,,,,,,0,13,13,13,,,,,,,,,,,,,,,,,,,,,,,,,,,,,,,,,,,,,,,,,,,,,,,,,,,,,,,,,,,,,,,,,1,1.2791998999996395,695.5629988000001,None,ScrollDown,정답입니다,695.5629988000001,None,695.5629988000001,None,695.5629988000001,None,695.5629988000001,None,696.7185599999998,None,696.7185599999998,697.2184136999999,,,,,,,,,,,,,,,,222,2022-05-23_14h19.58.894,FishGame,2022.1.1,60.040263000226716,
,15,넌 신경질적이야,5,Orange,B,2.375,2.233333333333333,ScrollUp,ScrollDown,Orange.png,5,Negative,Congruent,,,,,0,0,0,0,,,,,,,,,,,,,,,,,,,,,,,,,,,,,0,14,14,14,,,,,,,,,,,,,,,,,,,,,,,,,,,,,,,,,,,,,,,,,,,,,,,,,,,,,,,,,,,,,,,,,2,1.438274900000124,697.8748175999999,None,ScrollUp,정답입니다,697.8748175999999,None,697.8748175999999,None,697.8748175999999,None,697.8748175999999,None,699.1829192999999,None,699.1829192999999,699.6849197000001,,,,,,,,,,,,,,,,222,2022-05-23_14h19.58.894,FishGame,2022.1.1,60.040263000226716,
,16,넌 똑똑해,2,Orange,B,5.666666666666667,3.966666666666667,ScrollUp,ScrollDown,Orange.png,5,Positive,Incongruent,,,,,0,0,0,0,,,,,,,,,,,,,,,,,,,,,,,,,,,,,0,15,15,15,,,,,,,,,,,,,,,,,,,,,,,,,,,,,,,,,,,,,,,,,,,,,,,,,,,,,,,,,,,,,,,,,2,1.1870645000003606,700.3332034999999,None,ScrollUp,정답입니다,700.3332034999999,None,700.3332034999999,None,700.3332034999999,None,700.3332034999999,None,701.3909315000001,None,701.3909315000001,701.9012883,,,,,,,,,,,,,,,,222,2022-05-23_14h19.58.894,FishGame,2022.1.1,60.040263000226716,
,17,나를 보내줘,6,Green,A,0,0,ScrollUp,ScrollDown,Green.png,5,NonTarget,NonTarget,,,,,0,0,0,0,,,,,,,,,,,,,,,,,,,,,,,,,,,,,0,16,16,16,,,,,,,,,,,,,,,,,,,,,,,,,,,,,,,,,,,,,,,,,,,,,,,,,,,,,,,,,,,,,,,,,1.9876543084780376,1.387515699999767,702.5425230000001,None,ScrollUp,정답입니다,702.5425230000001,None,702.5425230000001,None,702.5425230000001,None,702.5425230000001,None,703.8086701000002,None,703.8086701000002,704.3177039000002,,,,,,,,,,,,,,,,222,2022-05-23_14h19.58.894,FishGame,2022.1.1,60.040263000226716,
,18,넌 협조적이야,1,Green,A,5.625,5.666666666666667,ScrollDown,ScrollUp,Green.png,5,Positive,Congruent,,,,,0,0,0,0,,,,,,,,,,,,,,,,,,,,,,,,,,,,,0,17,17,17,,,,,,,,,,,,,,,,,,,,,,,,,,,,,,,,,,,,,,,,,,,,,,,,,,,,,,,,,,,,,,,,,1,1.3957628999996814,704.9587507000001,None,ScrollDown,정답입니다,704.9587507000001,None,704.9587507000001,None,704.9587507000001,None,704.9587507000001,None,706.2341123000001,None,706.2341123000001,706.7340586,,,,,,,,,,,,,,,,222,2022-05-23_14h19.58.894,FishGame,2022.1.1,60.040263000226716,
,19,나를 데려가줘,6,Orange,B,0,0,ScrollDown,ScrollUp,Orange.png,5,NonTarget,NonTarget,,,,,0,0,0,0,,,,,,,,,,,,,,,,,,,,,,,,,,,,,0,18,18,18,,,,,,,,,,,,,,,,,,,,,,,,,,,,,,,,,,,,,,,,,,,,,,,,,,,,,,,,,,,,,,,,,1,1.5265039000000797,707.3799791000001,None,ScrollDown,정답입니다,707.3799791000001,None,707.3799791000001,None,707.3799791000001,None,707.3799791000001,None,708.7837208000001,None,708.7837208000001,709.2835814999999,,,,,,,,,,,,,,,,222,2022-05-23_14h19.58.894,FishGame,2022.1.1,60.040263000226716,
,20,넌 몰인정해,5,Orange,B,2.541666666666667,2.066666666666667,ScrollUp,ScrollDown,Orange.png,5,Negative,Congruent,,,,,0,0,0,0,,,,,,,,,,,,,,,,,,,,,,,,,,,,,0,19,19,19,,,,,,,,,,,,,,,,,,,,,,,,,,,,,,,,,,,,,,,,,,,,,,,,,,,,,,,,,,,,,,,,,2,2.1056014999999206,709.9386751000002,None,ScrollUp,정답입니다,709.9386751000002,None,709.9386751000002,None,709.9386751000002,None,709.9386751000002,None,711.9146405000001,None,711.9146405000001,712.4164541,,,,,,,,,,,,,,,,222,2022-05-23_14h19.58.894,FishGame,2022.1.1,60.040263000226716,
,21,나를 데려가줘,6,Orange,B,0,0,ScrollDown,ScrollUp,Orange.png,5,NonTarget,NonTarget,,,,,0,0,0,0,,,,,,,,,,,,,,,,,,,,,,,,,,,,,0,20,20,20,,,,,,,,,,,,,,,,,,,,,,,,,,,,,,,,,,,,,,,,,,,,,,,,,,,,,,,,,,,,,,,,,2,1.4946462999996584,713.0627362,None,ScrollUp,오답입니다,713.0627362,None,713.0627362,None,713.0627362,None,713.0627362,None,714.4298131,None,714.4298131,714.9329142000001,,,,,,,,,,,,,,,,222,2022-05-23_14h19.58.894,FishGame,2022.1.1,60.040263000226716,
,22,넌 순진해,3,Orange,B,4.125,4.166666666666667,ScrollUp,ScrollDown,Orange.png,5,Neutral,Neutral,,,,,0,0,0,0,,,,,,,,,,,,,,,,,,,,,,,,,,,,,0,21,21,21,,,,,,,,,,,,,,,,,,,,,,,,,,,,,,,,,,,,,,,,,,,,,,,,,,,,,,,,,,,,,,,,,2,1.7226741999998012,715.5792629000002,None,ScrollUp,정답입니다,715.5792629000002,None,715.5792629000002,None,715.5792629000002,None,715.5792629000002,None,717.1768971000001,None,717.1768971000001,717.6824934000001,,,,,,,,,,,,,,,,222,2022-05-23_14h19.58.894,FishGame,2022.1.1,60.040263000226716,
,23,넌 신뢰할만해,1,Green,A,6.625,5.533333333333333,ScrollDown,ScrollUp,Green.png,5,Positive,Congruent,,,,,0,0,0,0,,,,,,,,,,,,,,,,,,,,,,,,,,,,,0,22,22,22,,,,,,,,,,,,,,,,,,,,,,,,,,,,,,,,,,,,,,,,,,,,,,,,,,,,,,,,,,,,,,,,,1,1.3713637999999264,718.3347672,None,ScrollDown,정답입니다,718.3347672,None,718.3347672,None,718.3347672,None,718.3347672,None,719.5744295,None,719.5744295,720.0823372999998,,,,,,,,,,,,,,,,222,2022-05-23_14h19.58.894,FishGame,2022.1.1,60.040263000226716,
,24,나를 보내줘,6,Green,A,0,0,ScrollUp,ScrollDown,Green.png,5,NonTarget,NonTarget,,,,,0,0,0,0,,,,,,,,,,,,,,,,,,,,,,,,,,,,,0,23,23,23,,,,,,,,,,,,,,,,,,,,,,,,,,,,,,,,,,,,,,,,,,,,,,,,,,,,,,,,,,,,,,,,,2,1.6284393000000819,720.7199566999998,None,ScrollUp,정답입니다,720.7199566999998,None,720.7199566999998,None,720.7199566999998,None,720.7199566999998,None,722.2320433999998,None,722.2320433999998,722.7317674000001,,,,,,,,,,,,,,,,222,2022-05-23_14h19.58.894,FishGame,2022.1.1,60.040263000226716,
,25,넌 인색해,5,Green,A,2.625,2.233333333333333,ScrollDown,ScrollUp,Green.png,5,Negative,Incongruent,,,,,0,0,0,0,,,,,,,,,,,,,,,,,,,,,,,,,,,,,0,24,24,24,,,,,,,,,,,,,,,,,,,,,,,,,,,,,,,,,,,,,,,,,,,,,,,,,,,,,,,,,,,,,,,,,1.060185174147288,1.3783101999997598,723.3813841000001,None,ScrollDown,정답입니다,723.3813841000001,None,723.3813841000001,None,723.3813841000001,None,723.3813841000001,None,724.6317081000002,None,724.6317081000002,725.1315249999998,,,,,,,,,,,,,,,,222,2022-05-23_14h19.58.894,FishGame,2022.1.1,60.040263000226716,
,26,넌 유쾌해,1,Orange,B,5.833333333333333,5.766666666666667,ScrollUp,ScrollDown,Orange.png,5,Positive,Incongruent,,,,,0,0,0,0,,,,,,,,,,,,,,,,,,,,,,,,,,,,,0,25,25,25,,,,,,,,,,,,,,,,,,,,,,,,,,,,,,,,,,,,,,,,,,,,,,,,,,,,,,,,,,,,,,,,,2,1.3906158999998297,725.7804901999998,None,ScrollUp,정답입니다,725.7804901999998,None,725.7804901999998,None,725.7804901999998,None,725.7804901999998,None,727.0460997,None,727.0460997,727.5480198999999,,,,,,,,,,,,,,,,222,2022-05-23_14h19.58.894,FishGame,2022.1.1,60.040263000226716,
