name,TrialNum,Word,WordCategory,FishType,WordList,WordValence,WordReputation,CorrectResp,IncorrectResp,FishTypeFile,Round,WordType,Condition,LoopforOrange.thisRepN,LoopforOrange.thisTrialN,LoopforOrange.thisN,LoopforOrange.thisIndex,OrangeInstLoop.thisRepN,OrangeInstLoop.thisTrialN,OrangeInstLoop.thisN,OrangeInstLoop.thisIndex,OrangePrac.thisRepN,OrangePrac.thisTrialN,OrangePrac.thisN,OrangePrac.thisIndex,temp1.thisRepN,temp1.thisTrialN,temp1.thisN,temp1.thisIndex,OrangeRound1.thisRepN,OrangeRound1.thisTrialN,OrangeRound1.thisN,OrangeRound1.thisIndex,OrangeRound2.thisRepN,OrangeRound2.thisTrialN,OrangeRound2.thisN,OrangeRound2.thisIndex,OrangeRound3.thisRepN,OrangeRound3.thisTrialN,OrangeRound3.thisN,OrangeRound3.thisIndex,OrangeRound4.thisRepN,OrangeRound4.thisTrialN,OrangeRound4.thisN,OrangeRound4.thisIndex,OrangeRound5.thisRepN,OrangeRound5.thisTrialN,OrangeRound5.thisN,OrangeRound5.thisIndex,LoopForGreen.thisRepN,LoopForGreen.thisTrialN,LoopForGreen.thisN,LoopForGreen.thisIndex,text_2.started,text_2.stopped,text_3.started,text_3.stopped,key_resp.keys,key_resp.rt,key_resp.started,key_resp.stopped,PassI_2.started,PassI_2.stopped,PassInst_2.keys,PassInst_2.rt,PassInst_2.started,PassInst_2.stopped,mouse_2.x,mouse_2.y,mouse_2.leftButton,mouse_2.midButton,mouse_2.rightButton,mouse_2.started,mouse_2.stopped,image.started,image.stopped,text_5.started,text_5.stopped,text_6.started,text_6.stopped,text_7.started,text_7.stopped,text_8.started,text_8.stopped,slider_2.response,slider_2.rt,slider_2.started,slider_2.stopped,Response_2,Feedback_2,BackGround_2.started,BackGround_2.stopped,Fish_2.started,Fish_2.stopped,WordBox_2.started,WordBox_2.stopped,Words_2.started,Words_2.stopped,BackGround_Feedback_2.started,BackGround_Feedback_2.stopped,Feedbacks_2.started,Feedbacks_2.stopped,Continue_or_not.keys,Continue_or_not.rt,Continue_or_not.started,Continue_or_not.stopped,image_3.started,image_3.stopped,mouse_3.x,mouse_3.y,mouse_3.leftButton,mouse_3.midButton,mouse_3.rightButton,mouse_3.started,mouse_3.stopped,startmain.started,startmain.stopped,slider.response,slider.rt,slider.started,slider.stopped,Response,Feedback,BackGround.started,BackGround.stopped,Fish.started,Fish.stopped,WordBox.started,WordBox.stopped,Words.started,Words.stopped,BackGround_Feedback.started,BackGround_Feedback.stopped,Feedbacks.started,Feedbacks.stopped,text.started,text.stopped,break_interval.started,break_interval.stopped,mouse.x,mouse.y,mouse.leftButton,mouse.midButton,mouse.rightButton,mouse.started,mouse.stopped,stratnextround.started,stratnextround.stopped,endgame.started,endgame.stopped,participant,date,expName,psychopyVersion,frameRate,
,,,,,,,,,,,,,,,,,,,,,,,,,,,,,,,,,,,,,,,,,,,,,,,,,,,,,,19.322239099999933,None,19.322239099999933,None,space,2.1961875000001783,19.817084100000102,None,,,,,,,,,,,,,,,,,,,,,,,,,,,,,,,,,,,,,,,,,,,,,,,,,,,,,,,,,,,,,,,,,,,,,,,,,,,,,,,,,,,,,,,,,,223,2022-05-24_13h53.46.351,FishGame,2022.1.1,59.977136715457235,
물고기과제_instruction(참가자용)OrangeVersion.mp4,,,,,,,,,,,,,,0,0,0,0,0,0,0,0,,,,,,,,,,,,,,,,,,,,,,,,,,,,,,,,,,,,,,,,,89.10622310000008,None,n,3.84341859999995,89.10622310000008,None,,,,,,,,,,,,,,,,,,,,,,,,,,,,,,,,,,,,,,,,,,,,,,,,,,,,,,,,,,,,,,,,,,,,,,,,,,,,,,,,,,,,223,2022-05-24_13h53.46.351,FishGame,2022.1.1,59.977136715457235,
,1,넌 교활해,5,Green,B,2.333333333333333,2.133333333333333,ScrollUp,ScrollDown,Green.png,practice,,,0,0,0,0,,,,,0,0,0,0,0,0,0,0,,,,,,,,,,,,,,,,,,,,,,,,,,,,,,,,,,,,,,,0.041666668,-0.22222222,1,0,0,0.5133864399999766,None,92.97426589999986,None,98.32372040000018,99.82336870000017,99.85662309999998,100.80655590000015,100.85653569999977,101.80639310000015,101.80639310000015,None,1.5524691368142762,1.2340589999998883,103.00393429999986,None,ScrollUp,정답입니다,103.00393429999986,None,103.00393429999986,None,103.00393429999986,None,103.00393429999986,None,104.0580017000002,None,104.0580017000002,104.57273979999991,,,,,,,,,,,,,,,,,,,,,,,,,,,,,,,,,,,,,,,,,,,,,,,,,223,2022-05-24_13h53.46.351,FishGame,2022.1.1,59.977136715457235,
,2,넌 슬기로워,2,Orange,A,6.166666666666667,4.1,ScrollDown,ScrollUp,Orange.png,practice,,,0,0,0,0,,,,,0,0,0,0,0,1,1,1,,,,,,,,,,,,,,,,,,,,,,,,,,,,,,,,,,,,,,,,,,,,,,,,,,,,,,,,1.1296296268701553,1.1109279000002061,105.22470629999998,None,ScrollDown,정답입니다,105.22470629999998,None,105.22470629999998,None,105.22470629999998,None,105.22470629999998,None,106.18928539999979,None,106.18928539999979,106.68905760000007,,,,,,,,,,,,,,,,,,,,,,,,,,,,,,,,,,,,,,,,,,,,,,,,,223,2022-05-24_13h53.46.351,FishGame,2022.1.1,59.977136715457235,
,3,나를 보내줘,6,Orange,A,0,0,ScrollUp,ScrollDown,Orange.png,practice,,,0,0,0,0,,,,,0,0,0,0,0,2,2,2,,,,,,,,,,,,,,,,,,,,,,,,,,,,,,,,,,,,,,,,,,,,,,,,,,,,,,,,1.594135800997416,1.1502643999997417,107.34601229999998,None,ScrollUp,정답입니다,107.34601229999998,None,107.34601229999998,None,107.34601229999998,None,107.34601229999998,None,108.36405490000016,None,108.36405490000016,108.87210670000013,,,,,,,,,,,,,,,,,,,,,,,,,,,,,,,,,,,,,,,,,,,,,,,,,223,2022-05-24_13h53.46.351,FishGame,2022.1.1,59.977136715457235,
,4,나를 데려가줘,6,Green,B,0,0,ScrollDown,ScrollUp,Green.png,practice,,,0,0,0,0,,,,,0,0,0,0,0,3,3,3,,,,,,,,,,,,,,,,,,,,,,,,,,,,,,,,,,,,,,,,,,,,,,,,,,,,,,,,1.2037036965290706,1.060237600000164,109.52405769999996,None,ScrollDown,정답입니다,109.52405769999996,None,109.52405769999996,None,109.52405769999996,None,109.52405769999996,None,110.45853119999992,None,110.45853119999992,110.97188599999981,,,,,,,,,,,,,,,,,,,,,,,,,,,,,,,,,,,,,,,,,,,,,,,,,223,2022-05-24_13h53.46.351,FishGame,2022.1.1,59.977136715457235,
,1,넌 교활해,5,Green,B,2.333333333333333,2.133333333333333,ScrollUp,ScrollDown,Green.png,practice,,,0,0,0,0,,,,,0,0,0,0,,,,,,,,,,,,,,,,,,,,,,,,,,,,,,,,,,,,,,,,,,,,,,,,,,,,,,,,,,,,,,,,,,,,,,,,,,,,,,n,3.3783077000002777,111.47182759999987,None,111.47182759999987,None,,,,,,,,,,,,,,,,,,,,,,,,,,,,,,,,,,,,,,,,,,,223,2022-05-24_13h53.46.351,FishGame,2022.1.1,59.977136715457235,
,1,넌 따뜻해,1,Green,B,6.083333333333333,5.6,ScrollUp,ScrollDown,Green.png,1,Positive,Incongruent,0,0,0,0,,,,,,,,,,,,,0,0,0,0,,,,,,,,,,,,,,,,,,,,,,,,,,,,,,,,,,,,,,,,,,,,116.6712520000001,118.17097280000007,118.20430889999989,119.1541302999999,119.20419970000012,120.15407890000006,120.15407890000006,None,,,,,,,,,,,,,,,,,,,,,,,,,0.016666668,-0.10092592,1,0,0,0.3135414399998808,None,114.87136779999992,None,1.527777779226502,1.3596183999998175,121.35322110000016,None,NoResponse,무응답입니다,121.35322110000016,None,121.35322110000016,None,121.35322110000016,None,121.35322110000016,None,122.5289257999998,None,122.5289257999998,123.03703099999984,,,,,,,,,,,,,,,,223,2022-05-24_13h53.46.351,FishGame,2022.1.1,59.977136715457235,
,2,넌 기품있어,2,Green,B,5.791666666666668,4.5,ScrollUp,ScrollDown,Green.png,1,Positive,Incongruent,0,0,0,0,,,,,,,,,,,,,0,1,1,1,,,,,,,,,,,,,,,,,,,,,,,,,,,,,,,,,,,,,,,,,,,,,,,,,,,,,,,,,,,,,,,,,,,,,,,,,,,,,,,,,,,,,1.6512345671653748,1.015052100000048,123.70404559999997,None,ScrollUp,정답입니다,123.70404559999997,None,123.70404559999997,None,123.70404559999997,None,123.70404559999997,None,124.58027279999988,None,124.58027279999988,125.08673369999997,,,,,,,,,,,,,,,,223,2022-05-24_13h53.46.351,FishGame,2022.1.1,59.977136715457235,
,3,나를 보내줘,6,Orange,A,0,0,ScrollUp,ScrollDown,Orange.png,1,NonTarget,NonTarget,0,0,0,0,,,,,,,,,,,,,0,2,2,2,,,,,,,,,,,,,,,,,,,,,,,,,,,,,,,,,,,,,,,,,,,,,,,,,,,,,,,,,,,,,,,,,,,,,,,,,,,,,,,,,,,,,1.679012343287468,1.189695500000198,125.75428819999979,None,ScrollUp,정답입니다,125.75428819999979,None,125.75428819999979,None,125.75428819999979,None,125.75428819999979,None,126.80302249999977,None,126.80302249999977,127.30310680000002,,,,,,,,,,,,,,,,223,2022-05-24_13h53.46.351,FishGame,2022.1.1,59.977136715457235,
,4,넌 수동적이야,4,Orange,A,2.833333333333333,2.933333333333333,ScrollDown,ScrollUp,Orange.png,1,Negative,Incongruent,0,0,0,0,,,,,,,,,,,,,0,3,3,3,,,,,,,,,,,,,,,,,,,,,,,,,,,,,,,,,,,,,,,,,,,,,,,,,,,,,,,,,,,,,,,,,,,,,,,,,,,,,,,,,,,,,1.182098776102066,1.028169799999887,127.97638850000021,None,ScrollDown,정답입니다,127.97638850000021,None,127.97638850000021,None,127.97638850000021,None,127.97638850000021,None,128.85776810000016,None,128.85776810000016,129.36953200000016,,,,,,,,,,,,,,,,223,2022-05-24_13h53.46.351,FishGame,2022.1.1,59.977136715457235,
,5,넌 사심이 없어,3,Green,B,4.916666666666666,4.333333333333333,ScrollUp,ScrollDown,Green.png,1,Neutral,Neutral,0,0,0,0,,,,,,,,,,,,,0,4,4,4,,,,,,,,,,,,,,,,,,,,,,,,,,,,,,,,,,,,,,,,,,,,,,,,,,,,,,,,,,,,,,,,,,,,,,,,,,,,,,,,,,,,,1.959876557191213,0.995582099999865,130.02828779999982,None,ScrollUp,정답입니다,130.02828779999982,None,130.02828779999982,None,130.02828779999982,None,130.02828779999982,None,130.88634039999988,None,130.88634039999988,131.38580199999979,,,,,,,,,,,,,,,,223,2022-05-24_13h53.46.351,FishGame,2022.1.1,59.977136715457235,
,6,넌 헤퍼,5,Orange,A,2.458333333333334,2.233333333333333,ScrollDown,ScrollUp,Orange.png,1,Negative,Incongruent,0,0,0,0,,,,,,,,,,,,,0,5,5,5,,,,,,,,,,,,,,,,,,,,,,,,,,,,,,,,,,,,,,,,,,,,,,,,,,,,,,,,,,,,,,,,,,,,,,,,,,,,,,,,,,,,,1.0447530845801036,1.5427052999998523,132.05287270000008,None,ScrollDown,정답입니다,132.05287270000008,None,132.05287270000008,None,132.05287270000008,None,132.05287270000008,None,133.45227220000015,None,133.45227220000015,133.9522135000002,,,,,,,,,,,,,,,,223,2022-05-24_13h53.46.351,FishGame,2022.1.1,59.977136715457235,
,7,넌 말쑥해,3,Orange,A,4.833333333333334,4.333333333333333,ScrollDown,ScrollUp,Orange.png,1,Neutral,Neutral,0,0,0,0,,,,,,,,,,,,,0,6,6,6,,,,,,,,,,,,,,,,,,,,,,,,,,,,,,,,,,,,,,,,,,,,,,,,,,,,,,,,,,,,,,,,,,,,,,,,,,,,,,,,,,,,,1.0462962985038757,1.0820476999997481,134.61354459999984,None,ScrollDown,정답입니다,134.61354459999984,None,134.61354459999984,None,134.61354459999984,None,134.61354459999984,None,135.55805959999998,None,135.55805959999998,136.06863939999994,,,,,,,,,,,,,,,,223,2022-05-24_13h53.46.351,FishGame,2022.1.1,59.977136715457235,
,8,넌 투덜거려,5,Green,B,2.541666666666667,2.266666666666667,ScrollUp,ScrollDown,Green.png,1,Negative,Congruent,0,0,0,0,,,,,,,,,,,,,0,7,7,7,,,,,,,,,,,,,,,,,,,,,,,,,,,,,,,,,,,,,,,,,,,,,,,,,,,,,,,,,,,,,,,,,,,,,,,,,,,,,,,,,,,,,1.9104938358068466,0.976498200000151,136.73010470000008,None,ScrollUp,정답입니다,136.73010470000008,None,136.73010470000008,None,136.73010470000008,None,136.73010470000008,None,137.56836509999994,None,137.56836509999994,138.06850320000012,,,,,,,,,,,,,,,,223,2022-05-24_13h53.46.351,FishGame,2022.1.1,59.977136715457235,
,9,넌 적극적이야,1,Orange,A,5.708333333333333,5.533333333333333,ScrollDown,ScrollUp,Orange.png,1,Positive,Congruent,0,0,0,0,,,,,,,,,,,,,0,8,8,8,,,,,,,,,,,,,,,,,,,,,,,,,,,,,,,,,,,,,,,,,,,,,,,,,,,,,,,,,,,,,,,,,,,,,,,,,,,,,,,,,,,,,1.0339506367842357,1.0449180000000524,138.73188900000014,None,ScrollDown,정답입니다,138.73188900000014,None,138.73188900000014,None,138.73188900000014,None,138.73188900000014,None,139.6390790999999,None,139.6390790999999,140.1514219999999,,,,,,,,,,,,,,,,223,2022-05-24_13h53.46.351,FishGame,2022.1.1,59.977136715457235,
,10,넌 재미없어,4,Green,B,2.625,2.966666666666667,ScrollUp,ScrollDown,Green.png,1,Negative,Congruent,0,0,0,0,,,,,,,,,,,,,0,9,9,9,,,,,,,,,,,,,,,,,,,,,,,,,,,,,,,,,,,,,,,,,,,,,,,,,,,,,,,,,,,,,,,,,,,,,,,,,,,,,,,,,,,,,1.9074074079593022,0.9637748000000101,140.80805640000017,None,ScrollUp,정답입니다,140.80805640000017,None,140.80805640000017,None,140.80805640000017,None,140.80805640000017,None,141.64016230000016,None,141.64016230000016,142.15123679999988,,,,,,,,,,,,,,,,223,2022-05-24_13h53.46.351,FishGame,2022.1.1,59.977136715457235,
,11,넌 명석해,2,Orange,A,5.875,4.033333333333333,ScrollDown,ScrollUp,Orange.png,1,Positive,Congruent,0,0,0,0,,,,,,,,,,,,,0,10,10,10,,,,,,,,,,,,,,,,,,,,,,,,,,,,,,,,,,,,,,,,,,,,,,,,,,,,,,,,,,,,,,,,,,,,,,,,,,,,,,,,,,,,,1.0293209950129192,1.0638396999997894,142.81269919999977,None,ScrollDown,정답입니다,142.81269919999977,None,142.81269919999977,None,142.81269919999977,None,142.81269919999977,None,143.73965559999988,None,143.73965559999988,144.2509286999998,,,,,,,,,,,,,,,,223,2022-05-24_13h53.46.351,FishGame,2022.1.1,59.977136715457235,
,12,나를 데려가줘,6,Green,B,0,0,ScrollDown,ScrollUp,Green.png,1,NonTarget,NonTarget,0,0,0,0,,,,,,,,,,,,,0,11,11,11,,,,,,,,,,,,,,,,,,,,,,,,,,,,,,,,,,,,,,,,,,,,,,,,,,,,,,,,,,,,,,,,,,,,,,,,,,,,,,,,,,,,,1.0570987462997437,1.2436514000000898,144.90672029999996,None,ScrollDown,정답입니다,144.90672029999996,None,144.90672029999996,None,144.90672029999996,None,144.90672029999996,None,146.01219420000007,None,146.01219420000007,146.51740900000004,,,,,,,,,,,,,,,,223,2022-05-24_13h53.46.351,FishGame,2022.1.1,59.977136715457235,
,13,넌 소심해,4,Orange,A,3,3.1,ScrollDown,ScrollUp,Orange.png,1,Negative,Incongruent,0,0,0,0,,,,,,,,,,,,,0,12,12,12,,,,,,,,,,,,,,,,,,,,,,,,,,,,,,,,,,,,,,,,,,,,,,,,,,,,,,,,,,,,,,,,,,,,,,,,,,,,,,,,,,,,,1.8719135870536168,0.9547574999996868,147.17655090000017,None,ScrollUp,오답입니다,147.17655090000017,None,147.17655090000017,None,147.17655090000017,None,147.17655090000017,None,148.00018679999994,None,148.00018679999994,148.50042829999984,,,,,,,,,,,,,,,,223,2022-05-24_13h53.46.351,FishGame,2022.1.1,59.977136715457235,
,14,넌 합리적이야,2,Orange,A,5.583333333333333,4.733333333333333,ScrollDown,ScrollUp,Orange.png,1,Positive,Congruent,0,0,0,0,,,,,,,,,,,,,0,13,13,13,,,,,,,,,,,,,,,,,,,,,,,,,,,,,,,,,,,,,,,,,,,,,,,,,,,,,,,,,,,,,,,,,,,,,,,,,,,,,,,,,,,,,1.2283950696388881,1.0018961999999192,149.16863590000003,None,ScrollDown,정답입니다,149.16863590000003,None,149.16863590000003,None,149.16863590000003,None,149.16863590000003,None,150.02810420000014,None,150.02810420000014,150.53343089999998,,,,,,,,,,,,,,,,223,2022-05-24_13h53.46.351,FishGame,2022.1.1,59.977136715457235,
,15,넌 무자비해,5,Green,B,2.333333333333333,2.1,ScrollUp,ScrollDown,Green.png,1,Negative,Congruent,0,0,0,0,,,,,,,,,,,,,0,14,14,14,,,,,,,,,,,,,,,,,,,,,,,,,,,,,,,,,,,,,,,,,,,,,,,,,,,,,,,,,,,,,,,,,,,,,,,,,,,,,,,,,,,,,1.959876557191213,1.08011069999975,151.19127690000005,None,ScrollUp,정답입니다,151.19127690000005,None,151.19127690000005,None,151.19127690000005,None,151.19127690000005,None,152.1385836999998,None,152.1385836999998,152.64991250000003,,,,,,,,,,,,,,,,223,2022-05-24_13h53.46.351,FishGame,2022.1.1,59.977136715457235,
,16,나를 보내줘,6,Orange,A,0,0,ScrollUp,ScrollDown,Orange.png,1,NonTarget,NonTarget,0,0,0,0,,,,,,,,,,,,,0,15,15,15,,,,,,,,,,,,,,,,,,,,,,,,,,,,,,,,,,,,,,,,,,,,,,,,,,,,,,,,,,,,,,,,,,,,,,,,,,,,,,,,,,,,,1.679012343287468,0.8618053000000145,153.30344229999992,None,ScrollUp,정답입니다,153.30344229999992,None,153.30344229999992,None,153.30344229999992,None,153.30344229999992,None,154.0329627000001,None,154.0329627000001,154.53302230000008,,,,,,,,,,,,,,,,223,2022-05-24_13h53.46.351,FishGame,2022.1.1,59.977136715457235,
,17,넌 현실적이야,3,Green,B,4.608695652173913,4.766666666666667,ScrollUp,ScrollDown,Green.png,1,Neutral,Neutral,0,0,0,0,,,,,,,,,,,,,0,16,16,16,,,,,,,,,,,,,,,,,,,,,,,,,,,,,,,,,,,,,,,,,,,,,,,,,,,,,,,,,,,,,,,,,,,,,,,,,,,,,,,,,,,,,2,0.9952920999999151,155.19064209999988,None,ScrollUp,정답입니다,155.19064209999988,None,155.19064209999988,None,155.19064209999988,None,155.19064209999988,None,156.0543974000002,None,156.0543974000002,156.5660686000001,,,,,,,,,,,,,,,,223,2022-05-24_13h53.46.351,FishGame,2022.1.1,59.977136715457235,
,18,넌 의리있어,1,Green,B,5.833333333333334,5.633333333333334,ScrollUp,ScrollDown,Green.png,1,Positive,Incongruent,0,0,0,0,,,,,,,,,,,,,0,17,17,17,,,,,,,,,,,,,,,,,,,,,,,,,,,,,,,,,,,,,,,,,,,,,,,,,,,,,,,,,,,,,,,,,,,,,,,,,,,,,,,,,,,,,2,1.1333278000001883,157.21871819999978,None,ScrollUp,정답입니다,157.21871819999978,None,157.21871819999978,None,157.21871819999978,None,157.21871819999978,None,158.22155029999976,None,158.22155029999976,158.7324880000001,,,,,,,,,,,,,,,,223,2022-05-24_13h53.46.351,FishGame,2022.1.1,59.977136715457235,
,19,넌 신경과민이야,5,Orange,A,2.541666666666667,2.166666666666667,ScrollDown,ScrollUp,Orange.png,1,Negative,Incongruent,0,0,0,0,,,,,,,,,,,,,0,18,18,18,,,,,,,,,,,,,,,,,,,,,,,,,,,,,,,,,,,,,,,,,,,,,,,,,,,,,,,,,,,,,,,,,,,,,,,,,,,,,,,,,,,,,1,1.0429996000002575,159.40098959999978,None,ScrollDown,정답입니다,159.40098959999978,None,159.40098959999978,None,159.40098959999978,None,159.40098959999978,None,160.29912269999977,None,160.29912269999977,160.79879720000008,,,,,,,,,,,,,,,,223,2022-05-24_13h53.46.351,FishGame,2022.1.1,59.977136715457235,
,20,넌 편안해,1,Orange,A,5.916666666666666,5.866666666666666,ScrollDown,ScrollUp,Orange.png,1,Positive,Congruent,0,0,0,0,,,,,,,,,,,,,0,19,19,19,,,,,,,,,,,,,,,,,,,,,,,,,,,,,,,,,,,,,,,,,,,,,,,,,,,,,,,,,,,,,,,,,,,,,,,,,,,,,,,,,,,,,1,0.9447274999997717,161.45971819999977,None,ScrollDown,정답입니다,161.45971819999977,None,161.45971819999977,None,161.45971819999977,None,161.45971819999977,None,162.26567909999994,None,162.26567909999994,162.7651609999998,,,,,,,,,,,,,,,,223,2022-05-24_13h53.46.351,FishGame,2022.1.1,59.977136715457235,
,21,넌 품위있어,2,Green,B,5.291666666666666,4.466666666666667,ScrollUp,ScrollDown,Green.png,1,Positive,Incongruent,0,0,0,0,,,,,,,,,,,,,0,20,20,20,,,,,,,,,,,,,,,,,,,,,,,,,,,,,,,,,,,,,,,,,,,,,,,,,,,,,,,,,,,,,,,,,,,,,,,,,,,,,,,,,,,,,2,0.9712208000000828,163.41807160000008,None,ScrollUp,정답입니다,163.41807160000008,None,163.41807160000008,None,163.41807160000008,None,163.41807160000008,None,164.2653233000001,None,164.2653233000001,164.76496749999978,,,,,,,,,,,,,,,,223,2022-05-24_13h53.46.351,FishGame,2022.1.1,59.977136715457235,
,22,넌 빈틈없어,3,Orange,A,4.833333333333333,3.966666666666667,ScrollDown,ScrollUp,Orange.png,1,Neutral,Neutral,0,0,0,0,,,,,,,,,,,,,0,21,21,21,,,,,,,,,,,,,,,,,,,,,,,,,,,,,,,,,,,,,,,,,,,,,,,,,,,,,,,,,,,,,,,,,,,,,,,,,,,,,,,,,,,,,1,0.9759598000000551,165.42625550000002,None,ScrollDown,정답입니다,165.42625550000002,None,165.42625550000002,None,165.42625550000002,None,165.42625550000002,None,166.26496829999996,None,166.26496829999996,166.7646977999998,,,,,,,,,,,,,,,,223,2022-05-24_13h53.46.351,FishGame,2022.1.1,59.977136715457235,
,23,넌 상상력없어,4,Green,B,2.833333333333333,3.133333333333333,ScrollUp,ScrollDown,Green.png,1,Negative,Congruent,0,0,0,0,,,,,,,,,,,,,0,22,22,22,,,,,,,,,,,,,,,,,,,,,,,,,,,,,,,,,,,,,,,,,,,,,,,,,,,,,,,,,,,,,,,,,,,,,,,,,,,,,,,,,,,,,1.9166666666666667,0.9630587000001469,167.4289017000001,None,ScrollUp,정답입니다,167.4289017000001,None,167.4289017000001,None,167.4289017000001,None,167.4289017000001,None,168.25277619999997,None,168.25277619999997,168.76445430000012,,,,,,,,,,,,,,,,223,2022-05-24_13h53.46.351,FishGame,2022.1.1,59.977136715457235,
,24,넌 지혜로워,2,Green,B,6.333333333333334,4.633333333333334,ScrollUp,ScrollDown,Green.png,1,Positive,Incongruent,0,0,0,0,,,,,,,,,,,,,0,23,23,23,,,,,,,,,,,,,,,,,,,,,,,,,,,,,,,,,,,,,,,,,,,,,,,,,,,,,,,,,,,,,,,,,,,,,,,,,,,,,,,,,,,,,2,1.107634599999983,169.4258393,None,ScrollUp,정답입니다,169.4258393,None,169.4258393,None,169.4258393,None,169.4258393,None,170.397422,None,170.397422,170.89757959999997,,,,,,,,,,,,,,,,223,2022-05-24_13h53.46.351,FishGame,2022.1.1,59.977136715457235,
,25,넌 시끄러워,4,Orange,A,2.833333333333333,3.033333333333333,ScrollDown,ScrollUp,Orange.png,1,Negative,Incongruent,0,0,0,0,,,,,,,,,,,,,0,24,24,24,,,,,,,,,,,,,,,,,,,,,,,,,,,,,,,,,,,,,,,,,,,,,,,,,,,,,,,,,,,,,,,,,,,,,,,,,,,,,,,,,,,,,1,1.0586837999999261,171.5594019,None,ScrollDown,정답입니다,171.5594019,None,171.5594019,None,171.5594019,None,171.5594019,None,172.48090309999998,None,172.48090309999998,172.9806309999999,,,,,,,,,,,,,,,,223,2022-05-24_13h53.46.351,FishGame,2022.1.1,59.977136715457235,
,26,넌 만사태평이야,3,Green,B,4,4.333333333333333,ScrollUp,ScrollDown,Green.png,1,Neutral,Neutral,0,0,0,0,,,,,,,,,,,,,0,25,25,25,,,,,,,,,,,,,,,,,,,,,,,,,,,,,,,,,,,,,,,,,,,,,,,,,,,,,,,,,,,,,,,,,,,,,,,,,,,,,,,,,,,,,1.839506169160207,0.9226653000000624,173.63761169999998,None,ScrollUp,정답입니다,173.63761169999998,None,173.63761169999998,None,173.63761169999998,None,173.63761169999998,None,174.4305929000002,None,174.4305929000002,174.93037109999977,,,,,,,,,,,,,,,,223,2022-05-24_13h53.46.351,FishGame,2022.1.1,59.977136715457235,
,27,넌 붙임성있어,1,Orange,A,5.708333333333333,5.633333333333334,ScrollDown,ScrollUp,Orange.png,1,Positive,Congruent,0,0,0,0,,,,,,,,,,,,,0,26,26,26,,,,,,,,,,,,,,,,,,,,,,,,,,,,,,,,,,,,,,,,,,,,,,,,,,,,,,,,,,,,,,,,,,,,,,,,,,,,,,,,,,,,,1,0.982962999999927,175.5967452,None,ScrollDown,정답입니다,175.5967452,None,175.5967452,None,175.5967452,None,175.5967452,None,176.43678950000003,None,176.43678950000003,176.94668790000014,,,,,,,,,,,,,,,,223,2022-05-24_13h53.46.351,FishGame,2022.1.1,59.977136715457235,
,28,넌 영리해,2,Orange,A,6,4.033333333333333,ScrollDown,ScrollUp,Orange.png,1,Positive,Congruent,0,0,0,0,,,,,,,,,,,,,0,27,27,27,,,,,,,,,,,,,,,,,,,,,,,,,,,,,,,,,,,,,,,,,,,,,,,,,,,,,,,,,,,,,,,,,,,,,,,,,,,,,,,,,,,,,1.1851851791143417,0.9516038000001572,177.60561710000002,None,ScrollDown,정답입니다,177.60561710000002,None,177.60561710000002,None,177.60561710000002,None,177.60561710000002,None,178.42189499999995,None,178.42189499999995,178.92987839999978,,,,,,,,,,,,,,,,223,2022-05-24_13h53.46.351,FishGame,2022.1.1,59.977136715457235,
,29,넌 열심이야,1,Green,B,6.041666666666667,5.833333333333333,ScrollUp,ScrollDown,Green.png,1,Positive,Incongruent,0,0,0,0,,,,,,,,,,,,,0,28,28,28,,,,,,,,,,,,,,,,,,,,,,,,,,,,,,,,,,,,,,,,,,,,,,,,,,,,,,,,,,,,,,,,,,,,,,,,,,,,,,,,,,,,,1.71913580596447,0.8512763999997333,179.58280400000012,None,ScrollUp,정답입니다,179.58280400000012,None,179.58280400000012,None,179.58280400000012,None,179.58280400000012,None,180.3052042999998,None,180.3052042999998,180.81284939999978,,,,,,,,,,,,,,,,223,2022-05-24_13h53.46.351,FishGame,2022.1.1,59.977136715457235,
,30,넌 인기없어,4,Green,B,3,3.3,ScrollUp,ScrollDown,Green.png,1,Negative,Congruent,0,0,0,0,,,,,,,,,,,,,0,29,29,29,,,,,,,,,,,,,,,,,,,,,,,,,,,,,,,,,,,,,,,,,,,,,,,,,,,,,,,,,,,,,,,,,,,,,,,,,,,,,,,,,,,,,1.6697530845801034,0.8438307999999779,181.46533369999997,None,ScrollUp,정답입니다,181.46533369999997,None,181.46533369999997,None,181.46533369999997,None,181.46533369999997,None,182.18321830000014,None,182.18321830000014,182.69606109999995,,,,,,,,,,,,,,,,223,2022-05-24_13h53.46.351,FishGame,2022.1.1,59.977136715457235,
,31,넌 익살스러워,3,Orange,A,4.708333333333334,4.833333333333333,ScrollDown,ScrollUp,Orange.png,1,Neutral,Neutral,0,0,0,0,,,,,,,,,,,,,0,30,30,30,,,,,,,,,,,,,,,,,,,,,,,,,,,,,,,,,,,,,,,,,,,,,,,,,,,,,,,,,,,,,,,,,,,,,,,,,,,,,,,,,,,,,1.3518518482645354,0.8049414000001889,183.36164280000003,None,ScrollDown,정답입니다,183.36164280000003,None,183.36164280000003,None,183.36164280000003,None,183.36164280000003,None,184.02196279999998,None,184.02196279999998,184.52940959999978,,,,,,,,,,,,,,,,223,2022-05-24_13h53.46.351,FishGame,2022.1.1,59.977136715457235,
,32,넌 이기적이야,5,Green,B,2.291666666666667,2.333333333333333,ScrollUp,ScrollDown,Green.png,1,Negative,Congruent,0,0,0,0,,,,,,,,,,,,,0,31,31,31,,,,,,,,,,,,,,,,,,,,,,,,,,,,,,,,,,,,,,,,,,,,,,,,,,,,,,,,,,,,,,,,,,,,,,,,,,,,,,,,,,,,,1.5570987661679587,0.7842565000000832,185.17779560000008,None,ScrollUp,정답입니다,185.17779560000008,None,185.17779560000008,None,185.17779560000008,None,185.17779560000008,None,185.8362259999999,None,185.8362259999999,186.34551180000017,,,,,,,,,,,,,,,,223,2022-05-24_13h53.46.351,FishGame,2022.1.1,59.977136715457235,
,33,나를 데려가줘,6,Green,B,0,0,ScrollDown,ScrollUp,Green.png,1,NonTarget,NonTarget,0,0,0,0,,,,,,,,,,,,,0,32,32,32,,,,,,,,,,,,,,,,,,,,,,,,,,,,,,,,,,,,,,,,,,,,,,,,,,,,,,,,,,,,,,,,,,,,,,,,,,,,,,,,,,,,,1.1574074029922485,1.0498247000000447,186.9925462000001,None,ScrollDown,정답입니다,186.9925462000001,None,186.9925462000001,None,186.9925462000001,None,186.9925462000001,None,187.9192122999998,None,187.9192122999998,188.42856789999996,,,,,,,,,,,,,,,,223,2022-05-24_13h53.46.351,FishGame,2022.1.1,59.977136715457235,
,34,넌 기회주의자야,5,Orange,A,2.875,2.133333333333333,ScrollDown,ScrollUp,Orange.png,1,Negative,Incongruent,0,0,0,0,,,,,,,,,,,,,0,33,33,33,,,,,,,,,,,,,,,,,,,,,,,,,,,,,,,,,,,,,,,,,,,,,,,,,,,,,,,,,,,,,,,,,,,,,,,,,,,,,,,,,,,,,1.3950617263714473,1.3640778999997565,189.0864206000001,None,ScrollDown,정답입니다,189.0864206000001,None,189.0864206000001,None,189.0864206000001,None,189.0864206000001,None,190.31745619999992,None,190.31745619999992,190.8282349000001,,,,,,,,,,,,,,,,223,2022-05-24_13h53.46.351,FishGame,2022.1.1,59.977136715457235,
,1,넌 미성숙해,4,Orange,A,3,3.2,ScrollDown,ScrollUp,Orange.png,2,Negative,Incongruent,0,0,0,0,,,,,,,,,,,,,,,,,0,0,0,0,,,,,,,,,,,,,,,,,,,,,,,,,,,,,,,,,,,,,,,,224.30767779999996,225.80709650000017,225.8404276000001,226.79031769999983,226.84037929999977,227.79014860000007,227.79014860000007,None,,,,,,,,,,,,,,,,,,,,,,,,,,,,,,,,,,1.1018518507480621,1.1212984999997389,228.97564729999976,None,ScrollDown,정답입니다,228.97564729999976,None,228.97564729999976,None,228.97564729999976,None,228.97564729999976,None,229.9174155999999,None,229.9174155999999,230.4231436,191.3281909000002,None,191.3281909000002,None,0.12314815,-0.094444446,1,0,0,0.01607644000023356,None,221.32431450000013,None,,,223,2022-05-24_13h53.46.351,FishGame,2022.1.1,59.977136715457235,
,2,넌 반사회적이야,5,Green,B,2.416666666666667,2.033333333333333,ScrollUp,ScrollDown,Green.png,2,Negative,Congruent,0,0,0,0,,,,,,,,,,,,,,,,,0,1,1,1,,,,,,,,,,,,,,,,,,,,,,,,,,,,,,,,,,,,,,,,,,,,,,,,,,,,,,,,,,,,,,,,,,,,,,,,,,,,,,,,,1.9212963084379833,1.0393103999999767,231.07417609999993,None,ScrollUp,정답입니다,231.07417609999993,None,231.07417609999993,None,231.07417609999993,None,231.07417609999993,None,231.9895363999999,None,231.9895363999999,232.48964810000007,,,,,,,,,,,,,,,,223,2022-05-24_13h53.46.351,FishGame,2022.1.1,59.977136715457235,
,3,넌 유능해,2,Orange,A,6.208333333333333,4.433333333333334,ScrollDown,ScrollUp,Orange.png,2,Positive,Congruent,0,0,0,0,,,,,,,,,,,,,,,,,0,2,2,2,,,,,,,,,,,,,,,,,,,,,,,,,,,,,,,,,,,,,,,,,,,,,,,,,,,,,,,,,,,,,,,,,,,,,,,,,,,,,,,,,1,0.9472184000001107,233.15070419999984,None,ScrollDown,정답입니다,233.15070419999984,None,233.15070419999984,None,233.15070419999984,None,233.15070419999984,None,233.96127819999992,None,233.96127819999992,234.47263209999983,,,,,,,,,,,,,,,,223,2022-05-24_13h53.46.351,FishGame,2022.1.1,59.977136715457235,
,4,넌 능숙해,2,Green,B,5.666666666666667,4.733333333333333,ScrollUp,ScrollDown,Green.png,2,Positive,Incongruent,0,0,0,0,,,,,,,,,,,,,,,,,0,3,3,3,,,,,,,,,,,,,,,,,,,,,,,,,,,,,,,,,,,,,,,,,,,,,,,,,,,,,,,,,,,,,,,,,,,,,,,,,,,,,,,,,1.7932098756233852,0.8107241000002432,235.11721099999977,None,ScrollUp,정답입니다,235.11721099999977,None,235.11721099999977,None,235.11721099999977,None,235.11721099999977,None,235.80636730000015,None,235.80636730000015,236.30579420000004,,,,,,,,,,,,,,,,223,2022-05-24_13h53.46.351,FishGame,2022.1.1,59.977136715457235,
,5,넌 진부해,4,Green,B,2.458333333333333,3.166666666666667,ScrollUp,ScrollDown,Green.png,2,Negative,Congruent,0,0,0,0,,,,,,,,,,,,,,,,,0,4,4,4,,,,,,,,,,,,,,,,,,,,,,,,,,,,,,,,,,,,,,,,,,,,,,,,,,,,,,,,,,,,,,,,,,,,,,,,,,,,,,,,,2,1.115758999999798,236.96000890000005,None,ScrollUp,정답입니다,236.96000890000005,None,236.96000890000005,None,236.96000890000005,None,236.96000890000005,None,237.94520770000008,None,237.94520770000008,238.45553269999982,,,,,,,,,,,,,,,,223,2022-05-24_13h53.46.351,FishGame,2022.1.1,59.977136715457235,
,6,나를 보내줘,6,Orange,A,0,0,ScrollUp,ScrollDown,Orange.png,2,NonTarget,NonTarget,0,0,0,0,,,,,,,,,,,,,,,,,0,5,5,5,,,,,,,,,,,,,,,,,,,,,,,,,,,,,,,,,,,,,,,,,,,,,,,,,,,,,,,,,,,,,,,,,,,,,,,,,,,,,,,,,1.9367283980051677,1.1906223999999384,239.10368800000015,None,ScrollUp,정답입니다,239.10368800000015,None,239.10368800000015,None,239.10368800000015,None,239.10368800000015,None,240.1717652000002,None,240.1717652000002,240.67188529999976,,,,,,,,,,,,,,,,223,2022-05-24_13h53.46.351,FishGame,2022.1.1,59.977136715457235,
,7,넌 엄격해,3,Orange,A,4.166666666666666,4.1,ScrollDown,ScrollUp,Orange.png,2,Neutral,Neutral,0,0,0,0,,,,,,,,,,,,,,,,,0,6,6,6,,,,,,,,,,,,,,,,,,,,,,,,,,,,,,,,,,,,,,,,,,,,,,,,,,,,,,,,,,,,,,,,,,,,,,,,,,,,,,,,,1.0030864079793294,0.9301955000000817,241.33010439999998,None,ScrollDown,정답입니다,241.33010439999998,None,241.33010439999998,None,241.33010439999998,None,241.33010439999998,None,242.1271566999999,None,242.1271566999999,242.63824329999989,,,,,,,,,,,,,,,,223,2022-05-24_13h53.46.351,FishGame,2022.1.1,59.977136715457235,
,8,나를 보내줘,6,Orange,A,0,0,ScrollUp,ScrollDown,Orange.png,2,NonTarget,NonTarget,0,0,0,0,,,,,,,,,,,,,,,,,0,7,7,7,,,,,,,,,,,,,,,,,,,,,,,,,,,,,,,,,,,,,,,,,,,,,,,,,,,,,,,,,,,,,,,,,,,,,,,,,,,,,,,,,1.632716049750646,1.083244200000081,243.29274110000006,None,ScrollUp,정답입니다,243.29274110000006,None,243.29274110000006,None,243.29274110000006,None,243.29274110000006,None,244.24572230000012,None,244.24572230000012,244.75494639999988,,,,,,,,,,,,,,,,223,2022-05-24_13h53.46.351,FishGame,2022.1.1,59.977136715457235,
,9,넌 대담해,3,Green,B,4.875,4.866666666666666,ScrollUp,ScrollDown,Green.png,2,Neutral,Neutral,0,0,0,0,,,,,,,,,,,,,,,,,0,8,8,8,,,,,,,,,,,,,,,,,,,,,,,,,,,,,,,,,,,,,,,,,,,,,,,,,,,,,,,,,,,,,,,,,,,,,,,,,,,,,,,,,1.7114197611808777,0.9769311000000016,245.4044954000001,None,ScrollUp,정답입니다,245.4044954000001,None,245.4044954000001,None,245.4044954000001,None,245.4044954000001,None,246.24967229999993,None,246.24967229999993,246.7544837999999,,,,,,,,,,,,,,,,223,2022-05-24_13h53.46.351,FishGame,2022.1.1,59.977136715457235,
,10,넌 꾸준해,1,Orange,A,5.916666666666668,5.8,ScrollDown,ScrollUp,Orange.png,2,Positive,Congruent,0,0,0,0,,,,,,,,,,,,,,,,,0,9,9,9,,,,,,,,,,,,,,,,,,,,,,,,,,,,,,,,,,,,,,,,,,,,,,,,,,,,,,,,,,,,,,,,,,,,,,,,,,,,,,,,,1.0509259402751923,1.0272018000000571,247.41295159999981,None,ScrollDown,정답입니다,247.41295159999981,None,247.41295159999981,None,247.41295159999981,None,247.41295159999981,None,248.3044372999998,None,248.3044372999998,248.80413970000018,,,,,,,,,,,,,,,,223,2022-05-24_13h53.46.351,FishGame,2022.1.1,59.977136715457235,
,11,나를 데려가줘,6,Green,B,0,0,ScrollDown,ScrollUp,Green.png,2,NonTarget,NonTarget,0,0,0,0,,,,,,,,,,,,,,,,,0,10,10,10,,,,,,,,,,,,,,,,,,,,,,,,,,,,,,,,,,,,,,,,,,,,,,,,,,,,,,,,,,,,,,,,,,,,,,,,,,,,,,,,,1.2700617214043937,1.2468258999997488,249.4510236000001,None,ScrollDown,정답입니다,249.4510236000001,None,249.4510236000001,None,249.4510236000001,None,249.4510236000001,None,250.57536140000002,None,250.57536140000002,251.08719239999982,,,,,,,,,,,,,,,,223,2022-05-24_13h53.46.351,FishGame,2022.1.1,59.977136715457235,
,12,넌 독선적이야,5,Orange,A,2.458333333333333,1.933333333333333,ScrollDown,ScrollUp,Orange.png,2,Negative,Incongruent,0,0,0,0,,,,,,,,,,,,,,,,,0,11,11,11,,,,,,,,,,,,,,,,,,,,,,,,,,,,,,,,,,,,,,,,,,,,,,,,,,,,,,,,,,,,,,,,,,,,,,,,,,,,,,,,,1.3117283980051675,0.9610647999998037,251.7430172999998,None,ScrollDown,정답입니다,251.7430172999998,None,251.7430172999998,None,251.7430172999998,None,251.7430172999998,None,252.5739481999999,None,252.5739481999999,253.08695380000017,,,,,,,,,,,,,,,,223,2022-05-24_13h53.46.351,FishGame,2022.1.1,59.977136715457235,
,13,나를 보내줘,6,Orange,A,0,0,ScrollUp,ScrollDown,Orange.png,2,NonTarget,NonTarget,0,0,0,0,,,,,,,,,,,,,,,,,0,12,12,12,,,,,,,,,,,,,,,,,,,,,,,,,,,,,,,,,,,,,,,,,,,,,,,,,,,,,,,,,,,,,,,,,,,,,,,,,,,,,,,,,1.5123456787938871,0.9949555000002874,253.7353653,None,NoResponse,무응답입니다,253.7353653,None,253.7353653,None,253.7353653,None,253.7353653,None,254.6086362000001,None,254.6086362000001,255.12006010000005,,,,,,,,,,,,,,,,223,2022-05-24_13h53.46.351,FishGame,2022.1.1,59.977136715457235,
,14,넌 책임감있어,1,Green,B,6.347826086956522,6,ScrollUp,ScrollDown,Green.png,2,Positive,Incongruent,0,0,0,0,,,,,,,,,,,,,,,,,0,13,13,13,,,,,,,,,,,,,,,,,,,,,,,,,,,,,,,,,,,,,,,,,,,,,,,,,,,,,,,,,,,,,,,,,,,,,,,,,,,,,,,,,1.743827154239019,1.610954899999797,255.775122,None,ScrollUp,정답입니다,255.775122,None,255.775122,None,255.775122,None,255.775122,None,257.2546704000001,None,257.2546704000001,257.76965599999994,,,,,,,,,,,,,,,,223,2022-05-24_13h53.46.351,FishGame,2022.1.1,59.977136715457235,
,15,넌 문학적이야,3,Orange,A,4.708333333333334,4.333333333333333,ScrollDown,ScrollUp,Orange.png,2,Neutral,Neutral,0,0,0,0,,,,,,,,,,,,,,,,,0,14,14,14,,,,,,,,,,,,,,,,,,,,,,,,,,,,,,,,,,,,,,,,,,,,,,,,,,,,,,,,,,,,,,,,,,,,,,,,,,,,,,,,,1.0231481393178303,1.1604812999999012,258.4277059000001,None,ScrollDown,정답입니다,258.4277059000001,None,258.4277059000001,None,258.4277059000001,None,258.4277059000001,None,259.4558348999999,None,259.4558348999999,259.9693446000001,,,,,,,,,,,,,,,,223,2022-05-24_13h53.46.351,FishGame,2022.1.1,59.977136715457235,
,16,넌 재미있어,1,Green,B,5.875,5.7,ScrollUp,ScrollDown,Green.png,2,Positive,Incongruent,0,0,0,0,,,,,,,,,,,,,,,,,0,15,15,15,,,,,,,,,,,,,,,,,,,,,,,,,,,,,,,,,,,,,,,,,,,,,,,,,,,,,,,,,,,,,,,,,,,,,,,,,,,,,,,,,1.9320987562338512,1.2141615999998976,260.6163720999998,None,ScrollUp,정답입니다,260.6163720999998,None,260.6163720999998,None,260.6163720999998,None,260.6163720999998,None,261.70725589999984,None,261.70725589999984,262.2191068000002,,,,,,,,,,,,,,,,223,2022-05-24_13h53.46.351,FishGame,2022.1.1,59.977136715457235,
,17,나를 데려가줘,6,Green,B,0,0,ScrollDown,ScrollUp,Green.png,2,NonTarget,NonTarget,0,0,0,0,,,,,,,,,,,,,,,,,0,16,16,16,,,,,,,,,,,,,,,,,,,,,,,,,,,,,,,,,,,,,,,,,,,,,,,,,,,,,,,,,,,,,,,,,,,,,,,,,,,,,,,,,1.1898148208856583,1.1502700999999433,262.86205259999997,None,ScrollDown,정답입니다,262.86205259999997,None,262.86205259999997,None,262.86205259999997,None,262.86205259999997,None,263.89416519999986,None,263.89416519999986,264.40220640000007,,,,,,,,,,,,,,,,223,2022-05-24_13h53.46.351,FishGame,2022.1.1,59.977136715457235,
,18,넌 협력적이야,1,Orange,A,5.625,5.633333333333334,ScrollDown,ScrollUp,Orange.png,2,Positive,Congruent,0,0,0,0,,,,,,,,,,,,,,,,,0,17,17,17,,,,,,,,,,,,,,,,,,,,,,,,,,,,,,,,,,,,,,,,,,,,,,,,,,,,,,,,,,,,,,,,,,,,,,,,,,,,,,,,,1.160493830839793,1.0348471999996036,265.05690300000015,None,ScrollDown,정답입니다,265.05690300000015,None,265.05690300000015,None,265.05690300000015,None,265.05690300000015,None,265.96077849999983,None,265.96077849999983,266.4685026000002,,,,,,,,,,,,,,,,223,2022-05-24_13h53.46.351,FishGame,2022.1.1,59.977136715457235,
,19,넌 평범해,3,Green,B,4.333333333333332,4.233333333333333,ScrollUp,ScrollDown,Green.png,2,Neutral,Neutral,0,0,0,0,,,,,,,,,,,,,,,,,0,18,18,18,,,,,,,,,,,,,,,,,,,,,,,,,,,,,,,,,,,,,,,,,,,,,,,,,,,,,,,,,,,,,,,,,,,,,,,,,,,,,,,,,1.9675925771395366,1.3439759999996568,267.1203037,None,ScrollUp,정답입니다,267.1203037,None,267.1203037,None,267.1203037,None,267.1203037,None,268.3374742000001,None,268.3374742000001,268.85153949999994,,,,,,,,,,,,,,,,223,2022-05-24_13h53.46.351,FishGame,2022.1.1,59.977136715457235,
,20,넌 오만해,5,Orange,A,2.333333333333333,2,ScrollDown,ScrollUp,Orange.png,2,Negative,Incongruent,0,0,0,0,,,,,,,,,,,,,,,,,0,19,19,19,,,,,,,,,,,,,,,,,,,,,,,,,,,,,,,,,,,,,,,,,,,,,,,,,,,,,,,,,,,,,,,,,,,,,,,,,,,,,,,,,1.2160493830839794,0.9901660999998967,269.50341549999985,None,ScrollDown,정답입니다,269.50341549999985,None,269.50341549999985,None,269.50341549999985,None,269.50341549999985,None,270.36813219999976,None,270.36813219999976,270.8679704000001,,,,,,,,,,,,,,,,223,2022-05-24_13h53.46.351,FishGame,2022.1.1,59.977136715457235,
,21,넌 운이없어,4,Green,B,3,3.466666666666667,ScrollUp,ScrollDown,Green.png,2,Negative,Congruent,0,0,0,0,,,,,,,,,,,,,,,,,0,20,20,20,,,,,,,,,,,,,,,,,,,,,,,,,,,,,,,,,,,,,,,,,,,,,,,,,,,,,,,,,,,,,,,,,,,,,,,,,,,,,,,,,1.9876543084780376,1.0557254999998804,271.5176198999998,None,ScrollUp,정답입니다,271.5176198999998,None,271.5176198999998,None,271.5176198999998,None,271.5176198999998,None,272.4513817000002,None,272.4513817000002,272.95099279999977,,,,,,,,,,,,,,,,223,2022-05-24_13h53.46.351,FishGame,2022.1.1,59.977136715457235,
,22,넌 창조적이야,2,Green,B,6.125,4.633333333333334,ScrollUp,ScrollDown,Green.png,2,Positive,Incongruent,0,0,0,0,,,,,,,,,,,,,,,,,0,21,21,21,,,,,,,,,,,,,,,,,,,,,,,,,,,,,,,,,,,,,,,,,,,,,,,,,,,,,,,,,,,,,,,,,,,,,,,,,,,,,,,,,1.652777781089147,0.7977046999999402,273.6060272999998,None,ScrollUp,정답입니다,273.6060272999998,None,273.6060272999998,None,273.6060272999998,None,273.6060272999998,None,274.2729958,None,274.2729958,274.7841180999999,,,,,,,,,,,,,,,,223,2022-05-24_13h53.46.351,FishGame,2022.1.1,59.977136715457235,
,23,나를 보내줘,6,Orange,A,0,0,ScrollUp,ScrollDown,Orange.png,2,NonTarget,NonTarget,0,0,0,0,,,,,,,,,,,,,,,,,0,22,22,22,,,,,,,,,,,,,,,,,,,,,,,,,,,,,,,,,,,,,,,,,,,,,,,,,,,,,,,,,,,,,,,,,,,,,,,,,,,,,,,,,1.4845679011195898,1.1140674000002946,275.4341734999998,None,NoResponse,무응답입니다,275.4341734999998,None,275.4341734999998,None,275.4341734999998,None,275.4341734999998,None,276.42432599999984,None,276.42432599999984,276.9341287000002,,,,,,,,,,,,,,,,223,2022-05-24_13h53.46.351,FishGame,2022.1.1,59.977136715457235,
,24,넌 통찰력있어,2,Orange,A,6.5,4.8,ScrollDown,ScrollUp,Orange.png,2,Positive,Congruent,0,0,0,0,,,,,,,,,,,,,,,,,0,23,23,23,,,,,,,,,,,,,,,,,,,,,,,,,,,,,,,,,,,,,,,,,,,,,,,,,,,,,,,,,,,,,,,,,,,,,,,,,,,,,,,,,1,1.3804393000000346,277.5873310000002,None,ScrollDown,정답입니다,277.5873310000002,None,277.5873310000002,None,277.5873310000002,None,277.5873310000002,None,278.8395040999999,None,278.8395040999999,279.35019379999994,,,,,,,,,,,,,,,,223,2022-05-24_13h53.46.351,FishGame,2022.1.1,59.977136715457235,
,25,넌 경솔해,5,Green,B,2.458333333333333,2.266666666666667,ScrollUp,ScrollDown,Green.png,2,Negative,Congruent,0,0,0,0,,,,,,,,,,,,,,,,,0,24,24,24,,,,,,,,,,,,,,,,,,,,,,,,,,,,,,,,,,,,,,,,,,,,,,,,,,,,,,,,,,,,,,,,,,,,,,,,,,,,,,,,,2,0.9737203999998201,279.9962645999999,None,ScrollUp,정답입니다,279.9962645999999,None,279.9962645999999,None,279.9962645999999,None,279.9962645999999,None,280.8502936,None,280.8502936,281.34995660000004,,,,,,,,,,,,,,,,223,2022-05-24_13h53.46.351,FishGame,2022.1.1,59.977136715457235,
,26,넌 초조해,4,Orange,A,2.916666666666667,3.133333333333333,ScrollDown,ScrollUp,Orange.png,2,Negative,Incongruent,0,0,0,0,,,,,,,,,,,,,,,,,0,25,25,25,,,,,,,,,,,,,,,,,,,,,,,,,,,,,,,,,,,,,,,,,,,,,,,,,,,,,,,,,,,,,,,,,,,,,,,,,,,,,,,,,1,1.1795400000000882,282.0039476000002,None,ScrollDown,정답입니다,282.0039476000002,None,282.0039476000002,None,282.0039476000002,None,282.0039476000002,None,283.0545919000001,None,283.0545919000001,283.5664121,,,,,,,,,,,,,,,,223,2022-05-24_13h53.46.351,FishGame,2022.1.1,59.977136715457235,
,27,넌 무관심해,4,Green,B,2.833333333333333,2.9,ScrollUp,ScrollDown,Green.png,2,Negative,Congruent,0,0,0,0,,,,,,,,,,,,,,,,,0,26,26,26,,,,,,,,,,,,,,,,,,,,,,,,,,,,,,,,,,,,,,,,,,,,,,,,,,,,,,,,,,,,,,,,,,,,,,,,,,,,,,,,,2,1.09776839999995,284.21809900000017,None,ScrollUp,정답입니다,284.21809900000017,None,284.21809900000017,None,284.21809900000017,None,284.21809900000017,None,285.1875621999998,None,285.1875621999998,285.69946470000014,,,,,,,,,,,,,,,,223,2022-05-24_13h53.46.351,FishGame,2022.1.1,59.977136715457235,
,28,넌 감성적이야,3,Green,B,4.125,4.166666666666667,ScrollUp,ScrollDown,Green.png,2,Neutral,Neutral,0,0,0,0,,,,,,,,,,,,,,,,,0,27,27,27,,,,,,,,,,,,,,,,,,,,,,,,,,,,,,,,,,,,,,,,,,,,,,,,,,,,,,,,,,,,,,,,,,,,,,,,,,,,,,,,,2,0.8810522000003402,286.3427799000001,None,ScrollUp,정답입니다,286.3427799000001,None,286.3427799000001,None,286.3427799000001,None,286.3427799000001,None,287.1044734000002,None,287.1044734000002,287.61630860000014,,,,,,,,,,,,,,,,223,2022-05-24_13h53.46.351,FishGame,2022.1.1,59.977136715457235,
,29,넌 배려심있어,1,Orange,A,6.083333333333333,5.5,ScrollDown,ScrollUp,Orange.png,2,Positive,Congruent,0,0,0,0,,,,,,,,,,,,,,,,,0,28,28,28,,,,,,,,,,,,,,,,,,,,,,,,,,,,,,,,,,,,,,,,,,,,,,,,,,,,,,,,,,,,,,,,,,,,,,,,,,,,,,,,,1,0.9980124999997315,288.27125369999976,None,ScrollDown,정답입니다,288.27125369999976,None,288.27125369999976,None,288.27125369999976,None,288.27125369999976,None,289.1373303999999,None,289.1373303999999,289.6491584999999,,,,,,,,,,,,,,,,223,2022-05-24_13h53.46.351,FishGame,2022.1.1,59.977136715457235,
,30,넌 숨김없어,3,Orange,A,4.5,4.933333333333334,ScrollDown,ScrollUp,Orange.png,2,Neutral,Neutral,0,0,0,0,,,,,,,,,,,,,,,,,0,29,29,29,,,,,,,,,,,,,,,,,,,,,,,,,,,,,,,,,,,,,,,,,,,,,,,,,,,,,,,,,,,,,,,,,,,,,,,,,,,,,,,,,1,0.906504600000062,290.3050161000001,None,ScrollDown,정답입니다,290.3050161000001,None,290.3050161000001,None,290.3050161000001,None,290.3050161000001,None,291.0824625999999,None,291.0824625999999,291.58192469999995,,,,,,,,,,,,,,,,223,2022-05-24_13h53.46.351,FishGame,2022.1.1,59.977136715457235,
,31,넌 훌륭해,2,Green,B,5.916666666666667,4.033333333333333,ScrollUp,ScrollDown,Green.png,2,Positive,Incongruent,0,0,0,0,,,,,,,,,,,,,,,,,0,30,30,30,,,,,,,,,,,,,,,,,,,,,,,,,,,,,,,,,,,,,,,,,,,,,,,,,,,,,,,,,,,,,,,,,,,,,,,,,,,,,,,,,2,0.8875302999999803,292.2404811000001,None,ScrollUp,정답입니다,292.2404811000001,None,292.2404811000001,None,292.2404811000001,None,292.2404811000001,None,292.99175079999986,None,292.99175079999986,293.4983828999998,,,,,,,,,,,,,,,,223,2022-05-24_13h53.46.351,FishGame,2022.1.1,59.977136715457235,
,32,넌 슬기로워,2,Orange,A,6.166666666666667,4.1,ScrollDown,ScrollUp,Orange.png,2,Positive,Congruent,0,0,0,0,,,,,,,,,,,,,,,,,0,31,31,31,,,,,,,,,,,,,,,,,,,,,,,,,,,,,,,,,,,,,,,,,,,,,,,,,,,,,,,,,,,,,,,,,,,,,,,,,,,,,,,,,1,0.9600278000002618,294.1569026000002,None,ScrollDown,정답입니다,294.1569026000002,None,294.1569026000002,None,294.1569026000002,None,294.1569026000002,None,294.9842881999998,None,294.9842881999998,295.4980734999999,,,,,,,,,,,,,,,,223,2022-05-24_13h53.46.351,FishGame,2022.1.1,59.977136715457235,
,33,넌 냉혹해,5,Orange,A,2.583333333333333,2.1,ScrollDown,ScrollUp,Orange.png,2,Negative,Incongruent,0,0,0,0,,,,,,,,,,,,,,,,,0,32,32,32,,,,,,,,,,,,,,,,,,,,,,,,,,,,,,,,,,,,,,,,,,,,,,,,,,,,,,,,,,,,,,,,,,,,,,,,,,,,,,,,,1,0.8007231999999931,296.15876359999993,None,ScrollDown,정답입니다,296.15876359999993,None,296.15876359999993,None,296.15876359999993,None,296.15876359999993,None,296.8218232999998,None,296.8218232999998,297.33133670000007,,,,,,,,,,,,,,,,223,2022-05-24_13h53.46.351,FishGame,2022.1.1,59.977136715457235,
,34,나를 데려가줘,6,Green,B,0,0,ScrollDown,ScrollUp,Green.png,2,NonTarget,NonTarget,0,0,0,0,,,,,,,,,,,,,,,,,0,33,33,33,,,,,,,,,,,,,,,,,,,,,,,,,,,,,,,,,,,,,,,,,,,,,,,,,,,,,,,,,,,,,,,,,,,,,,,,,,,,,,,,,1,1.1521351000001232,297.97684919999983,None,ScrollDown,정답입니다,297.97684919999983,None,297.97684919999983,None,297.97684919999983,None,297.97684919999983,None,299.0061719999999,None,299.0061719999999,299.5142887000002,,,,,,,,,,,,,,,,223,2022-05-24_13h53.46.351,FishGame,2022.1.1,59.977136715457235,
,35,넌 편파적이야,5,Green,B,2.125,2,ScrollUp,ScrollDown,Green.png,2,Negative,Congruent,0,0,0,0,,,,,,,,,,,,,,,,,0,34,34,34,,,,,,,,,,,,,,,,,,,,,,,,,,,,,,,,,,,,,,,,,,,,,,,,,,,,,,,,,,,,,,,,,,,,,,,,,,,,,,,,,2,1.2238399000002573,300.1674933999998,None,ScrollUp,정답입니다,300.1674933999998,None,300.1674933999998,None,300.1674933999998,None,300.1674933999998,None,301.2642697000001,None,301.2642697000001,301.76394040000014,,,,,,,,,,,,,,,,223,2022-05-24_13h53.46.351,FishGame,2022.1.1,59.977136715457235,
,36,넌 슬퍼,4,Orange,A,2.583333333333333,3.066666666666667,ScrollDown,ScrollUp,Orange.png,2,Negative,Incongruent,0,0,0,0,,,,,,,,,,,,,,,,,0,35,35,35,,,,,,,,,,,,,,,,,,,,,,,,,,,,,,,,,,,,,,,,,,,,,,,,,,,,,,,,,,,,,,,,,,,,,,,,,,,,,,,,,1,0.9507227999997667,302.40958649999993,None,ScrollDown,정답입니다,302.40958649999993,None,302.40958649999993,None,302.40958649999993,None,302.40958649999993,None,303.23618309999983,None,303.23618309999983,303.74710189999996,,,,,,,,,,,,,,,,223,2022-05-24_13h53.46.351,FishGame,2022.1.1,59.977136715457235,
,37,나를 데려가줘,6,Green,B,0,0,ScrollDown,ScrollUp,Green.png,2,NonTarget,NonTarget,0,0,0,0,,,,,,,,,,,,,,,,,0,36,36,36,,,,,,,,,,,,,,,,,,,,,,,,,,,,,,,,,,,,,,,,,,,,,,,,,,,,,,,,,,,,,,,,,,,,,,,,,,,,,,,,,1,1.215904600000158,304.3911757000001,None,ScrollDown,정답입니다,304.3911757000001,None,304.3911757000001,None,304.3911757000001,None,304.3911757000001,None,305.48619180000014,None,305.48619180000014,305.9971194999998,,,,,,,,,,,,,,,,223,2022-05-24_13h53.46.351,FishGame,2022.1.1,59.977136715457235,
,38,넌 친절해,1,Green,B,6.041666666666667,5.533333333333333,ScrollUp,ScrollDown,Green.png,2,Positive,Incongruent,0,0,0,0,,,,,,,,,,,,,,,,,0,37,37,37,,,,,,,,,,,,,,,,,,,,,,,,,,,,,,,,,,,,,,,,,,,,,,,,,,,,,,,,,,,,,,,,,,,,,,,,,,,,,,,,,2,1.6331172000000151,306.65315999999984,None,ScrollUp,정답입니다,306.65315999999984,None,306.65315999999984,None,306.65315999999984,None,306.65315999999984,None,308.1524169999998,None,308.1524169999998,308.66307259999985,,,,,,,,,,,,,,,,223,2022-05-24_13h53.46.351,FishGame,2022.1.1,59.977136715457235,
,1,넌 엉성해,4,Orange,A,3,3.3,ScrollDown,ScrollUp,Orange.png,3,Negative,Incongruent,0,0,0,0,,,,,,,,,,,,,,,,,,,,,0,0,0,0,,,,,,,,,,,,,,,,,,,,,,,,,,,,,,,,,,,,346.95845099999997,348.4579960000001,348.4913743000002,349.4412318999998,349.49121719999994,350.44110279999995,350.44110279999995,None,,,,,,,,,,,,,,,,,,,,,,,,,,,,,,,,,,1.1250000099341075,1.4090949999999793,351.63066530000015,None,ScrollDown,정답입니다,351.63066530000015,None,351.63066530000015,None,351.63066530000015,None,351.63066530000015,None,352.8660149000002,None,352.8660149000002,353.37394989999984,309.1630114999998,None,309.1630114999998,None,0.15092592,-0.10277778,1,0,0,0.01623003999975481,None,339.17587509999976,None,,,223,2022-05-24_13h53.46.351,FishGame,2022.1.1,59.977136715457235,
,2,나를 보내줘,6,Orange,A,0,0,ScrollUp,ScrollDown,Orange.png,3,NonTarget,NonTarget,0,0,0,0,,,,,,,,,,,,,,,,,,,,,0,1,1,1,,,,,,,,,,,,,,,,,,,,,,,,,,,,,,,,,,,,,,,,,,,,,,,,,,,,,,,,,,,,,,,,,,,,,,,,,,,,,2,1.070080699999835,354.02217789999986,None,ScrollUp,정답입니다,354.02217789999986,None,354.02217789999986,None,354.02217789999986,None,354.02217789999986,None,354.97420079999983,None,354.97420079999983,355.4737771,,,,,,,,,,,,,,,,223,2022-05-24_13h53.46.351,FishGame,2022.1.1,59.977136715457235,
,3,넌 활발해,1,Green,B,5.666666666666667,5.6,ScrollUp,ScrollDown,Green.png,3,Positive,Incongruent,0,0,0,0,,,,,,,,,,,,,,,,,,,,,0,2,2,2,,,,,,,,,,,,,,,,,,,,,,,,,,,,,,,,,,,,,,,,,,,,,,,,,,,,,,,,,,,,,,,,,,,,,,,,,,,,,2,1.1542662000001656,356.1257706000001,None,ScrollUp,정답입니다,356.1257706000001,None,356.1257706000001,None,356.1257706000001,None,356.1257706000001,None,357.14997059999996,None,357.14997059999996,357.6567894,,,,,,,,,,,,,,,,223,2022-05-24_13h53.46.351,FishGame,2022.1.1,59.977136715457235,
,4,넌 논리적이야,2,Orange,A,5.666666666666666,4.633333333333334,ScrollDown,ScrollUp,Orange.png,3,Positive,Congruent,0,0,0,0,,,,,,,,,,,,,,,,,,,,,0,3,3,3,,,,,,,,,,,,,,,,,,,,,,,,,,,,,,,,,,,,,,,,,,,,,,,,,,,,,,,,,,,,,,,,,,,,,,,,,,,,,1,0.9757896999999502,358.3160054,None,ScrollDown,정답입니다,358.3160054,None,358.3160054,None,358.3160054,None,358.3160054,None,359.15651190000017,None,359.15651190000017,359.65653939999993,,,,,,,,,,,,,,,,223,2022-05-24_13h53.46.351,FishGame,2022.1.1,59.977136715457235,
,5,넌 과묵해,3,Orange,A,3.875,4.4,ScrollDown,ScrollUp,Orange.png,3,Neutral,Neutral,0,0,0,0,,,,,,,,,,,,,,,,,,,,,0,4,4,4,,,,,,,,,,,,,,,,,,,,,,,,,,,,,,,,,,,,,,,,,,,,,,,,,,,,,,,,,,,,,,,,,,,,,,,,,,,,,1.0385802288850148,1.0901873999996496,360.30938909999986,None,ScrollDown,정답입니다,360.30938909999986,None,360.30938909999986,None,360.30938909999986,None,360.30938909999986,None,361.273275,None,361.273275,361.77297850000014,,,,,,,,,,,,,,,,223,2022-05-24_13h53.46.351,FishGame,2022.1.1,59.977136715457235,
,6,나를 데려가줘,6,Green,B,0,0,ScrollDown,ScrollUp,Green.png,3,NonTarget,NonTarget,0,0,0,0,,,,,,,,,,,,,,,,,,,,,0,5,5,5,,,,,,,,,,,,,,,,,,,,,,,,,,,,,,,,,,,,,,,,,,,,,,,,,,,,,,,,,,,,,,,,,,,,,,,,,,,,,1.2777777661879859,1.0264814000001934,362.41787109999996,None,ScrollDown,정답입니다,362.41787109999996,None,362.41787109999996,None,362.41787109999996,None,362.41787109999996,None,363.3180963,None,363.3180963,363.8226383000001,,,,,,,,,,,,,,,,223,2022-05-24_13h53.46.351,FishGame,2022.1.1,59.977136715457235,
,7,넌 미숙해,4,Green,B,3,3,ScrollUp,ScrollDown,Green.png,3,Negative,Congruent,0,0,0,0,,,,,,,,,,,,,,,,,,,,,0,6,6,6,,,,,,,,,,,,,,,,,,,,,,,,,,,,,,,,,,,,,,,,,,,,,,,,,,,,,,,,,,,,,,,,,,,,,,,,,,,,,2,1.084324899999956,364.4721574,None,ScrollUp,정답입니다,364.4721574,None,364.4721574,None,364.4721574,None,364.4721574,None,365.4319489999998,None,365.4319489999998,365.9391010999998,,,,,,,,,,,,,,,,223,2022-05-24_13h53.46.351,FishGame,2022.1.1,59.977136715457235,
,8,나를 보내줘,6,Orange,A,0,0,ScrollUp,ScrollDown,Orange.png,3,NonTarget,NonTarget,0,0,0,0,,,,,,,,,,,,,,,,,,,,,0,7,7,7,,,,,,,,,,,,,,,,,,,,,,,,,,,,,,,,,,,,,,,,,,,,,,,,,,,,,,,,,,,,,,,,,,,,,,,,,,,,,2,1.2366314000000784,366.5874328,None,ScrollUp,정답입니다,366.5874328,None,366.5874328,None,366.5874328,None,366.5874328,None,367.69851689999996,None,367.69851689999996,368.2055102999998,,,,,,,,,,,,,,,,223,2022-05-24_13h53.46.351,FishGame,2022.1.1,59.977136715457235,
,9,넌 자신만만해,3,Green,B,4.833333333333334,4.333333333333333,ScrollUp,ScrollDown,Green.png,3,Neutral,Neutral,0,0,0,0,,,,,,,,,,,,,,,,,,,,,0,8,8,8,,,,,,,,,,,,,,,,,,,,,,,,,,,,,,,,,,,,,,,,,,,,,,,,,,,,,,,,,,,,,,,,,,,,,,,,,,,,,2,1.1465479000003143,368.8559393999999,None,ScrollUp,정답입니다,368.8559393999999,None,368.8559393999999,None,368.8559393999999,None,368.8559393999999,None,369.8778050000001,None,369.8778050000001,370.38852309999993,,,,,,,,,,,,,,,,223,2022-05-24_13h53.46.351,FishGame,2022.1.1,59.977136715457235,
,10,넌 탐욕스러워,5,Orange,A,2.25,2.1,ScrollDown,ScrollUp,Orange.png,3,Negative,Incongruent,0,0,0,0,,,,,,,,,,,,,,,,,,,,,0,9,9,9,,,,,,,,,,,,,,,,,,,,,,,,,,,,,,,,,,,,,,,,,,,,,,,,,,,,,,,,,,,,,,,,,,,,,,,,,,,,,1.2515432039896646,0.9799904999999853,371.0467915999998,None,ScrollDown,정답입니다,371.0467915999998,None,371.0467915999998,None,371.0467915999998,None,371.0467915999998,None,371.89392959999986,None,371.89392959999986,372.4049140000002,,,,,,,,,,,,,,,,223,2022-05-24_13h53.46.351,FishGame,2022.1.1,59.977136715457235,
,11,넌 인기있어,2,Orange,A,5.458333333333333,4.5,ScrollDown,ScrollUp,Orange.png,3,Positive,Congruent,0,0,0,0,,,,,,,,,,,,,,,,,,,,,0,10,10,10,,,,,,,,,,,,,,,,,,,,,,,,,,,,,,,,,,,,,,,,,,,,,,,,,,,,,,,,,,,,,,,,,,,,,,,,,,,,,1,1.0073671000000104,373.0557082,None,ScrollDown,정답입니다,373.0557082,None,373.0557082,None,373.0557082,None,373.0557082,None,373.9384408000001,None,373.9384408000001,374.4379457,,,,,,,,,,,,,,,,223,2022-05-24_13h53.46.351,FishGame,2022.1.1,59.977136715457235,
,12,나를 데려가줘,6,Green,B,0,0,ScrollDown,ScrollUp,Green.png,3,NonTarget,NonTarget,0,0,0,0,,,,,,,,,,,,,,,,,,,,,0,11,11,11,,,,,,,,,,,,,,,,,,,,,,,,,,,,,,,,,,,,,,,,,,,,,,,,,,,,,,,,,,,,,,,,,,,,,,,,,,,,,1.0231481393178303,1.100687900000139,375.08458410000003,None,ScrollDown,정답입니다,375.08458410000003,None,375.08458410000003,None,375.08458410000003,None,375.08458410000003,None,376.06129199999987,None,376.06129199999987,376.57110409999996,,,,,,,,,,,,,,,,223,2022-05-24_13h53.46.351,FishGame,2022.1.1,59.977136715457235,
,13,넌 뛰어나,2,Green,B,6.166666666666667,4,ScrollUp,ScrollDown,Green.png,3,Positive,Incongruent,0,0,0,0,,,,,,,,,,,,,,,,,,,,,0,12,12,12,,,,,,,,,,,,,,,,,,,,,,,,,,,,,,,,,,,,,,,,,,,,,,,,,,,,,,,,,,,,,,,,,,,,,,,,,,,,,2,1.0310107000000244,377.2191217999998,None,ScrollUp,정답입니다,377.2191217999998,None,377.2191217999998,None,377.2191217999998,None,377.2191217999998,None,378.1259280999998,None,378.1259280999998,378.6374159000002,,,,,,,,,,,,,,,,223,2022-05-24_13h53.46.351,FishGame,2022.1.1,59.977136715457235,
,14,넌 낙관적이야,1,Orange,A,5.75,5.8,ScrollDown,ScrollUp,Orange.png,3,Positive,Congruent,0,0,0,0,,,,,,,,,,,,,,,,,,,,,0,13,13,13,,,,,,,,,,,,,,,,,,,,,,,,,,,,,,,,,,,,,,,,,,,,,,,,,,,,,,,,,,,,,,,,,,,,,,,,,,,,,1,1.0678642000002583,379.2936762999998,None,ScrollDown,정답입니다,379.2936762999998,None,379.2936762999998,None,379.2936762999998,None,379.2936762999998,None,380.2273859000002,None,380.2273859000002,380.73719979999987,,,,,,,,,,,,,,,,223,2022-05-24_13h53.46.351,FishGame,2022.1.1,59.977136715457235,
,15,넌 산만해,4,Green,B,2.695652173913043,3.033333333333333,ScrollUp,ScrollDown,Green.png,3,Negative,Congruent,0,0,0,0,,,,,,,,,,,,,,,,,,,,,0,14,14,14,,,,,,,,,,,,,,,,,,,,,,,,,,,,,,,,,,,,,,,,,,,,,,,,,,,,,,,,,,,,,,,,,,,,,,,,,,,,,2,1.1170548000000053,381.38794340000004,None,ScrollUp,정답입니다,381.38794340000004,None,381.38794340000004,None,381.38794340000004,None,381.38794340000004,None,382.37597730000016,None,382.37597730000016,382.88709359999984,,,,,,,,,,,,,,,,223,2022-05-24_13h53.46.351,FishGame,2022.1.1,59.977136715457235,
,16,나를 보내줘,6,Orange,A,0,0,ScrollUp,ScrollDown,Orange.png,3,NonTarget,NonTarget,0,0,0,0,,,,,,,,,,,,,,,,,,,,,0,15,15,15,,,,,,,,,,,,,,,,,,,,,,,,,,,,,,,,,,,,,,,,,,,,,,,,,,,,,,,,,,,,,,,,,,,,,,,,,,,,,2,1.155640299999959,383.5296761999998,None,ScrollUp,정답입니다,383.5296761999998,None,383.5296761999998,None,383.5296761999998,None,383.5296761999998,None,384.5701869999998,None,384.5701869999998,385.0699807000001,,,,,,,,,,,,,,,,223,2022-05-24_13h53.46.351,FishGame,2022.1.1,59.977136715457235,
,17,넌 교활해,5,Green,B,2.333333333333333,2.133333333333333,ScrollUp,ScrollDown,Green.png,3,Negative,Congruent,0,0,0,0,,,,,,,,,,,,,,,,,,,,,0,16,16,16,,,,,,,,,,,,,,,,,,,,,,,,,,,,,,,,,,,,,,,,,,,,,,,,,,,,,,,,,,,,,,,,,,,,,,,,,,,,,2,0.9966143999999986,385.7200128999998,None,ScrollUp,정답입니다,385.7200128999998,None,385.7200128999998,None,385.7200128999998,None,385.7200128999998,None,386.5915267999999,None,386.5915267999999,387.1030197,,,,,,,,,,,,,,,,223,2022-05-24_13h53.46.351,FishGame,2022.1.1,59.977136715457235,
,18,나를 보내줘,6,Orange,A,0,0,ScrollUp,ScrollDown,Orange.png,3,NonTarget,NonTarget,0,0,0,0,,,,,,,,,,,,,,,,,,,,,0,17,17,17,,,,,,,,,,,,,,,,,,,,,,,,,,,,,,,,,,,,,,,,,,,,,,,,,,,,,,,,,,,,,,,,,,,,,,,,,,,,,2,1.1959123999999974,387.7498821999998,None,ScrollUp,정답입니다,387.7498821999998,None,387.7498821999998,None,387.7498821999998,None,387.7498821999998,None,388.82430049999994,None,388.82430049999994,389.33606839999993,,,,,,,,,,,,,,,,223,2022-05-24_13h53.46.351,FishGame,2022.1.1,59.977136715457235,
,19,넌 불친절해,5,Green,B,2.208333333333333,2.033333333333333,ScrollUp,ScrollDown,Green.png,3,Negative,Congruent,0,0,0,0,,,,,,,,,,,,,,,,,,,,,0,18,18,18,,,,,,,,,,,,,,,,,,,,,,,,,,,,,,,,,,,,,,,,,,,,,,,,,,,,,,,,,,,,,,,,,,,,,,,,,,,,,2,0.9050010999999358,389.9922663000002,None,ScrollUp,정답입니다,389.9922663000002,None,389.9922663000002,None,389.9922663000002,None,389.9922663000002,None,390.7692068000001,None,390.7692068000001,391.26920100000007,,,,,,,,,,,,,,,,223,2022-05-24_13h53.46.351,FishGame,2022.1.1,59.977136715457235,
,20,넌 지적이야,2,Green,B,5.75,4.366666666666666,ScrollUp,ScrollDown,Green.png,3,Positive,Incongruent,0,0,0,0,,,,,,,,,,,,,,,,,,,,,0,19,19,19,,,,,,,,,,,,,,,,,,,,,,,,,,,,,,,,,,,,,,,,,,,,,,,,,,,,,,,,,,,,,,,,,,,,,,,,,,,,,2,0.9378639000001385,391.9169373,None,ScrollUp,정답입니다,391.9169373,None,391.9169373,None,391.9169373,None,391.9169373,None,392.73573769999985,None,392.73573769999985,393.2356279999999,,,,,,,,,,,,,,,,223,2022-05-24_13h53.46.351,FishGame,2022.1.1,59.977136715457235,
,21,넌 우유부단해,4,Orange,A,2.666666666666667,3.166666666666667,ScrollDown,ScrollUp,Orange.png,3,Negative,Incongruent,0,0,0,0,,,,,,,,,,,,,,,,,,,,,0,20,20,20,,,,,,,,,,,,,,,,,,,,,,,,,,,,,,,,,,,,,,,,,,,,,,,,,,,,,,,,,,,,,,,,,,,,,,,,,,,,,1,0.9719414000001052,393.8916543999999,None,ScrollDown,정답입니다,393.8916543999999,None,393.8916543999999,None,393.8916543999999,None,393.8916543999999,None,394.73526589999983,None,394.73526589999983,395.2353330000001,,,,,,,,,,,,,,,,223,2022-05-24_13h53.46.351,FishGame,2022.1.1,59.977136715457235,
,22,나를 데려가줘,6,Green,B,0,0,ScrollDown,ScrollUp,Green.png,3,NonTarget,NonTarget,0,0,0,0,,,,,,,,,,,,,,,,,,,,,0,21,21,21,,,,,,,,,,,,,,,,,,,,,,,,,,,,,,,,,,,,,,,,,,,,,,,,,,,,,,,,,,,,,,,,,,,,,,,,,,,,,1.0632716019948323,1.1405557999996745,395.8811765999999,None,ScrollDown,정답입니다,395.8811765999999,None,395.8811765999999,None,395.8811765999999,None,395.8811765999999,None,396.90189569999984,None,396.90189569999984,397.40167109999993,,,,,,,,,,,,,,,,223,2022-05-24_13h53.46.351,FishGame,2022.1.1,59.977136715457235,
,23,넌 성실해,1,Green,B,6.041666666666666,5.7,ScrollUp,ScrollDown,Green.png,3,Positive,Incongruent,0,0,0,0,,,,,,,,,,,,,,,,,,,,,0,22,22,22,,,,,,,,,,,,,,,,,,,,,,,,,,,,,,,,,,,,,,,,,,,,,,,,,,,,,,,,,,,,,,,,,,,,,,,,,,,,,1.983024666706721,1.0583999999998923,398.04732969999986,None,ScrollUp,정답입니다,398.04732969999986,None,398.04732969999986,None,398.04732969999986,None,398.04732969999986,None,398.98511740000004,None,398.98511740000004,399.4847448999999,,,,,,,,,,,,,,,,223,2022-05-24_13h53.46.351,FishGame,2022.1.1,59.977136715457235,
,24,넌 현실주의적이야,3,Orange,A,4.625,4.4,ScrollDown,ScrollUp,Orange.png,3,Neutral,Neutral,0,0,0,0,,,,,,,,,,,,,,,,,,,,,0,23,23,23,,,,,,,,,,,,,,,,,,,,,,,,,,,,,,,,,,,,,,,,,,,,,,,,,,,,,,,,,,,,,,,,,,,,,,,,,,,,,1,0.9596433000001525,400.13749199999984,None,ScrollDown,정답입니다,400.13749199999984,None,400.13749199999984,None,400.13749199999984,None,400.13749199999984,None,400.96811949999983,None,400.96811949999983,401.4678479999998,,,,,,,,,,,,,,,,223,2022-05-24_13h53.46.351,FishGame,2022.1.1,59.977136715457235,
,25,넌 진실돼,1,Orange,A,6.625,5.566666666666666,ScrollDown,ScrollUp,Orange.png,3,Positive,Congruent,0,0,0,0,,,,,,,,,,,,,,,,,,,,,0,24,24,24,,,,,,,,,,,,,,,,,,,,,,,,,,,,,,,,,,,,,,,,,,,,,,,,,,,,,,,,,,,,,,,,,,,,,,,,,,,,,1.140432099501292,0.9111849999999322,402.12498349999987,None,ScrollDown,정답입니다,402.12498349999987,None,402.12498349999987,None,402.12498349999987,None,402.12498349999987,None,402.90577380000013,None,402.90577380000013,403.417559,,,,,,,,,,,,,,,,223,2022-05-24_13h53.46.351,FishGame,2022.1.1,59.977136715457235,
,26,넌 천진난만해,3,Green,B,4.958333333333334,4.833333333333333,ScrollUp,ScrollDown,Green.png,3,Neutral,Neutral,0,0,0,0,,,,,,,,,,,,,,,,,,,,,0,25,25,25,,,,,,,,,,,,,,,,,,,,,,,,,,,,,,,,,,,,,,,,,,,,,,,,,,,,,,,,,,,,,,,,,,,,,,,,,,,,,2,1.1730694999996558,404.0698010000001,None,ScrollUp,정답입니다,404.0698010000001,None,404.0698010000001,None,404.0698010000001,None,404.0698010000001,None,405.1174879,None,405.1174879,405.6173689000002,,,,,,,,,,,,,,,,223,2022-05-24_13h53.46.351,FishGame,2022.1.1,59.977136715457235,
,27,넌 교양없어,5,Orange,A,2.416666666666667,2.2,ScrollDown,ScrollUp,Orange.png,3,Negative,Incongruent,0,0,0,0,,,,,,,,,,,,,,,,,,,,,0,26,26,26,,,,,,,,,,,,,,,,,,,,,,,,,,,,,,,,,,,,,,,,,,,,,,,,,,,,,,,,,,,,,,,,,,,,,,,,,,,,,1,0.926607100000183,406.2726197000002,None,ScrollDown,정답입니다,406.2726197000002,None,406.2726197000002,None,406.2726197000002,None,406.2726197000002,None,407.06204479999997,None,407.06204479999997,407.56705980000015,,,,,,,,,,,,,,,,223,2022-05-24_13h53.46.351,FishGame,2022.1.1,59.977136715457235,
,28,나를 보내줘,6,Orange,A,0,0,ScrollUp,ScrollDown,Orange.png,3,NonTarget,NonTarget,0,0,0,0,,,,,,,,,,,,,,,,,,,,,0,27,27,27,,,,,,,,,,,,,,,,,,,,,,,,,,,,,,,,,,,,,,,,,,,,,,,,,,,,,,,,,,,,,,,,,,,,,,,,,,,,,1.8827160596847534,1.0762621999997464,408.2178623,None,ScrollUp,정답입니다,408.2178623,None,408.2178623,None,408.2178623,None,408.2178623,None,409.1668218,None,409.1668218,409.66684780000014,,,,,,,,,,,,,,,,223,2022-05-24_13h53.46.351,FishGame,2022.1.1,59.977136715457235,
,29,넌 엉뚱스러워,3,Orange,A,4.166666666666667,4.133333333333334,ScrollDown,ScrollUp,Orange.png,3,Neutral,Neutral,0,0,0,0,,,,,,,,,,,,,,,,,,,,,0,28,28,28,,,,,,,,,,,,,,,,,,,,,,,,,,,,,,,,,,,,,,,,,,,,,,,,,,,,,,,,,,,,,,,,,,,,,,,,,,,,,1.0200617114702861,1.025601999999708,410.32282050000003,None,ScrollDown,정답입니다,410.32282050000003,None,410.32282050000003,None,410.32282050000003,None,410.32282050000003,None,411.21652600000016,None,411.21652600000016,411.71654609999996,,,,,,,,,,,,,,,,223,2022-05-24_13h53.46.351,FishGame,2022.1.1,59.977136715457235,
,30,넌 무지해,4,Green,B,2.541666666666667,3.066666666666667,ScrollUp,ScrollDown,Green.png,3,Negative,Congruent,0,0,0,0,,,,,,,,,,,,,,,,,,,,,0,29,29,29,,,,,,,,,,,,,,,,,,,,,,,,,,,,,,,,,,,,,,,,,,,,,,,,,,,,,,,,,,,,,,,,,,,,,,,,,,,,,2,0.848886599999787,412.36524310000004,None,ScrollUp,정답입니다,412.36524310000004,None,412.36524310000004,None,412.36524310000004,None,412.36524310000004,None,413.08900140000014,None,413.08900140000014,413.5995536999999,,,,,,,,,,,,,,,,223,2022-05-24_13h53.46.351,FishGame,2022.1.1,59.977136715457235,
,31,넌 음울해,5,Green,B,2.25,2.233333333333333,ScrollUp,ScrollDown,Green.png,3,Negative,Congruent,0,0,0,0,,,,,,,,,,,,,,,,,,,,,0,30,30,30,,,,,,,,,,,,,,,,,,,,,,,,,,,,,,,,,,,,,,,,,,,,,,,,,,,,,,,,,,,,,,,,,,,,,,,,,,,,,2,0.8334030000000894,414.2495488999998,None,ScrollUp,정답입니다,414.2495488999998,None,414.2495488999998,None,414.2495488999998,None,414.2495488999998,None,414.95558930000016,None,414.95558930000016,415.4660708000001,,,,,,,,,,,,,,,,223,2022-05-24_13h53.46.351,FishGame,2022.1.1,59.977136715457235,
,32,넌 냉소적이야,5,Orange,A,2.916666666666667,2.4,ScrollDown,ScrollUp,Orange.png,3,Negative,Incongruent,0,0,0,0,,,,,,,,,,,,,,,,,,,,,0,31,31,31,,,,,,,,,,,,,,,,,,,,,,,,,,,,,,,,,,,,,,,,,,,,,,,,,,,,,,,,,,,,,,,,,,,,,,,,,,,,,1,0.9733336999997846,416.11565930000006,None,ScrollDown,정답입니다,416.11565930000006,None,416.11565930000006,None,416.11565930000006,None,416.11565930000006,None,416.96579070000007,None,416.96579070000007,417.4658346000001,,,,,,,,,,,,,,,,223,2022-05-24_13h53.46.351,FishGame,2022.1.1,59.977136715457235,
,33,나를 데려가줘,6,Green,B,0,0,ScrollDown,ScrollUp,Green.png,3,NonTarget,NonTarget,0,0,0,0,,,,,,,,,,,,,,,,,,,,,0,32,32,32,,,,,,,,,,,,,,,,,,,,,,,,,,,,,,,,,,,,,,,,,,,,,,,,,,,,,,,,,,,,,,,,,,,,,,,,,,,,,1.2052469104528427,1.2336433999998917,418.1159011,None,ScrollDown,정답입니다,418.1159011,None,418.1159011,None,418.1159011,None,418.1159011,None,419.2230549000001,None,419.2230549000001,419.73212710000007,,,,,,,,,,,,,,,,223,2022-05-24_13h53.46.351,FishGame,2022.1.1,59.977136715457235,
,34,넌 쾌활해,1,Orange,A,5.541666666666666,5.733333333333333,ScrollDown,ScrollUp,Orange.png,3,Positive,Congruent,0,0,0,0,,,,,,,,,,,,,,,,,,,,,0,33,33,33,,,,,,,,,,,,,,,,,,,,,,,,,,,,,,,,,,,,,,,,,,,,,,,,,,,,,,,,,,,,,,,,,,,,,,,,,,,,,1,1.058194999999614,420.3851558000001,None,ScrollDown,정답입니다,420.3851558000001,None,420.3851558000001,None,420.3851558000001,None,420.3851558000001,None,421.31524320000017,None,421.31524320000017,421.8152227999999,,,,,,,,,,,,,,,,223,2022-05-24_13h53.46.351,FishGame,2022.1.1,59.977136715457235,
,35,나를 보내줘,6,Orange,A,0,0,ScrollUp,ScrollDown,Orange.png,3,NonTarget,NonTarget,0,0,0,0,,,,,,,,,,,,,,,,,,,,,0,34,34,34,,,,,,,,,,,,,,,,,,,,,,,,,,,,,,,,,,,,,,,,,,,,,,,,,,,,,,,,,,,,,,,,,,,,,,,,,,,,,1.9984568059444427,1.040335099999993,422.4660880000001,None,ScrollUp,정답입니다,422.4660880000001,None,422.4660880000001,None,422.4660880000001,None,422.4660880000001,None,423.38192949999984,None,423.38192949999984,423.8816404999998,,,,,,,,,,,,,,,,223,2022-05-24_13h53.46.351,FishGame,2022.1.1,59.977136715457235,
,36,넌 명랑해,1,Green,B,5.739130434782609,5.666666666666667,ScrollUp,ScrollDown,Green.png,3,Positive,Incongruent,0,0,0,0,,,,,,,,,,,,,,,,,,,,,0,35,35,35,,,,,,,,,,,,,,,,,,,,,,,,,,,,,,,,,,,,,,,,,,,,,,,,,,,,,,,,,,,,,,,,,,,,,,,,,,,,,2,1.1140166000000136,424.53440950000004,None,ScrollUp,정답입니다,424.53440950000004,None,424.53440950000004,None,424.53440950000004,None,424.53440950000004,None,425.5202390999998,None,425.5202390999998,426.0313446,,,,,,,,,,,,,,,,223,2022-05-24_13h53.46.351,FishGame,2022.1.1,59.977136715457235,
,37,넌 멍해,4,Orange,A,2.833333333333333,3.4,ScrollDown,ScrollUp,Orange.png,3,Negative,Incongruent,0,0,0,0,,,,,,,,,,,,,,,,,,,,,0,36,36,36,,,,,,,,,,,,,,,,,,,,,,,,,,,,,,,,,,,,,,,,,,,,,,,,,,,,,,,,,,,,,,,,,,,,,,,,,,,,,1.0709876716136932,0.9223822999997537,426.6860271999999,None,ScrollDown,정답입니다,426.6860271999999,None,426.6860271999999,None,426.6860271999999,None,426.6860271999999,None,427.48105780000014,None,427.48105780000014,427.9811837000002,,,,,,,,,,,,,,,,223,2022-05-24_13h53.46.351,FishGame,2022.1.1,59.977136715457235,
,38,나를 데려가줘,6,Green,B,0,0,ScrollDown,ScrollUp,Green.png,3,NonTarget,NonTarget,0,0,0,0,,,,,,,,,,,,,,,,,,,,,0,37,37,37,,,,,,,,,,,,,,,,,,,,,,,,,,,,,,,,,,,,,,,,,,,,,,,,,,,,,,,,,,,,,,,,,,,,,,,,,,,,,1,1.2644641000001684,428.6300750999999,None,ScrollDown,정답입니다,428.6300750999999,None,428.6300750999999,None,428.6300750999999,None,428.6300750999999,None,429.76967650000006,None,429.76967650000006,430.2808796999998,,,,,,,,,,,,,,,,223,2022-05-24_13h53.46.351,FishGame,2022.1.1,59.977136715457235,
,39,넌 현명해,2,Orange,A,6.541666666666666,4.533333333333333,ScrollDown,ScrollUp,Orange.png,3,Positive,Congruent,0,0,0,0,,,,,,,,,,,,,,,,,,,,,0,38,38,38,,,,,,,,,,,,,,,,,,,,,,,,,,,,,,,,,,,,,,,,,,,,,,,,,,,,,,,,,,,,,,,,,,,,,,,,,,,,,1,1.0259899000002406,430.9274366999998,None,ScrollDown,정답입니다,430.9274366999998,None,430.9274366999998,None,430.9274366999998,None,430.9274366999998,None,431.8308886,None,431.8308886,432.33048099999996,,,,,,,,,,,,,,,,223,2022-05-24_13h53.46.351,FishGame,2022.1.1,59.977136715457235,
,40,넌 수줍어,3,Green,B,3.541666666666666,4.366666666666666,ScrollUp,ScrollDown,Green.png,3,Neutral,Neutral,0,0,0,0,,,,,,,,,,,,,,,,,,,,,0,39,39,39,,,,,,,,,,,,,,,,,,,,,,,,,,,,,,,,,,,,,,,,,,,,,,,,,,,,,,,,,,,,,,,,,,,,,,,,,,,,,2,1.1625905999999304,432.9799750000002,None,ScrollUp,정답입니다,432.9799750000002,None,432.9799750000002,None,432.9799750000002,None,432.9799750000002,None,434.01807959999996,None,434.01807959999996,434.53031310000006,,,,,,,,,,,,,,,,223,2022-05-24_13h53.46.351,FishGame,2022.1.1,59.977136715457235,
,41,나를 데려가줘,6,Green,B,0,0,ScrollDown,ScrollUp,Green.png,3,NonTarget,NonTarget,0,0,0,0,,,,,,,,,,,,,,,,,,,,,0,40,40,40,,,,,,,,,,,,,,,,,,,,,,,,,,,,,,,,,,,,,,,,,,,,,,,,,,,,,,,,,,,,,,,,,,,,,,,,,,,,,1.0462962985038757,1.0937547000003178,435.17767760000015,None,ScrollDown,정답입니다,435.17767760000015,None,435.17767760000015,None,435.17767760000015,None,435.17767760000015,None,436.14181419999977,None,436.14181419999977,436.64664249999987,,,,,,,,,,,,,,,,223,2022-05-24_13h53.46.351,FishGame,2022.1.1,59.977136715457235,
,42,넌 성숙해,2,Green,B,5.833333333333333,4.533333333333333,ScrollUp,ScrollDown,Green.png,3,Positive,Incongruent,0,0,0,0,,,,,,,,,,,,,,,,,,,,,0,41,41,41,,,,,,,,,,,,,,,,,,,,,,,,,,,,,,,,,,,,,,,,,,,,,,,,,,,,,,,,,,,,,,,,,,,,,,,,,,,,,2,1.0593856000000414,437.2883074000001,None,ScrollUp,정답입니다,437.2883074000001,None,437.2883074000001,None,437.2883074000001,None,437.2883074000001,None,438.2299234000002,None,438.2299234000002,438.72969999999987,,,,,,,,,,,,,,,,223,2022-05-24_13h53.46.351,FishGame,2022.1.1,59.977136715457235,
,1,넌 매력적이야,2,Green,B,6.125,4.666666666666667,ScrollUp,ScrollDown,Green.png,4,Positive,Incongruent,0,0,0,0,,,,,,,,,,,,,,,,,,,,,,,,,0,0,0,0,,,,,,,,,,,,,,,,,,,,,,,,,,,,,,,,471.3761679999998,472.87530479999987,472.90864569999985,473.85853369999995,473.9085808,474.8585514000001,474.8585514000001,None,,,,,,,,,,,,,,,,,,,,,,,,,,,,,,,,,,2,1.4914475999999013,476.04269190000014,None,ScrollUp,정답입니다,476.04269190000014,None,476.04269190000014,None,476.04269190000014,None,476.04269190000014,None,477.3633070000001,None,477.3633070000001,477.87467560000005,439.2296075999998,None,439.2296075999998,None,0.087037034,-0.10555556,1,0,0,0.01623673999984021,None,469.2424037999999,None,,,223,2022-05-24_13h53.46.351,FishGame,2022.1.1,59.977136715457235,
,2,나를 보내줘,6,Orange,A,0,0,ScrollUp,ScrollDown,Orange.png,4,NonTarget,NonTarget,0,0,0,0,,,,,,,,,,,,,,,,,,,,,,,,,0,1,1,1,,,,,,,,,,,,,,,,,,,,,,,,,,,,,,,,,,,,,,,,,,,,,,,,,,,,,,,,,,,,,,,,,,,,,,,,,2,1.0455643000000236,478.52999009999985,None,ScrollUp,정답입니다,478.52999009999985,None,478.52999009999985,None,478.52999009999985,None,478.52999009999985,None,479.44499080000014,None,479.44499080000014,479.9577279,,,,,,,,,,,,,,,,223,2022-05-24_13h53.46.351,FishGame,2022.1.1,59.977136715457235,
,3,넌 조심스러워,3,Orange,A,4.791666666666666,4.666666666666667,ScrollDown,ScrollUp,Orange.png,4,Neutral,Neutral,0,0,0,0,,,,,,,,,,,,,,,,,,,,,,,,,0,2,2,2,,,,,,,,,,,,,,,,,,,,,,,,,,,,,,,,,,,,,,,,,,,,,,,,,,,,,,,,,,,,,,,,,,,,,,,,,1,1.0228517000000465,480.6068937,None,ScrollDown,정답입니다,480.6068937,None,480.6068937,None,480.6068937,None,480.6068937,None,481.5076511000002,None,481.5076511000002,482.007482,,,,,,,,,,,,,,,,223,2022-05-24_13h53.46.351,FishGame,2022.1.1,59.977136715457235,
,4,넌 철학적이야,3,Green,B,4.5,4.266666666666667,ScrollUp,ScrollDown,Green.png,4,Neutral,Neutral,0,0,0,0,,,,,,,,,,,,,,,,,,,,,,,,,0,3,3,3,,,,,,,,,,,,,,,,,,,,,,,,,,,,,,,,,,,,,,,,,,,,,,,,,,,,,,,,,,,,,,,,,,,,,,,,,2,0.9388004000002184,482.6587370000002,None,ScrollUp,정답입니다,482.6587370000002,None,482.6587370000002,None,482.6587370000002,None,482.6587370000002,None,483.4743432999999,None,483.4743432999999,483.9738972,,,,,,,,,,,,,,,,223,2022-05-24_13h53.46.351,FishGame,2022.1.1,59.977136715457235,
,5,넌 쩨쩨해,5,Orange,A,2.375,2.133333333333333,ScrollDown,ScrollUp,Orange.png,4,Negative,Incongruent,0,0,0,0,,,,,,,,,,,,,,,,,,,,,,,,,0,4,4,4,,,,,,,,,,,,,,,,,,,,,,,,,,,,,,,,,,,,,,,,,,,,,,,,,,,,,,,,,,,,,,,,,,,,,,,,,1,0.9739786999998614,484.6324642999998,None,ScrollDown,정답입니다,484.6324642999998,None,484.6324642999998,None,484.6324642999998,None,484.6324642999998,None,485.4739344999998,None,485.4739344999998,485.9736157000002,,,,,,,,,,,,,,,,223,2022-05-24_13h53.46.351,FishGame,2022.1.1,59.977136715457235,
,6,나를 데려가줘,6,Green,B,0,0,ScrollDown,ScrollUp,Green.png,4,NonTarget,NonTarget,0,0,0,0,,,,,,,,,,,,,,,,,,,,,,,,,0,5,5,5,,,,,,,,,,,,,,,,,,,,,,,,,,,,,,,,,,,,,,,,,,,,,,,,,,,,,,,,,,,,,,,,,,,,,,,,,2,0.9501376000002892,486.6188923999998,None,ScrollUp,오답입니다,486.6188923999998,None,486.6188923999998,None,486.6188923999998,None,486.6188923999998,None,487.4480613999999,None,487.4480613999999,487.9567364999998,,,,,,,,,,,,,,,,223,2022-05-24_13h53.46.351,FishGame,2022.1.1,59.977136715457235,
,7,넌 고집불통이야,5,Green,B,2.875,2,ScrollUp,ScrollDown,Green.png,4,Negative,Congruent,0,0,0,0,,,,,,,,,,,,,,,,,,,,,,,,,0,6,6,6,,,,,,,,,,,,,,,,,,,,,,,,,,,,,,,,,,,,,,,,,,,,,,,,,,,,,,,,,,,,,,,,,,,,,,,,,2,0.9875431999998909,488.6111976000002,None,ScrollUp,정답입니다,488.6111976000002,None,488.6111976000002,None,488.6111976000002,None,488.6111976000002,None,489.46733170000016,None,489.46733170000016,489.97311439999976,,,,,,,,,,,,,,,,223,2022-05-24_13h53.46.351,FishGame,2022.1.1,59.977136715457235,
,8,넌 무심해,4,Orange,A,2.875,3.2,ScrollDown,ScrollUp,Orange.png,4,Negative,Incongruent,0,0,0,0,,,,,,,,,,,,,,,,,,,,,,,,,0,7,7,7,,,,,,,,,,,,,,,,,,,,,,,,,,,,,,,,,,,,,,,,,,,,,,,,,,,,,,,,,,,,,,,,,,,,,,,,,1.0524691541989644,0.9588985000000321,490.61949700000014,None,ScrollDown,정답입니다,490.61949700000014,None,490.61949700000014,None,490.61949700000014,None,490.61949700000014,None,491.4563579999999,None,491.4563579999999,491.9561944000002,,,,,,,,,,,,,,,,223,2022-05-24_13h53.46.351,FishGame,2022.1.1,59.977136715457235,
,9,넌 정겨워,1,Orange,A,5.791666666666667,5.666666666666667,ScrollDown,ScrollUp,Orange.png,4,Positive,Congruent,0,0,0,0,,,,,,,,,,,,,,,,,,,,,,,,,0,8,8,8,,,,,,,,,,,,,,,,,,,,,,,,,,,,,,,,,,,,,,,,,,,,,,,,,,,,,,,,,,,,,,,,,,,,,,,,,1.0632716019948323,0.8157680999997865,492.6134677,None,ScrollDown,정답입니다,492.6134677,None,492.6134677,None,492.6134677,None,492.6134677,None,493.2958536000001,None,493.2958536000001,493.8058578,,,,,,,,,,,,,,,,223,2022-05-24_13h53.46.351,FishGame,2022.1.1,59.977136715457235,
,10,나를 데려가줘,6,Green,B,0,0,ScrollDown,ScrollUp,Green.png,4,NonTarget,NonTarget,0,0,0,0,,,,,,,,,,,,,,,,,,,,,,,,,0,9,9,9,,,,,,,,,,,,,,,,,,,,,,,,,,,,,,,,,,,,,,,,,,,,,,,,,,,,,,,,,,,,,,,,,,,,,,,,,1.2422839452823002,1.0071788000000197,494.45430780000015,None,ScrollDown,정답입니다,494.45430780000015,None,494.45430780000015,None,494.45430780000015,None,494.45430780000015,None,495.3392100000001,None,495.3392100000001,495.8390294999999,,,,,,,,,,,,,,,,223,2022-05-24_13h53.46.351,FishGame,2022.1.1,59.977136715457235,
,11,넌 체제순응적이야,4,Green,B,3,3.6,ScrollUp,ScrollDown,Green.png,4,Negative,Congruent,0,0,0,0,,,,,,,,,,,,,,,,,,,,,,,,,0,10,10,10,,,,,,,,,,,,,,,,,,,,,,,,,,,,,,,,,,,,,,,,,,,,,,,,,,,,,,,,,,,,,,,,,,,,,,,,,1.604938273628553,0.9157368000001043,496.4960274,None,ScrollUp,정답입니다,496.4960274,None,496.4960274,None,496.4960274,None,496.4960274,None,497.2789901000001,None,497.2789901000001,497.78901769999993,,,,,,,,,,,,,,,,223,2022-05-24_13h53.46.351,FishGame,2022.1.1,59.977136715457235,
,12,나를 보내줘,6,Orange,A,0,0,ScrollUp,ScrollDown,Orange.png,4,NonTarget,NonTarget,0,0,0,0,,,,,,,,,,,,,,,,,,,,,,,,,0,11,11,11,,,,,,,,,,,,,,,,,,,,,,,,,,,,,,,,,,,,,,,,,,,,,,,,,,,,,,,,,,,,,,,,,,,,,,,,,1.5,1.4477524999997513,498.43902609999986,None,NoResponse,무응답입니다,498.43902609999986,None,498.43902609999986,None,498.43902609999986,None,498.43902609999986,None,499.7627554999999,None,499.7627554999999,500.2717855000001,,,,,,,,,,,,,,,,223,2022-05-24_13h53.46.351,FishGame,2022.1.1,59.977136715457235,
,13,넌 박식해,2,Orange,A,5.625,3.933333333333333,ScrollDown,ScrollUp,Orange.png,4,Positive,Congruent,0,0,0,0,,,,,,,,,,,,,,,,,,,,,,,,,0,12,12,12,,,,,,,,,,,,,,,,,,,,,,,,,,,,,,,,,,,,,,,,,,,,,,,,,,,,,,,,,,,,,,,,,,,,,,,,,1.2376543283462524,1.1598335000003317,500.9327500999998,None,ScrollDown,정답입니다,500.9327500999998,None,500.9327500999998,None,500.9327500999998,None,500.9327500999998,None,501.9548273999999,None,501.9548273999999,502.4548301,,,,,,,,,,,,,,,,223,2022-05-24_13h53.46.351,FishGame,2022.1.1,59.977136715457235,
,14,나를 보내줘,6,Orange,A,0,0,ScrollUp,ScrollDown,Orange.png,4,NonTarget,NonTarget,0,0,0,0,,,,,,,,,,,,,,,,,,,,,,,,,0,13,13,13,,,,,,,,,,,,,,,,,,,,,,,,,,,,,,,,,,,,,,,,,,,,,,,,,,,,,,,,,,,,,,,,,,,,,,,,,2,1.0723535000001903,503.1004403000002,None,ScrollUp,정답입니다,503.1004403000002,None,503.1004403000002,None,503.1004403000002,None,503.1004403000002,None,504.0550309,None,504.0550309,504.55466579999984,,,,,,,,,,,,,,,,223,2022-05-24_13h53.46.351,FishGame,2022.1.1,59.977136715457235,
,15,넌 침착해,1,Green,B,5.458333333333333,5.566666666666666,ScrollUp,ScrollDown,Green.png,4,Positive,Incongruent,0,0,0,0,,,,,,,,,,,,,,,,,,,,,,,,,0,14,14,14,,,,,,,,,,,,,,,,,,,,,,,,,,,,,,,,,,,,,,,,,,,,,,,,,,,,,,,,,,,,,,,,,,,,,,,,,2,1.5142561000002388,505.2070236999998,None,ScrollUp,정답입니다,505.2070236999998,None,505.2070236999998,None,505.2070236999998,None,505.2070236999998,None,506.59300170000006,None,506.59300170000006,507.10435610000013,,,,,,,,,,,,,,,,223,2022-05-24_13h53.46.351,FishGame,2022.1.1,59.977136715457235,
,16,나를 데려가줘,6,Green,B,0,0,ScrollDown,ScrollUp,Green.png,4,NonTarget,NonTarget,0,0,0,0,,,,,,,,,,,,,,,,,,,,,,,,,0,15,15,15,,,,,,,,,,,,,,,,,,,,,,,,,,,,,,,,,,,,,,,,,,,,,,,,,,,,,,,,,,,,,,,,,,,,,,,,,1,1.0038440999996965,507.7512517,None,ScrollDown,정답입니다,507.7512517,None,507.7512517,None,507.7512517,None,507.7512517,None,508.62939890000007,None,508.62939890000007,509.13767259999986,,,,,,,,,,,,,,,,223,2022-05-24_13h53.46.351,FishGame,2022.1.1,59.977136715457235,
,17,넌 행복해,1,Orange,A,6.416666666666666,6.166666666666667,ScrollDown,ScrollUp,Orange.png,4,Positive,Congruent,0,0,0,0,,,,,,,,,,,,,,,,,,,,,,,,,0,16,16,16,,,,,,,,,,,,,,,,,,,,,,,,,,,,,,,,,,,,,,,,,,,,,,,,,,,,,,,,,,,,,,,,,,,,,,,,,1.0138889054457347,0.9588573000000906,509.7977738999998,None,ScrollDown,정답입니다,509.7977738999998,None,509.7977738999998,None,509.7977738999998,None,509.7977738999998,None,510.6206768000002,None,510.6206768000002,511.12040750000006,,,,,,,,,,,,,,,,223,2022-05-24_13h53.46.351,FishGame,2022.1.1,59.977136715457235,
,18,넌 겸손해,2,Green,B,5.791666666666667,4.766666666666667,ScrollUp,ScrollDown,Green.png,4,Positive,Incongruent,0,0,0,0,,,,,,,,,,,,,,,,,,,,,,,,,0,17,17,17,,,,,,,,,,,,,,,,,,,,,,,,,,,,,,,,,,,,,,,,,,,,,,,,,,,,,,,,,,,,,,,,,,,,,,,,,2,1.1500050999998166,511.7725701999998,None,ScrollUp,정답입니다,511.7725701999998,None,511.7725701999998,None,511.7725701999998,None,511.7725701999998,None,512.7925519999999,None,512.7925519999999,513.3034487999998,,,,,,,,,,,,,,,,223,2022-05-24_13h53.46.351,FishGame,2022.1.1,59.977136715457235,
,19,나를 보내줘,6,Orange,A,0,0,ScrollUp,ScrollDown,Orange.png,4,NonTarget,NonTarget,0,0,0,0,,,,,,,,,,,,,,,,,,,,,,,,,0,18,18,18,,,,,,,,,,,,,,,,,,,,,,,,,,,,,,,,,,,,,,,,,,,,,,,,,,,,,,,,,,,,,,,,,,,,,,,,,2,1.0887547000002087,513.9484219000001,None,ScrollUp,정답입니다,513.9484219000001,None,513.9484219000001,None,513.9484219000001,None,513.9484219000001,None,514.9128105999998,None,514.9128105999998,515.4198284999998,,,,,,,,,,,,,,,,223,2022-05-24_13h53.46.351,FishGame,2022.1.1,59.977136715457235,
,20,넌 의심없어,3,Orange,A,4.166666666666667,4.6,ScrollDown,ScrollUp,Orange.png,4,Neutral,Neutral,0,0,0,0,,,,,,,,,,,,,,,,,,,,,,,,,0,19,19,19,,,,,,,,,,,,,,,,,,,,,,,,,,,,,,,,,,,,,,,,,,,,,,,,,,,,,,,,,,,,,,,,,,,,,,,,,1,1.1245874000001095,516.0689467000002,None,ScrollDown,정답입니다,516.0689467000002,None,516.0689467000002,None,516.0689467000002,None,516.0689467000002,None,517.0697543000001,None,517.0697543000001,517.5696214,,,,,,,,,,,,,,,,223,2022-05-24_13h53.46.351,FishGame,2022.1.1,59.977136715457235,
,21,넌 시시해,4,Orange,A,2.666666666666667,2.966666666666667,ScrollDown,ScrollUp,Orange.png,4,Negative,Incongruent,0,0,0,0,,,,,,,,,,,,,,,,,,,,,,,,,0,20,20,20,,,,,,,,,,,,,,,,,,,,,,,,,,,,,,,,,,,,,,,,,,,,,,,,,,,,,,,,,,,,,,,,,,,,,,,,,1,0.9769786000001659,518.2209010000001,None,ScrollDown,정답입니다,518.2209010000001,None,518.2209010000001,None,518.2209010000001,None,518.2209010000001,None,519.0712915999998,None,519.0712915999998,519.5859396999999,,,,,,,,,,,,,,,,223,2022-05-24_13h53.46.351,FishGame,2022.1.1,59.977136715457235,
,22,나를 데려가줘,6,Green,B,0,0,ScrollDown,ScrollUp,Green.png,4,NonTarget,NonTarget,0,0,0,0,,,,,,,,,,,,,,,,,,,,,,,,,0,21,21,21,,,,,,,,,,,,,,,,,,,,,,,,,,,,,,,,,,,,,,,,,,,,,,,,,,,,,,,,,,,,,,,,,,,,,,,,,1.0108024775981903,1.0200995999998668,520.2263211,None,ScrollDown,정답입니다,520.2263211,None,520.2263211,None,520.2263211,None,520.2263211,None,521.1281444000001,None,521.1281444000001,521.6357477000001,,,,,,,,,,,,,,,,223,2022-05-24_13h53.46.351,FishGame,2022.1.1,59.977136715457235,
,23,넌 무정해,5,Orange,A,2.5,2.2,ScrollDown,ScrollUp,Orange.png,4,Negative,Incongruent,0,0,0,0,,,,,,,,,,,,,,,,,,,,,,,,,0,22,22,22,,,,,,,,,,,,,,,,,,,,,,,,,,,,,,,,,,,,,,,,,,,,,,,,,,,,,,,,,,,,,,,,,,,,,,,,,1,0.9418632000001708,522.2843177999998,None,ScrollDown,정답입니다,522.2843177999998,None,522.2843177999998,None,522.2843177999998,None,522.2843177999998,None,523.1022555999998,None,523.1022555999998,523.6021670999999,,,,,,,,,,,,,,,,223,2022-05-24_13h53.46.351,FishGame,2022.1.1,59.977136715457235,
,24,넌 긍정적이야,1,Green,B,6.041666666666667,6.066666666666666,ScrollUp,ScrollDown,Green.png,4,Positive,Incongruent,0,0,0,0,,,,,,,,,,,,,,,,,,,,,,,,,0,23,23,23,,,,,,,,,,,,,,,,,,,,,,,,,,,,,,,,,,,,,,,,,,,,,,,,,,,,,,,,,,,,,,,,,,,,,,,,,2,1.275504600000204,524.2623603000002,None,ScrollUp,정답입니다,524.2623603000002,None,524.2623603000002,None,524.2623603000002,None,524.2623603000002,None,525.4017423,None,525.4017423,525.9018574000002,,,,,,,,,,,,,,,,223,2022-05-24_13h53.46.351,FishGame,2022.1.1,59.977136715457235,
,25,나를 보내줘,6,Orange,A,0,0,ScrollUp,ScrollDown,Orange.png,4,NonTarget,NonTarget,0,0,0,0,,,,,,,,,,,,,,,,,,,,,,,,,0,24,24,24,,,,,,,,,,,,,,,,,,,,,,,,,,,,,,,,,,,,,,,,,,,,,,,,,,,,,,,,,,,,,,,,,,,,,,,,,2,1.1442418000001453,526.5485095999998,None,ScrollUp,정답입니다,526.5485095999998,None,526.5485095999998,None,526.5485095999998,None,526.5485095999998,None,527.5681740999999,None,527.5681740999999,528.0682258000002,,,,,,,,,,,,,,,,223,2022-05-24_13h53.46.351,FishGame,2022.1.1,59.977136715457235,
,26,넌 시기심이 많아,5,Green,B,2.458333333333333,2.233333333333333,ScrollUp,ScrollDown,Green.png,4,Negative,Congruent,0,0,0,0,,,,,,,,,,,,,,,,,,,,,,,,,0,25,25,25,,,,,,,,,,,,,,,,,,,,,,,,,,,,,,,,,,,,,,,,,,,,,,,,,,,,,,,,,,,,,,,,,,,,,,,,,2,1.127090599999974,528.730935,None,ScrollUp,정답입니다,528.730935,None,528.730935,None,528.730935,None,528.730935,None,529.7199657000001,None,529.7199657000001,530.2346050000001,,,,,,,,,,,,,,,,223,2022-05-24_13h53.46.351,FishGame,2022.1.1,59.977136715457235,
,27,넌 탁월해,2,Orange,A,5.708333333333334,4.5,ScrollDown,ScrollUp,Orange.png,4,Positive,Congruent,0,0,0,0,,,,,,,,,,,,,,,,,,,,,,,,,0,26,26,26,,,,,,,,,,,,,,,,,,,,,,,,,,,,,,,,,,,,,,,,,,,,,,,,,,,,,,,,,,,,,,,,,,,,,,,,,1,1.1131651999999121,530.8882439999998,None,ScrollDown,정답입니다,530.8882439999998,None,530.8882439999998,None,530.8882439999998,None,530.8882439999998,None,531.8727232000001,None,531.8727232000001,532.3843333999998,,,,,,,,,,,,,,,,223,2022-05-24_13h53.46.351,FishGame,2022.1.1,59.977136715457235,
,28,나를 데려가줘,6,Green,B,0,0,ScrollDown,ScrollUp,Green.png,4,NonTarget,NonTarget,0,0,0,0,,,,,,,,,,,,,,,,,,,,,,,,,0,27,27,27,,,,,,,,,,,,,,,,,,,,,,,,,,,,,,,,,,,,,,,,,,,,,,,,,,,,,,,,,,,,,,,,,,,,,,,,,1,1.0267595999998775,533.0272362999999,None,ScrollDown,정답입니다,533.0272362999999,None,533.0272362999999,None,533.0272362999999,None,533.0272362999999,None,533.9344861999998,None,533.9344861999998,534.4340831999998,,,,,,,,,,,,,,,,223,2022-05-24_13h53.46.351,FishGame,2022.1.1,59.977136715457235,
,29,넌 조용해,3,Green,B,4.333333333333333,4.166666666666667,ScrollUp,ScrollDown,Green.png,4,Neutral,Neutral,0,0,0,0,,,,,,,,,,,,,,,,,,,,,,,,,0,28,28,28,,,,,,,,,,,,,,,,,,,,,,,,,,,,,,,,,,,,,,,,,,,,,,,,,,,,,,,,,,,,,,,,,,,,,,,,,2,0.9881528000000799,535.0866409999999,None,ScrollUp,정답입니다,535.0866409999999,None,535.0866409999999,None,535.0866409999999,None,535.0866409999999,None,535.9504696999998,None,535.9504696999998,536.4505055999998,,,,,,,,,,,,,,,,223,2022-05-24_13h53.46.351,FishGame,2022.1.1,59.977136715457235,
,30,넌 다정해,1,Orange,A,5.833333333333334,5.7,ScrollDown,ScrollUp,Orange.png,4,Positive,Congruent,0,0,0,0,,,,,,,,,,,,,,,,,,,,,,,,,0,29,29,29,,,,,,,,,,,,,,,,,,,,,,,,,,,,,,,,,,,,,,,,,,,,,,,,,,,,,,,,,,,,,,,,,,,,,,,,,1,1.0928686000002017,537.0991745000001,None,ScrollDown,정답입니다,537.0991745000001,None,537.0991745000001,None,537.0991745000001,None,537.0991745000001,None,538.0671413999999,None,538.0671413999999,538.5668317,,,,,,,,,,,,,,,,223,2022-05-24_13h53.46.351,FishGame,2022.1.1,59.977136715457235,
,31,넌 능력있어,2,Green,B,6.166666666666666,4.6,ScrollUp,ScrollDown,Green.png,4,Positive,Incongruent,0,0,0,0,,,,,,,,,,,,,,,,,,,,,,,,,0,30,30,30,,,,,,,,,,,,,,,,,,,,,,,,,,,,,,,,,,,,,,,,,,,,,,,,,,,,,,,,,,,,,,,,,,,,,,,,,2,1.012359800000013,539.2094683,None,ScrollUp,정답입니다,539.2094683,None,539.2094683,None,539.2094683,None,539.2094683,None,540.1054214000001,None,540.1054214000001,540.6164383,,,,,,,,,,,,,,,,223,2022-05-24_13h53.46.351,FishGame,2022.1.1,59.977136715457235,
,32,넌 불쾌해,5,Orange,A,2.125,1.933333333333333,ScrollDown,ScrollUp,Orange.png,4,Negative,Incongruent,0,0,0,0,,,,,,,,,,,,,,,,,,,,,,,,,0,31,31,31,,,,,,,,,,,,,,,,,,,,,,,,,,,,,,,,,,,,,,,,,,,,,,,,,,,,,,,,,,,,,,,,,,,,,,,,,1,1.0166667000003144,541.2680537000001,None,ScrollDown,정답입니다,541.2680537000001,None,541.2680537000001,None,541.2680537000001,None,541.2680537000001,None,542.1560183000001,None,542.1560183000001,542.6663361000001,,,,,,,,,,,,,,,,223,2022-05-24_13h53.46.351,FishGame,2022.1.1,59.977136715457235,
,33,나를 데려가줘,6,Green,B,0,0,ScrollDown,ScrollUp,Green.png,4,NonTarget,NonTarget,0,0,0,0,,,,,,,,,,,,,,,,,,,,,,,,,0,32,32,32,,,,,,,,,,,,,,,,,,,,,,,,,,,,,,,,,,,,,,,,,,,,,,,,,,,,,,,,,,,,,,,,,,,,,,,,,1,1.062969300000077,543.3095714000001,None,ScrollDown,정답입니다,543.3095714000001,None,543.3095714000001,None,543.3095714000001,None,543.3095714000001,None,544.2550747,None,544.2550747,544.7660615,,,,,,,,,,,,,,,,223,2022-05-24_13h53.46.351,FishGame,2022.1.1,59.977136715457235,
,34,넌 유순해,3,Orange,A,4.458333333333333,5,ScrollDown,ScrollUp,Orange.png,4,Neutral,Neutral,0,0,0,0,,,,,,,,,,,,,,,,,,,,,,,,,0,33,33,33,,,,,,,,,,,,,,,,,,,,,,,,,,,,,,,,,,,,,,,,,,,,,,,,,,,,,,,,,,,,,,,,,,,,,,,,,1,1.073092600000109,545.4170645999998,None,ScrollDown,정답입니다,545.4170645999998,None,545.4170645999998,None,545.4170645999998,None,545.4170645999998,None,546.3661320000001,None,546.3661320000001,546.8657893,,,,,,,,,,,,,,,,223,2022-05-24_13h53.46.351,FishGame,2022.1.1,59.977136715457235,
,35,넌 근심스러워,4,Green,B,2.708333333333333,3.133333333333333,ScrollUp,ScrollDown,Green.png,4,Negative,Congruent,0,0,0,0,,,,,,,,,,,,,,,,,,,,,,,,,0,34,34,34,,,,,,,,,,,,,,,,,,,,,,,,,,,,,,,,,,,,,,,,,,,,,,,,,,,,,,,,,,,,,,,,,,,,,,,,,2,1.0438704000002872,547.5138238999998,None,ScrollUp,정답입니다,547.5138238999998,None,547.5138238999998,None,547.5138238999998,None,547.5138238999998,None,548.4322455000001,None,548.4322455000001,548.9322218000002,,,,,,,,,,,,,,,,223,2022-05-24_13h53.46.351,FishGame,2022.1.1,59.977136715457235,
,36,넌 세련되었어,2,Orange,A,5.5,4.6,ScrollDown,ScrollUp,Orange.png,4,Positive,Congruent,0,0,0,0,,,,,,,,,,,,,,,,,,,,,,,,,0,35,35,35,,,,,,,,,,,,,,,,,,,,,,,,,,,,,,,,,,,,,,,,,,,,,,,,,,,,,,,,,,,,,,,,,,,,,,,,,1,1.1492708000000675,549.5998260000001,None,ScrollDown,정답입니다,549.5998260000001,None,549.5998260000001,None,549.5998260000001,None,549.5998260000001,None,550.6042628999999,None,550.6042628999999,551.1152599000002,,,,,,,,,,,,,,,,223,2022-05-24_13h53.46.351,FishGame,2022.1.1,59.977136715457235,
,37,나를 보내줘,6,Orange,A,0,0,ScrollUp,ScrollDown,Orange.png,4,NonTarget,NonTarget,0,0,0,0,,,,,,,,,,,,,,,,,,,,,,,,,0,36,36,36,,,,,,,,,,,,,,,,,,,,,,,,,,,,,,,,,,,,,,,,,,,,,,,,,,,,,,,,,,,,,,,,,,,,,,,,,2,1.1113428999997268,551.7719874999998,None,ScrollUp,정답입니다,551.7719874999998,None,551.7719874999998,None,551.7719874999998,None,551.7719874999998,None,552.7520029000002,None,552.7520029000002,553.2649649999998,,,,,,,,,,,,,,,,223,2022-05-24_13h53.46.351,FishGame,2022.1.1,59.977136715457235,
,38,넌 확고해,3,Green,B,4.708333333333334,4.566666666666666,ScrollUp,ScrollDown,Green.png,4,Neutral,Neutral,0,0,0,0,,,,,,,,,,,,,,,,,,,,,,,,,0,37,37,37,,,,,,,,,,,,,,,,,,,,,,,,,,,,,,,,,,,,,,,,,,,,,,,,,,,,,,,,,,,,,,,,,,,,,,,,,2,1.0665337000000363,553.9130556999999,None,ScrollUp,정답입니다,553.9130556999999,None,553.9130556999999,None,553.9130556999999,None,553.9130556999999,None,554.8542364999998,None,554.8542364999998,555.3646821000002,,,,,,,,,,,,,,,,223,2022-05-24_13h53.46.351,FishGame,2022.1.1,59.977136715457235,
,39,넌 이해심이 많아,1,Green,B,6.041666666666668,5.533333333333333,ScrollUp,ScrollDown,Green.png,4,Positive,Incongruent,0,0,0,0,,,,,,,,,,,,,,,,,,,,,,,,,0,38,38,38,,,,,,,,,,,,,,,,,,,,,,,,,,,,,,,,,,,,,,,,,,,,,,,,,,,,,,,,,,,,,,,,,,,,,,,,,2,1.0221214999996846,556.0171326,None,ScrollUp,정답입니다,556.0171326,None,556.0171326,None,556.0171326,None,556.0171326,None,556.9146936000002,None,556.9146936000002,557.4146884000002,,,,,,,,,,,,,,,,223,2022-05-24_13h53.46.351,FishGame,2022.1.1,59.977136715457235,
,40,나를 보내줘,6,Orange,A,0,0,ScrollUp,ScrollDown,Orange.png,4,NonTarget,NonTarget,0,0,0,0,,,,,,,,,,,,,,,,,,,,,,,,,0,39,39,39,,,,,,,,,,,,,,,,,,,,,,,,,,,,,,,,,,,,,,,,,,,,,,,,,,,,,,,,,,,,,,,,,,,,,,,,,2,1.2510776000003716,558.0674597000002,None,ScrollUp,정답입니다,558.0674597000002,None,558.0674597000002,None,558.0674597000002,None,558.0674597000002,None,559.1867195,None,559.1867195,559.6974617999999,,,,,,,,,,,,,,,,223,2022-05-24_13h53.46.351,FishGame,2022.1.1,59.977136715457235,
,41,넌 거칠어,4,Orange,A,2.625,3.033333333333333,ScrollDown,ScrollUp,Orange.png,4,Negative,Incongruent,0,0,0,0,,,,,,,,,,,,,,,,,,,,,,,,,0,40,40,40,,,,,,,,,,,,,,,,,,,,,,,,,,,,,,,,,,,,,,,,,,,,,,,,,,,,,,,,,,,,,,,,,,,,,,,,,1,1.056441900000209,560.3507485,None,ScrollDown,정답입니다,560.3507485,None,560.3507485,None,560.3507485,None,560.3507485,None,561.2810009,None,561.2810009,561.7805403000002,,,,,,,,,,,,,,,,223,2022-05-24_13h53.46.351,FishGame,2022.1.1,59.977136715457235,
,42,넌 변덕맞아,5,Green,B,2.75,2.166666666666667,ScrollUp,ScrollDown,Green.png,4,Negative,Congruent,0,0,0,0,,,,,,,,,,,,,,,,,,,,,,,,,0,41,41,41,,,,,,,,,,,,,,,,,,,,,,,,,,,,,,,,,,,,,,,,,,,,,,,,,,,,,,,,,,,,,,,,,,,,,,,,,2,0.9541189999999915,562.4381561,None,ScrollUp,정답입니다,562.4381561,None,562.4381561,None,562.4381561,None,562.4381561,None,563.2559439000001,None,563.2559439000001,563.7635928999998,,,,,,,,,,,,,,,,223,2022-05-24_13h53.46.351,FishGame,2022.1.1,59.977136715457235,
,43,나를 데려가줘,6,Green,B,0,0,ScrollDown,ScrollUp,Green.png,4,NonTarget,NonTarget,0,0,0,0,,,,,,,,,,,,,,,,,,,,,,,,,0,42,42,42,,,,,,,,,,,,,,,,,,,,,,,,,,,,,,,,,,,,,,,,,,,,,,,,,,,,,,,,,,,,,,,,,,,,,,,,,1,1.1064719000000878,564.4041597999999,None,ScrollDown,정답입니다,564.4041597999999,None,564.4041597999999,None,564.4041597999999,None,564.4041597999999,None,565.3968614,None,565.3968614,565.8967149,,,,,,,,,,,,,,,,223,2022-05-24_13h53.46.351,FishGame,2022.1.1,59.977136715457235,
,44,넌 외로워,4,Green,B,2.833333333333333,3.3,ScrollUp,ScrollDown,Green.png,4,Negative,Congruent,0,0,0,0,,,,,,,,,,,,,,,,,,,,,,,,,0,43,43,43,,,,,,,,,,,,,,,,,,,,,,,,,,,,,,,,,,,,,,,,,,,,,,,,,,,,,,,,,,,,,,,,,,,,,,,,,2,1.0779069000000163,566.5424656999999,None,ScrollUp,정답입니다,566.5424656999999,None,566.5424656999999,None,566.5424656999999,None,566.5424656999999,None,567.4993696000001,None,567.4993696000001,568.0130020000001,,,,,,,,,,,,,,,,223,2022-05-24_13h53.46.351,FishGame,2022.1.1,59.977136715457235,
,1,넌 불평스러워,5,Orange,A,2.25,2.066666666666667,ScrollDown,ScrollUp,Orange.png,5,Negative,Incongruent,0,0,0,0,,,,,,,,,,,,,,,,,,,,,,,,,,,,,0,0,0,0,,,,,,,,,,,,,,,,,,,,,,,,,,,,601.9088293,603.4084969,603.4418046000001,604.3917022999999,604.4417488999998,605.3915338000002,605.3915338000002,None,,,,,,,,,,,,,,,,,,,,,,,,,,,,,,,,,,1,1.2073436000000584,606.5788459999999,None,ScrollDown,정답입니다,606.5788459999999,None,606.5788459999999,None,606.5788459999999,None,606.5788459999999,None,607.6153318000001,None,607.6153318000001,608.1245650000001,568.5129950999999,None,568.5129950999999,None,0.12314815,-0.09907407,1,0,0,0.016250240000317717,None,598.5091736999998,None,,,223,2022-05-24_13h53.46.351,FishGame,2022.1.1,59.977136715457235,
,2,나를 보내줘,6,Orange,A,0,0,ScrollUp,ScrollDown,Orange.png,5,NonTarget,NonTarget,0,0,0,0,,,,,,,,,,,,,,,,,,,,,,,,,,,,,0,1,1,1,,,,,,,,,,,,,,,,,,,,,,,,,,,,,,,,,,,,,,,,,,,,,,,,,,,,,,,,,,,,,,,,,,,,,2,1.043486699999903,608.7765439,None,ScrollUp,정답입니다,608.7765439,None,608.7765439,None,608.7765439,None,608.7765439,None,609.6942029000002,None,609.6942029000002,610.2076207,,,,,,,,,,,,,,,,223,2022-05-24_13h53.46.351,FishGame,2022.1.1,59.977136715457235,
,3,넌 다재다능해,2,Green,B,6.208333333333333,4.5,ScrollUp,ScrollDown,Green.png,5,Positive,Incongruent,0,0,0,0,,,,,,,,,,,,,,,,,,,,,,,,,,,,,0,2,2,2,,,,,,,,,,,,,,,,,,,,,,,,,,,,,,,,,,,,,,,,,,,,,,,,,,,,,,,,,,,,,,,,,,,,,2,1.1441372999997839,610.8510833999999,None,ScrollUp,정답입니다,610.8510833999999,None,610.8510833999999,None,610.8510833999999,None,610.8510833999999,None,611.8741282000001,None,611.8741282000001,612.3740865,,,,,,,,,,,,,,,,223,2022-05-24_13h53.46.351,FishGame,2022.1.1,59.977136715457235,
,4,넌 과감해,3,Orange,A,4.833333333333334,4.6,ScrollDown,ScrollUp,Orange.png,5,Neutral,Neutral,0,0,0,0,,,,,,,,,,,,,,,,,,,,,,,,,,,,,0,3,3,3,,,,,,,,,,,,,,,,,,,,,,,,,,,,,,,,,,,,,,,,,,,,,,,,,,,,,,,,,,,,,,,,,,,,,1.1682098756233852,0.8243601000003764,613.0297801000002,None,ScrollDown,정답입니다,613.0297801000002,None,613.0297801000002,None,613.0297801000002,None,613.0297801000002,None,613.7259946999998,None,613.7259946999998,614.240507,,,,,,,,,,,,,,,,223,2022-05-24_13h53.46.351,FishGame,2022.1.1,59.977136715457235,
,5,넌 고분고분해,3,Green,B,3.75,4.033333333333333,ScrollUp,ScrollDown,Green.png,5,Neutral,Neutral,0,0,0,0,,,,,,,,,,,,,,,,,,,,,,,,,,,,,0,4,4,4,,,,,,,,,,,,,,,,,,,,,,,,,,,,,,,,,,,,,,,,,,,,,,,,,,,,,,,,,,,,,,,,,,,,,2,0.913432400000147,614.8903458999998,None,ScrollUp,정답입니다,614.8903458999998,None,614.8903458999998,None,614.8903458999998,None,614.8903458999998,None,615.6788154999999,None,615.6788154999999,616.1902948000002,,,,,,,,,,,,,,,,223,2022-05-24_13h53.46.351,FishGame,2022.1.1,59.977136715457235,
,6,나를 보내줘,6,Orange,A,0,0,ScrollUp,ScrollDown,Orange.png,5,NonTarget,NonTarget,0,0,0,0,,,,,,,,,,,,,,,,,,,,,,,,,,,,,0,5,5,5,,,,,,,,,,,,,,,,,,,,,,,,,,,,,,,,,,,,,,,,,,,,,,,,,,,,,,,,,,,,,,,,,,,,,2,1.032764699999916,616.8369091,None,ScrollUp,정답입니다,616.8369091,None,616.8369091,None,616.8369091,None,616.8369091,None,617.7459174,None,617.7459174,618.256597,,,,,,,,,,,,,,,,223,2022-05-24_13h53.46.351,FishGame,2022.1.1,59.977136715457235,
,7,넌 잘 잊어,4,Orange,A,3,3.7,ScrollDown,ScrollUp,Orange.png,5,Negative,Incongruent,0,0,0,0,,,,,,,,,,,,,,,,,,,,,,,,,,,,,0,6,6,6,,,,,,,,,,,,,,,,,,,,,,,,,,,,,,,,,,,,,,,,,,,,,,,,,,,,,,,,,,,,,,,,,,,,,1.0370370149612427,0.94062810000014,618.9161245999999,None,ScrollDown,정답입니다,618.9161245999999,None,618.9161245999999,None,618.9161245999999,None,618.9161245999999,None,619.7230104999999,None,619.7230104999999,620.2228713999998,,,,,,,,,,,,,,,,223,2022-05-24_13h53.46.351,FishGame,2022.1.1,59.977136715457235,
,8,넌 탐구심이없어,4,Green,B,2.833333333333333,3.066666666666667,ScrollUp,ScrollDown,Green.png,5,Negative,Congruent,0,0,0,0,,,,,,,,,,,,,,,,,,,,,,,,,,,,,0,7,7,7,,,,,,,,,,,,,,,,,,,,,,,,,,,,,,,,,,,,,,,,,,,,,,,,,,,,,,,,,,,,,,,,,,,,,2,0.8214349999998376,620.8739214000002,None,ScrollUp,정답입니다,620.8739214000002,None,620.8739214000002,None,620.8739214000002,None,620.8739214000002,None,621.5728052999998,None,621.5728052999998,622.0727699999998,,,,,,,,,,,,,,,,223,2022-05-24_13h53.46.351,FishGame,2022.1.1,59.977136715457235,
,9,나를 데려가줘,6,Green,B,0,0,ScrollDown,ScrollUp,Green.png,5,NonTarget,NonTarget,0,0,0,0,,,,,,,,,,,,,,,,,,,,,,,,,,,,,0,8,8,8,,,,,,,,,,,,,,,,,,,,,,,,,,,,,,,,,,,,,,,,,,,,,,,,,,,,,,,,,,,,,,,,,,,,,1,1.4730155000002014,622.7213714999998,None,ScrollDown,정답입니다,622.7213714999998,None,622.7213714999998,None,622.7213714999998,None,622.7213714999998,None,624.0729680999998,None,624.0729680999998,624.5725232999998,,,,,,,,,,,,,,,,223,2022-05-24_13h53.46.351,FishGame,2022.1.1,59.977136715457235,
,10,넌 참되어,2,Orange,A,6.041666666666664,4.733333333333333,ScrollDown,ScrollUp,Orange.png,5,Positive,Congruent,0,0,0,0,,,,,,,,,,,,,,,,,,,,,,,,,,,,,0,9,9,9,,,,,,,,,,,,,,,,,,,,,,,,,,,,,,,,,,,,,,,,,,,,,,,,,,,,,,,,,,,,,,,,,,,,,1,0.9912335999997595,625.2241902999999,None,ScrollDown,정답입니다,625.2241902999999,None,625.2241902999999,None,625.2241902999999,None,625.2241902999999,None,626.0888531999999,None,626.0888531999999,626.5888206,,,,,,,,,,,,,,,,223,2022-05-24_13h53.46.351,FishGame,2022.1.1,59.977136715457235,
,11,넌 생기있어,1,Green,B,5.875,5.633333333333334,ScrollUp,ScrollDown,Green.png,5,Positive,Incongruent,0,0,0,0,,,,,,,,,,,,,,,,,,,,,,,,,,,,,0,10,10,10,,,,,,,,,,,,,,,,,,,,,,,,,,,,,,,,,,,,,,,,,,,,,,,,,,,,,,,,,,,,,,,,,,,,,2,1.0458190999997896,627.2385484000001,None,ScrollUp,정답입니다,627.2385484000001,None,627.2385484000001,None,627.2385484000001,None,627.2385484000001,None,628.1591444000001,None,628.1591444000001,628.6719226,,,,,,,,,,,,,,,,223,2022-05-24_13h53.46.351,FishGame,2022.1.1,59.977136715457235,
,12,넌 비사교적이야,4,Green,B,2.875,2.9,ScrollUp,ScrollDown,Green.png,5,Negative,Congruent,0,0,0,0,,,,,,,,,,,,,,,,,,,,,,,,,,,,,0,11,11,11,,,,,,,,,,,,,,,,,,,,,,,,,,,,,,,,,,,,,,,,,,,,,,,,,,,,,,,,,,,,,,,,,,,,,1.7762345721324284,0.9925080000002708,629.3820172000001,None,ScrollUp,정답입니다,629.3820172000001,None,629.3820172000001,None,629.3820172000001,None,629.3820172000001,None,630.1885690999998,None,630.1885690999998,630.6883189,,,,,,,,,,,,,,,,223,2022-05-24_13h53.46.351,FishGame,2022.1.1,59.977136715457235,
,13,나를 데려가줘,6,Green,B,0,0,ScrollDown,ScrollUp,Green.png,5,NonTarget,NonTarget,0,0,0,0,,,,,,,,,,,,,,,,,,,,,,,,,,,,,0,12,12,12,,,,,,,,,,,,,,,,,,,,,,,,,,,,,,,,,,,,,,,,,,,,,,,,,,,,,,,,,,,,,,,,,,,,,1,1.2954838000000564,631.3301494000002,None,ScrollDown,정답입니다,631.3301494000002,None,631.3301494000002,None,631.3301494000002,None,631.3301494000002,None,632.5084057999998,None,632.5084057999998,633.0214464999999,,,,,,,,,,,,,,,,223,2022-05-24_13h53.46.351,FishGame,2022.1.1,59.977136715457235,
,14,넌 고독해,4,Orange,A,2.916666666666667,3.233333333333333,ScrollDown,ScrollUp,Orange.png,5,Negative,Incongruent,0,0,0,0,,,,,,,,,,,,,,,,,,,,,,,,,,,,,0,13,13,13,,,,,,,,,,,,,,,,,,,,,,,,,,,,,,,,,,,,,,,,,,,,,,,,,,,,,,,,,,,,,,,,,,,,,1,1.098511800000324,633.6714016999999,None,ScrollDown,정답입니다,633.6714016999999,None,633.6714016999999,None,633.6714016999999,None,633.6714016999999,None,634.6450043999998,None,634.6450043999998,635.1544462000002,,,,,,,,,,,,,,,,223,2022-05-24_13h53.46.351,FishGame,2022.1.1,59.977136715457235,
,15,넌 신경질적이야,5,Green,B,2.375,2.233333333333333,ScrollUp,ScrollDown,Green.png,5,Negative,Congruent,0,0,0,0,,,,,,,,,,,,,,,,,,,,,,,,,,,,,0,14,14,14,,,,,,,,,,,,,,,,,,,,,,,,,,,,,,,,,,,,,,,,,,,,,,,,,,,,,,,,,,,,,,,,,,,,,1.8518518557151158,1.0008425000000898,635.8092832000002,None,ScrollUp,정답입니다,635.8092832000002,None,635.8092832000002,None,635.8092832000002,None,635.8092832000002,None,636.6778207000002,None,636.6778207000002,637.1874816,,,,,,,,,,,,,,,,223,2022-05-24_13h53.46.351,FishGame,2022.1.1,59.977136715457235,
,16,넌 똑똑해,2,Green,B,5.666666666666667,3.966666666666667,ScrollUp,ScrollDown,Green.png,5,Positive,Incongruent,0,0,0,0,,,,,,,,,,,,,,,,,,,,,,,,,,,,,0,15,15,15,,,,,,,,,,,,,,,,,,,,,,,,,,,,,,,,,,,,,,,,,,,,,,,,,,,,,,,,,,,,,,,,,,,,,1.9907407363255818,1.1589116999998623,637.8403923999999,None,ScrollUp,정답입니다,637.8403923999999,None,637.8403923999999,None,637.8403923999999,None,637.8403923999999,None,638.8709948000001,None,638.8709948000001,639.3705869,,,,,,,,,,,,,,,,223,2022-05-24_13h53.46.351,FishGame,2022.1.1,59.977136715457235,
,17,나를 보내줘,6,Orange,A,0,0,ScrollUp,ScrollDown,Orange.png,5,NonTarget,NonTarget,0,0,0,0,,,,,,,,,,,,,,,,,,,,,,,,,,,,,0,16,16,16,,,,,,,,,,,,,,,,,,,,,,,,,,,,,,,,,,,,,,,,,,,,,,,,,,,,,,,,,,,,,,,,,,,,,2,1.4057324000000335,640.0272264,None,ScrollUp,정답입니다,640.0272264,None,640.0272264,None,640.0272264,None,640.0272264,None,641.3035783999999,None,641.3035783999999,641.8035543999999,,,,,,,,,,,,,,,,223,2022-05-24_13h53.46.351,FishGame,2022.1.1,59.977136715457235,
,18,넌 협조적이야,1,Orange,A,5.625,5.666666666666667,ScrollDown,ScrollUp,Orange.png,5,Positive,Congruent,0,0,0,0,,,,,,,,,,,,,,,,,,,,,,,,,,,,,0,17,17,17,,,,,,,,,,,,,,,,,,,,,,,,,,,,,,,,,,,,,,,,,,,,,,,,,,,,,,,,,,,,,,,,,,,,,1.1867283930381138,1.1387163999997938,642.4506658999999,None,ScrollDown,정답입니다,642.4506658999999,None,642.4506658999999,None,642.4506658999999,None,642.4506658999999,None,643.4699257000002,None,643.4699257000002,643.9699445000001,,,,,,,,,,,,,,,,223,2022-05-24_13h53.46.351,FishGame,2022.1.1,59.977136715457235,
,19,나를 데려가줘,6,Green,B,0,0,ScrollDown,ScrollUp,Green.png,5,NonTarget,NonTarget,0,0,0,0,,,,,,,,,,,,,,,,,,,,,,,,,,,,,0,18,18,18,,,,,,,,,,,,,,,,,,,,,,,,,,,,,,,,,,,,,,,,,,,,,,,,,,,,,,,,,,,,,,,,,,,,,1.060185174147288,1.0479635000001508,644.6150701000001,None,ScrollDown,정답입니다,644.6150701000001,None,644.6150701000001,None,644.6150701000001,None,644.6150701000001,None,645.5428358999998,None,645.5428358999998,646.0530358000001,,,,,,,,,,,,,,,,223,2022-05-24_13h53.46.351,FishGame,2022.1.1,59.977136715457235,
,20,넌 몰인정해,5,Green,B,2.541666666666667,2.066666666666667,ScrollUp,ScrollDown,Green.png,5,Negative,Congruent,0,0,0,0,,,,,,,,,,,,,,,,,,,,,,,,,,,,,0,19,19,19,,,,,,,,,,,,,,,,,,,,,,,,,,,,,,,,,,,,,,,,,,,,,,,,,,,,,,,,,,,,,,,,,,,,,1.7638888855775197,1.1324328999999125,646.7101984000001,None,ScrollUp,정답입니다,646.7101984000001,None,646.7101984000001,None,646.7101984000001,None,646.7101984000001,None,647.7101336000001,None,647.7101336000001,648.2194086,,,,,,,,,,,,,,,,223,2022-05-24_13h53.46.351,FishGame,2022.1.1,59.977136715457235,
,21,나를 데려가줘,6,Green,B,0,0,ScrollDown,ScrollUp,Green.png,5,NonTarget,NonTarget,0,0,0,0,,,,,,,,,,,,,,,,,,,,,,,,,,,,,0,20,20,20,,,,,,,,,,,,,,,,,,,,,,,,,,,,,,,,,,,,,,,,,,,,,,,,,,,,,,,,,,,,,,,,,,,,,1.214506169160207,0.9318806999999651,648.8592927999998,None,ScrollDown,정답입니다,648.8592927999998,None,648.8592927999998,None,648.8592927999998,None,648.8592927999998,None,649.6749294000001,None,649.6749294000001,650.1859773000001,,,,,,,,,,,,,,,,223,2022-05-24_13h53.46.351,FishGame,2022.1.1,59.977136715457235,
,22,넌 순진해,3,Green,B,4.125,4.166666666666667,ScrollUp,ScrollDown,Green.png,5,Neutral,Neutral,0,0,0,0,,,,,,,,,,,,,,,,,,,,,,,,,,,,,0,21,21,21,,,,,,,,,,,,,,,,,,,,,,,,,,,,,,,,,,,,,,,,,,,,,,,,,,,,,,,,,,,,,,,,,,,,,1.9938271641731262,0.9581916000001911,650.8256995000002,None,ScrollUp,정답입니다,650.8256995000002,None,650.8256995000002,None,650.8256995000002,None,650.8256995000002,None,651.6687815,None,651.6687815,652.1689209000001,,,,,,,,,,,,,,,,223,2022-05-24_13h53.46.351,FishGame,2022.1.1,59.977136715457235,
,23,넌 신뢰할만해,1,Orange,A,6.625,5.533333333333333,ScrollDown,ScrollUp,Orange.png,5,Positive,Congruent,0,0,0,0,,,,,,,,,,,,,,,,,,,,,,,,,,,,,0,22,22,22,,,,,,,,,,,,,,,,,,,,,,,,,,,,,,,,,,,,,,,,,,,,,,,,,,,,,,,,,,,,,,,,,,,,,1.0154321193695068,0.9182412999998633,652.8388218999999,None,ScrollDown,정답입니다,652.8388218999999,None,652.8388218999999,None,652.8388218999999,None,652.8388218999999,None,653.618594,None,653.618594,654.1187243999998,,,,,,,,,,,,,,,,223,2022-05-24_13h53.46.351,FishGame,2022.1.1,59.977136715457235,
,24,나를 보내줘,6,Orange,A,0,0,ScrollUp,ScrollDown,Orange.png,5,NonTarget,NonTarget,0,0,0,0,,,,,,,,,,,,,,,,,,,,,,,,,,,,,0,23,23,23,,,,,,,,,,,,,,,,,,,,,,,,,,,,,,,,,,,,,,,,,,,,,,,,,,,,,,,,,,,,,,,,,,,,,1.9768518606821697,1.264240499999687,654.7697090000001,None,ScrollUp,정답입니다,654.7697090000001,None,654.7697090000001,None,654.7697090000001,None,654.7697090000001,None,655.9065495,None,655.9065495,656.4183358,,,,,,,,,,,,,,,,223,2022-05-24_13h53.46.351,FishGame,2022.1.1,59.977136715457235,
,25,넌 인색해,5,Orange,A,2.625,2.233333333333333,ScrollDown,ScrollUp,Orange.png,5,Negative,Incongruent,0,0,0,0,,,,,,,,,,,,,,,,,,,,,,,,,,,,,0,24,24,24,,,,,,,,,,,,,,,,,,,,,,,,,,,,,,,,,,,,,,,,,,,,,,,,,,,,,,,,,,,,,,,,,,,,,1,1.6556332000000111,657.0780918999999,None,ScrollDown,정답입니다,657.0780918999999,None,657.0780918999999,None,657.0780918999999,None,657.0780918999999,None,658.6015508999999,None,658.6015508999999,659.1013806999999,,,,,,,,,,,,,,,,223,2022-05-24_13h53.46.351,FishGame,2022.1.1,59.977136715457235,
,26,넌 유쾌해,1,Green,B,5.833333333333333,5.766666666666667,ScrollUp,ScrollDown,Green.png,5,Positive,Incongruent,0,0,0,0,,,,,,,,,,,,,,,,,,,,,,,,,,,,,0,25,25,25,,,,,,,,,,,,,,,,,,,,,,,,,,,,,,,,,,,,,,,,,,,,,,,,,,,,,,,,,,,,,,,,,,,,,2,1.1758574999998928,659.7403496000002,None,ScrollUp,정답입니다,659.7403496000002,None,659.7403496000002,None,659.7403496000002,None,659.7403496000002,None,660.8016748999999,None,660.8016748999999,661.3011195999998,,,,,,,,,,,,,,,,223,2022-05-24_13h53.46.351,FishGame,2022.1.1,59.977136715457235,
