name,TrialNum,Word,WordCategory,FishType,WordList,WordValence,WordReputation,CorrectResp,IncorrectResp,FishTypeFile,Round,WordType,Condition,LoopforOrange.thisRepN,LoopforOrange.thisTrialN,LoopforOrange.thisN,LoopforOrange.thisIndex,LoopForGreen.thisRepN,LoopForGreen.thisTrialN,LoopForGreen.thisN,LoopForGreen.thisIndex,GreenInstLoop.thisRepN,GreenInstLoop.thisTrialN,GreenInstLoop.thisN,GreenInstLoop.thisIndex,GreenPrac.thisRepN,GreenPrac.thisTrialN,GreenPrac.thisN,GreenPrac.thisIndex,trials_2.thisRepN,trials_2.thisTrialN,trials_2.thisN,trials_2.thisIndex,GreenRound1.thisRepN,GreenRound1.thisTrialN,GreenRound1.thisN,GreenRound1.thisIndex,GreenRound2.thisRepN,GreenRound2.thisTrialN,GreenRound2.thisN,GreenRound2.thisIndex,GreenRound3.thisRepN,GreenRound3.thisTrialN,GreenRound3.thisN,GreenRound3.thisIndex,GreenRound4.thisRepN,GreenRound4.thisTrialN,GreenRound4.thisN,GreenRound4.thisIndex,GreenRound5.thisRepN,GreenRound5.thisTrialN,GreenRound5.thisN,GreenRound5.thisIndex,text_2.started,text_2.stopped,text_3.started,text_3.stopped,key_resp.keys,key_resp.rt,key_resp.started,key_resp.stopped,PassI.started,PassI.stopped,PassInst.keys,PassInst.rt,PassInst.started,PassInst.stopped,mouse_2.x,mouse_2.y,mouse_2.leftButton,mouse_2.midButton,mouse_2.rightButton,mouse_2.started,mouse_2.stopped,image.started,image.stopped,text_5.started,text_5.stopped,text_6.started,text_6.stopped,text_7.started,text_7.stopped,text_8.started,text_8.stopped,slider_3.response,slider_3.rt,slider_3.started,slider_3.stopped,Response_3,Feedback_3,BackGround_3.started,BackGround_3.stopped,Fish_3.started,Fish_3.stopped,WordBox_3.started,WordBox_3.stopped,Words_3.started,Words_3.stopped,BackGround_Feedback_3.started,BackGround_Feedback_3.stopped,Feedbacks_3.started,Feedbacks_3.stopped,Continue_or_not_2.keys,Continue_or_not_2.rt,Continue_or_not_2.started,Continue_or_not_2.stopped,image_4.started,image_4.stopped,mouse_3.x,mouse_3.y,mouse_3.leftButton,mouse_3.midButton,mouse_3.rightButton,mouse_3.started,mouse_3.stopped,startmain.started,startmain.stopped,slider_4.response,slider_4.rt,slider_4.started,slider_4.stopped,Response_4,Feedback_4,BackGround_4.started,BackGround_4.stopped,Fish_4.started,Fish_4.stopped,WordBox_4.started,WordBox_4.stopped,Words_4.started,Words_4.stopped,BackGround_Feedback_4.started,BackGround_Feedback_4.stopped,Feedbacks_4.started,Feedbacks_4.stopped,text.started,text.stopped,break_interval.started,break_interval.stopped,mouse.x,mouse.y,mouse.leftButton,mouse.midButton,mouse.rightButton,mouse.started,mouse.stopped,stratnextround.started,stratnextround.stopped,endgame.started,endgame.stopped,participant,date,expName,psychopyVersion,frameRate,
,,,,,,,,,,,,,,,,,,,,,,,,,,,,,,,,,,,,,,,,,,,,,,,,,,,,,,18.959221699999944,None,18.959221699999944,None,space,2.3600154000005205,19.448751199999606,None,,,,,,,,,,,,,,,,,,,,,,,,,,,,,,,,,,,,,,,,,,,,,,,,,,,,,,,,,,,,,,,,,,,,,,,,,,,,,,,,,,,,,,,,,,224,2022-05-25_11h01.25.187,FishGame,2022.1.1,60.01230252197912,
물고기과제_instruction(참가자용)GreenVersion.mp4,,,,,,,,,,,,,,,,,,0,0,0,0,0,0,0,0,,,,,,,,,,,,,,,,,,,,,,,,,,,,,,,,,,,,,89.17937649999976,None,n,4.562028300000293,89.17937649999976,None,,,,,,,,,,,,,,,,,,,,,,,,,,,,,,,,,,,,,,,,,,,,,,,,,,,,,,,,,,,,,,,,,,,,,,,,,,,,,,,,,,,,224,2022-05-25_11h01.25.187,FishGame,2022.1.1,60.01230252197912,
,1,넌 교활해,5,Orange,B,2.333333333333333,2.133333333333333,ScrollUp,ScrollDown,Orange.png,practice,,,,,,,0,0,0,0,,,,,0,0,0,0,0,0,0,0,,,,,,,,,,,,,,,,,,,,,,,,,,,,,,,,,,,0.060185187,-0.07777778,1,0,0,0.5135271300005115,None,93.77253099999962,None,96.50560899999982,98.00542479999967,98.03860940000004,98.98855299999968,99.03849519999994,99.98832949999996,99.98832949999996,None,1.839506169160207,1.2616368999997576,101.19677060000004,None,ScrollUp,정답입니다,101.19677060000004,None,101.19677060000004,None,101.19677060000004,None,101.19677060000004,None,102.2622965999999,None,102.2622965999999,102.77121009999973,,,,,,,,,,,,,,,,,,,,,,,,,,,,,,,,,,,,,,,,,,,,,,,,,224,2022-05-25_11h01.25.187,FishGame,2022.1.1,60.01230252197912,
,2,넌 슬기로워,2,Green,A,6.166666666666667,4.1,ScrollDown,ScrollUp,Green.png,practice,,,,,,,0,0,0,0,,,,,0,0,0,0,0,1,1,1,,,,,,,,,,,,,,,,,,,,,,,,,,,,,,,,,,,,,,,,,,,,,,,,,,,,1.336419758697351,0.9865710000003673,103.43543699999964,None,ScrollDown,정답입니다,103.43543699999964,None,103.43543699999964,None,103.43543699999964,None,103.43543699999964,None,104.28051129999994,None,104.28051129999994,104.78781639999988,,,,,,,,,,,,,,,,,,,,,,,,,,,,,,,,,,,,,,,,,,,,,,,,,224,2022-05-25_11h01.25.187,FishGame,2022.1.1,60.01230252197912,
,3,나를 보내줘,6,Green,A,0,0,ScrollUp,ScrollDown,Green.png,practice,,,,,,,0,0,0,0,,,,,0,0,0,0,0,2,2,2,,,,,,,,,,,,,,,,,,,,,,,,,,,,,,,,,,,,,,,,,,,,,,,,,,,,1.7716049303611119,1.0713212000000567,105.44241109999984,None,ScrollUp,정답입니다,105.44241109999984,None,105.44241109999984,None,105.44241109999984,None,105.44241109999984,None,106.38058139999976,None,106.38058139999976,106.88737599999968,,,,,,,,,,,,,,,,,,,,,,,,,,,,,,,,,,,,,,,,,,,,,,,,,224,2022-05-25_11h01.25.187,FishGame,2022.1.1,60.01230252197912,
,4,나를 데려가줘,6,Orange,B,0,0,ScrollDown,ScrollUp,Orange.png,practice,,,,,,,0,0,0,0,,,,,0,0,0,0,0,3,3,3,,,,,,,,,,,,,,,,,,,,,,,,,,,,,,,,,,,,,,,,,,,,,,,,,,,,1.126543199022611,1.0319405000000188,107.54363379999995,None,ScrollDown,정답입니다,107.54363379999995,None,107.54363379999995,None,107.54363379999995,None,107.54363379999995,None,108.44206889999987,None,108.44206889999987,108.95372709999992,,,,,,,,,,,,,,,,,,,,,,,,,,,,,,,,,,,,,,,,,,,,,,,,,224,2022-05-25_11h01.25.187,FishGame,2022.1.1,60.01230252197912,
,1,넌 교활해,5,Orange,B,2.333333333333333,2.133333333333333,ScrollUp,ScrollDown,Orange.png,practice,,,,,,,0,0,0,0,,,,,0,0,0,0,,,,,,,,,,,,,,,,,,,,,,,,,,,,,,,,,,,,,,,,,,,,,,,,,,,,,,,,,,,,,,,,,,,,,,,,,,n,2.186586100000113,109.45366169999988,None,109.45366169999988,None,,,,,,,,,,,,,,,,,,,,,,,,,,,,,,,,,,,,,,,,,,,224,2022-05-25_11h01.25.187,FishGame,2022.1.1,60.01230252197912,
,1,넌 따뜻해,1,Orange,B,6.083333333333333,5.6,ScrollUp,ScrollDown,Orange.png,1,Positive,Incongruent,,,,,0,0,0,0,,,,,,,,,,,,,0,0,0,0,,,,,,,,,,,,,,,,,,,,,,,,,,,,,,,,,,,,,,,,116.61961519999977,118.11928519999992,118.15263019999975,119.10250589999987,119.1525016999999,120.10229719999961,120.10229719999961,None,,,,,,,,,,,,,,,,,,,,,,,,,0.12962963,-0.11018518,1,0,0,0.31357213000046613,None,111.67006219999985,None,1.839506169160207,1.5372409999999945,121.31314099999963,None,ScrollUp,정답입니다,121.31314099999963,None,121.31314099999963,None,121.31314099999963,None,121.31314099999963,None,122.65776619999997,None,122.65776619999997,123.16861999999992,,,,,,,,,,,,,,,,224,2022-05-25_11h01.25.187,FishGame,2022.1.1,60.01230252197912,
,2,넌 기품있어,2,Orange,B,5.791666666666668,4.5,ScrollUp,ScrollDown,Orange.png,1,Positive,Incongruent,,,,,0,0,0,0,,,,,,,,,,,,,0,1,1,1,,,,,,,,,,,,,,,,,,,,,,,,,,,,,,,,,,,,,,,,,,,,,,,,,,,,,,,,,,,,,,,,,,,,,,,,,,,,,,,,,1.7731481442848842,0.9347069000000374,123.83910500000002,None,ScrollUp,정답입니다,123.83910500000002,None,123.83910500000002,None,123.83910500000002,None,123.83910500000002,None,124.62545329999966,None,124.62545329999966,125.13504560000001,,,,,,,,,,,,,,,,224,2022-05-25_11h01.25.187,FishGame,2022.1.1,60.01230252197912,
,3,나를 보내줘,6,Green,A,0,0,ScrollUp,ScrollDown,Green.png,1,NonTarget,NonTarget,,,,,0,0,0,0,,,,,,,,,,,,,0,2,2,2,,,,,,,,,,,,,,,,,,,,,,,,,,,,,,,,,,,,,,,,,,,,,,,,,,,,,,,,,,,,,,,,,,,,,,,,,,,,,,,,,1.3749999950329461,1.1338271999998142,125.80233839999983,None,ScrollDown,오답입니다,125.80233839999983,None,125.80233839999983,None,125.80233839999983,None,125.80233839999983,None,126.80411239999967,None,126.80411239999967,127.3180596999996,,,,,,,,,,,,,,,,224,2022-05-25_11h01.25.187,FishGame,2022.1.1,60.01230252197912,
,4,넌 수동적이야,4,Green,A,2.833333333333333,2.933333333333333,ScrollDown,ScrollUp,Green.png,1,Negative,Incongruent,,,,,0,0,0,0,,,,,,,,,,,,,0,3,3,3,,,,,,,,,,,,,,,,,,,,,,,,,,,,,,,,,,,,,,,,,,,,,,,,,,,,,,,,,,,,,,,,,,,,,,,,,,,,,,,,,1.2083333383003871,1.2431666000002224,127.97067749999997,None,ScrollDown,정답입니다,127.97067749999997,None,127.97067749999997,None,127.97067749999997,None,127.97067749999997,None,129.06775019999986,None,129.06775019999986,129.56775689999995,,,,,,,,,,,,,,,,224,2022-05-25_11h01.25.187,FishGame,2022.1.1,60.01230252197912,
,5,넌 사심이 없어,3,Orange,B,4.916666666666666,4.333333333333333,ScrollUp,ScrollDown,Orange.png,1,Neutral,Neutral,,,,,0,0,0,0,,,,,,,,,,,,,0,4,4,4,,,,,,,,,,,,,,,,,,,,,,,,,,,,,,,,,,,,,,,,,,,,,,,,,,,,,,,,,,,,,,,,,,,,,,,,,,,,,,,,,1.6172839477658272,1.091155400000389,130.23688859999993,None,ScrollUp,정답입니다,130.23688859999993,None,130.23688859999993,None,130.23688859999993,None,130.23688859999993,None,131.1794044999997,None,131.1794044999997,131.68426229999977,,,,,,,,,,,,,,,,224,2022-05-25_11h01.25.187,FishGame,2022.1.1,60.01230252197912,
,6,넌 헤퍼,5,Green,A,2.458333333333334,2.233333333333333,ScrollDown,ScrollUp,Green.png,1,Negative,Incongruent,,,,,0,0,0,0,,,,,,,,,,,,,0,5,5,5,,,,,,,,,,,,,,,,,,,,,,,,,,,,,,,,,,,,,,,,,,,,,,,,,,,,,,,,,,,,,,,,,,,,,,,,,,,,,,,,,1.1296296268701553,0.9770327000001089,132.34106589999965,None,ScrollDown,정답입니다,132.34106589999965,None,132.34106589999965,None,132.34106589999965,None,132.34106589999965,None,133.18417060000002,None,133.18417060000002,133.68388809999988,,,,,,,,,,,,,,,,224,2022-05-25_11h01.25.187,FishGame,2022.1.1,60.01230252197912,
,7,넌 말쑥해,3,Green,A,4.833333333333334,4.333333333333333,ScrollDown,ScrollUp,Green.png,1,Neutral,Neutral,,,,,0,0,0,0,,,,,,,,,,,,,0,6,6,6,,,,,,,,,,,,,,,,,,,,,,,,,,,,,,,,,,,,,,,,,,,,,,,,,,,,,,,,,,,,,,,,,,,,,,,,,,,,,,,,,1.4058641990025837,0.9107171999999082,134.34078499999987,None,ScrollDown,정답입니다,134.34078499999987,None,134.34078499999987,None,134.34078499999987,None,134.34078499999987,None,135.11372239999992,None,135.11372239999992,135.61709099999962,,,,,,,,,,,,,,,,224,2022-05-25_11h01.25.187,FishGame,2022.1.1,60.01230252197912,
,8,넌 투덜거려,5,Orange,B,2.541666666666667,2.266666666666667,ScrollUp,ScrollDown,Orange.png,1,Negative,Congruent,,,,,0,0,0,0,,,,,,,,,,,,,0,7,7,7,,,,,,,,,,,,,,,,,,,,,,,,,,,,,,,,,,,,,,,,,,,,,,,,,,,,,,,,,,,,,,,,,,,,,,,,,,,,,,,,,1.5061728393969438,0.9622682999997778,136.28671319999967,None,NoResponse,무응답입니다,136.28671319999967,None,136.28671319999967,None,136.28671319999967,None,136.28671319999967,None,137.10848119999991,None,137.10848119999991,137.61677789999976,,,,,,,,,,,,,,,,224,2022-05-25_11h01.25.187,FishGame,2022.1.1,60.01230252197912,
,9,넌 적극적이야,1,Green,A,5.708333333333333,5.533333333333333,ScrollDown,ScrollUp,Green.png,1,Positive,Congruent,,,,,0,0,0,0,,,,,,,,,,,,,0,8,8,8,,,,,,,,,,,,,,,,,,,,,,,,,,,,,,,,,,,,,,,,,,,,,,,,,,,,,,,,,,,,,,,,,,,,,,,,,,,,,,,,,1.233024686574936,1.176900299999943,138.2717015999997,None,ScrollDown,정답입니다,138.2717015999997,None,138.2717015999997,None,138.2717015999997,None,138.2717015999997,None,139.3160412999996,None,139.3160412999996,139.81653129999995,,,,,,,,,,,,,,,,224,2022-05-25_11h01.25.187,FishGame,2022.1.1,60.01230252197912,
,10,넌 재미없어,4,Orange,B,2.625,2.966666666666667,ScrollUp,ScrollDown,Orange.png,1,Negative,Congruent,,,,,0,0,0,0,,,,,,,,,,,,,0,9,9,9,,,,,,,,,,,,,,,,,,,,,,,,,,,,,,,,,,,,,,,,,,,,,,,,,,,,,,,,,,,,,,,,,,,,,,,,,,,,,,,,,2,1.01497930000005,140.4821063999998,None,ScrollUp,정답입니다,140.4821063999998,None,140.4821063999998,None,140.4821063999998,None,140.4821063999998,None,141.35497189999978,None,141.35497189999978,141.86608079999996,,,,,,,,,,,,,,,,224,2022-05-25_11h01.25.187,FishGame,2022.1.1,60.01230252197912,
,11,넌 명석해,2,Green,A,5.875,4.033333333333333,ScrollDown,ScrollUp,Green.png,1,Positive,Congruent,,,,,0,0,0,0,,,,,,,,,,,,,0,10,10,10,,,,,,,,,,,,,,,,,,,,,,,,,,,,,,,,,,,,,,,,,,,,,,,,,,,,,,,,,,,,,,,,,,,,,,,,,,,,,,,,,1,0.9568435000001045,142.52321649999976,None,ScrollDown,정답입니다,142.52321649999976,None,142.52321649999976,None,142.52321649999976,None,142.52321649999976,None,143.34943569999996,None,143.34943569999996,143.8493569999996,,,,,,,,,,,,,,,,224,2022-05-25_11h01.25.187,FishGame,2022.1.1,60.01230252197912,
,12,나를 데려가줘,6,Orange,B,0,0,ScrollDown,ScrollUp,Orange.png,1,NonTarget,NonTarget,,,,,0,0,0,0,,,,,,,,,,,,,0,11,11,11,,,,,,,,,,,,,,,,,,,,,,,,,,,,,,,,,,,,,,,,,,,,,,,,,,,,,,,,,,,,,,,,,,,,,,,,,,,,,,,,,1,1.5706928999998127,144.51510119999966,None,ScrollDown,정답입니다,144.51510119999966,None,144.51510119999966,None,144.51510119999966,None,144.51510119999966,None,145.9492094999996,None,145.9492094999996,146.44889289999992,,,,,,,,,,,,,,,,224,2022-05-25_11h01.25.187,FishGame,2022.1.1,60.01230252197912,
,13,넌 소심해,4,Green,A,3,3.1,ScrollDown,ScrollUp,Green.png,1,Negative,Incongruent,,,,,0,0,0,0,,,,,,,,,,,,,0,12,12,12,,,,,,,,,,,,,,,,,,,,,,,,,,,,,,,,,,,,,,,,,,,,,,,,,,,,,,,,,,,,,,,,,,,,,,,,,,,,,,,,,1.2037036965290706,1.297917999999754,147.1051198,None,ScrollDown,정답입니다,147.1051198,None,147.1051198,None,147.1051198,None,147.1051198,None,148.27076020000004,None,148.27076020000004,148.78210109999964,,,,,,,,,,,,,,,,224,2022-05-25_11h01.25.187,FishGame,2022.1.1,60.01230252197912,
,14,넌 합리적이야,2,Green,A,5.583333333333333,4.733333333333333,ScrollDown,ScrollUp,Green.png,1,Positive,Congruent,,,,,0,0,0,0,,,,,,,,,,,,,0,13,13,13,,,,,,,,,,,,,,,,,,,,,,,,,,,,,,,,,,,,,,,,,,,,,,,,,,,,,,,,,,,,,,,,,,,,,,,,,,,,,,,,,1,1.0459301000000778,149.44925779999994,None,ScrollDown,정답입니다,149.44925779999994,None,149.44925779999994,None,149.44925779999994,None,149.44925779999994,None,150.34858319999967,None,150.34858319999967,150.84833909999998,,,,,,,,,,,,,,,,224,2022-05-25_11h01.25.187,FishGame,2022.1.1,60.01230252197912,
,15,넌 무자비해,5,Orange,B,2.333333333333333,2.1,ScrollUp,ScrollDown,Orange.png,1,Negative,Congruent,,,,,0,0,0,0,,,,,,,,,,,,,0,14,14,14,,,,,,,,,,,,,,,,,,,,,,,,,,,,,,,,,,,,,,,,,,,,,,,,,,,,,,,,,,,,,,,,,,,,,,,,,,,,,,,,,2,1.037033000000065,151.51239999999962,None,ScrollUp,정답입니다,151.51239999999962,None,151.51239999999962,None,151.51239999999962,None,151.51239999999962,None,152.4066914,None,152.4066914,152.91479319999962,,,,,,,,,,,,,,,,224,2022-05-25_11h01.25.187,FishGame,2022.1.1,60.01230252197912,
,16,나를 보내줘,6,Green,A,0,0,ScrollUp,ScrollDown,Green.png,1,NonTarget,NonTarget,,,,,0,0,0,0,,,,,,,,,,,,,0,15,15,15,,,,,,,,,,,,,,,,,,,,,,,,,,,,,,,,,,,,,,,,,,,,,,,,,,,,,,,,,,,,,,,,,,,,,,,,,,,,,,,,,1.9845678806304932,1.4114853000000949,153.56636939999999,None,ScrollUp,정답입니다,153.56636939999999,None,153.56636939999999,None,153.56636939999999,None,153.56636939999999,None,154.84865809999974,None,154.84865809999974,155.34776319999992,,,,,,,,,,,,,,,,224,2022-05-25_11h01.25.187,FishGame,2022.1.1,60.01230252197912,
,17,넌 현실적이야,3,Orange,B,4.608695652173913,4.766666666666667,ScrollUp,ScrollDown,Orange.png,1,Neutral,Neutral,,,,,0,0,0,0,,,,,,,,,,,,,0,16,16,16,,,,,,,,,,,,,,,,,,,,,,,,,,,,,,,,,,,,,,,,,,,,,,,,,,,,,,,,,,,,,,,,,,,,,,,,,,,,,,,,,2,1.1564266000000316,156.01377999999977,None,ScrollUp,정답입니다,156.01377999999977,None,156.01377999999977,None,156.01377999999977,None,156.01377999999977,None,157.0314798999998,None,157.0314798999998,157.53086489999987,,,,,,,,,,,,,,,,224,2022-05-25_11h01.25.187,FishGame,2022.1.1,60.01230252197912,
,18,넌 의리있어,1,Orange,B,5.833333333333334,5.633333333333334,ScrollUp,ScrollDown,Orange.png,1,Positive,Incongruent,,,,,0,0,0,0,,,,,,,,,,,,,0,17,17,17,,,,,,,,,,,,,,,,,,,,,,,,,,,,,,,,,,,,,,,,,,,,,,,,,,,,,,,,,,,,,,,,,,,,,,,,,,,,,,,,,2,1.0292257999999492,158.19277889999967,None,ScrollUp,정답입니다,158.19277889999967,None,158.19277889999967,None,158.19277889999967,None,158.19277889999967,None,159.0819588999998,None,159.0819588999998,159.5972856999997,,,,,,,,,,,,,,,,224,2022-05-25_11h01.25.187,FishGame,2022.1.1,60.01230252197912,
,19,넌 신경과민이야,5,Green,A,2.541666666666667,2.166666666666667,ScrollDown,ScrollUp,Green.png,1,Negative,Incongruent,,,,,0,0,0,0,,,,,,,,,,,,,0,18,18,18,,,,,,,,,,,,,,,,,,,,,,,,,,,,,,,,,,,,,,,,,,,,,,,,,,,,,,,,,,,,,,,,,,,,,,,,,,,,,,,,,1,1.0676953000001959,160.26299719999997,None,ScrollDown,정답입니다,160.26299719999997,None,160.26299719999997,None,160.26299719999997,None,160.26299719999997,None,161.18552409999984,None,161.18552409999984,161.6970398999997,,,,,,,,,,,,,,,,224,2022-05-25_11h01.25.187,FishGame,2022.1.1,60.01230252197912,
,20,넌 편안해,1,Green,A,5.916666666666666,5.866666666666666,ScrollDown,ScrollUp,Green.png,1,Positive,Congruent,,,,,0,0,0,0,,,,,,,,,,,,,0,19,19,19,,,,,,,,,,,,,,,,,,,,,,,,,,,,,,,,,,,,,,,,,,,,,,,,,,,,,,,,,,,,,,,,,,,,,,,,,,,,,,,,,1,1.321799800000008,162.36459819999982,None,ScrollDown,정답입니다,162.36459819999982,None,162.36459819999982,None,162.36459819999982,None,162.36459819999982,None,163.54716729999973,None,163.54716729999973,164.04690349999964,,,,,,,,,,,,,,,,224,2022-05-25_11h01.25.187,FishGame,2022.1.1,60.01230252197912,
,21,넌 품위있어,2,Orange,B,5.291666666666666,4.466666666666667,ScrollUp,ScrollDown,Orange.png,1,Positive,Incongruent,,,,,0,0,0,0,,,,,,,,,,,,,0,20,20,20,,,,,,,,,,,,,,,,,,,,,,,,,,,,,,,,,,,,,,,,,,,,,,,,,,,,,,,,,,,,,,,,,,,,,,,,,,,,,,,,,2,0.9309532000002037,164.7086793999997,None,ScrollUp,정답입니다,164.7086793999997,None,164.7086793999997,None,164.7086793999997,None,164.7086793999997,None,165.50014499999997,None,165.50014499999997,166.01307419999966,,,,,,,,,,,,,,,,224,2022-05-25_11h01.25.187,FishGame,2022.1.1,60.01230252197912,
,22,넌 빈틈없어,3,Green,A,4.833333333333333,3.966666666666667,ScrollDown,ScrollUp,Green.png,1,Neutral,Neutral,,,,,0,0,0,0,,,,,,,,,,,,,0,21,21,21,,,,,,,,,,,,,,,,,,,,,,,,,,,,,,,,,,,,,,,,,,,,,,,,,,,,,,,,,,,,,,,,,,,,,,,,,,,,,,,,,1,1.0214425000003757,166.67209509999975,None,ScrollDown,정답입니다,166.67209509999975,None,166.67209509999975,None,166.67209509999975,None,166.67209509999975,None,167.55729129999963,None,167.55729129999963,168.0627832,,,,,,,,,,,,,,,,224,2022-05-25_11h01.25.187,FishGame,2022.1.1,60.01230252197912,
,23,넌 상상력없어,4,Orange,B,2.833333333333333,3.133333333333333,ScrollUp,ScrollDown,Orange.png,1,Negative,Congruent,,,,,0,0,0,0,,,,,,,,,,,,,0,22,22,22,,,,,,,,,,,,,,,,,,,,,,,,,,,,,,,,,,,,,,,,,,,,,,,,,,,,,,,,,,,,,,,,,,,,,,,,,,,,,,,,,2,1.0441412999998647,168.72855849999996,None,ScrollUp,정답입니다,168.72855849999996,None,168.72855849999996,None,168.72855849999996,None,168.72855849999996,None,169.62939209999968,None,169.62939209999968,170.12924799999973,,,,,,,,,,,,,,,,224,2022-05-25_11h01.25.187,FishGame,2022.1.1,60.01230252197912,
,24,넌 지혜로워,2,Orange,B,6.333333333333334,4.633333333333334,ScrollUp,ScrollDown,Orange.png,1,Positive,Incongruent,,,,,0,0,0,0,,,,,,,,,,,,,0,23,23,23,,,,,,,,,,,,,,,,,,,,,,,,,,,,,,,,,,,,,,,,,,,,,,,,,,,,,,,,,,,,,,,,,,,,,,,,,,,,,,,,,2,1.0148749999998472,170.79734770000005,None,ScrollUp,정답입니다,170.79734770000005,None,170.79734770000005,None,170.79734770000005,None,170.79734770000005,None,171.66684289999966,None,171.66684289999966,172.17897270000003,,,,,,,,,,,,,,,,224,2022-05-25_11h01.25.187,FishGame,2022.1.1,60.01230252197912,
,25,넌 시끄러워,4,Green,A,2.833333333333333,3.033333333333333,ScrollDown,ScrollUp,Green.png,1,Negative,Incongruent,,,,,0,0,0,0,,,,,,,,,,,,,0,24,24,24,,,,,,,,,,,,,,,,,,,,,,,,,,,,,,,,,,,,,,,,,,,,,,,,,,,,,,,,,,,,,,,,,,,,,,,,,,,,,,,,,1,1.1020082000000002,172.8467470999999,None,ScrollDown,정답입니다,172.8467470999999,None,172.8467470999999,None,172.8467470999999,None,172.8467470999999,None,173.80226969999967,None,173.80226969999967,174.31201779999992,,,,,,,,,,,,,,,,224,2022-05-25_11h01.25.187,FishGame,2022.1.1,60.01230252197912,
,26,넌 만사태평이야,3,Orange,B,4,4.333333333333333,ScrollUp,ScrollDown,Orange.png,1,Neutral,Neutral,,,,,0,0,0,0,,,,,,,,,,,,,0,25,25,25,,,,,,,,,,,,,,,,,,,,,,,,,,,,,,,,,,,,,,,,,,,,,,,,,,,,,,,,,,,,,,,,,,,,,,,,,,,,,,,,,2,1.0570987000000969,174.97879729999977,None,ScrollUp,정답입니다,174.97879729999977,None,174.97879729999977,None,174.97879729999977,None,174.97879729999977,None,175.89319239999986,None,175.89319239999986,176.39515749999964,,,,,,,,,,,,,,,,224,2022-05-25_11h01.25.187,FishGame,2022.1.1,60.01230252197912,
,27,넌 붙임성있어,1,Green,A,5.708333333333333,5.633333333333334,ScrollDown,ScrollUp,Green.png,1,Positive,Congruent,,,,,0,0,0,0,,,,,,,,,,,,,0,26,26,26,,,,,,,,,,,,,,,,,,,,,,,,,,,,,,,,,,,,,,,,,,,,,,,,,,,,,,,,,,,,,,,,,,,,,,,,,,,,,,,,,1,1.0250153000001774,177.05836069999987,None,ScrollDown,정답입니다,177.05836069999987,None,177.05836069999987,None,177.05836069999987,None,177.05836069999987,None,177.9453500999998,None,177.9453500999998,178.44490869999981,,,,,,,,,,,,,,,,224,2022-05-25_11h01.25.187,FishGame,2022.1.1,60.01230252197912,
,28,넌 영리해,2,Green,A,6,4.033333333333333,ScrollDown,ScrollUp,Green.png,1,Positive,Congruent,,,,,0,0,0,0,,,,,,,,,,,,,0,27,27,27,,,,,,,,,,,,,,,,,,,,,,,,,,,,,,,,,,,,,,,,,,,,,,,,,,,,,,,,,,,,,,,,,,,,,,,,,,,,,,,,,1,1.1014852999996947,179.10117039999977,None,ScrollDown,정답입니다,179.10117039999977,None,179.10117039999977,None,179.10117039999977,None,179.10117039999977,None,180.06777919999968,None,180.06777919999968,180.57789999999977,,,,,,,,,,,,,,,,224,2022-05-25_11h01.25.187,FishGame,2022.1.1,60.01230252197912,
,29,넌 열심이야,1,Orange,B,6.041666666666667,5.833333333333333,ScrollUp,ScrollDown,Orange.png,1,Positive,Incongruent,,,,,0,0,0,0,,,,,,,,,,,,,0,28,28,28,,,,,,,,,,,,,,,,,,,,,,,,,,,,,,,,,,,,,,,,,,,,,,,,,,,,,,,,,,,,,,,,,,,,,,,,,,,,,,,,,2,0.921849100000145,181.23982609999985,None,ScrollUp,정답입니다,181.23982609999985,None,181.23982609999985,None,181.23982609999985,None,181.23982609999985,None,182.02040289999968,None,182.02040289999968,182.52770499999997,,,,,,,,,,,,,,,,224,2022-05-25_11h01.25.187,FishGame,2022.1.1,60.01230252197912,
,30,넌 인기없어,4,Orange,B,3,3.3,ScrollUp,ScrollDown,Orange.png,1,Negative,Congruent,,,,,0,0,0,0,,,,,,,,,,,,,0,29,29,29,,,,,,,,,,,,,,,,,,,,,,,,,,,,,,,,,,,,,,,,,,,,,,,,,,,,,,,,,,,,,,,,,,,,,,,,,,,,,,,,,2,1.149332299999969,183.19005799999968,None,ScrollUp,정답입니다,183.19005799999968,None,183.19005799999968,None,183.19005799999968,None,183.19005799999968,None,184.1996409999997,None,184.1996409999997,184.71070859999963,,,,,,,,,,,,,,,,224,2022-05-25_11h01.25.187,FishGame,2022.1.1,60.01230252197912,
,31,넌 익살스러워,3,Green,A,4.708333333333334,4.833333333333333,ScrollDown,ScrollUp,Green.png,1,Neutral,Neutral,,,,,0,0,0,0,,,,,,,,,,,,,0,30,30,30,,,,,,,,,,,,,,,,,,,,,,,,,,,,,,,,,,,,,,,,,,,,,,,,,,,,,,,,,,,,,,,,,,,,,,,,,,,,,,,,,1,0.9818835000000945,185.3728833,None,ScrollDown,정답입니다,185.3728833,None,185.3728833,None,185.3728833,None,185.3728833,None,186.21503359999997,None,186.21503359999997,186.72736889999987,,,,,,,,,,,,,,,,224,2022-05-25_11h01.25.187,FishGame,2022.1.1,60.01230252197912,
,32,넌 이기적이야,5,Orange,B,2.291666666666667,2.333333333333333,ScrollUp,ScrollDown,Orange.png,1,Negative,Congruent,,,,,0,0,0,0,,,,,,,,,,,,,0,31,31,31,,,,,,,,,,,,,,,,,,,,,,,,,,,,,,,,,,,,,,,,,,,,,,,,,,,,,,,,,,,,,,,,,,,,,,,,,,,,,,,,,2,0.9613266999999723,187.3854993,None,ScrollUp,정답입니다,187.3854993,None,187.3854993,None,187.3854993,None,187.3854993,None,188.2104357999997,None,188.2104357999997,188.7104635999999,,,,,,,,,,,,,,,,224,2022-05-25_11h01.25.187,FishGame,2022.1.1,60.01230252197912,
,33,나를 데려가줘,6,Orange,B,0,0,ScrollDown,ScrollUp,Orange.png,1,NonTarget,NonTarget,,,,,0,0,0,0,,,,,,,,,,,,,0,32,32,32,,,,,,,,,,,,,,,,,,,,,,,,,,,,,,,,,,,,,,,,,,,,,,,,,,,,,,,,,,,,,,,,,,,,,,,,,,,,,,,,,2,0.9841103999997358,189.36022879999973,None,ScrollUp,오답입니다,189.36022879999973,None,189.36022879999973,None,189.36022879999973,None,189.36022879999973,None,190.2176132999998,None,190.2176132999998,190.7268541999997,,,,,,,,,,,,,,,,224,2022-05-25_11h01.25.187,FishGame,2022.1.1,60.01230252197912,
,34,넌 기회주의자야,5,Green,A,2.875,2.133333333333333,ScrollDown,ScrollUp,Green.png,1,Negative,Incongruent,,,,,0,0,0,0,,,,,,,,,,,,,0,33,33,33,,,,,,,,,,,,,,,,,,,,,,,,,,,,,,,,,,,,,,,,,,,,,,,,,,,,,,,,,,,,,,,,,,,,,,,,,,,,,,,,,1,0.9488842000000659,191.38020340000003,None,ScrollDown,정답입니다,191.38020340000003,None,191.38020340000003,None,191.38020340000003,None,191.38020340000003,None,192.2009447999999,None,192.2009447999999,192.7096462999998,,,,,,,,,,,,,,,,224,2022-05-25_11h01.25.187,FishGame,2022.1.1,60.01230252197912,
,1,넌 미성숙해,4,Green,A,3,3.2,ScrollDown,ScrollUp,Green.png,2,Negative,Incongruent,,,,,0,0,0,0,,,,,,,,,,,,,,,,,0,0,0,0,,,,,,,,,,,,,,,,,,,,,,,,,,,,,,,,,,,,224.45614499999965,225.95562129999962,225.98889129999998,226.93889929999978,226.98871959999997,227.9387558999997,227.9387558999997,None,,,,,,,,,,,,,,,,,,,,,,,,,,,,,,,,,,1.2191358109315236,1.092739299999721,229.12237749999986,None,ScrollDown,정답입니다,229.12237749999986,None,229.12237749999986,None,229.12237749999986,None,229.12237749999986,None,230.04183190000003,None,230.04183190000003,230.5548276999998,193.20964239999967,None,193.20964239999967,None,0.07685185,-0.072222225,1,0,0,0.016059830000358488,None,223.20618299999978,None,,,224,2022-05-25_11h01.25.187,FishGame,2022.1.1,60.01230252197912,
,2,넌 반사회적이야,5,Orange,B,2.416666666666667,2.033333333333333,ScrollUp,ScrollDown,Orange.png,2,Negative,Congruent,,,,,0,0,0,0,,,,,,,,,,,,,,,,,0,1,1,1,,,,,,,,,,,,,,,,,,,,,,,,,,,,,,,,,,,,,,,,,,,,,,,,,,,,,,,,,,,,,,,,,,,,,,,,,,,,,2,1.0062819999998283,231.2176427999998,None,ScrollUp,정답입니다,231.2176427999998,None,231.2176427999998,None,231.2176427999998,None,231.2176427999998,None,232.08616570000004,None,232.08616570000004,232.58792859999994,,,,,,,,,,,,,,,,224,2022-05-25_11h01.25.187,FishGame,2022.1.1,60.01230252197912,
,3,넌 유능해,2,Green,A,6.208333333333333,4.433333333333334,ScrollDown,ScrollUp,Green.png,2,Positive,Congruent,,,,,0,0,0,0,,,,,,,,,,,,,,,,,0,2,2,2,,,,,,,,,,,,,,,,,,,,,,,,,,,,,,,,,,,,,,,,,,,,,,,,,,,,,,,,,,,,,,,,,,,,,,,,,,,,,1,0.8540234000001874,233.24590739999985,None,ScrollDown,정답입니다,233.24590739999985,None,233.24590739999985,None,233.24590739999985,None,233.24590739999985,None,233.9641945999997,None,233.9641945999997,234.47102659999973,,,,,,,,,,,,,,,,224,2022-05-25_11h01.25.187,FishGame,2022.1.1,60.01230252197912,
,4,넌 능숙해,2,Orange,B,5.666666666666667,4.733333333333333,ScrollUp,ScrollDown,Orange.png,2,Positive,Incongruent,,,,,0,0,0,0,,,,,,,,,,,,,,,,,0,3,3,3,,,,,,,,,,,,,,,,,,,,,,,,,,,,,,,,,,,,,,,,,,,,,,,,,,,,,,,,,,,,,,,,,,,,,,,,,,,,,2,0.8601231000002372,235.12576139999965,None,ScrollUp,정답입니다,235.12576139999965,None,235.12576139999965,None,235.12576139999965,None,235.12576139999965,None,235.8546222,None,235.8546222,236.3541309999996,,,,,,,,,,,,,,,,224,2022-05-25_11h01.25.187,FishGame,2022.1.1,60.01230252197912,
,5,넌 진부해,4,Orange,B,2.458333333333333,3.166666666666667,ScrollUp,ScrollDown,Orange.png,2,Negative,Congruent,,,,,0,0,0,0,,,,,,,,,,,,,,,,,0,4,4,4,,,,,,,,,,,,,,,,,,,,,,,,,,,,,,,,,,,,,,,,,,,,,,,,,,,,,,,,,,,,,,,,,,,,,,,,,,,,,2,1.0107990999999856,237.01690519999966,None,ScrollUp,정답입니다,237.01690519999966,None,237.01690519999966,None,237.01690519999966,None,237.01690519999966,None,237.88743290000002,None,237.88743290000002,238.38733639999964,,,,,,,,,,,,,,,,224,2022-05-25_11h01.25.187,FishGame,2022.1.1,60.01230252197912,
,6,나를 보내줘,6,Green,A,0,0,ScrollUp,ScrollDown,Green.png,2,NonTarget,NonTarget,,,,,0,0,0,0,,,,,,,,,,,,,,,,,0,5,5,5,,,,,,,,,,,,,,,,,,,,,,,,,,,,,,,,,,,,,,,,,,,,,,,,,,,,,,,,,,,,,,,,,,,,,,,,,,,,,2,1.0685782999998992,239.04011439999977,None,ScrollUp,정답입니다,239.04011439999977,None,239.04011439999977,None,239.04011439999977,None,239.04011439999977,None,239.97664319999967,None,239.97664319999967,240.48701989999972,,,,,,,,,,,,,,,,224,2022-05-25_11h01.25.187,FishGame,2022.1.1,60.01230252197912,
,7,넌 엄격해,3,Green,A,4.166666666666666,4.1,ScrollDown,ScrollUp,Green.png,2,Neutral,Neutral,,,,,0,0,0,0,,,,,,,,,,,,,,,,,0,6,6,6,,,,,,,,,,,,,,,,,,,,,,,,,,,,,,,,,,,,,,,,,,,,,,,,,,,,,,,,,,,,,,,,,,,,,,,,,,,,,1,0.9678206999997201,241.14638269999978,None,ScrollDown,정답입니다,241.14638269999978,None,241.14638269999978,None,241.14638269999978,None,241.14638269999978,None,241.97564409999995,None,241.97564409999995,242.48677580000003,,,,,,,,,,,,,,,,224,2022-05-25_11h01.25.187,FishGame,2022.1.1,60.01230252197912,
,8,나를 보내줘,6,Green,A,0,0,ScrollUp,ScrollDown,Green.png,2,NonTarget,NonTarget,,,,,0,0,0,0,,,,,,,,,,,,,,,,,0,7,7,7,,,,,,,,,,,,,,,,,,,,,,,,,,,,,,,,,,,,,,,,,,,,,,,,,,,,,,,,,,,,,,,,,,,,,,,,,,,,,2,1.142378699999881,243.13796039999988,None,ScrollUp,정답입니다,243.13796039999988,None,243.13796039999988,None,243.13796039999988,None,243.13796039999988,None,244.15321449999965,None,244.15321449999965,244.65312649999987,,,,,,,,,,,,,,,,224,2022-05-25_11h01.25.187,FishGame,2022.1.1,60.01230252197912,
,9,넌 대담해,3,Orange,B,4.875,4.866666666666666,ScrollUp,ScrollDown,Orange.png,2,Neutral,Neutral,,,,,0,0,0,0,,,,,,,,,,,,,,,,,0,8,8,8,,,,,,,,,,,,,,,,,,,,,,,,,,,,,,,,,,,,,,,,,,,,,,,,,,,,,,,,,,,,,,,,,,,,,,,,,,,,,2,0.9355588000003081,245.3179011999996,None,ScrollUp,정답입니다,245.3179011999996,None,245.3179011999996,None,245.3179011999996,None,245.3179011999996,None,246.11021189999974,None,246.11021189999974,246.61944969999968,,,,,,,,,,,,,,,,224,2022-05-25_11h01.25.187,FishGame,2022.1.1,60.01230252197912,
,10,넌 꾸준해,1,Green,A,5.916666666666668,5.8,ScrollDown,ScrollUp,Green.png,2,Positive,Congruent,,,,,0,0,0,0,,,,,,,,,,,,,,,,,0,9,9,9,,,,,,,,,,,,,,,,,,,,,,,,,,,,,,,,,,,,,,,,,,,,,,,,,,,,,,,,,,,,,,,,,,,,,,,,,,,,,1,1.0121487000001252,247.2770357999998,None,ScrollDown,정답입니다,247.2770357999998,None,247.2770357999998,None,247.2770357999998,None,247.2770357999998,None,248.15285399999993,None,248.15285399999993,248.65264949999982,,,,,,,,,,,,,,,,224,2022-05-25_11h01.25.187,FishGame,2022.1.1,60.01230252197912,
,11,나를 데려가줘,6,Orange,B,0,0,ScrollDown,ScrollUp,Orange.png,2,NonTarget,NonTarget,,,,,0,0,0,0,,,,,,,,,,,,,,,,,0,10,10,10,,,,,,,,,,,,,,,,,,,,,,,,,,,,,,,,,,,,,,,,,,,,,,,,,,,,,,,,,,,,,,,,,,,,,,,,,,,,,1,1.0954948999997214,249.30904529999998,None,ScrollDown,정답입니다,249.30904529999998,None,249.30904529999998,None,249.30904529999998,None,249.30904529999998,None,250.27088890000005,None,250.27088890000005,250.78560040000002,,,,,,,,,,,,,,,,224,2022-05-25_11h01.25.187,FishGame,2022.1.1,60.01230252197912,
,12,넌 독선적이야,5,Green,A,2.458333333333333,1.933333333333333,ScrollDown,ScrollUp,Green.png,2,Negative,Incongruent,,,,,0,0,0,0,,,,,,,,,,,,,,,,,0,11,11,11,,,,,,,,,,,,,,,,,,,,,,,,,,,,,,,,,,,,,,,,,,,,,,,,,,,,,,,,,,,,,,,,,,,,,,,,,,,,,1,0.9857034999999996,251.44696669999985,None,ScrollDown,정답입니다,251.44696669999985,None,251.44696669999985,None,251.44696669999985,None,251.44696669999985,None,252.29343549999976,None,252.29343549999976,252.80209859999968,,,,,,,,,,,,,,,,224,2022-05-25_11h01.25.187,FishGame,2022.1.1,60.01230252197912,
,13,나를 보내줘,6,Green,A,0,0,ScrollUp,ScrollDown,Green.png,2,NonTarget,NonTarget,,,,,0,0,0,0,,,,,,,,,,,,,,,,,0,12,12,12,,,,,,,,,,,,,,,,,,,,,,,,,,,,,,,,,,,,,,,,,,,,,,,,,,,,,,,,,,,,,,,,,,,,,,,,,,,,,1.1867283930381138,0.9616181000001234,253.45561559999987,None,ScrollDown,오답입니다,253.45561559999987,None,253.45561559999987,None,253.45561559999987,None,253.45561559999987,None,254.28706250000005,None,254.28706250000005,254.8018136999999,,,,,,,,,,,,,,,,224,2022-05-25_11h01.25.187,FishGame,2022.1.1,60.01230252197912,
,14,넌 책임감있어,1,Orange,B,6.347826086956522,6,ScrollUp,ScrollDown,Orange.png,2,Positive,Incongruent,,,,,0,0,0,0,,,,,,,,,,,,,,,,,0,13,13,13,,,,,,,,,,,,,,,,,,,,,,,,,,,,,,,,,,,,,,,,,,,,,,,,,,,,,,,,,,,,,,,,,,,,,,,,,,,,,2,0.9957853000000796,255.46624569999994,None,ScrollUp,정답입니다,255.46624569999994,None,255.46624569999994,None,255.46624569999994,None,255.46624569999994,None,256.3208949,None,256.3208949,256.83493929999986,,,,,,,,,,,,,,,,224,2022-05-25_11h01.25.187,FishGame,2022.1.1,60.01230252197912,
,15,넌 문학적이야,3,Green,A,4.708333333333334,4.333333333333333,ScrollDown,ScrollUp,Green.png,2,Neutral,Neutral,,,,,0,0,0,0,,,,,,,,,,,,,,,,,0,14,14,14,,,,,,,,,,,,,,,,,,,,,,,,,,,,,,,,,,,,,,,,,,,,,,,,,,,,,,,,,,,,,,,,,,,,,,,,,,,,,1,0.9951691999999639,257.49396409999963,None,ScrollDown,정답입니다,257.49396409999963,None,257.49396409999963,None,257.49396409999963,None,257.49396409999963,None,258.3530784999998,None,258.3530784999998,258.8679476999996,,,,,,,,,,,,,,,,224,2022-05-25_11h01.25.187,FishGame,2022.1.1,60.01230252197912,
,16,넌 재미있어,1,Orange,B,5.875,5.7,ScrollUp,ScrollDown,Orange.png,2,Positive,Incongruent,,,,,0,0,0,0,,,,,,,,,,,,,,,,,0,15,15,15,,,,,,,,,,,,,,,,,,,,,,,,,,,,,,,,,,,,,,,,,,,,,,,,,,,,,,,,,,,,,,,,,,,,,,,,,,,,,2,1.006283799999892,259.5197469999998,None,ScrollUp,정답입니다,259.5197469999998,None,259.5197469999998,None,259.5197469999998,None,259.5197469999998,None,260.40139279999994,None,260.40139279999994,260.90121329999965,,,,,,,,,,,,,,,,224,2022-05-25_11h01.25.187,FishGame,2022.1.1,60.01230252197912,
,17,나를 데려가줘,6,Orange,B,0,0,ScrollDown,ScrollUp,Orange.png,2,NonTarget,NonTarget,,,,,0,0,0,0,,,,,,,,,,,,,,,,,0,16,16,16,,,,,,,,,,,,,,,,,,,,,,,,,,,,,,,,,,,,,,,,,,,,,,,,,,,,,,,,,,,,,,,,,,,,,,,,,,,,,1.0185184975465138,1.1484645000000455,261.5516687999998,None,ScrollDown,정답입니다,261.5516687999998,None,261.5516687999998,None,261.5516687999998,None,261.5516687999998,None,262.57253809999975,None,262.57253809999975,263.08414349999975,,,,,,,,,,,,,,,,224,2022-05-25_11h01.25.187,FishGame,2022.1.1,60.01230252197912,
,18,넌 협력적이야,1,Green,A,5.625,5.633333333333334,ScrollDown,ScrollUp,Green.png,2,Positive,Congruent,,,,,0,0,0,0,,,,,,,,,,,,,,,,,0,17,17,17,,,,,,,,,,,,,,,,,,,,,,,,,,,,,,,,,,,,,,,,,,,,,,,,,,,,,,,,,,,,,,,,,,,,,,,,,,,,,1,1.1547624999998334,263.73500339999964,None,ScrollDown,정답입니다,263.73500339999964,None,263.73500339999964,None,263.73500339999964,None,263.73500339999964,None,264.7598819,None,264.7598819,265.2671161999997,,,,,,,,,,,,,,,,224,2022-05-25_11h01.25.187,FishGame,2022.1.1,60.01230252197912,
,19,넌 평범해,3,Orange,B,4.333333333333332,4.233333333333333,ScrollUp,ScrollDown,Orange.png,2,Neutral,Neutral,,,,,0,0,0,0,,,,,,,,,,,,,,,,,0,18,18,18,,,,,,,,,,,,,,,,,,,,,,,,,,,,,,,,,,,,,,,,,,,,,,,,,,,,,,,,,,,,,,,,,,,,,,,,,,,,,1.9706790049870808,0.9452390000001287,265.93004429999974,None,ScrollUp,정답입니다,265.93004429999974,None,265.93004429999974,None,265.93004429999974,None,265.93004429999974,None,266.73367959999996,None,266.73367959999996,267.2335301999997,,,,,,,,,,,,,,,,224,2022-05-25_11h01.25.187,FishGame,2022.1.1,60.01230252197912,
,20,넌 오만해,5,Green,A,2.333333333333333,2,ScrollDown,ScrollUp,Green.png,2,Negative,Incongruent,,,,,0,0,0,0,,,,,,,,,,,,,,,,,0,19,19,19,,,,,,,,,,,,,,,,,,,,,,,,,,,,,,,,,,,,,,,,,,,,,,,,,,,,,,,,,,,,,,,,,,,,,,,,,,,,,1,1.0926220999999714,267.8834582999998,None,ScrollDown,정답입니다,267.8834582999998,None,267.8834582999998,None,267.8834582999998,None,267.8834582999998,None,268.8448426,None,268.8448426,269.34997799999974,,,,,,,,,,,,,,,,224,2022-05-25_11h01.25.187,FishGame,2022.1.1,60.01230252197912,
,21,넌 운이없어,4,Orange,B,3,3.466666666666667,ScrollUp,ScrollDown,Orange.png,2,Negative,Congruent,,,,,0,0,0,0,,,,,,,,,,,,,,,,,0,20,20,20,,,,,,,,,,,,,,,,,,,,,,,,,,,,,,,,,,,,,,,,,,,,,,,,,,,,,,,,,,,,,,,,,,,,,,,,,,,,,2,1.1449430000002394,270.0118242999997,None,ScrollUp,정답입니다,270.0118242999997,None,270.0118242999997,None,270.0118242999997,None,270.0118242999997,None,271.01666739999973,None,271.01666739999973,271.51637249999976,,,,,,,,,,,,,,,,224,2022-05-25_11h01.25.187,FishGame,2022.1.1,60.01230252197912,
,22,넌 창조적이야,2,Orange,B,6.125,4.633333333333334,ScrollUp,ScrollDown,Orange.png,2,Positive,Incongruent,,,,,0,0,0,0,,,,,,,,,,,,,,,,,0,21,21,21,,,,,,,,,,,,,,,,,,,,,,,,,,,,,,,,,,,,,,,,,,,,,,,,,,,,,,,,,,,,,,,,,,,,,,,,,,,,,2,1.1001924000001964,272.18019809999987,None,ScrollUp,정답입니다,272.18019809999987,None,272.18019809999987,None,272.18019809999987,None,272.18019809999987,None,273.1378249999998,None,273.1378249999998,273.6493389999996,,,,,,,,,,,,,,,,224,2022-05-25_11h01.25.187,FishGame,2022.1.1,60.01230252197912,
,23,나를 보내줘,6,Green,A,0,0,ScrollUp,ScrollDown,Green.png,2,NonTarget,NonTarget,,,,,0,0,0,0,,,,,,,,,,,,,,,,,0,22,22,22,,,,,,,,,,,,,,,,,,,,,,,,,,,,,,,,,,,,,,,,,,,,,,,,,,,,,,,,,,,,,,,,,,,,,,,,,,,,,2,1.2392125999999735,274.29782269999987,None,ScrollUp,정답입니다,274.29782269999987,None,274.29782269999987,None,274.29782269999987,None,274.29782269999987,None,275.4092026999997,None,275.4092026999997,275.91577789999974,,,,,,,,,,,,,,,,224,2022-05-25_11h01.25.187,FishGame,2022.1.1,60.01230252197912,
,24,넌 통찰력있어,2,Green,A,6.5,4.8,ScrollDown,ScrollUp,Green.png,2,Positive,Congruent,,,,,0,0,0,0,,,,,,,,,,,,,,,,,0,23,23,23,,,,,,,,,,,,,,,,,,,,,,,,,,,,,,,,,,,,,,,,,,,,,,,,,,,,,,,,,,,,,,,,,,,,,,,,,,,,,1,1.0717890999999327,276.57169859999976,None,ScrollDown,정답입니다,276.57169859999976,None,276.57169859999976,None,276.57169859999976,None,276.57169859999976,None,277.51586599999973,None,277.51586599999973,278.01541069999985,,,,,,,,,,,,,,,,224,2022-05-25_11h01.25.187,FishGame,2022.1.1,60.01230252197912,
,25,넌 경솔해,5,Orange,B,2.458333333333333,2.266666666666667,ScrollUp,ScrollDown,Orange.png,2,Negative,Congruent,,,,,0,0,0,0,,,,,,,,,,,,,,,,,0,24,24,24,,,,,,,,,,,,,,,,,,,,,,,,,,,,,,,,,,,,,,,,,,,,,,,,,,,,,,,,,,,,,,,,,,,,,,,,,,,,,2,1.0724982000001546,278.6777699999998,None,ScrollUp,정답입니다,278.6777699999998,None,278.6777699999998,None,278.6777699999998,None,278.6777699999998,None,279.6156716999999,None,279.6156716999999,280.1151625999996,,,,,,,,,,,,,,,,224,2022-05-25_11h01.25.187,FishGame,2022.1.1,60.01230252197912,
,26,넌 초조해,4,Green,A,2.916666666666667,3.133333333333333,ScrollDown,ScrollUp,Green.png,2,Negative,Incongruent,,,,,0,0,0,0,,,,,,,,,,,,,,,,,0,25,25,25,,,,,,,,,,,,,,,,,,,,,,,,,,,,,,,,,,,,,,,,,,,,,,,,,,,,,,,,,,,,,,,,,,,,,,,,,,,,,1,1.032244399999854,280.77052479999975,None,ScrollDown,정답입니다,280.77052479999975,None,280.77052479999975,None,280.77052479999975,None,280.77052479999975,None,281.6700603999998,None,281.6700603999998,282.1817380999996,,,,,,,,,,,,,,,,224,2022-05-25_11h01.25.187,FishGame,2022.1.1,60.01230252197912,
,27,넌 무관심해,4,Orange,B,2.833333333333333,2.9,ScrollUp,ScrollDown,Orange.png,2,Negative,Congruent,,,,,0,0,0,0,,,,,,,,,,,,,,,,,0,26,26,26,,,,,,,,,,,,,,,,,,,,,,,,,,,,,,,,,,,,,,,,,,,,,,,,,,,,,,,,,,,,,,,,,,,,,,,,,,,,,2,1.0128147000000354,282.85020959999974,None,ScrollUp,정답입니다,282.85020959999974,None,282.85020959999974,None,282.85020959999974,None,282.85020959999974,None,283.71718029999965,None,283.71718029999965,284.2313495999997,,,,,,,,,,,,,,,,224,2022-05-25_11h01.25.187,FishGame,2022.1.1,60.01230252197912,
,28,넌 감성적이야,3,Orange,B,4.125,4.166666666666667,ScrollUp,ScrollDown,Orange.png,2,Neutral,Neutral,,,,,0,0,0,0,,,,,,,,,,,,,,,,,0,27,27,27,,,,,,,,,,,,,,,,,,,,,,,,,,,,,,,,,,,,,,,,,,,,,,,,,,,,,,,,,,,,,,,,,,,,,,,,,,,,,2,0.9878088000000389,284.8851701999997,None,ScrollUp,정답입니다,284.8851701999997,None,284.8851701999997,None,284.8851701999997,None,284.8851701999997,None,285.74252939999997,None,285.74252939999997,286.24785649999967,,,,,,,,,,,,,,,,224,2022-05-25_11h01.25.187,FishGame,2022.1.1,60.01230252197912,
,29,넌 배려심있어,1,Green,A,6.083333333333333,5.5,ScrollDown,ScrollUp,Green.png,2,Positive,Congruent,,,,,0,0,0,0,,,,,,,,,,,,,,,,,0,28,28,28,,,,,,,,,,,,,,,,,,,,,,,,,,,,,,,,,,,,,,,,,,,,,,,,,,,,,,,,,,,,,,,,,,,,,,,,,,,,,1,0.9247310000000653,286.9052284999998,None,ScrollDown,정답입니다,286.9052284999998,None,286.9052284999998,None,286.9052284999998,None,286.9052284999998,None,287.6974743999999,None,287.6974743999999,288.19758809999985,,,,,,,,,,,,,,,,224,2022-05-25_11h01.25.187,FishGame,2022.1.1,60.01230252197912,
,30,넌 숨김없어,3,Green,A,4.5,4.933333333333334,ScrollDown,ScrollUp,Green.png,2,Neutral,Neutral,,,,,0,0,0,0,,,,,,,,,,,,,,,,,0,29,29,29,,,,,,,,,,,,,,,,,,,,,,,,,,,,,,,,,,,,,,,,,,,,,,,,,,,,,,,,,,,,,,,,,,,,,,,,,,,,,1,0.8842177999999876,288.8584636999999,None,ScrollDown,정답입니다,288.8584636999999,None,288.8584636999999,None,288.8584636999999,None,288.8584636999999,None,289.6029371999998,None,289.6029371999998,290.11393499999986,,,,,,,,,,,,,,,,224,2022-05-25_11h01.25.187,FishGame,2022.1.1,60.01230252197912,
,31,넌 훌륭해,2,Orange,B,5.916666666666667,4.033333333333333,ScrollUp,ScrollDown,Orange.png,2,Positive,Incongruent,,,,,0,0,0,0,,,,,,,,,,,,,,,,,0,30,30,30,,,,,,,,,,,,,,,,,,,,,,,,,,,,,,,,,,,,,,,,,,,,,,,,,,,,,,,,,,,,,,,,,,,,,,,,,,,,,2,0.8949502999998913,290.77715069999977,None,ScrollUp,정답입니다,290.77715069999977,None,290.77715069999977,None,290.77715069999977,None,290.77715069999977,None,291.5306816999996,None,291.5306816999996,292.03035199999977,,,,,,,,,,,,,,,,224,2022-05-25_11h01.25.187,FishGame,2022.1.1,60.01230252197912,
,32,넌 슬기로워,2,Green,A,6.166666666666667,4.1,ScrollDown,ScrollUp,Green.png,2,Positive,Congruent,,,,,0,0,0,0,,,,,,,,,,,,,,,,,0,31,31,31,,,,,,,,,,,,,,,,,,,,,,,,,,,,,,,,,,,,,,,,,,,,,,,,,,,,,,,,,,,,,,,,,,,,,,,,,,,,,1.0385802288850148,0.7880941000003077,292.6819521999996,None,ScrollDown,정답입니다,292.6819521999996,None,292.6819521999996,None,292.6819521999996,None,292.6819521999996,None,293.33999619999986,None,293.33999619999986,293.84684089999973,,,,,,,,,,,,,,,,224,2022-05-25_11h01.25.187,FishGame,2022.1.1,60.01230252197912,
,33,넌 냉혹해,5,Green,A,2.583333333333333,2.1,ScrollDown,ScrollUp,Green.png,2,Negative,Incongruent,,,,,0,0,0,0,,,,,,,,,,,,,,,,,0,32,32,32,,,,,,,,,,,,,,,,,,,,,,,,,,,,,,,,,,,,,,,,,,,,,,,,,,,,,,,,,,,,,,,,,,,,,,,,,,,,,1,0.8513883999999052,294.5029264,None,ScrollDown,정답입니다,294.5029264,None,294.5029264,None,294.5029264,None,294.5029264,None,295.2204789999996,None,295.2204789999996,295.7300554999997,,,,,,,,,,,,,,,,224,2022-05-25_11h01.25.187,FishGame,2022.1.1,60.01230252197912,
,34,나를 데려가줘,6,Orange,B,0,0,ScrollDown,ScrollUp,Orange.png,2,NonTarget,NonTarget,,,,,0,0,0,0,,,,,,,,,,,,,,,,,0,33,33,33,,,,,,,,,,,,,,,,,,,,,,,,,,,,,,,,,,,,,,,,,,,,,,,,,,,,,,,,,,,,,,,,,,,,,,,,,,,,,1,1.5677733000002263,296.37920319999967,None,ScrollDown,정답입니다,296.37920319999967,None,296.37920319999967,None,296.37920319999967,None,296.37920319999967,None,297.8191532999999,None,297.8191532999999,298.32956590000003,,,,,,,,,,,,,,,,224,2022-05-25_11h01.25.187,FishGame,2022.1.1,60.01230252197912,
,35,넌 편파적이야,5,Orange,B,2.125,2,ScrollUp,ScrollDown,Orange.png,2,Negative,Congruent,,,,,0,0,0,0,,,,,,,,,,,,,,,,,0,34,34,34,,,,,,,,,,,,,,,,,,,,,,,,,,,,,,,,,,,,,,,,,,,,,,,,,,,,,,,,,,,,,,,,,,,,,,,,,,,,,2,0.9731008999997357,298.9930422999996,None,ScrollUp,정답입니다,298.9930422999996,None,298.9930422999996,None,298.9930422999996,None,298.9930422999996,None,299.8293104999998,None,299.8293104999998,300.3292693999997,,,,,,,,,,,,,,,,224,2022-05-25_11h01.25.187,FishGame,2022.1.1,60.01230252197912,
,36,넌 슬퍼,4,Green,A,2.583333333333333,3.066666666666667,ScrollDown,ScrollUp,Green.png,2,Negative,Incongruent,,,,,0,0,0,0,,,,,,,,,,,,,,,,,0,35,35,35,,,,,,,,,,,,,,,,,,,,,,,,,,,,,,,,,,,,,,,,,,,,,,,,,,,,,,,,,,,,,,,,,,,,,,,,,,,,,1,0.8673910000002252,300.9750726999996,None,ScrollDown,정답입니다,300.9750726999996,None,300.9750726999996,None,300.9750726999996,None,300.9750726999996,None,301.7197633999999,None,301.7197633999999,302.2291221999999,,,,,,,,,,,,,,,,224,2022-05-25_11h01.25.187,FishGame,2022.1.1,60.01230252197912,
,37,나를 데려가줘,6,Orange,B,0,0,ScrollDown,ScrollUp,Orange.png,2,NonTarget,NonTarget,,,,,0,0,0,0,,,,,,,,,,,,,,,,,0,36,36,36,,,,,,,,,,,,,,,,,,,,,,,,,,,,,,,,,,,,,,,,,,,,,,,,,,,,,,,,,,,,,,,,,,,,,,,,,,,,,1.0185184975465138,1.8818907999998373,302.88605259999986,None,ScrollDown,정답입니다,302.88605259999986,None,302.88605259999986,None,302.88605259999986,None,302.88605259999986,None,304.63332739999987,None,304.63332739999987,305.1453692,,,,,,,,,,,,,,,,224,2022-05-25_11h01.25.187,FishGame,2022.1.1,60.01230252197912,
,38,넌 친절해,1,Orange,B,6.041666666666667,5.533333333333333,ScrollUp,ScrollDown,Orange.png,2,Positive,Incongruent,,,,,0,0,0,0,,,,,,,,,,,,,,,,,0,37,37,37,,,,,,,,,,,,,,,,,,,,,,,,,,,,,,,,,,,,,,,,,,,,,,,,,,,,,,,,,,,,,,,,,,,,,,,,,,,,,2,1.0598833999997623,305.81779359999973,None,ScrollUp,정답입니다,305.81779359999973,None,305.81779359999973,None,305.81779359999973,None,305.81779359999973,None,306.7285657999996,None,306.7285657999996,307.2284295999998,,,,,,,,,,,,,,,,224,2022-05-25_11h01.25.187,FishGame,2022.1.1,60.01230252197912,
,1,넌 엉성해,4,Green,A,3,3.3,ScrollDown,ScrollUp,Green.png,3,Negative,Incongruent,,,,,0,0,0,0,,,,,,,,,,,,,,,,,,,,,0,0,0,0,,,,,,,,,,,,,,,,,,,,,,,,,,,,,,,,338.60807750000004,340.1076441,340.1409682999997,341.0908958,341.1409249999997,342.0907929,342.0907929,None,,,,,,,,,,,,,,,,,,,,,,,,,,,,,,,,,,1,1.3495738000001438,343.29098079999994,None,ScrollDown,정답입니다,343.29098079999994,None,343.29098079999994,None,343.29098079999994,None,343.29098079999994,None,344.4571474999998,None,344.4571474999998,344.9570457,307.7283963,None,307.7283963,None,0.23888889,0.05277778,1,0,0,0.016220630000134406,None,337.7412925999997,None,,,224,2022-05-25_11h01.25.187,FishGame,2022.1.1,60.01230252197912,
,2,나를 보내줘,6,Green,A,0,0,ScrollUp,ScrollDown,Green.png,3,NonTarget,NonTarget,,,,,0,0,0,0,,,,,,,,,,,,,,,,,,,,,0,1,1,1,,,,,,,,,,,,,,,,,,,,,,,,,,,,,,,,,,,,,,,,,,,,,,,,,,,,,,,,,,,,,,,,,,,,,,,,,1.7793209999799728,1.565433799999937,345.6063061,None,ScrollUp,정답입니다,345.6063061,None,345.6063061,None,345.6063061,None,345.6063061,None,347.0451664999996,None,347.0451664999996,347.55663509999977,,,,,,,,,,,,,,,,224,2022-05-25_11h01.25.187,FishGame,2022.1.1,60.01230252197912,
,3,넌 활발해,1,Orange,B,5.666666666666667,5.6,ScrollUp,ScrollDown,Orange.png,3,Positive,Incongruent,,,,,0,0,0,0,,,,,,,,,,,,,,,,,,,,,0,2,2,2,,,,,,,,,,,,,,,,,,,,,,,,,,,,,,,,,,,,,,,,,,,,,,,,,,,,,,,,,,,,,,,,,,,,,,,,,2,0.9713591999998243,348.2194873999997,None,ScrollUp,정답입니다,348.2194873999997,None,348.2194873999997,None,348.2194873999997,None,348.2194873999997,None,349.04948749999994,None,349.04948749999994,349.55643169999985,,,,,,,,,,,,,,,,224,2022-05-25_11h01.25.187,FishGame,2022.1.1,60.01230252197912,
,4,넌 논리적이야,2,Green,A,5.666666666666666,4.633333333333334,ScrollDown,ScrollUp,Green.png,3,Positive,Congruent,,,,,0,0,0,0,,,,,,,,,,,,,,,,,,,,,0,3,3,3,,,,,,,,,,,,,,,,,,,,,,,,,,,,,,,,,,,,,,,,,,,,,,,,,,,,,,,,,,,,,,,,,,,,,,,,,1,0.9543172000003324,350.20833749999974,None,ScrollDown,정답입니다,350.20833749999974,None,350.20833749999974,None,350.20833749999974,None,350.20833749999974,None,351.0324584,None,351.0324584,351.5394567999997,,,,,,,,,,,,,,,,224,2022-05-25_11h01.25.187,FishGame,2022.1.1,60.01230252197912,
,5,넌 과묵해,3,Green,A,3.875,4.4,ScrollDown,ScrollUp,Green.png,3,Neutral,Neutral,,,,,0,0,0,0,,,,,,,,,,,,,,,,,,,,,0,4,4,4,,,,,,,,,,,,,,,,,,,,,,,,,,,,,,,,,,,,,,,,,,,,,,,,,,,,,,,,,,,,,,,,,,,,,,,,,1,0.8711628000000928,352.1943345999998,None,ScrollDown,정답입니다,352.1943345999998,None,352.1943345999998,None,352.1943345999998,None,352.1943345999998,None,352.93348209999976,None,352.93348209999976,353.4392015999997,,,,,,,,,,,,,,,,224,2022-05-25_11h01.25.187,FishGame,2022.1.1,60.01230252197912,
,6,나를 데려가줘,6,Orange,B,0,0,ScrollDown,ScrollUp,Orange.png,3,NonTarget,NonTarget,,,,,0,0,0,0,,,,,,,,,,,,,,,,,,,,,0,5,5,5,,,,,,,,,,,,,,,,,,,,,,,,,,,,,,,,,,,,,,,,,,,,,,,,,,,,,,,,,,,,,,,,,,,,,,,,,1,2.0397054000000026,354.09586769999987,None,ScrollDown,정답입니다,354.09586769999987,None,354.09586769999987,None,354.09586769999987,None,354.09586769999987,None,356.0058425999996,None,356.0058425999996,356.50544489999993,,,,,,,,,,,,,,,,224,2022-05-25_11h01.25.187,FishGame,2022.1.1,60.01230252197912,
,7,넌 미숙해,4,Orange,B,3,3,ScrollUp,ScrollDown,Orange.png,3,Negative,Congruent,,,,,0,0,0,0,,,,,,,,,,,,,,,,,,,,,0,6,6,6,,,,,,,,,,,,,,,,,,,,,,,,,,,,,,,,,,,,,,,,,,,,,,,,,,,,,,,,,,,,,,,,,,,,,,,,,2,1.0222447000001011,357.1605639999998,None,ScrollUp,정답입니다,357.1605639999998,None,357.1605639999998,None,357.1605639999998,None,357.1605639999998,None,358.0484818,None,358.0484818,358.55561279999984,,,,,,,,,,,,,,,,224,2022-05-25_11h01.25.187,FishGame,2022.1.1,60.01230252197912,
,8,나를 보내줘,6,Green,A,0,0,ScrollUp,ScrollDown,Green.png,3,NonTarget,NonTarget,,,,,0,0,0,0,,,,,,,,,,,,,,,,,,,,,0,7,7,7,,,,,,,,,,,,,,,,,,,,,,,,,,,,,,,,,,,,,,,,,,,,,,,,,,,,,,,,,,,,,,,,,,,,,,,,,1.859567900498708,2.0127676000001884,359.2003464999998,None,ScrollUp,정답입니다,359.2003464999998,None,359.2003464999998,None,359.2003464999998,None,359.2003464999998,None,361.0904723999997,None,361.0904723999997,361.6047789999998,,,,,,,,,,,,,,,,224,2022-05-25_11h01.25.187,FishGame,2022.1.1,60.01230252197912,
,9,넌 자신만만해,3,Orange,B,4.833333333333334,4.333333333333333,ScrollUp,ScrollDown,Orange.png,3,Neutral,Neutral,,,,,0,0,0,0,,,,,,,,,,,,,,,,,,,,,0,8,8,8,,,,,,,,,,,,,,,,,,,,,,,,,,,,,,,,,,,,,,,,,,,,,,,,,,,,,,,,,,,,,,,,,,,,,,,,,2,0.9656826999998884,362.2605945,None,ScrollUp,정답입니다,362.2605945,None,362.2605945,None,362.2605945,None,362.2605945,None,363.09272759999976,None,363.09272759999976,363.6045519999998,,,,,,,,,,,,,,,,224,2022-05-25_11h01.25.187,FishGame,2022.1.1,60.01230252197912,
,10,넌 탐욕스러워,5,Green,A,2.25,2.1,ScrollDown,ScrollUp,Green.png,3,Negative,Incongruent,,,,,0,0,0,0,,,,,,,,,,,,,,,,,,,,,0,9,9,9,,,,,,,,,,,,,,,,,,,,,,,,,,,,,,,,,,,,,,,,,,,,,,,,,,,,,,,,,,,,,,,,,,,,,,,,,1,0.9571673000000374,364.2649913,None,ScrollDown,정답입니다,364.2649913,None,364.2649913,None,364.2649913,None,364.2649913,None,365.0879665999996,None,365.0879665999996,365.5876610999999,,,,,,,,,,,,,,,,224,2022-05-25_11h01.25.187,FishGame,2022.1.1,60.01230252197912,
,11,넌 인기있어,2,Green,A,5.458333333333333,4.5,ScrollDown,ScrollUp,Green.png,3,Positive,Congruent,,,,,0,0,0,0,,,,,,,,,,,,,,,,,,,,,0,10,10,10,,,,,,,,,,,,,,,,,,,,,,,,,,,,,,,,,,,,,,,,,,,,,,,,,,,,,,,,,,,,,,,,,,,,,,,,,1,0.9335344000000987,366.2500132,None,ScrollDown,정답입니다,366.2500132,None,366.2500132,None,366.2500132,None,366.2500132,None,367.0443894,None,367.0443894,367.5541535999996,,,,,,,,,,,,,,,,224,2022-05-25_11h01.25.187,FishGame,2022.1.1,60.01230252197912,
,12,나를 데려가줘,6,Orange,B,0,0,ScrollDown,ScrollUp,Orange.png,3,NonTarget,NonTarget,,,,,0,0,0,0,,,,,,,,,,,,,,,,,,,,,0,11,11,11,,,,,,,,,,,,,,,,,,,,,,,,,,,,,,,,,,,,,,,,,,,,,,,,,,,,,,,,,,,,,,,,,,,,,,,,,1,1.0759997000000112,368.1999707,None,ScrollDown,정답입니다,368.1999707,None,368.1999707,None,368.1999707,None,368.1999707,None,369.1540299999997,None,369.1540299999997,369.6538065,,,,,,,,,,,,,,,,224,2022-05-25_11h01.25.187,FishGame,2022.1.1,60.01230252197912,
,13,넌 뛰어나,2,Orange,B,6.166666666666667,4,ScrollUp,ScrollDown,Orange.png,3,Positive,Incongruent,,,,,0,0,0,0,,,,,,,,,,,,,,,,,,,,,0,12,12,12,,,,,,,,,,,,,,,,,,,,,,,,,,,,,,,,,,,,,,,,,,,,,,,,,,,,,,,,,,,,,,,,,,,,,,,,,2,0.931120600000213,370.31985050000003,None,ScrollUp,정답입니다,370.31985050000003,None,370.31985050000003,None,370.31985050000003,None,370.31985050000003,None,371.10772769999994,None,371.10772769999994,371.62022799999977,,,,,,,,,,,,,,,,224,2022-05-25_11h01.25.187,FishGame,2022.1.1,60.01230252197912,
,14,넌 낙관적이야,1,Green,A,5.75,5.8,ScrollDown,ScrollUp,Green.png,3,Positive,Congruent,,,,,0,0,0,0,,,,,,,,,,,,,,,,,,,,,0,13,13,13,,,,,,,,,,,,,,,,,,,,,,,,,,,,,,,,,,,,,,,,,,,,,,,,,,,,,,,,,,,,,,,,,,,,,,,,,1,0.9183749000003445,372.2785630999997,None,ScrollDown,정답입니다,372.2785630999997,None,372.2785630999997,None,372.2785630999997,None,372.2785630999997,None,373.06000270000004,None,373.06000270000004,373.5701767999999,,,,,,,,,,,,,,,,224,2022-05-25_11h01.25.187,FishGame,2022.1.1,60.01230252197912,
,15,넌 산만해,4,Orange,B,2.695652173913043,3.033333333333333,ScrollUp,ScrollDown,Orange.png,3,Negative,Congruent,,,,,0,0,0,0,,,,,,,,,,,,,,,,,,,,,0,14,14,14,,,,,,,,,,,,,,,,,,,,,,,,,,,,,,,,,,,,,,,,,,,,,,,,,,,,,,,,,,,,,,,,,,,,,,,,,2,1.0058279999998376,374.2237783999999,None,ScrollUp,정답입니다,374.2237783999999,None,374.2237783999999,None,374.2237783999999,None,374.2237783999999,None,375.0965762999999,None,375.0965762999999,375.60307939999984,,,,,,,,,,,,,,,,224,2022-05-25_11h01.25.187,FishGame,2022.1.1,60.01230252197912,
,16,나를 보내줘,6,Green,A,0,0,ScrollUp,ScrollDown,Green.png,3,NonTarget,NonTarget,,,,,0,0,0,0,,,,,,,,,,,,,,,,,,,,,0,15,15,15,,,,,,,,,,,,,,,,,,,,,,,,,,,,,,,,,,,,,,,,,,,,,,,,,,,,,,,,,,,,,,,,,,,,,,,,,2,1.145270200000141,376.24983959999963,None,ScrollUp,정답입니다,376.24983959999963,None,376.24983959999963,None,376.24983959999963,None,376.24983959999963,None,377.27093990000003,None,377.27093990000003,377.7861362999997,,,,,,,,,,,,,,,,224,2022-05-25_11h01.25.187,FishGame,2022.1.1,60.01230252197912,
,17,넌 교활해,5,Orange,B,2.333333333333333,2.133333333333333,ScrollUp,ScrollDown,Orange.png,3,Negative,Congruent,,,,,0,0,0,0,,,,,,,,,,,,,,,,,,,,,0,16,16,16,,,,,,,,,,,,,,,,,,,,,,,,,,,,,,,,,,,,,,,,,,,,,,,,,,,,,,,,,,,,,,,,,,,,,,,,,2,1.0163039999997636,378.44811119999986,None,ScrollUp,정답입니다,378.44811119999986,None,378.44811119999986,None,378.44811119999986,None,378.44811119999986,None,379.32439909999994,None,379.32439909999994,379.8358275999999,,,,,,,,,,,,,,,,224,2022-05-25_11h01.25.187,FishGame,2022.1.1,60.01230252197912,
,18,나를 보내줘,6,Green,A,0,0,ScrollUp,ScrollDown,Green.png,3,NonTarget,NonTarget,,,,,0,0,0,0,,,,,,,,,,,,,,,,,,,,,0,17,17,17,,,,,,,,,,,,,,,,,,,,,,,,,,,,,,,,,,,,,,,,,,,,,,,,,,,,,,,,,,,,,,,,,,,,,,,,,2,1.1388317999999344,380.4959094999999,None,ScrollUp,정답입니다,380.4959094999999,None,380.4959094999999,None,380.4959094999999,None,380.4959094999999,None,381.50251439999965,None,381.50251439999965,382.0021634999998,,,,,,,,,,,,,,,,224,2022-05-25_11h01.25.187,FishGame,2022.1.1,60.01230252197912,
,19,넌 불친절해,5,Orange,B,2.208333333333333,2.033333333333333,ScrollUp,ScrollDown,Orange.png,3,Negative,Congruent,,,,,0,0,0,0,,,,,,,,,,,,,,,,,,,,,0,18,18,18,,,,,,,,,,,,,,,,,,,,,,,,,,,,,,,,,,,,,,,,,,,,,,,,,,,,,,,,,,,,,,,,,,,,,,,,,2,1.6444954999997208,382.670482,None,ScrollUp,정답입니다,382.670482,None,382.670482,None,382.670482,None,382.670482,None,384.1687944,None,384.1687944,384.6684535999998,,,,,,,,,,,,,,,,224,2022-05-25_11h01.25.187,FishGame,2022.1.1,60.01230252197912,
,20,넌 지적이야,2,Orange,B,5.75,4.366666666666666,ScrollUp,ScrollDown,Orange.png,3,Positive,Incongruent,,,,,0,0,0,0,,,,,,,,,,,,,,,,,,,,,0,19,19,19,,,,,,,,,,,,,,,,,,,,,,,,,,,,,,,,,,,,,,,,,,,,,,,,,,,,,,,,,,,,,,,,,,,,,,,,,2,1.0113107000001946,385.32274579999967,None,ScrollUp,정답입니다,385.32274579999967,None,385.32274579999967,None,385.32274579999967,None,385.32274579999967,None,386.2027893999998,None,386.2027893999998,386.7016116,,,,,,,,,,,,,,,,224,2022-05-25_11h01.25.187,FishGame,2022.1.1,60.01230252197912,
,21,넌 우유부단해,4,Green,A,2.666666666666667,3.166666666666667,ScrollDown,ScrollUp,Green.png,3,Negative,Incongruent,,,,,0,0,0,0,,,,,,,,,,,,,,,,,,,,,0,20,20,20,,,,,,,,,,,,,,,,,,,,,,,,,,,,,,,,,,,,,,,,,,,,,,,,,,,,,,,,,,,,,,,,,,,,,,,,,1,1.5494234000002507,387.36983899999996,None,ScrollDown,정답입니다,387.36983899999996,None,387.36983899999996,None,387.36983899999996,None,387.36983899999996,None,388.7894847999996,None,388.7894847999996,389.30130299999973,,,,,,,,,,,,,,,,224,2022-05-25_11h01.25.187,FishGame,2022.1.1,60.01230252197912,
,22,나를 데려가줘,6,Orange,B,0,0,ScrollDown,ScrollUp,Orange.png,3,NonTarget,NonTarget,,,,,0,0,0,0,,,,,,,,,,,,,,,,,,,,,0,21,21,21,,,,,,,,,,,,,,,,,,,,,,,,,,,,,,,,,,,,,,,,,,,,,,,,,,,,,,,,,,,,,,,,,,,,,,,,,1.0632716019948323,1.1925891000000775,389.95994139999993,None,ScrollDown,정답입니다,389.95994139999993,None,389.95994139999993,None,389.95994139999993,None,389.95994139999993,None,391.0180599999999,None,391.0180599999999,391.5177434999996,,,,,,,,,,,,,,,,224,2022-05-25_11h01.25.187,FishGame,2022.1.1,60.01230252197912,
,23,넌 성실해,1,Orange,B,6.041666666666666,5.7,ScrollUp,ScrollDown,Orange.png,3,Positive,Incongruent,,,,,0,0,0,0,,,,,,,,,,,,,,,,,,,,,0,22,22,22,,,,,,,,,,,,,,,,,,,,,,,,,,,,,,,,,,,,,,,,,,,,,,,,,,,,,,,,,,,,,,,,,,,,,,,,,2,0.9972330999999031,392.1732327999998,None,ScrollUp,정답입니다,392.1732327999998,None,392.1732327999998,None,392.1732327999998,None,392.1732327999998,None,393.03712529999984,None,393.03712529999984,393.5507703999997,,,,,,,,,,,,,,,,224,2022-05-25_11h01.25.187,FishGame,2022.1.1,60.01230252197912,
,24,넌 현실주의적이야,3,Green,A,4.625,4.4,ScrollDown,ScrollUp,Green.png,3,Neutral,Neutral,,,,,0,0,0,0,,,,,,,,,,,,,,,,,,,,,0,23,23,23,,,,,,,,,,,,,,,,,,,,,,,,,,,,,,,,,,,,,,,,,,,,,,,,,,,,,,,,,,,,,,,,,,,,,,,,,1,1.1186210999999275,394.2010532999998,None,ScrollDown,정답입니다,394.2010532999998,None,394.2010532999998,None,394.2010532999998,None,394.2010532999998,None,395.1916710999999,None,395.1916710999999,395.70048469999983,,,,,,,,,,,,,,,,224,2022-05-25_11h01.25.187,FishGame,2022.1.1,60.01230252197912,
,25,넌 진실돼,1,Green,A,6.625,5.566666666666666,ScrollDown,ScrollUp,Green.png,3,Positive,Congruent,,,,,0,0,0,0,,,,,,,,,,,,,,,,,,,,,0,24,24,24,,,,,,,,,,,,,,,,,,,,,,,,,,,,,,,,,,,,,,,,,,,,,,,,,,,,,,,,,,,,,,,,,,,,,,,,,1.0416666567325592,0.9190499000001182,396.3602840999997,None,ScrollDown,정답입니다,396.3602840999997,None,396.3602840999997,None,396.3602840999997,None,396.3602840999997,None,397.1409746999998,None,397.1409746999998,397.6501497999998,,,,,,,,,,,,,,,,224,2022-05-25_11h01.25.187,FishGame,2022.1.1,60.01230252197912,
,26,넌 천진난만해,3,Orange,B,4.958333333333334,4.833333333333333,ScrollUp,ScrollDown,Orange.png,3,Neutral,Neutral,,,,,0,0,0,0,,,,,,,,,,,,,,,,,,,,,0,25,25,25,,,,,,,,,,,,,,,,,,,,,,,,,,,,,,,,,,,,,,,,,,,,,,,,,,,,,,,,,,,,,,,,,,,,,,,,,2,0.9515130000004319,398.31266989999995,None,ScrollUp,정답입니다,398.31266989999995,None,398.31266989999995,None,398.31266989999995,None,398.31266989999995,None,399.1221572999998,None,399.1221572999998,399.6333913999997,,,,,,,,,,,,,,,,224,2022-05-25_11h01.25.187,FishGame,2022.1.1,60.01230252197912,
,27,넌 교양없어,5,Green,A,2.416666666666667,2.2,ScrollDown,ScrollUp,Green.png,3,Negative,Incongruent,,,,,0,0,0,0,,,,,,,,,,,,,,,,,,,,,0,26,26,26,,,,,,,,,,,,,,,,,,,,,,,,,,,,,,,,,,,,,,,,,,,,,,,,,,,,,,,,,,,,,,,,,,,,,,,,,1,1.102203500000087,400.2888069999999,None,ScrollDown,정답입니다,400.2888069999999,None,400.2888069999999,None,400.2888069999999,None,400.2888069999999,None,401.25660259999995,None,401.25660259999995,401.76676789999965,,,,,,,,,,,,,,,,224,2022-05-25_11h01.25.187,FishGame,2022.1.1,60.01230252197912,
,28,나를 보내줘,6,Green,A,0,0,ScrollUp,ScrollDown,Green.png,3,NonTarget,NonTarget,,,,,0,0,0,0,,,,,,,,,,,,,,,,,,,,,0,27,27,27,,,,,,,,,,,,,,,,,,,,,,,,,,,,,,,,,,,,,,,,,,,,,,,,,,,,,,,,,,,,,,,,,,,,,,,,,2,1.8151449000001776,402.40718719999995,None,ScrollUp,정답입니다,402.40718719999995,None,402.40718719999995,None,402.40718719999995,None,402.40718719999995,None,404.1043399,None,404.1043399,404.6160236999999,,,,,,,,,,,,,,,,224,2022-05-25_11h01.25.187,FishGame,2022.1.1,60.01230252197912,
,29,넌 엉뚱스러워,3,Green,A,4.166666666666667,4.133333333333334,ScrollDown,ScrollUp,Green.png,3,Neutral,Neutral,,,,,0,0,0,0,,,,,,,,,,,,,,,,,,,,,0,28,28,28,,,,,,,,,,,,,,,,,,,,,,,,,,,,,,,,,,,,,,,,,,,,,,,,,,,,,,,,,,,,,,,,,,,,,,,,,1.0648148159186046,0.9154806999999892,405.27422579999984,None,ScrollDown,정답입니다,405.27422579999984,None,405.27422579999984,None,405.27422579999984,None,405.27422579999984,None,406.0538477,None,406.0538477,406.56591279999975,,,,,,,,,,,,,,,,224,2022-05-25_11h01.25.187,FishGame,2022.1.1,60.01230252197912,
,30,넌 무지해,4,Orange,B,2.541666666666667,3.066666666666667,ScrollUp,ScrollDown,Orange.png,3,Negative,Congruent,,,,,0,0,0,0,,,,,,,,,,,,,,,,,,,,,0,29,29,29,,,,,,,,,,,,,,,,,,,,,,,,,,,,,,,,,,,,,,,,,,,,,,,,,,,,,,,,,,,,,,,,,,,,,,,,,2,0.9224740000004203,407.2223380999999,None,ScrollUp,정답입니다,407.2223380999999,None,407.2223380999999,None,407.2223380999999,None,407.2223380999999,None,408.0084238999998,None,408.0084238999998,408.5154115999999,,,,,,,,,,,,,,,,224,2022-05-25_11h01.25.187,FishGame,2022.1.1,60.01230252197912,
,31,넌 음울해,5,Orange,B,2.25,2.233333333333333,ScrollUp,ScrollDown,Orange.png,3,Negative,Congruent,,,,,0,0,0,0,,,,,,,,,,,,,,,,,,,,,0,30,30,30,,,,,,,,,,,,,,,,,,,,,,,,,,,,,,,,,,,,,,,,,,,,,,,,,,,,,,,,,,,,,,,,,,,,,,,,,1.90586419403553,0.9144629000002169,409.1765608999999,None,ScrollUp,정답입니다,409.1765608999999,None,409.1765608999999,None,409.1765608999999,None,409.1765608999999,None,409.9528564999996,None,409.9528564999996,410.4652471999998,,,,,,,,,,,,,,,,224,2022-05-25_11h01.25.187,FishGame,2022.1.1,60.01230252197912,
,32,넌 냉소적이야,5,Green,A,2.916666666666667,2.4,ScrollDown,ScrollUp,Green.png,3,Negative,Incongruent,,,,,0,0,0,0,,,,,,,,,,,,,,,,,,,,,0,31,31,31,,,,,,,,,,,,,,,,,,,,,,,,,,,,,,,,,,,,,,,,,,,,,,,,,,,,,,,,,,,,,,,,,,,,,,,,,1,0.9371636999999282,411.11047489999964,None,ScrollDown,정답입니다,411.11047489999964,None,411.11047489999964,None,411.11047489999964,None,411.11047489999964,None,411.92415189999974,None,411.92415189999974,412.4317335999999,,,,,,,,,,,,,,,,224,2022-05-25_11h01.25.187,FishGame,2022.1.1,60.01230252197912,
,33,나를 데려가줘,6,Orange,B,0,0,ScrollDown,ScrollUp,Orange.png,3,NonTarget,NonTarget,,,,,0,0,0,0,,,,,,,,,,,,,,,,,,,,,0,32,32,32,,,,,,,,,,,,,,,,,,,,,,,,,,,,,,,,,,,,,,,,,,,,,,,,,,,,,,,,,,,,,,,,,,,,,,,,,1.0123456915219624,1.1861588000001575,413.0881565999998,None,ScrollDown,정답입니다,413.0881565999998,None,413.0881565999998,None,413.0881565999998,None,413.0881565999998,None,414.1394802,None,414.1394802,414.6479672999999,,,,,,,,,,,,,,,,224,2022-05-25_11h01.25.187,FishGame,2022.1.1,60.01230252197912,
,34,넌 쾌활해,1,Green,A,5.541666666666666,5.733333333333333,ScrollDown,ScrollUp,Green.png,3,Positive,Congruent,,,,,0,0,0,0,,,,,,,,,,,,,,,,,,,,,0,33,33,33,,,,,,,,,,,,,,,,,,,,,,,,,,,,,,,,,,,,,,,,,,,,,,,,,,,,,,,,,,,,,,,,,,,,,,,,,1.0679012437661488,0.909985400000096,415.3092002999997,None,ScrollDown,정답입니다,415.3092002999997,None,415.3092002999997,None,415.3092002999997,None,415.3092002999997,None,416.07647389999966,None,416.07647389999966,416.5811346999999,,,,,,,,,,,,,,,,224,2022-05-25_11h01.25.187,FishGame,2022.1.1,60.01230252197912,
,35,나를 보내줘,6,Green,A,0,0,ScrollUp,ScrollDown,Green.png,3,NonTarget,NonTarget,,,,,0,0,0,0,,,,,,,,,,,,,,,,,,,,,0,34,34,34,,,,,,,,,,,,,,,,,,,,,,,,,,,,,,,,,,,,,,,,,,,,,,,,,,,,,,,,,,,,,,,,,,,,,,,,,2,1.5108185000003687,417.23277629999984,None,ScrollUp,정답입니다,417.23277629999984,None,417.23277629999984,None,417.23277629999984,None,417.23277629999984,None,418.6141451999997,None,418.6141451999997,419.11405239999976,,,,,,,,,,,,,,,,224,2022-05-25_11h01.25.187,FishGame,2022.1.1,60.01230252197912,
,36,넌 명랑해,1,Orange,B,5.739130434782609,5.666666666666667,ScrollUp,ScrollDown,Orange.png,3,Positive,Incongruent,,,,,0,0,0,0,,,,,,,,,,,,,,,,,,,,,0,35,35,35,,,,,,,,,,,,,,,,,,,,,,,,,,,,,,,,,,,,,,,,,,,,,,,,,,,,,,,,,,,,,,,,,,,,,,,,,2,1.1009318999999778,419.7722776999999,None,ScrollUp,정답입니다,419.7722776999999,None,419.7722776999999,None,419.7722776999999,None,419.7722776999999,None,420.7371097,None,420.7371097,421.24723919999997,,,,,,,,,,,,,,,,224,2022-05-25_11h01.25.187,FishGame,2022.1.1,60.01230252197912,
,37,넌 멍해,4,Green,A,2.833333333333333,3.4,ScrollDown,ScrollUp,Green.png,3,Negative,Incongruent,,,,,0,0,0,0,,,,,,,,,,,,,,,,,,,,,0,36,36,36,,,,,,,,,,,,,,,,,,,,,,,,,,,,,,,,,,,,,,,,,,,,,,,,,,,,,,,,,,,,,,,,,,,,,,,,,1,0.9499699000002693,421.9022265999997,None,ScrollDown,정답입니다,421.9022265999997,None,421.9022265999997,None,421.9022265999997,None,421.9022265999997,None,422.71897769999987,None,422.71897769999987,423.23026979999986,,,,,,,,,,,,,,,,224,2022-05-25_11h01.25.187,FishGame,2022.1.1,60.01230252197912,
,38,나를 데려가줘,6,Orange,B,0,0,ScrollDown,ScrollUp,Orange.png,3,NonTarget,NonTarget,,,,,0,0,0,0,,,,,,,,,,,,,,,,,,,,,0,37,37,37,,,,,,,,,,,,,,,,,,,,,,,,,,,,,,,,,,,,,,,,,,,,,,,,,,,,,,,,,,,,,,,,,,,,,,,,,1.1759259204069774,1.2274081000000479,423.8886365999997,None,ScrollDown,정답입니다,423.8886365999997,None,423.8886365999997,None,423.8886365999997,None,423.8886365999997,None,424.97665340000003,None,424.97665340000003,425.48003289999997,,,,,,,,,,,,,,,,224,2022-05-25_11h01.25.187,FishGame,2022.1.1,60.01230252197912,
,39,넌 현명해,2,Green,A,6.541666666666666,4.533333333333333,ScrollDown,ScrollUp,Green.png,3,Positive,Congruent,,,,,0,0,0,0,,,,,,,,,,,,,,,,,,,,,0,38,38,38,,,,,,,,,,,,,,,,,,,,,,,,,,,,,,,,,,,,,,,,,,,,,,,,,,,,,,,,,,,,,,,,,,,,,,,,,1.180555562178294,0.9438353000000461,426.1315233,None,ScrollDown,정답입니다,426.1315233,None,426.1315233,None,426.1315233,None,426.1315233,None,426.9467344999998,None,426.9467344999998,427.4464527,,,,,,,,,,,,,,,,224,2022-05-25_11h01.25.187,FishGame,2022.1.1,60.01230252197912,
,40,넌 수줍어,3,Orange,B,3.541666666666666,4.366666666666666,ScrollUp,ScrollDown,Orange.png,3,Neutral,Neutral,,,,,0,0,0,0,,,,,,,,,,,,,,,,,,,,,0,39,39,39,,,,,,,,,,,,,,,,,,,,,,,,,,,,,,,,,,,,,,,,,,,,,,,,,,,,,,,,,,,,,,,,,,,,,,,,,2,1.0611886000001505,428.1051967999997,None,ScrollUp,정답입니다,428.1051967999997,None,428.1051967999997,None,428.1051967999997,None,428.1051967999997,None,429.02954090000003,None,429.02954090000003,429.52944019999995,,,,,,,,,,,,,,,,224,2022-05-25_11h01.25.187,FishGame,2022.1.1,60.01230252197912,
,41,나를 데려가줘,6,Orange,B,0,0,ScrollDown,ScrollUp,Orange.png,3,NonTarget,NonTarget,,,,,0,0,0,0,,,,,,,,,,,,,,,,,,,,,0,40,40,40,,,,,,,,,,,,,,,,,,,,,,,,,,,,,,,,,,,,,,,,,,,,,,,,,,,,,,,,,,,,,,,,,,,,,,,,,1,1.1105631999998877,430.18792080000003,None,ScrollDown,정답입니다,430.18792080000003,None,430.18792080000003,None,430.18792080000003,None,430.18792080000003,None,431.1628304999999,None,431.1628304999999,431.6625239,,,,,,,,,,,,,,,,224,2022-05-25_11h01.25.187,FishGame,2022.1.1,60.01230252197912,
,42,넌 성숙해,2,Orange,B,5.833333333333333,4.533333333333333,ScrollUp,ScrollDown,Orange.png,3,Positive,Incongruent,,,,,0,0,0,0,,,,,,,,,,,,,,,,,,,,,0,41,41,41,,,,,,,,,,,,,,,,,,,,,,,,,,,,,,,,,,,,,,,,,,,,,,,,,,,,,,,,,,,,,,,,,,,,,,,,,2,0.9658537999998771,432.31834230000004,None,ScrollUp,정답입니다,432.31834230000004,None,432.31834230000004,None,432.31834230000004,None,432.31834230000004,None,433.1504651,None,433.1504651,433.66234859999986,,,,,,,,,,,,,,,,224,2022-05-25_11h01.25.187,FishGame,2022.1.1,60.01230252197912,
,1,넌 매력적이야,2,Orange,B,6.125,4.666666666666667,ScrollUp,ScrollDown,Orange.png,4,Positive,Incongruent,,,,,0,0,0,0,,,,,,,,,,,,,,,,,,,,,,,,,0,0,0,0,,,,,,,,,,,,,,,,,,,,,,,,,,,,465.27501759999996,466.7748188999999,466.8080152999996,467.75800709999976,467.8079908999998,468.75801,468.75801,None,,,,,,,,,,,,,,,,,,,,,,,,,,,,,,,,,,1.7762345721324284,1.1815722999999707,469.97224449999976,None,ScrollUp,정답입니다,469.97224449999976,None,469.97224449999976,None,469.97224449999976,None,469.97224449999976,None,470.9574186,None,470.9574186,471.45754689999967,434.16220939999994,None,434.16220939999994,None,0.16388889,-0.10277778,1,0,0,0.016205230000196025,None,464.1588316999996,None,,,224,2022-05-25_11h01.25.187,FishGame,2022.1.1,60.01230252197912,
,2,나를 보내줘,6,Green,A,0,0,ScrollUp,ScrollDown,Green.png,4,NonTarget,NonTarget,,,,,0,0,0,0,,,,,,,,,,,,,,,,,,,,,,,,,0,1,1,1,,,,,,,,,,,,,,,,,,,,,,,,,,,,,,,,,,,,,,,,,,,,,,,,,,,,,,,,,,,,,,,,,,,,,2,1.860811300000023,472.10766749999993,None,ScrollUp,정답입니다,472.10766749999993,None,472.10766749999993,None,472.10766749999993,None,472.10766749999993,None,473.8375824999998,None,473.8375824999998,474.3404817999999,,,,,,,,,,,,,,,,224,2022-05-25_11h01.25.187,FishGame,2022.1.1,60.01230252197912,
,3,넌 조심스러워,3,Green,A,4.791666666666666,4.666666666666667,ScrollDown,ScrollUp,Green.png,4,Neutral,Neutral,,,,,0,0,0,0,,,,,,,,,,,,,,,,,,,,,,,,,0,2,2,2,,,,,,,,,,,,,,,,,,,,,,,,,,,,,,,,,,,,,,,,,,,,,,,,,,,,,,,,,,,,,,,,,,,,,1.1481481442848842,1.1493803000003027,474.9935046999999,None,ScrollDown,정답입니다,474.9935046999999,None,474.9935046999999,None,474.9935046999999,None,474.9935046999999,None,476.0126599,None,476.0126599,476.52353949999997,,,,,,,,,,,,,,,,224,2022-05-25_11h01.25.187,FishGame,2022.1.1,60.01230252197912,
,4,넌 철학적이야,3,Orange,B,4.5,4.266666666666667,ScrollUp,ScrollDown,Orange.png,4,Neutral,Neutral,,,,,0,0,0,0,,,,,,,,,,,,,,,,,,,,,,,,,0,3,3,3,,,,,,,,,,,,,,,,,,,,,,,,,,,,,,,,,,,,,,,,,,,,,,,,,,,,,,,,,,,,,,,,,,,,,2,0.8648862000000008,477.1864501,None,ScrollUp,정답입니다,477.1864501,None,477.1864501,None,477.1864501,None,477.1864501,None,477.91216729999996,None,477.91216729999996,478.4232251999997,,,,,,,,,,,,,,,,224,2022-05-25_11h01.25.187,FishGame,2022.1.1,60.01230252197912,
,5,넌 쩨쩨해,5,Green,A,2.375,2.133333333333333,ScrollDown,ScrollUp,Green.png,4,Negative,Incongruent,,,,,0,0,0,0,,,,,,,,,,,,,,,,,,,,,,,,,0,4,4,4,,,,,,,,,,,,,,,,,,,,,,,,,,,,,,,,,,,,,,,,,,,,,,,,,,,,,,,,,,,,,,,,,,,,,1.1234567960103352,0.8926609000000099,479.07215389999965,None,ScrollDown,정답입니다,479.07215389999965,None,479.07215389999965,None,479.07215389999965,None,479.07215389999965,None,479.8398261999996,None,479.8398261999996,480.33968049999976,,,,,,,,,,,,,,,,224,2022-05-25_11h01.25.187,FishGame,2022.1.1,60.01230252197912,
,6,나를 데려가줘,6,Orange,B,0,0,ScrollDown,ScrollUp,Orange.png,4,NonTarget,NonTarget,,,,,0,0,0,0,,,,,,,,,,,,,,,,,,,,,,,,,0,5,5,5,,,,,,,,,,,,,,,,,,,,,,,,,,,,,,,,,,,,,,,,,,,,,,,,,,,,,,,,,,,,,,,,,,,,,1.0108024775981903,1.1336636999999428,480.99897139999985,None,ScrollDown,정답입니다,480.99897139999985,None,480.99897139999985,None,480.99897139999985,None,480.99897139999985,None,481.99615859999994,None,481.99615859999994,482.5060835999998,,,,,,,,,,,,,,,,224,2022-05-25_11h01.25.187,FishGame,2022.1.1,60.01230252197912,
,7,넌 고집불통이야,5,Orange,B,2.875,2,ScrollUp,ScrollDown,Orange.png,4,Negative,Congruent,,,,,0,0,0,0,,,,,,,,,,,,,,,,,,,,,,,,,0,6,6,6,,,,,,,,,,,,,,,,,,,,,,,,,,,,,,,,,,,,,,,,,,,,,,,,,,,,,,,,,,,,,,,,,,,,,2,0.9263551999997617,483.1835057999997,None,ScrollUp,정답입니다,483.1835057999997,None,483.1835057999997,None,483.1835057999997,None,483.1835057999997,None,483.9560975999998,None,483.9560975999998,484.45575089999966,,,,,,,,,,,,,,,,224,2022-05-25_11h01.25.187,FishGame,2022.1.1,60.01230252197912,
,8,넌 무심해,4,Green,A,2.875,3.2,ScrollDown,ScrollUp,Green.png,4,Negative,Incongruent,,,,,0,0,0,0,,,,,,,,,,,,,,,,,,,,,,,,,0,7,7,7,,,,,,,,,,,,,,,,,,,,,,,,,,,,,,,,,,,,,,,,,,,,,,,,,,,,,,,,,,,,,,,,,,,,,1.0200617114702861,0.8837014000000636,485.1032756999998,None,ScrollDown,정답입니다,485.1032756999998,None,485.1032756999998,None,485.1032756999998,None,485.1032756999998,None,485.86183619999974,None,485.86183619999974,486.3722206999996,,,,,,,,,,,,,,,,224,2022-05-25_11h01.25.187,FishGame,2022.1.1,60.01230252197912,
,9,넌 정겨워,1,Green,A,5.791666666666667,5.666666666666667,ScrollDown,ScrollUp,Green.png,4,Positive,Congruent,,,,,0,0,0,0,,,,,,,,,,,,,,,,,,,,,,,,,0,8,8,8,,,,,,,,,,,,,,,,,,,,,,,,,,,,,,,,,,,,,,,,,,,,,,,,,,,,,,,,,,,,,,,,,,,,,1.1311728407939274,0.8605139999999665,487.0240197999997,None,ScrollDown,정답입니다,487.0240197999997,None,487.0240197999997,None,487.0240197999997,None,487.0240197999997,None,487.75569289999976,None,487.75569289999976,488.2553462999999,,,,,,,,,,,,,,,,224,2022-05-25_11h01.25.187,FishGame,2022.1.1,60.01230252197912,
,10,나를 데려가줘,6,Orange,B,0,0,ScrollDown,ScrollUp,Orange.png,4,NonTarget,NonTarget,,,,,0,0,0,0,,,,,,,,,,,,,,,,,,,,,,,,,0,9,9,9,,,,,,,,,,,,,,,,,,,,,,,,,,,,,,,,,,,,,,,,,,,,,,,,,,,,,,,,,,,,,,,,,,,,,1.0509259402751923,1.184091399999943,488.9137080999999,None,ScrollDown,정답입니다,488.9137080999999,None,488.9137080999999,None,488.9137080999999,None,488.9137080999999,None,489.9609038999997,None,489.9609038999997,490.47171660000004,,,,,,,,,,,,,,,,224,2022-05-25_11h01.25.187,FishGame,2022.1.1,60.01230252197912,
,11,넌 체제순응적이야,4,Orange,B,3,3.6,ScrollUp,ScrollDown,Orange.png,4,Negative,Congruent,,,,,0,0,0,0,,,,,,,,,,,,,,,,,,,,,,,,,0,10,10,10,,,,,,,,,,,,,,,,,,,,,,,,,,,,,,,,,,,,,,,,,,,,,,,,,,,,,,,,,,,,,,,,,,,,,2,0.8521003999999266,491.1405335999998,None,ScrollUp,정답입니다,491.1405335999998,None,491.1405335999998,None,491.1405335999998,None,491.1405335999998,None,491.8438271,None,491.8438271,492.3548169999999,,,,,,,,,,,,,,,,224,2022-05-25_11h01.25.187,FishGame,2022.1.1,60.01230252197912,
,12,나를 보내줘,6,Green,A,0,0,ScrollUp,ScrollDown,Green.png,4,NonTarget,NonTarget,,,,,0,0,0,0,,,,,,,,,,,,,,,,,,,,,,,,,0,11,11,11,,,,,,,,,,,,,,,,,,,,,,,,,,,,,,,,,,,,,,,,,,,,,,,,,,,,,,,,,,,,,,,,,,,,,1.9629629850387573,1.1099059999996825,493.00194329999977,None,ScrollUp,정답입니다,493.00194329999977,None,493.00194329999977,None,493.00194329999977,None,493.00194329999977,None,493.9884189999998,None,493.9884189999998,494.4879013999998,,,,,,,,,,,,,,,,224,2022-05-25_11h01.25.187,FishGame,2022.1.1,60.01230252197912,
,13,넌 박식해,2,Green,A,5.625,3.933333333333333,ScrollDown,ScrollUp,Green.png,4,Positive,Congruent,,,,,0,0,0,0,,,,,,,,,,,,,,,,,,,,,,,,,0,12,12,12,,,,,,,,,,,,,,,,,,,,,,,,,,,,,,,,,,,,,,,,,,,,,,,,,,,,,,,,,,,,,,,,,,,,,1.1712963034709294,0.8769916000001103,495.14165030000004,None,ScrollDown,정답입니다,495.14165030000004,None,495.14165030000004,None,495.14165030000004,None,495.14165030000004,None,495.8831439999999,None,495.8831439999999,496.3876422999997,,,,,,,,,,,,,,,,224,2022-05-25_11h01.25.187,FishGame,2022.1.1,60.01230252197912,
,14,나를 보내줘,6,Green,A,0,0,ScrollUp,ScrollDown,Green.png,4,NonTarget,NonTarget,,,,,0,0,0,0,,,,,,,,,,,,,,,,,,,,,,,,,0,13,13,13,,,,,,,,,,,,,,,,,,,,,,,,,,,,,,,,,,,,,,,,,,,,,,,,,,,,,,,,,,,,,,,,,,,,,2,1.1096324999998615,497.04028359999984,None,ScrollUp,정답입니다,497.04028359999984,None,497.04028359999984,None,497.04028359999984,None,497.04028359999984,None,498.0208026,None,498.0208026,498.52064919999975,,,,,,,,,,,,,,,,224,2022-05-25_11h01.25.187,FishGame,2022.1.1,60.01230252197912,
,15,넌 침착해,1,Orange,B,5.458333333333333,5.566666666666666,ScrollUp,ScrollDown,Orange.png,4,Positive,Incongruent,,,,,0,0,0,0,,,,,,,,,,,,,,,,,,,,,,,,,0,14,14,14,,,,,,,,,,,,,,,,,,,,,,,,,,,,,,,,,,,,,,,,,,,,,,,,,,,,,,,,,,,,,,,,,,,,,2,1.1170971999999892,499.1863188999996,None,ScrollUp,정답입니다,499.1863188999996,None,499.1863188999996,None,499.1863188999996,None,499.1863188999996,None,500.1589135999998,None,500.1589135999998,500.67034779999994,,,,,,,,,,,,,,,,224,2022-05-25_11h01.25.187,FishGame,2022.1.1,60.01230252197912,
,16,나를 데려가줘,6,Orange,B,0,0,ScrollDown,ScrollUp,Orange.png,4,NonTarget,NonTarget,,,,,0,0,0,0,,,,,,,,,,,,,,,,,,,,,,,,,0,15,15,15,,,,,,,,,,,,,,,,,,,,,,,,,,,,,,,,,,,,,,,,,,,,,,,,,,,,,,,,,,,,,,,,,,,,,1,0.8139485000001514,501.3379646999997,None,ScrollDown,정답입니다,501.3379646999997,None,501.3379646999997,None,501.3379646999997,None,501.3379646999997,None,502.00866019999967,None,502.00866019999967,502.52014329999975,,,,,,,,,,,,,,,,224,2022-05-25_11h01.25.187,FishGame,2022.1.1,60.01230252197912,
,17,넌 행복해,1,Green,A,6.416666666666666,6.166666666666667,ScrollDown,ScrollUp,Green.png,4,Positive,Congruent,,,,,0,0,0,0,,,,,,,,,,,,,,,,,,,,,,,,,0,16,16,16,,,,,,,,,,,,,,,,,,,,,,,,,,,,,,,,,,,,,,,,,,,,,,,,,,,,,,,,,,,,,,,,,,,,,1.1851851791143417,0.7901330000004236,503.1720971,None,ScrollDown,정답입니다,503.1720971,None,503.1720971,None,503.1720971,None,503.1720971,None,503.83687569999984,None,503.83687569999984,504.33657049999965,,,,,,,,,,,,,,,,224,2022-05-25_11h01.25.187,FishGame,2022.1.1,60.01230252197912,
,18,넌 겸손해,2,Orange,B,5.791666666666667,4.766666666666667,ScrollUp,ScrollDown,Orange.png,4,Positive,Incongruent,,,,,0,0,0,0,,,,,,,,,,,,,,,,,,,,,,,,,0,17,17,17,,,,,,,,,,,,,,,,,,,,,,,,,,,,,,,,,,,,,,,,,,,,,,,,,,,,,,,,,,,,,,,,,,,,,1.6126543184121451,0.8326329000001351,505.00126339999997,None,ScrollUp,정답입니다,505.00126339999997,None,505.00126339999997,None,505.00126339999997,None,505.00126339999997,None,505.69242729999996,None,505.69242729999996,506.2030378999998,,,,,,,,,,,,,,,,224,2022-05-25_11h01.25.187,FishGame,2022.1.1,60.01230252197912,
,19,나를 보내줘,6,Green,A,0,0,ScrollUp,ScrollDown,Green.png,4,NonTarget,NonTarget,,,,,0,0,0,0,,,,,,,,,,,,,,,,,,,,,,,,,0,18,18,18,,,,,,,,,,,,,,,,,,,,,,,,,,,,,,,,,,,,,,,,,,,,,,,,,,,,,,,,,,,,,,,,,,,,,1.589506171643734,0.995933100000002,506.85365249999995,None,ScrollUp,정답입니다,506.85365249999995,None,506.85365249999995,None,506.85365249999995,None,506.85365249999995,None,507.72242419999975,None,507.72242419999975,508.23601729999973,,,,,,,,,,,,,,,,224,2022-05-25_11h01.25.187,FishGame,2022.1.1,60.01230252197912,
,20,넌 의심없어,3,Green,A,4.166666666666667,4.6,ScrollDown,ScrollUp,Green.png,4,Neutral,Neutral,,,,,0,0,0,0,,,,,,,,,,,,,,,,,,,,,,,,,0,19,19,19,,,,,,,,,,,,,,,,,,,,,,,,,,,,,,,,,,,,,,,,,,,,,,,,,,,,,,,,,,,,,,,,,,,,,1,1.1187300000001414,508.88628359999984,None,ScrollDown,정답입니다,508.88628359999984,None,508.88628359999984,None,508.88628359999984,None,508.88628359999984,None,509.8756764999998,None,509.8756764999998,510.38577959999975,,,,,,,,,,,,,,,,224,2022-05-25_11h01.25.187,FishGame,2022.1.1,60.01230252197912,
,21,넌 시시해,4,Green,A,2.666666666666667,2.966666666666667,ScrollDown,ScrollUp,Green.png,4,Negative,Incongruent,,,,,0,0,0,0,,,,,,,,,,,,,,,,,,,,,,,,,0,20,20,20,,,,,,,,,,,,,,,,,,,,,,,,,,,,,,,,,,,,,,,,,,,,,,,,,,,,,,,,,,,,,,,,,,,,,1.141975313425064,0.7940807999998469,511.0321474999996,None,ScrollDown,정답입니다,511.0321474999996,None,511.0321474999996,None,511.0321474999996,None,511.0321474999996,None,511.7033738,None,511.7033738,512.2189513999997,,,,,,,,,,,,,,,,224,2022-05-25_11h01.25.187,FishGame,2022.1.1,60.01230252197912,
,22,나를 데려가줘,6,Orange,B,0,0,ScrollDown,ScrollUp,Orange.png,4,NonTarget,NonTarget,,,,,0,0,0,0,,,,,,,,,,,,,,,,,,,,,,,,,0,21,21,21,,,,,,,,,,,,,,,,,,,,,,,,,,,,,,,,,,,,,,,,,,,,,,,,,,,,,,,,,,,,,,,,,,,,,1,1.0652646000003188,512.8755756999999,None,ScrollDown,정답입니다,512.8755756999999,None,512.8755756999999,None,512.8755756999999,None,512.8755756999999,None,513.8071946999999,None,513.8071946999999,514.3186520999998,,,,,,,,,,,,,,,,224,2022-05-25_11h01.25.187,FishGame,2022.1.1,60.01230252197912,
,23,넌 무정해,5,Green,A,2.5,2.2,ScrollDown,ScrollUp,Green.png,4,Negative,Incongruent,,,,,0,0,0,0,,,,,,,,,,,,,,,,,,,,,,,,,0,22,22,22,,,,,,,,,,,,,,,,,,,,,,,,,,,,,,,,,,,,,,,,,,,,,,,,,,,,,,,,,,,,,,,,,,,,,1.2299382835626602,0.9192334999997911,514.9708551999997,None,ScrollDown,정답입니다,514.9708551999997,None,514.9708551999997,None,514.9708551999997,None,514.9708551999997,None,515.7599728999999,None,515.7599728999999,516.2684953999997,,,,,,,,,,,,,,,,224,2022-05-25_11h01.25.187,FishGame,2022.1.1,60.01230252197912,
,24,넌 긍정적이야,1,Orange,B,6.041666666666667,6.066666666666666,ScrollUp,ScrollDown,Orange.png,4,Positive,Incongruent,,,,,0,0,0,0,,,,,,,,,,,,,,,,,,,,,,,,,0,23,23,23,,,,,,,,,,,,,,,,,,,,,,,,,,,,,,,,,,,,,,,,,,,,,,,,,,,,,,,,,,,,,,,,,,,,,2,0.9710605000000214,516.9257669999997,None,ScrollUp,정답입니다,516.9257669999997,None,516.9257669999997,None,516.9257669999997,None,516.9257669999997,None,517.7591811999996,None,517.7591811999996,518.2681686999999,,,,,,,,,,,,,,,,224,2022-05-25_11h01.25.187,FishGame,2022.1.1,60.01230252197912,
,25,나를 보내줘,6,Green,A,0,0,ScrollUp,ScrollDown,Green.png,4,NonTarget,NonTarget,,,,,0,0,0,0,,,,,,,,,,,,,,,,,,,,,,,,,0,24,24,24,,,,,,,,,,,,,,,,,,,,,,,,,,,,,,,,,,,,,,,,,,,,,,,,,,,,,,,,,,,,,,,,,,,,,1.9413580397764842,1.0002893999999287,518.9097586999997,None,ScrollUp,정답입니다,518.9097586999997,None,518.9097586999997,None,518.9097586999997,None,518.9097586999997,None,519.7897909999997,None,519.7897909999997,520.3011757999998,,,,,,,,,,,,,,,,224,2022-05-25_11h01.25.187,FishGame,2022.1.1,60.01230252197912,
,26,넌 시기심이 많아,5,Orange,B,2.458333333333333,2.233333333333333,ScrollUp,ScrollDown,Orange.png,4,Negative,Congruent,,,,,0,0,0,0,,,,,,,,,,,,,,,,,,,,,,,,,0,25,25,25,,,,,,,,,,,,,,,,,,,,,,,,,,,,,,,,,,,,,,,,,,,,,,,,,,,,,,,,,,,,,,,,,,,,,2,0.9144351999998435,520.963346,None,ScrollUp,정답입니다,520.963346,None,520.963346,None,520.963346,None,520.963346,None,521.7380030999998,None,521.7380030999998,522.2509615999998,,,,,,,,,,,,,,,,224,2022-05-25_11h01.25.187,FishGame,2022.1.1,60.01230252197912,
,27,넌 탁월해,2,Green,A,5.708333333333334,4.5,ScrollDown,ScrollUp,Green.png,4,Positive,Congruent,,,,,0,0,0,0,,,,,,,,,,,,,,,,,,,,,,,,,0,26,26,26,,,,,,,,,,,,,,,,,,,,,,,,,,,,,,,,,,,,,,,,,,,,,,,,,,,,,,,,,,,,,,,,,,,,,1.115740751226743,0.8723040000004403,522.9109870999996,None,ScrollDown,정답입니다,522.9109870999996,None,522.9109870999996,None,522.9109870999996,None,522.9109870999996,None,523.6432728,None,523.6432728,524.1506842999997,,,,,,,,,,,,,,,,224,2022-05-25_11h01.25.187,FishGame,2022.1.1,60.01230252197912,
,28,나를 데려가줘,6,Orange,B,0,0,ScrollDown,ScrollUp,Orange.png,4,NonTarget,NonTarget,,,,,0,0,0,0,,,,,,,,,,,,,,,,,,,,,,,,,0,27,27,27,,,,,,,,,,,,,,,,,,,,,,,,,,,,,,,,,,,,,,,,,,,,,,,,,,,,,,,,,,,,,,,,,,,,,1,0.8495542000000569,524.8047827,None,ScrollDown,정답입니다,524.8047827,None,524.8047827,None,524.8047827,None,524.8047827,None,525.5236003999999,None,525.5236003999999,526.0341060999999,,,,,,,,,,,,,,,,224,2022-05-25_11h01.25.187,FishGame,2022.1.1,60.01230252197912,
,29,넌 조용해,3,Orange,B,4.333333333333333,4.166666666666667,ScrollUp,ScrollDown,Orange.png,4,Neutral,Neutral,,,,,0,0,0,0,,,,,,,,,,,,,,,,,,,,,,,,,0,28,28,28,,,,,,,,,,,,,,,,,,,,,,,,,,,,,,,,,,,,,,,,,,,,,,,,,,,,,,,,,,,,,,,,,,,,,1,1.0170372000002317,526.6865497999997,None,ScrollDown,오답입니다,526.6865497999997,None,526.6865497999997,None,526.6865497999997,None,526.6865497999997,None,527.5750592999998,None,527.5750592999998,528.0836251999999,,,,,,,,,,,,,,,,224,2022-05-25_11h01.25.187,FishGame,2022.1.1,60.01230252197912,
,30,넌 다정해,1,Green,A,5.833333333333334,5.7,ScrollDown,ScrollUp,Green.png,4,Positive,Congruent,,,,,0,0,0,0,,,,,,,,,,,,,,,,,,,,,,,,,0,29,29,29,,,,,,,,,,,,,,,,,,,,,,,,,,,,,,,,,,,,,,,,,,,,,,,,,,,,,,,,,,,,,,,,,,,,,1.1728395173947017,0.7779352000002291,528.7322126999998,None,ScrollDown,정답입니다,528.7322126999998,None,528.7322126999998,None,528.7322126999998,None,528.7322126999998,None,529.3835460999999,None,529.3835460999999,529.8834109999998,,,,,,,,,,,,,,,,224,2022-05-25_11h01.25.187,FishGame,2022.1.1,60.01230252197912,
,31,넌 능력있어,2,Orange,B,6.166666666666666,4.6,ScrollUp,ScrollDown,Orange.png,4,Positive,Incongruent,,,,,0,0,0,0,,,,,,,,,,,,,,,,,,,,,,,,,0,30,30,30,,,,,,,,,,,,,,,,,,,,,,,,,,,,,,,,,,,,,,,,,,,,,,,,,,,,,,,,,,,,,,,,,,,,,2,1.09754490000023,530.5433561999998,None,ScrollUp,정답입니다,530.5433561999998,None,530.5433561999998,None,530.5433561999998,None,530.5433561999998,None,531.5024807,None,531.5024807,532.0164058999999,,,,,,,,,,,,,,,,224,2022-05-25_11h01.25.187,FishGame,2022.1.1,60.01230252197912,
,32,넌 불쾌해,5,Green,A,2.125,1.933333333333333,ScrollDown,ScrollUp,Green.png,4,Negative,Incongruent,,,,,0,0,0,0,,,,,,,,,,,,,,,,,,,,,,,,,0,31,31,31,,,,,,,,,,,,,,,,,,,,,,,,,,,,,,,,,,,,,,,,,,,,,,,,,,,,,,,,,,,,,,,,,,,,,1.0416666567325592,0.9351071999999476,532.6617807999996,None,ScrollDown,정답입니다,532.6617807999996,None,532.6617807999996,None,532.6617807999996,None,532.6617807999996,None,533.4739050999997,None,533.4739050999997,533.9831153,,,,,,,,,,,,,,,,224,2022-05-25_11h01.25.187,FishGame,2022.1.1,60.01230252197912,
,33,나를 데려가줘,6,Orange,B,0,0,ScrollDown,ScrollUp,Orange.png,4,NonTarget,NonTarget,,,,,0,0,0,0,,,,,,,,,,,,,,,,,,,,,,,,,0,32,32,32,,,,,,,,,,,,,,,,,,,,,,,,,,,,,,,,,,,,,,,,,,,,,,,,,,,,,,,,,,,,,,,,,,,,,1.1126543233791988,1.0419005999997353,534.6331777999999,None,ScrollDown,정답입니다,534.6331777999999,None,534.6331777999999,None,534.6331777999999,None,534.6331777999999,None,535.5440549999998,None,535.5440549999998,536.0492142999997,,,,,,,,,,,,,,,,224,2022-05-25_11h01.25.187,FishGame,2022.1.1,60.01230252197912,
,34,넌 유순해,3,Green,A,4.458333333333333,5,ScrollDown,ScrollUp,Green.png,4,Neutral,Neutral,,,,,0,0,0,0,,,,,,,,,,,,,,,,,,,,,,,,,0,33,33,33,,,,,,,,,,,,,,,,,,,,,,,,,,,,,,,,,,,,,,,,,,,,,,,,,,,,,,,,,,,,,,,,,,,,,1.0293209950129192,0.8511622000000898,536.6960160999997,None,ScrollDown,정답입니다,536.6960160999997,None,536.6960160999997,None,536.6960160999997,None,536.6960160999997,None,537.4217503999998,None,537.4217503999998,537.9323283999997,,,,,,,,,,,,,,,,224,2022-05-25_11h01.25.187,FishGame,2022.1.1,60.01230252197912,
,35,넌 근심스러워,4,Orange,B,2.708333333333333,3.133333333333333,ScrollUp,ScrollDown,Orange.png,4,Negative,Congruent,,,,,0,0,0,0,,,,,,,,,,,,,,,,,,,,,,,,,0,34,34,34,,,,,,,,,,,,,,,,,,,,,,,,,,,,,,,,,,,,,,,,,,,,,,,,,,,,,,,,,,,,,,,,,,,,,1.7638888855775197,2.260621800000081,538.5963723999998,None,ScrollUp,정답입니다,538.5963723999998,None,538.5963723999998,None,538.5963723999998,None,538.5963723999998,None,540.7174445999999,None,540.7174445999999,541.2318872999999,,,,,,,,,,,,,,,,224,2022-05-25_11h01.25.187,FishGame,2022.1.1,60.01230252197912,
,36,넌 세련되었어,2,Green,A,5.5,4.6,ScrollDown,ScrollUp,Green.png,4,Positive,Congruent,,,,,0,0,0,0,,,,,,,,,,,,,,,,,,,,,,,,,0,35,35,35,,,,,,,,,,,,,,,,,,,,,,,,,,,,,,,,,,,,,,,,,,,,,,,,,,,,,,,,,,,,,,,,,,,,,1.1543209999799728,0.7905713000000105,541.8985364,None,ScrollDown,정답입니다,541.8985364,None,541.8985364,None,541.8985364,None,541.8985364,None,542.5487499999999,None,542.5487499999999,543.0483126999998,,,,,,,,,,,,,,,,224,2022-05-25_11h01.25.187,FishGame,2022.1.1,60.01230252197912,
,37,나를 보내줘,6,Green,A,0,0,ScrollUp,ScrollDown,Green.png,4,NonTarget,NonTarget,,,,,0,0,0,0,,,,,,,,,,,,,,,,,,,,,,,,,0,36,36,36,,,,,,,,,,,,,,,,,,,,,,,,,,,,,,,,,,,,,,,,,,,,,,,,,,,,,,,,,,,,,,,,,,,,,2,1.1559385999998995,543.6993945999998,None,ScrollUp,정답입니다,543.6993945999998,None,543.6993945999998,None,543.6993945999998,None,543.6993945999998,None,544.7246363999998,None,544.7246363999998,545.2313645999998,,,,,,,,,,,,,,,,224,2022-05-25_11h01.25.187,FishGame,2022.1.1,60.01230252197912,
,38,넌 확고해,3,Orange,B,4.708333333333334,4.566666666666666,ScrollUp,ScrollDown,Orange.png,4,Neutral,Neutral,,,,,0,0,0,0,,,,,,,,,,,,,,,,,,,,,,,,,0,37,37,37,,,,,,,,,,,,,,,,,,,,,,,,,,,,,,,,,,,,,,,,,,,,,,,,,,,,,,,,,,,,,,,,,,,,,1.8117283930381138,1.0005781999998362,545.8908687999997,None,ScrollUp,정답입니다,545.8908687999997,None,545.8908687999997,None,545.8908687999997,None,545.8908687999997,None,546.7546708,None,546.7546708,547.2644373999997,,,,,,,,,,,,,,,,224,2022-05-25_11h01.25.187,FishGame,2022.1.1,60.01230252197912,
,39,넌 이해심이 많아,1,Orange,B,6.041666666666668,5.533333333333333,ScrollUp,ScrollDown,Orange.png,4,Positive,Incongruent,,,,,0,0,0,0,,,,,,,,,,,,,,,,,,,,,,,,,0,38,38,38,,,,,,,,,,,,,,,,,,,,,,,,,,,,,,,,,,,,,,,,,,,,,,,,,,,,,,,,,,,,,,,,,,,,,2,0.8581748999999945,547.9404492999997,None,ScrollUp,정답입니다,547.9404492999997,None,547.9404492999997,None,547.9404492999997,None,547.9404492999997,None,548.6479130999996,None,548.6479130999996,549.1476487,,,,,,,,,,,,,,,,224,2022-05-25_11h01.25.187,FishGame,2022.1.1,60.01230252197912,
,40,나를 보내줘,6,Green,A,0,0,ScrollUp,ScrollDown,Green.png,4,NonTarget,NonTarget,,,,,0,0,0,0,,,,,,,,,,,,,,,,,,,,,,,,,0,39,39,39,,,,,,,,,,,,,,,,,,,,,,,,,,,,,,,,,,,,,,,,,,,,,,,,,,,,,,,,,,,,,,,,,,,,,1.8981481492519379,1.1231582000000344,549.8003100999999,None,ScrollUp,정답입니다,549.8003100999999,None,549.8003100999999,None,549.8003100999999,None,549.8003100999999,None,550.7972084999997,None,550.7972084999997,551.2973290999998,,,,,,,,,,,,,,,,224,2022-05-25_11h01.25.187,FishGame,2022.1.1,60.01230252197912,
,41,넌 거칠어,4,Green,A,2.625,3.033333333333333,ScrollDown,ScrollUp,Green.png,4,Negative,Incongruent,,,,,0,0,0,0,,,,,,,,,,,,,,,,,,,,,,,,,0,40,40,40,,,,,,,,,,,,,,,,,,,,,,,,,,,,,,,,,,,,,,,,,,,,,,,,,,,,,,,,,,,,,,,,,,,,,1.0694444576899211,0.9091877999999269,551.9694018999999,None,ScrollDown,정답입니다,551.9694018999999,None,551.9694018999999,None,551.9694018999999,None,551.9694018999999,None,552.7257001999997,None,552.7257001999997,553.2303444999998,,,,,,,,,,,,,,,,224,2022-05-25_11h01.25.187,FishGame,2022.1.1,60.01230252197912,
,42,넌 변덕맞아,5,Orange,B,2.75,2.166666666666667,ScrollUp,ScrollDown,Orange.png,4,Negative,Congruent,,,,,0,0,0,0,,,,,,,,,,,,,,,,,,,,,,,,,0,41,41,41,,,,,,,,,,,,,,,,,,,,,,,,,,,,,,,,,,,,,,,,,,,,,,,,,,,,,,,,,,,,,,,,,,,,,1.9490740597248077,0.7986319000001458,553.8928576999997,None,ScrollUp,정답입니다,553.8928576999997,None,553.8928576999997,None,553.8928576999997,None,553.8928576999997,None,554.5523911,None,554.5523911,555.0634304,,,,,,,,,,,,,,,,224,2022-05-25_11h01.25.187,FishGame,2022.1.1,60.01230252197912,
,43,나를 데려가줘,6,Orange,B,0,0,ScrollDown,ScrollUp,Orange.png,4,NonTarget,NonTarget,,,,,0,0,0,0,,,,,,,,,,,,,,,,,,,,,,,,,0,42,42,42,,,,,,,,,,,,,,,,,,,,,,,,,,,,,,,,,,,,,,,,,,,,,,,,,,,,,,,,,,,,,,,,,,,,,1.0246913532416027,0.9935782000002291,555.7195916999999,None,ScrollDown,정답입니다,555.7195916999999,None,555.7195916999999,None,555.7195916999999,None,555.7195916999999,None,556.5755953999997,None,556.5755953999997,557.0799201,,,,,,,,,,,,,,,,224,2022-05-25_11h01.25.187,FishGame,2022.1.1,60.01230252197912,
,44,넌 외로워,4,Orange,B,2.833333333333333,3.3,ScrollUp,ScrollDown,Orange.png,4,Negative,Congruent,,,,,0,0,0,0,,,,,,,,,,,,,,,,,,,,,,,,,0,43,43,43,,,,,,,,,,,,,,,,,,,,,,,,,,,,,,,,,,,,,,,,,,,,,,,,,,,,,,,,,,,,,,,,,,,,,1.9259259502092998,0.7552623999999923,557.7423541999997,None,ScrollUp,정답입니다,557.7423541999997,None,557.7423541999997,None,557.7423541999997,None,557.7423541999997,None,558.3631775999997,None,558.3631775999997,558.8630100999999,,,,,,,,,,,,,,,,224,2022-05-25_11h01.25.187,FishGame,2022.1.1,60.01230252197912,
,1,넌 불평스러워,5,Green,A,2.25,2.066666666666667,ScrollDown,ScrollUp,Green.png,5,Negative,Incongruent,,,,,0,0,0,0,,,,,,,,,,,,,,,,,,,,,,,,,,,,,0,0,0,0,,,,,,,,,,,,,,,,,,,,,,,,592.1756163999999,593.6752595999997,593.7086242,594.6584229999999,594.7084142999997,595.6583302999998,595.6583302999998,None,,,,,,,,,,,,,,,,,,,,,,,,,,,,,,,,,,1,1.1306187000000136,596.8534366999997,None,ScrollDown,정답입니다,596.8534366999997,None,596.8534366999997,None,596.8534366999997,None,596.8534366999997,None,597.8025468999999,None,597.8025468999999,598.3078048999996,559.3629726999998,None,559.3629726999998,None,0.2074074,-0.08240741,1,0,0,0.016203930000301625,None,589.3757212999999,None,,,224,2022-05-25_11h01.25.187,FishGame,2022.1.1,60.01230252197912,
,2,나를 보내줘,6,Green,A,0,0,ScrollUp,ScrollDown,Green.png,5,NonTarget,NonTarget,,,,,0,0,0,0,,,,,,,,,,,,,,,,,,,,,,,,,,,,,0,1,1,1,,,,,,,,,,,,,,,,,,,,,,,,,,,,,,,,,,,,,,,,,,,,,,,,,,,,,,,,,,,,,,,,,1.8024691343307495,0.9569186999997328,598.9603508,None,ScrollUp,정답입니다,598.9603508,None,598.9603508,None,598.9603508,None,598.9603508,None,599.7858452,None,599.7858452,600.2910024999996,,,,,,,,,,,,,,,,224,2022-05-25_11h01.25.187,FishGame,2022.1.1,60.01230252197912,
,3,넌 다재다능해,2,Orange,B,6.208333333333333,4.5,ScrollUp,ScrollDown,Orange.png,5,Positive,Incongruent,,,,,0,0,0,0,,,,,,,,,,,,,,,,,,,,,,,,,,,,,0,2,2,2,,,,,,,,,,,,,,,,,,,,,,,,,,,,,,,,,,,,,,,,,,,,,,,,,,,,,,,,,,,,,,,,,1.634259263674418,0.8472818000000188,600.9462203999997,None,ScrollUp,정답입니다,600.9462203999997,None,600.9462203999997,None,600.9462203999997,None,600.9462203999997,None,601.6611042999998,None,601.6611042999998,602.1741334999997,,,,,,,,,,,,,,,,224,2022-05-25_11h01.25.187,FishGame,2022.1.1,60.01230252197912,
,4,넌 과감해,3,Green,A,4.833333333333334,4.6,ScrollDown,ScrollUp,Green.png,5,Neutral,Neutral,,,,,0,0,0,0,,,,,,,,,,,,,,,,,,,,,,,,,,,,,0,3,3,3,,,,,,,,,,,,,,,,,,,,,,,,,,,,,,,,,,,,,,,,,,,,,,,,,,,,,,,,,,,,,,,,,1.2453703731298447,0.8658046999998987,602.8181083999998,None,ScrollDown,정답입니다,602.8181083999998,None,602.8181083999998,None,602.8181083999998,None,602.8181083999998,None,603.5632117,None,603.5632117,604.0738155999998,,,,,,,,,,,,,,,,224,2022-05-25_11h01.25.187,FishGame,2022.1.1,60.01230252197912,
,5,넌 고분고분해,3,Orange,B,3.75,4.033333333333333,ScrollUp,ScrollDown,Orange.png,5,Neutral,Neutral,,,,,0,0,0,0,,,,,,,,,,,,,,,,,,,,,,,,,,,,,0,4,4,4,,,,,,,,,,,,,,,,,,,,,,,,,,,,,,,,,,,,,,,,,,,,,,,,,,,,,,,,,,,,,,,,,2,0.8445587000001069,604.7383077,None,ScrollUp,정답입니다,604.7383077,None,604.7383077,None,604.7383077,None,604.7383077,None,605.4405103999998,None,605.4405103999998,605.9402737999999,,,,,,,,,,,,,,,,224,2022-05-25_11h01.25.187,FishGame,2022.1.1,60.01230252197912,
,6,나를 보내줘,6,Green,A,0,0,ScrollUp,ScrollDown,Green.png,5,NonTarget,NonTarget,,,,,0,0,0,0,,,,,,,,,,,,,,,,,,,,,,,,,,,,,0,5,5,5,,,,,,,,,,,,,,,,,,,,,,,,,,,,,,,,,,,,,,,,,,,,,,,,,,,,,,,,,,,,,,,,,2,0.9804912999998123,606.5928027999998,None,ScrollUp,정답입니다,606.5928027999998,None,606.5928027999998,None,606.5928027999998,None,606.5928027999998,None,607.4426494999998,None,607.4426494999998,607.9568583999999,,,,,,,,,,,,,,,,224,2022-05-25_11h01.25.187,FishGame,2022.1.1,60.01230252197912,
,7,넌 잘 잊어,4,Green,A,3,3.7,ScrollDown,ScrollUp,Green.png,5,Negative,Incongruent,,,,,0,0,0,0,,,,,,,,,,,,,,,,,,,,,,,,,,,,,0,6,6,6,,,,,,,,,,,,,,,,,,,,,,,,,,,,,,,,,,,,,,,,,,,,,,,,,,,,,,,,,,,,,,,,,1.2546296318372092,0.8649747999997999,608.6084636999999,None,ScrollDown,정답입니다,608.6084636999999,None,608.6084636999999,None,608.6084636999999,None,608.6084636999999,None,609.3450961999997,None,609.3450961999997,609.8565248999998,,,,,,,,,,,,,,,,224,2022-05-25_11h01.25.187,FishGame,2022.1.1,60.01230252197912,
,8,넌 탐구심이없어,4,Orange,B,2.833333333333333,3.066666666666667,ScrollUp,ScrollDown,Orange.png,5,Negative,Congruent,,,,,0,0,0,0,,,,,,,,,,,,,,,,,,,,,,,,,,,,,0,7,7,7,,,,,,,,,,,,,,,,,,,,,,,,,,,,,,,,,,,,,,,,,,,,,,,,,,,,,,,,,,,,,,,,,1.8935185074806213,0.8273195000001579,610.5189501,None,ScrollUp,정답입니다,610.5189501,None,610.5189501,None,610.5189501,None,610.5189501,None,611.2065758999997,None,611.2065758999997,611.7062828999997,,,,,,,,,,,,,,,,224,2022-05-25_11h01.25.187,FishGame,2022.1.1,60.01230252197912,
,9,나를 데려가줘,6,Orange,B,0,0,ScrollDown,ScrollUp,Orange.png,5,NonTarget,NonTarget,,,,,0,0,0,0,,,,,,,,,,,,,,,,,,,,,,,,,,,,,0,8,8,8,,,,,,,,,,,,,,,,,,,,,,,,,,,,,,,,,,,,,,,,,,,,,,,,,,,,,,,,,,,,,,,,,1,1.081738900000346,612.3565718,None,ScrollDown,정답입니다,612.3565718,None,612.3565718,None,612.3565718,None,612.3565718,None,613.3100725999998,None,613.3100725999998,613.8226311999997,,,,,,,,,,,,,,,,224,2022-05-25_11h01.25.187,FishGame,2022.1.1,60.01230252197912,
,10,넌 참되어,2,Green,A,6.041666666666664,4.733333333333333,ScrollDown,ScrollUp,Green.png,5,Positive,Congruent,,,,,0,0,0,0,,,,,,,,,,,,,,,,,,,,,,,,,,,,,0,9,9,9,,,,,,,,,,,,,,,,,,,,,,,,,,,,,,,,,,,,,,,,,,,,,,,,,,,,,,,,,,,,,,,,,1.0848765472571056,0.8019067000000177,614.4765235,None,ScrollDown,정답입니다,614.4765235,None,614.4765235,None,614.4765235,None,614.4765235,None,615.1454778999996,None,615.1454778999996,615.6559648999996,,,,,,,,,,,,,,,,224,2022-05-25_11h01.25.187,FishGame,2022.1.1,60.01230252197912,
,11,넌 생기있어,1,Orange,B,5.875,5.633333333333334,ScrollUp,ScrollDown,Orange.png,5,Positive,Incongruent,,,,,0,0,0,0,,,,,,,,,,,,,,,,,,,,,,,,,,,,,0,10,10,10,,,,,,,,,,,,,,,,,,,,,,,,,,,,,,,,,,,,,,,,,,,,,,,,,,,,,,,,,,,,,,,,,2,0.9517940000000635,616.3105714999997,None,ScrollUp,정답입니다,616.3105714999997,None,616.3105714999997,None,616.3105714999997,None,616.3105714999997,None,617.1370683,None,617.1370683,617.6387882999998,,,,,,,,,,,,,,,,224,2022-05-25_11h01.25.187,FishGame,2022.1.1,60.01230252197912,
,12,넌 비사교적이야,4,Orange,B,2.875,2.9,ScrollUp,ScrollDown,Orange.png,5,Negative,Congruent,,,,,0,0,0,0,,,,,,,,,,,,,,,,,,,,,,,,,,,,,0,11,11,11,,,,,,,,,,,,,,,,,,,,,,,,,,,,,,,,,,,,,,,,,,,,,,,,,,,,,,,,,,,,,,,,,2,0.9785595000003013,618.2951871,None,ScrollUp,정답입니다,618.2951871,None,618.2951871,None,618.2951871,None,618.2951871,None,619.1388007999999,None,619.1388007999999,619.6384005,,,,,,,,,,,,,,,,224,2022-05-25_11h01.25.187,FishGame,2022.1.1,60.01230252197912,
,13,나를 데려가줘,6,Orange,B,0,0,ScrollDown,ScrollUp,Orange.png,5,NonTarget,NonTarget,,,,,0,0,0,0,,,,,,,,,,,,,,,,,,,,,,,,,,,,,0,12,12,12,,,,,,,,,,,,,,,,,,,,,,,,,,,,,,,,,,,,,,,,,,,,,,,,,,,,,,,,,,,,,,,,,1.0663580298423767,1.0931336000003284,620.2905114,None,ScrollDown,정답입니다,620.2905114,None,620.2905114,None,620.2905114,None,620.2905114,None,621.2550844999996,None,621.2550844999996,621.7549162,,,,,,,,,,,,,,,,224,2022-05-25_11h01.25.187,FishGame,2022.1.1,60.01230252197912,
,14,넌 고독해,4,Green,A,2.916666666666667,3.233333333333333,ScrollDown,ScrollUp,Green.png,5,Negative,Incongruent,,,,,0,0,0,0,,,,,,,,,,,,,,,,,,,,,,,,,,,,,0,13,13,13,,,,,,,,,,,,,,,,,,,,,,,,,,,,,,,,,,,,,,,,,,,,,,,,,,,,,,,,,,,,,,,,,1.2422839452823002,0.923772800000279,622.4071457,None,ScrollDown,정답입니다,622.4071457,None,622.4071457,None,622.4071457,None,622.4071457,None,623.1989166999997,None,623.1989166999997,623.7047419,,,,,,,,,,,,,,,,224,2022-05-25_11h01.25.187,FishGame,2022.1.1,60.01230252197912,
,15,넌 신경질적이야,5,Orange,B,2.375,2.233333333333333,ScrollUp,ScrollDown,Orange.png,5,Negative,Congruent,,,,,0,0,0,0,,,,,,,,,,,,,,,,,,,,,,,,,,,,,0,14,14,14,,,,,,,,,,,,,,,,,,,,,,,,,,,,,,,,,,,,,,,,,,,,,,,,,,,,,,,,,,,,,,,,,1.9104938358068466,0.8777147999999215,624.3694842999998,None,ScrollUp,정답입니다,624.3694842999998,None,624.3694842999998,None,624.3694842999998,None,624.3694842999998,None,625.1062683,None,625.1062683,625.6211324999999,,,,,,,,,,,,,,,,224,2022-05-25_11h01.25.187,FishGame,2022.1.1,60.01230252197912,
,16,넌 똑똑해,2,Orange,B,5.666666666666667,3.966666666666667,ScrollUp,ScrollDown,Orange.png,5,Positive,Incongruent,,,,,0,0,0,0,,,,,,,,,,,,,,,,,,,,,,,,,,,,,0,15,15,15,,,,,,,,,,,,,,,,,,,,,,,,,,,,,,,,,,,,,,,,,,,,,,,,,,,,,,,,,,,,,,,,,2,0.8564367999997557,626.2796939999998,None,ScrollUp,정답입니다,626.2796939999998,None,626.2796939999998,None,626.2796939999998,None,626.2796939999998,None,626.9982565,None,626.9982565,627.5041898,,,,,,,,,,,,,,,,224,2022-05-25_11h01.25.187,FishGame,2022.1.1,60.01230252197912,
,17,나를 보내줘,6,Green,A,0,0,ScrollUp,ScrollDown,Green.png,5,NonTarget,NonTarget,,,,,0,0,0,0,,,,,,,,,,,,,,,,,,,,,,,,,,,,,0,16,16,16,,,,,,,,,,,,,,,,,,,,,,,,,,,,,,,,,,,,,,,,,,,,,,,,,,,,,,,,,,,,,,,,,1.8904321044683456,1.0363681999997425,628.1498091999997,None,ScrollUp,정답입니다,628.1498091999997,None,628.1498091999997,None,628.1498091999997,None,628.1498091999997,None,629.0633214999998,None,629.0633214999998,629.5706553,,,,,,,,,,,,,,,,224,2022-05-25_11h01.25.187,FishGame,2022.1.1,60.01230252197912,
,18,넌 협조적이야,1,Green,A,5.625,5.666666666666667,ScrollDown,ScrollUp,Green.png,5,Positive,Congruent,,,,,0,0,0,0,,,,,,,,,,,,,,,,,,,,,,,,,,,,,0,17,17,17,,,,,,,,,,,,,,,,,,,,,,,,,,,,,,,,,,,,,,,,,,,,,,,,,,,,,,,,,,,,,,,,,1.126543199022611,0.9049727999999959,630.2229699999998,None,ScrollDown,정답입니다,630.2229699999998,None,630.2229699999998,None,630.2229699999998,None,630.2229699999998,None,631.0038028999998,None,631.0038028999998,631.503647,,,,,,,,,,,,,,,,224,2022-05-25_11h01.25.187,FishGame,2022.1.1,60.01230252197912,
,19,나를 데려가줘,6,Orange,B,0,0,ScrollDown,ScrollUp,Orange.png,5,NonTarget,NonTarget,,,,,0,0,0,0,,,,,,,,,,,,,,,,,,,,,,,,,,,,,0,18,18,18,,,,,,,,,,,,,,,,,,,,,,,,,,,,,,,,,,,,,,,,,,,,,,,,,,,,,,,,,,,,,,,,,1.1049382785956066,1.01731510000036,632.1595634999999,None,ScrollDown,정답입니다,632.1595634999999,None,632.1595634999999,None,632.1595634999999,None,632.1595634999999,None,633.0441676999999,None,633.0441676999999,633.5535193999999,,,,,,,,,,,,,,,,224,2022-05-25_11h01.25.187,FishGame,2022.1.1,60.01230252197912,
,20,넌 몰인정해,5,Orange,B,2.541666666666667,2.066666666666667,ScrollUp,ScrollDown,Orange.png,5,Negative,Congruent,,,,,0,0,0,0,,,,,,,,,,,,,,,,,,,,,,,,,,,,,0,19,19,19,,,,,,,,,,,,,,,,,,,,,,,,,,,,,,,,,,,,,,,,,,,,,,,,,,,,,,,,,,,,,,,,,1.807098776102066,0.8241635000003953,634.2087434999999,None,ScrollUp,정답입니다,634.2087434999999,None,634.2087434999999,None,634.2087434999999,None,634.2087434999999,None,634.8980176999999,None,634.8980176999999,635.4032895999999,,,,,,,,,,,,,,,,224,2022-05-25_11h01.25.187,FishGame,2022.1.1,60.01230252197912,
,21,나를 데려가줘,6,Orange,B,0,0,ScrollDown,ScrollUp,Orange.png,5,NonTarget,NonTarget,,,,,0,0,0,0,,,,,,,,,,,,,,,,,,,,,,,,,,,,,0,20,20,20,,,,,,,,,,,,,,,,,,,,,,,,,,,,,,,,,,,,,,,,,,,,,,,,,,,,,,,,,,,,,,,,,1.2854938358068466,0.8911247999999432,636.0614562999999,None,ScrollDown,정답입니다,636.0614562999999,None,636.0614562999999,None,636.0614562999999,None,636.0614562999999,None,636.8158418999997,None,636.8158418999997,637.3196518,,,,,,,,,,,,,,,,224,2022-05-25_11h01.25.187,FishGame,2022.1.1,60.01230252197912,
,22,넌 순진해,3,Orange,B,4.125,4.166666666666667,ScrollUp,ScrollDown,Orange.png,5,Neutral,Neutral,,,,,0,0,0,0,,,,,,,,,,,,,,,,,,,,,,,,,,,,,0,21,21,21,,,,,,,,,,,,,,,,,,,,,,,,,,,,,,,,,,,,,,,,,,,,,,,,,,,,,,,,,,,,,,,,,1.5756172835826874,0.8345457000000351,637.9717828999997,None,ScrollUp,정답입니다,637.9717828999997,None,637.9717828999997,None,637.9717828999997,None,637.9717828999997,None,638.6764463,None,638.6764463,639.1860588999998,,,,,,,,,,,,,,,,224,2022-05-25_11h01.25.187,FishGame,2022.1.1,60.01230252197912,
,23,넌 신뢰할만해,1,Green,A,6.625,5.533333333333333,ScrollDown,ScrollUp,Green.png,5,Positive,Congruent,,,,,0,0,0,0,,,,,,,,,,,,,,,,,,,,,,,,,,,,,0,22,22,22,,,,,,,,,,,,,,,,,,,,,,,,,,,,,,,,,,,,,,,,,,,,,,,,,,,,,,,,,,,,,,,,,1.2824074079593024,0.8564581000000544,639.8486279999997,None,ScrollDown,정답입니다,639.8486279999997,None,639.8486279999997,None,639.8486279999997,None,639.8486279999997,None,640.5631360999996,None,640.5631360999996,641.0691096999999,,,,,,,,,,,,,,,,224,2022-05-25_11h01.25.187,FishGame,2022.1.1,60.01230252197912,
,24,나를 보내줘,6,Green,A,0,0,ScrollUp,ScrollDown,Green.png,5,NonTarget,NonTarget,,,,,0,0,0,0,,,,,,,,,,,,,,,,,,,,,,,,,,,,,0,23,23,23,,,,,,,,,,,,,,,,,,,,,,,,,,,,,,,,,,,,,,,,,,,,,,,,,,,,,,,,,,,,,,,,,1.837962955236435,0.8983024999997724,641.7198374,None,ScrollUp,정답입니다,641.7198374,None,641.7198374,None,641.7198374,None,641.7198374,None,642.4910563999997,None,642.4910563999997,643.0022955999998,,,,,,,,,,,,,,,,224,2022-05-25_11h01.25.187,FishGame,2022.1.1,60.01230252197912,
,25,넌 인색해,5,Green,A,2.625,2.233333333333333,ScrollDown,ScrollUp,Green.png,5,Negative,Incongruent,,,,,0,0,0,0,,,,,,,,,,,,,,,,,,,,,,,,,,,,,0,24,24,24,,,,,,,,,,,,,,,,,,,,,,,,,,,,,,,,,,,,,,,,,,,,,,,,,,,,,,,,,,,,,,,,,1.1574074029922485,0.8678573000001961,643.6599890999996,None,ScrollDown,정답입니다,643.6599890999996,None,643.6599890999996,None,643.6599890999996,None,643.6599890999996,None,644.3913196999997,None,644.3913196999997,644.9020591999997,,,,,,,,,,,,,,,,224,2022-05-25_11h01.25.187,FishGame,2022.1.1,60.01230252197912,
,26,넌 유쾌해,1,Orange,B,5.833333333333333,5.766666666666667,ScrollUp,ScrollDown,Orange.png,5,Positive,Incongruent,,,,,0,0,0,0,,,,,,,,,,,,,,,,,,,,,,,,,,,,,0,25,25,25,,,,,,,,,,,,,,,,,,,,,,,,,,,,,,,,,,,,,,,,,,,,,,,,,,,,,,,,,,,,,,,,,1.4567901249974966,0.8838745999996718,645.5515256999997,None,NoResponse,무응답입니다,645.5515256999997,None,645.5515256999997,None,645.5515256999997,None,645.5515256999997,None,646.3112376999998,None,646.3112376999998,646.8184569999999,,,,,,,,,,,,,,,,224,2022-05-25_11h01.25.187,FishGame,2022.1.1,60.01230252197912,
,27,나를 보내줘,6,Green,A,0,0,ScrollUp,ScrollDown,Green.png,5,NonTarget,NonTarget,,,,,0,0,0,0,,,,,,,,,,,,,,,,,,,,,,,,,,,,,0,26,26,26,,,,,,,,,,,,,,,,,,,,,,,,,,,,,,,,,,,,,,,,,,,,,,,,,,,,,,,,,,,,,,,,,1.0185184975465138,0.9982884999999442,647.4662917999999,None,ScrollDown,오답입니다,647.4662917999999,None,647.4662917999999,None,647.4662917999999,None,647.4662917999999,None,648.3406025999998,None,648.3406025999998,648.8515800999999,,,,,,,,,,,,,,,,224,2022-05-25_11h01.25.187,FishGame,2022.1.1,60.01230252197912,
