name,TrialNum,Word,WordCategory,FishType,WordList,WordValence,WordReputation,CorrectResp,IncorrectResp,FishTypeFile,Round,WordType,Condition,LoopforOrange.thisRepN,LoopforOrange.thisTrialN,LoopforOrange.thisN,LoopforOrange.thisIndex,OrangeInstLoop.thisRepN,OrangeInstLoop.thisTrialN,OrangeInstLoop.thisN,OrangeInstLoop.thisIndex,OrangePrac.thisRepN,OrangePrac.thisTrialN,OrangePrac.thisN,OrangePrac.thisIndex,temp1.thisRepN,temp1.thisTrialN,temp1.thisN,temp1.thisIndex,OrangeRound1.thisRepN,OrangeRound1.thisTrialN,OrangeRound1.thisN,OrangeRound1.thisIndex,OrangeRound2.thisRepN,OrangeRound2.thisTrialN,OrangeRound2.thisN,OrangeRound2.thisIndex,OrangeRound3.thisRepN,OrangeRound3.thisTrialN,OrangeRound3.thisN,OrangeRound3.thisIndex,OrangeRound4.thisRepN,OrangeRound4.thisTrialN,OrangeRound4.thisN,OrangeRound4.thisIndex,OrangeRound5.thisRepN,OrangeRound5.thisTrialN,OrangeRound5.thisN,OrangeRound5.thisIndex,LoopForGreen.thisRepN,LoopForGreen.thisTrialN,LoopForGreen.thisN,LoopForGreen.thisIndex,text_2.started,text_2.stopped,text_3.started,text_3.stopped,key_resp.keys,key_resp.rt,key_resp.started,key_resp.stopped,PassI_2.started,PassI_2.stopped,PassInst_2.keys,PassInst_2.rt,PassInst_2.started,PassInst_2.stopped,mouse_2.x,mouse_2.y,mouse_2.leftButton,mouse_2.midButton,mouse_2.rightButton,mouse_2.started,mouse_2.stopped,image.started,image.stopped,text_5.started,text_5.stopped,text_6.started,text_6.stopped,text_7.started,text_7.stopped,text_8.started,text_8.stopped,slider_2.response,slider_2.rt,slider_2.started,slider_2.stopped,Response_2,Feedback_2,BackGround_2.started,BackGround_2.stopped,Fish_2.started,Fish_2.stopped,WordBox_2.started,WordBox_2.stopped,Words_2.started,Words_2.stopped,BackGround_Feedback_2.started,BackGround_Feedback_2.stopped,Feedbacks_2.started,Feedbacks_2.stopped,Continue_or_not.keys,Continue_or_not.rt,Continue_or_not.started,Continue_or_not.stopped,image_3.started,image_3.stopped,mouse_3.x,mouse_3.y,mouse_3.leftButton,mouse_3.midButton,mouse_3.rightButton,mouse_3.started,mouse_3.stopped,startmain.started,startmain.stopped,slider.response,slider.rt,slider.started,slider.stopped,Response,Feedback,BackGround.started,BackGround.stopped,Fish.started,Fish.stopped,WordBox.started,WordBox.stopped,Words.started,Words.stopped,BackGround_Feedback.started,BackGround_Feedback.stopped,Feedbacks.started,Feedbacks.stopped,text.started,text.stopped,break_interval.started,break_interval.stopped,mouse.x,mouse.y,mouse.leftButton,mouse.midButton,mouse.rightButton,mouse.started,mouse.stopped,stratnextround.started,stratnextround.stopped,endgame.started,endgame.stopped,participant,date,expName,psychopyVersion,frameRate,
,,,,,,,,,,,,,,,,,,,,,,,,,,,,,,,,,,,,,,,,,,,,,,,,,,,,,,19.637261900003068,None,19.637261900003068,None,space,2.7717914000022574,20.119677800001227,None,,,,,,,,,,,,,,,,,,,,,,,,,,,,,,,,,,,,,,,,,,,,,,,,,,,,,,,,,,,,,,,,,,,,,,,,,,,,,,,,,,,,,,,,,,225,2022-05-25_18h10.39.728,FishGame,2022.1.1,60.0315766090665,
물고기과제_instruction(참가자용)OrangeVersion.mp4,,,,,,,,,,,,,,0,0,0,0,0,0,0,0,,,,,,,,,,,,,,,,,,,,,,,,,,,,,,,,,,,,,,,,,89.18711330000224,None,n,3.5744809999996505,89.18711330000224,None,,,,,,,,,,,,,,,,,,,,,,,,,,,,,,,,,,,,,,,,,,,,,,,,,,,,,,,,,,,,,,,,,,,,,,,,,,,,,,,,,,,,225,2022-05-25_18h10.39.728,FishGame,2022.1.1,60.0315766090665,
,1,넌 교활해,5,Green,B,2.333333333333333,2.133333333333333,ScrollUp,ScrollDown,Green.png,practice,,,0,0,0,0,,,,,0,0,0,0,0,0,0,0,,,,,,,,,,,,,,,,,,,,,,,,,,,,,,,,,,,,,,,0.030555556,-0.22037037,1,0,0,0.5135574900014035,None,92.79347840000264,None,98.34306790000119,99.8427107000025,99.87601880000148,100.82588840000244,100.8759166000018,101.82574650000242,101.82574650000242,None,1.7283950646718345,1.6430289999989327,103.02277360000153,None,ScrollUp,정답입니다,103.02277360000153,None,103.02277360000153,None,103.02277360000153,None,103.02277360000153,None,104.48538890000054,None,104.48538890000054,104.9919366000031,,,,,,,,,,,,,,,,,,,,,,,,,,,,,,,,,,,,,,,,,,,,,,,,,225,2022-05-25_18h10.39.728,FishGame,2022.1.1,60.0315766090665,
,2,넌 슬기로워,2,Orange,A,6.166666666666667,4.1,ScrollDown,ScrollUp,Orange.png,practice,,,0,0,0,0,,,,,0,0,0,0,0,1,1,1,,,,,,,,,,,,,,,,,,,,,,,,,,,,,,,,,,,,,,,,,,,,,,,,,,,,,,,,1.1867283930381138,1.162947400000121,105.65492240000094,None,ScrollDown,정답입니다,105.65492240000094,None,105.65492240000094,None,105.65492240000094,None,105.65492240000094,None,106.68012080000335,None,106.68012080000335,107.1916796000005,,,,,,,,,,,,,,,,,,,,,,,,,,,,,,,,,,,,,,,,,,,,,,,,,225,2022-05-25_18h10.39.728,FishGame,2022.1.1,60.0315766090665,
,3,나를 보내줘,6,Orange,A,0,0,ScrollUp,ScrollDown,Orange.png,practice,,,0,0,0,0,,,,,0,0,0,0,0,2,2,2,,,,,,,,,,,,,,,,,,,,,,,,,,,,,,,,,,,,,,,,,,,,,,,,,,,,,,,,1.8564814726511638,2.911407599996892,107.84977900000013,None,ScrollUp,정답입니다,107.84977900000013,None,107.84977900000013,None,107.84977900000013,None,107.84977900000013,None,110.62874620000002,None,110.62874620000002,111.14117220000117,,,,,,,,,,,,,,,,,,,,,,,,,,,,,,,,,,,,,,,,,,,,,,,,,225,2022-05-25_18h10.39.728,FishGame,2022.1.1,60.0315766090665,
,4,나를 데려가줘,6,Green,B,0,0,ScrollDown,ScrollUp,Green.png,practice,,,0,0,0,0,,,,,0,0,0,0,0,3,3,3,,,,,,,,,,,,,,,,,,,,,,,,,,,,,,,,,,,,,,,,,,,,,,,,,,,,,,,,1.2592592487732568,1.1838457999983802,111.79228810000131,None,ScrollDown,정답입니다,111.79228810000131,None,111.79228810000131,None,111.79228810000131,None,111.79228810000131,None,112.84855230000176,None,112.84855230000176,113.35758580000038,,,,,,,,,,,,,,,,,,,,,,,,,,,,,,,,,,,,,,,,,,,,,,,,,225,2022-05-25_18h10.39.728,FishGame,2022.1.1,60.0315766090665,
,1,넌 교활해,5,Green,B,2.333333333333333,2.133333333333333,ScrollUp,ScrollDown,Green.png,practice,,,0,0,0,0,,,,,0,0,0,0,,,,,,,,,,,,,,,,,,,,,,,,,,,,,,,,,,,,,,,,,,,,,,,,,,,,,,,,,,,,,,,,,,,,,,,,,,,,,,n,6.4332390999989,113.85740490000171,None,113.85740490000171,None,,,,,,,,,,,,,,,,,,,,,,,,,,,,,,,,,,,,,,,,,,,225,2022-05-25_18h10.39.728,FishGame,2022.1.1,60.0315766090665,
,1,넌 따뜻해,1,Green,B,6.083333333333333,5.6,ScrollUp,ScrollDown,Green.png,1,Positive,Incongruent,0,0,0,0,,,,,,,,,,,,,0,0,0,0,,,,,,,,,,,,,,,,,,,,,,,,,,,,,,,,,,,,,,,,,,,,124.17311410000184,125.67274650000036,125.70595420000245,126.65592470000047,126.70581930000117,127.65575590000299,127.65575590000299,None,,,,,,,,,,,,,,,,,,,,,,,,,0.05740741,-0.119444445,1,0,0,0.31329479000123683,None,120.32340010000189,None,1.884259248773257,1.5155625000006694,128.8556688000026,None,ScrollUp,정답입니다,128.8556688000026,None,128.8556688000026,None,128.8556688000026,None,128.8556688000026,None,130.19456360000186,None,130.19456360000186,130.70533530000102,,,,,,,,,,,,,,,,225,2022-05-25_18h10.39.728,FishGame,2022.1.1,60.0315766090665,
,2,넌 기품있어,2,Green,B,5.791666666666668,4.5,ScrollUp,ScrollDown,Green.png,1,Positive,Incongruent,0,0,0,0,,,,,,,,,,,,,0,1,1,1,,,,,,,,,,,,,,,,,,,,,,,,,,,,,,,,,,,,,,,,,,,,,,,,,,,,,,,,,,,,,,,,,,,,,,,,,,,,,,,,,,,,,1.71913580596447,1.060486000002129,131.3695136000024,None,ScrollUp,정답입니다,131.3695136000024,None,131.3695136000024,None,131.3695136000024,None,131.3695136000024,None,132.2884748000033,None,132.2884748000033,132.78839580000204,,,,,,,,,,,,,,,,225,2022-05-25_18h10.39.728,FishGame,2022.1.1,60.0315766090665,
,3,나를 보내줘,6,Orange,A,0,0,ScrollUp,ScrollDown,Orange.png,1,NonTarget,NonTarget,0,0,0,0,,,,,,,,,,,,,0,2,2,2,,,,,,,,,,,,,,,,,,,,,,,,,,,,,,,,,,,,,,,,,,,,,,,,,,,,,,,,,,,,,,,,,,,,,,,,,,,,,,,,,,,,,1.7947530895471573,1.7998399999996764,133.45826170000146,None,ScrollUp,정답입니다,133.45826170000146,None,133.45826170000146,None,133.45826170000146,None,133.45826170000146,None,135.1114043000016,None,135.1114043000016,135.62139160000152,,,,,,,,,,,,,,,,225,2022-05-25_18h10.39.728,FishGame,2022.1.1,60.0315766090665,
,4,넌 수동적이야,4,Orange,A,2.833333333333333,2.933333333333333,ScrollDown,ScrollUp,Orange.png,1,Negative,Incongruent,0,0,0,0,,,,,,,,,,,,,0,3,3,3,,,,,,,,,,,,,,,,,,,,,,,,,,,,,,,,,,,,,,,,,,,,,,,,,,,,,,,,,,,,,,,,,,,,,,,,,,,,,,,,,,,,,1.0493827263514202,1.8432881999979145,136.29248870000083,None,ScrollDown,정답입니다,136.29248870000083,None,136.29248870000083,None,136.29248870000083,None,136.29248870000083,None,137.98812120000002,None,137.98812120000002,138.48768689999997,,,,,,,,,,,,,,,,225,2022-05-25_18h10.39.728,FishGame,2022.1.1,60.0315766090665,
,5,넌 사심이 없어,3,Green,B,4.916666666666666,4.333333333333333,ScrollUp,ScrollDown,Green.png,1,Neutral,Neutral,0,0,0,0,,,,,,,,,,,,,0,4,4,4,,,,,,,,,,,,,,,,,,,,,,,,,,,,,,,,,,,,,,,,,,,,,,,,,,,,,,,,,,,,,,,,,,,,,,,,,,,,,,,,,,,,,1.5308641977608204,1.550147099998867,139.1514739000013,None,NoResponse,무응답입니다,139.1514739000013,None,139.1514739000013,None,139.1514739000013,None,139.1514739000013,None,140.5678113000031,None,140.5678113000031,141.07062320000114,,,,,,,,,,,,,,,,225,2022-05-25_18h10.39.728,FishGame,2022.1.1,60.0315766090665,
,6,넌 헤퍼,5,Orange,A,2.458333333333334,2.233333333333333,ScrollDown,ScrollUp,Orange.png,1,Negative,Incongruent,0,0,0,0,,,,,,,,,,,,,0,5,5,5,,,,,,,,,,,,,,,,,,,,,,,,,,,,,,,,,,,,,,,,,,,,,,,,,,,,,,,,,,,,,,,,,,,,,,,,,,,,,,,,,,,,,1.0833333333333333,1.5775051999989955,141.73376770000323,None,ScrollDown,정답입니다,141.73376770000323,None,141.73376770000323,None,141.73376770000323,None,141.73376770000323,None,143.17219850000038,None,143.17219850000038,143.68705709999995,,,,,,,,,,,,,,,,225,2022-05-25_18h10.39.728,FishGame,2022.1.1,60.0315766090665,
,7,넌 말쑥해,3,Orange,A,4.833333333333334,4.333333333333333,ScrollDown,ScrollUp,Orange.png,1,Neutral,Neutral,0,0,0,0,,,,,,,,,,,,,0,6,6,6,,,,,,,,,,,,,,,,,,,,,,,,,,,,,,,,,,,,,,,,,,,,,,,,,,,,,,,,,,,,,,,,,,,,,,,,,,,,,,,,,,,,,1.2237654278675716,1.3988790000003064,144.3501516000033,None,ScrollDown,정답입니다,144.3501516000033,None,144.3501516000033,None,144.3501516000033,None,144.3501516000033,None,145.60888850000265,None,145.60888850000265,146.1200325000027,,,,,,,,,,,,,,,,225,2022-05-25_18h10.39.728,FishGame,2022.1.1,60.0315766090665,
,8,넌 투덜거려,5,Green,B,2.541666666666667,2.266666666666667,ScrollUp,ScrollDown,Green.png,1,Negative,Congruent,0,0,0,0,,,,,,,,,,,,,0,7,7,7,,,,,,,,,,,,,,,,,,,,,,,,,,,,,,,,,,,,,,,,,,,,,,,,,,,,,,,,,,,,,,,,,,,,,,,,,,,,,,,,,,,,,1.7083333333333335,1.4053601999985403,146.78185870000016,None,ScrollUp,정답입니다,146.78185870000016,None,146.78185870000016,None,146.78185870000016,None,146.78185870000016,None,148.04598340000302,None,148.04598340000302,148.55307820000235,,,,,,,,,,,,,,,,225,2022-05-25_18h10.39.728,FishGame,2022.1.1,60.0315766090665,
,9,넌 적극적이야,1,Orange,A,5.708333333333333,5.533333333333333,ScrollDown,ScrollUp,Orange.png,1,Positive,Congruent,0,0,0,0,,,,,,,,,,,,,0,8,8,8,,,,,,,,,,,,,,,,,,,,,,,,,,,,,,,,,,,,,,,,,,,,,,,,,,,,,,,,,,,,,,,,,,,,,,,,,,,,,,,,,,,,,1.1666666616996129,1.10539129999961,149.21480110000266,None,ScrollDown,정답입니다,149.21480110000266,None,149.21480110000266,None,149.21480110000266,None,149.21480110000266,None,150.18610249999983,None,150.18610249999983,150.68614040000102,,,,,,,,,,,,,,,,225,2022-05-25_18h10.39.728,FishGame,2022.1.1,60.0315766090665,
,10,넌 재미없어,4,Green,B,2.625,2.966666666666667,ScrollUp,ScrollDown,Green.png,1,Negative,Congruent,0,0,0,0,,,,,,,,,,,,,0,9,9,9,,,,,,,,,,,,,,,,,,,,,,,,,,,,,,,,,,,,,,,,,,,,,,,,,,,,,,,,,,,,,,,,,,,,,,,,,,,,,,,,,,,,,1.507716049440205,1.115777999999409,151.34534600000188,None,NoResponse,무응답입니다,151.34534600000188,None,151.34534600000188,None,151.34534600000188,None,151.34534600000188,None,152.32959630000187,None,152.32959630000187,152.83582490000117,,,,,,,,,,,,,,,,225,2022-05-25_18h10.39.728,FishGame,2022.1.1,60.0315766090665,
,11,넌 명석해,2,Orange,A,5.875,4.033333333333333,ScrollDown,ScrollUp,Orange.png,1,Positive,Congruent,0,0,0,0,,,,,,,,,,,,,0,10,10,10,,,,,,,,,,,,,,,,,,,,,,,,,,,,,,,,,,,,,,,,,,,,,,,,,,,,,,,,,,,,,,,,,,,,,,,,,,,,,,,,,,,,,1.2052469104528427,1.065477699998155,153.4993914000006,None,ScrollDown,정답입니다,153.4993914000006,None,153.4993914000006,None,153.4993914000006,None,153.4993914000006,None,154.42787780000072,None,154.42787780000072,154.935621800003,,,,,,,,,,,,,,,,225,2022-05-25_18h10.39.728,FishGame,2022.1.1,60.0315766090665,
,12,나를 데려가줘,6,Green,B,0,0,ScrollDown,ScrollUp,Green.png,1,NonTarget,NonTarget,0,0,0,0,,,,,,,,,,,,,0,11,11,11,,,,,,,,,,,,,,,,,,,,,,,,,,,,,,,,,,,,,,,,,,,,,,,,,,,,,,,,,,,,,,,,,,,,,,,,,,,,,,,,,,,,,1.09413580596447,1.366610799999762,155.5943100000004,None,ScrollDown,정답입니다,155.5943100000004,None,155.5943100000004,None,155.5943100000004,None,155.5943100000004,None,156.82568260000335,None,156.82568260000335,157.33518370000093,,,,,,,,,,,,,,,,225,2022-05-25_18h10.39.728,FishGame,2022.1.1,60.0315766090665,
,13,넌 소심해,4,Orange,A,3,3.1,ScrollDown,ScrollUp,Orange.png,1,Negative,Incongruent,0,0,0,0,,,,,,,,,,,,,0,12,12,12,,,,,,,,,,,,,,,,,,,,,,,,,,,,,,,,,,,,,,,,,,,,,,,,,,,,,,,,,,,,,,,,,,,,,,,,,,,,,,,,,,,,,1,1.3045137000008253,157.99501930000042,None,ScrollDown,정답입니다,157.99501930000042,None,157.99501930000042,None,157.99501930000042,None,157.99501930000042,None,159.16845650000323,None,159.16845650000323,159.66833899999983,,,,,,,,,,,,,,,,225,2022-05-25_18h10.39.728,FishGame,2022.1.1,60.0315766090665,
,14,넌 합리적이야,2,Orange,A,5.583333333333333,4.733333333333333,ScrollDown,ScrollUp,Orange.png,1,Positive,Congruent,0,0,0,0,,,,,,,,,,,,,0,13,13,13,,,,,,,,,,,,,,,,,,,,,,,,,,,,,,,,,,,,,,,,,,,,,,,,,,,,,,,,,,,,,,,,,,,,,,,,,,,,,,,,,,,,,1.0570987462997437,1.1434217000023637,160.3309788000006,None,ScrollDown,정답입니다,160.3309788000006,None,160.3309788000006,None,160.3309788000006,None,160.3309788000006,None,161.33489770000233,None,161.33489770000233,161.83470940000188,,,,,,,,,,,,,,,,225,2022-05-25_18h10.39.728,FishGame,2022.1.1,60.0315766090665,
,15,넌 무자비해,5,Green,B,2.333333333333333,2.1,ScrollUp,ScrollDown,Green.png,1,Negative,Congruent,0,0,0,0,,,,,,,,,,,,,0,14,14,14,,,,,,,,,,,,,,,,,,,,,,,,,,,,,,,,,,,,,,,,,,,,,,,,,,,,,,,,,,,,,,,,,,,,,,,,,,,,,,,,,,,,,1.6975308607021966,0.9953656999969098,162.49490230000083,None,ScrollUp,정답입니다,162.49490230000083,None,162.49490230000083,None,162.49490230000083,None,162.49490230000083,None,163.3564303000021,None,163.3564303000021,163.8678215,,,,,,,,,,,,,,,,225,2022-05-25_18h10.39.728,FishGame,2022.1.1,60.0315766090665,
,16,나를 보내줘,6,Orange,A,0,0,ScrollUp,ScrollDown,Orange.png,1,NonTarget,NonTarget,0,0,0,0,,,,,,,,,,,,,0,15,15,15,,,,,,,,,,,,,,,,,,,,,,,,,,,,,,,,,,,,,,,,,,,,,,,,,,,,,,,,,,,,,,,,,,,,,,,,,,,,,,,,,,,,,1.71913580596447,1.386168600001838,164.5222668000024,None,ScrollUp,정답입니다,164.5222668000024,None,164.5222668000024,None,164.5222668000024,None,164.5222668000024,None,165.7776027,None,165.7776027,166.28423490000205,,,,,,,,,,,,,,,,225,2022-05-25_18h10.39.728,FishGame,2022.1.1,60.0315766090665,
,17,넌 현실적이야,3,Green,B,4.608695652173913,4.766666666666667,ScrollUp,ScrollDown,Green.png,1,Neutral,Neutral,0,0,0,0,,,,,,,,,,,,,0,16,16,16,,,,,,,,,,,,,,,,,,,,,,,,,,,,,,,,,,,,,,,,,,,,,,,,,,,,,,,,,,,,,,,,,,,,,,,,,,,,,,,,,,,,,1.679012343287468,1.3679924999996729,166.94631330000266,None,ScrollUp,정답입니다,166.94631330000266,None,166.94631330000266,None,166.94631330000266,None,166.94631330000266,None,168.1761047,None,168.1761047,168.68383580000227,,,,,,,,,,,,,,,,225,2022-05-25_18h10.39.728,FishGame,2022.1.1,60.0315766090665,
,18,넌 의리있어,1,Green,B,5.833333333333334,5.633333333333334,ScrollUp,ScrollDown,Green.png,1,Positive,Incongruent,0,0,0,0,,,,,,,,,,,,,0,17,17,17,,,,,,,,,,,,,,,,,,,,,,,,,,,,,,,,,,,,,,,,,,,,,,,,,,,,,,,,,,,,,,,,,,,,,,,,,,,,,,,,,,,,,1.819444437821706,1.1440360999986297,169.33934650000083,None,ScrollUp,정답입니다,169.33934650000083,None,169.33934650000083,None,169.33934650000083,None,169.33934650000083,None,170.35057580000284,None,170.35057580000284,170.8504884000031,,,,,,,,,,,,,,,,225,2022-05-25_18h10.39.728,FishGame,2022.1.1,60.0315766090665,
,19,넌 신경과민이야,5,Orange,A,2.541666666666667,2.166666666666667,ScrollDown,ScrollUp,Orange.png,1,Negative,Incongruent,0,0,0,0,,,,,,,,,,,,,0,18,18,18,,,,,,,,,,,,,,,,,,,,,,,,,,,,,,,,,,,,,,,,,,,,,,,,,,,,,,,,,,,,,,,,,,,,,,,,,,,,,,,,,,,,,1,1.7656328999983089,171.51178880000225,None,ScrollDown,정답입니다,171.51178880000225,None,171.51178880000225,None,171.51178880000225,None,171.51178880000225,None,173.14320080000107,None,173.14320080000107,173.6498397000032,,,,,,,,,,,,,,,,225,2022-05-25_18h10.39.728,FishGame,2022.1.1,60.0315766090665,
,20,넌 편안해,1,Orange,A,5.916666666666666,5.866666666666666,ScrollDown,ScrollUp,Orange.png,1,Positive,Congruent,0,0,0,0,,,,,,,,,,,,,0,19,19,19,,,,,,,,,,,,,,,,,,,,,,,,,,,,,,,,,,,,,,,,,,,,,,,,,,,,,,,,,,,,,,,,,,,,,,,,,,,,,,,,,,,,,1.1373456716537476,1.0647148000025481,174.3158094999999,None,ScrollDown,정답입니다,174.3158094999999,None,174.3158094999999,None,174.3158094999999,None,174.3158094999999,None,175.2493022000017,None,175.2493022000017,175.7498809000026,,,,,,,,,,,,,,,,225,2022-05-25_18h10.39.728,FishGame,2022.1.1,60.0315766090665,
,21,넌 품위있어,2,Green,B,5.291666666666666,4.466666666666667,ScrollUp,ScrollDown,Green.png,1,Positive,Incongruent,0,0,0,0,,,,,,,,,,,,,0,20,20,20,,,,,,,,,,,,,,,,,,,,,,,,,,,,,,,,,,,,,,,,,,,,,,,,,,,,,,,,,,,,,,,,,,,,,,,,,,,,,,,,,,,,,1.4768518516793847,1.1365669000006164,176.40345190000153,None,NoResponse,무응답입니다,176.40345190000153,None,176.40345190000153,None,176.40345190000153,None,176.40345190000153,None,177.41605340000024,None,177.41605340000024,177.91593060000014,,,,,,,,,,,,,,,,225,2022-05-25_18h10.39.728,FishGame,2022.1.1,60.0315766090665,
,22,넌 빈틈없어,3,Orange,A,4.833333333333333,3.966666666666667,ScrollDown,ScrollUp,Orange.png,1,Neutral,Neutral,0,0,0,0,,,,,,,,,,,,,0,21,21,21,,,,,,,,,,,,,,,,,,,,,,,,,,,,,,,,,,,,,,,,,,,,,,,,,,,,,,,,,,,,,,,,,,,,,,,,,,,,,,,,,,,,,1.10030863682429,1.1997975000012957,178.58383570000296,None,ScrollDown,정답입니다,178.58383570000296,None,178.58383570000296,None,178.58383570000296,None,178.58383570000296,None,179.64103740000064,None,179.64103740000064,180.1489969000031,,,,,,,,,,,,,,,,225,2022-05-25_18h10.39.728,FishGame,2022.1.1,60.0315766090665,
,23,넌 상상력없어,4,Green,B,2.833333333333333,3.133333333333333,ScrollUp,ScrollDown,Green.png,1,Negative,Congruent,0,0,0,0,,,,,,,,,,,,,0,22,22,22,,,,,,,,,,,,,,,,,,,,,,,,,,,,,,,,,,,,,,,,,,,,,,,,,,,,,,,,,,,,,,,,,,,,,,,,,,,,,,,,,,,,,1.6358024651805558,0.95243809999738,180.808062600001,None,ScrollUp,정답입니다,180.808062600001,None,180.808062600001,None,180.808062600001,None,180.808062600001,None,181.62384519999978,None,181.62384519999978,182.13219329999993,,,,,,,,,,,,,,,,225,2022-05-25_18h10.39.728,FishGame,2022.1.1,60.0315766090665,
,24,넌 지혜로워,2,Green,B,6.333333333333334,4.633333333333334,ScrollUp,ScrollDown,Green.png,1,Positive,Incongruent,0,0,0,0,,,,,,,,,,,,,0,23,23,23,,,,,,,,,,,,,,,,,,,,,,,,,,,,,,,,,,,,,,,,,,,,,,,,,,,,,,,,,,,,,,,,,,,,,,,,,,,,,,,,,,,,,1.6435185223817825,1.003410100001929,182.79553250000026,None,ScrollUp,정답입니다,182.79553250000026,None,182.79553250000026,None,182.79553250000026,None,182.79553250000026,None,183.65796690000207,None,183.65796690000207,184.16517329999988,,,,,,,,,,,,,,,,225,2022-05-25_18h10.39.728,FishGame,2022.1.1,60.0315766090665,
,25,넌 시끄러워,4,Orange,A,2.833333333333333,3.033333333333333,ScrollDown,ScrollUp,Orange.png,1,Negative,Incongruent,0,0,0,0,,,,,,,,,,,,,0,24,24,24,,,,,,,,,,,,,,,,,,,,,,,,,,,,,,,,,,,,,,,,,,,,,,,,,,,,,,,,,,,,,,,,,,,,,,,,,,,,,,,,,,,,,1.0216049253940582,1.3259563999999955,184.8321458999999,None,ScrollDown,정답입니다,184.8321458999999,None,184.8321458999999,None,184.8321458999999,None,184.8321458999999,None,186.01529140000275,None,186.01529140000275,186.5148659000006,,,,,,,,,,,,,,,,225,2022-05-25_18h10.39.728,FishGame,2022.1.1,60.0315766090665,
,26,넌 만사태평이야,3,Green,B,4,4.333333333333333,ScrollUp,ScrollDown,Green.png,1,Neutral,Neutral,0,0,0,0,,,,,,,,,,,,,0,25,25,25,,,,,,,,,,,,,,,,,,,,,,,,,,,,,,,,,,,,,,,,,,,,,,,,,,,,,,,,,,,,,,,,,,,,,,,,,,,,,,,,,,,,,1.67746914178133,1.324276800001826,187.18031490000067,None,ScrollUp,정답입니다,187.18031490000067,None,187.18031490000067,None,187.18031490000067,None,187.18031490000067,None,188.3650054000027,None,188.3650054000027,188.86458160000257,,,,,,,,,,,,,,,,225,2022-05-25_18h10.39.728,FishGame,2022.1.1,60.0315766090665,
,27,넌 붙임성있어,1,Orange,A,5.708333333333333,5.633333333333334,ScrollDown,ScrollUp,Orange.png,1,Positive,Congruent,0,0,0,0,,,,,,,,,,,,,0,26,26,26,,,,,,,,,,,,,,,,,,,,,,,,,,,,,,,,,,,,,,,,,,,,,,,,,,,,,,,,,,,,,,,,,,,,,,,,,,,,,,,,,,,,,1.095679019888242,1.2654447999993863,189.5326350000032,None,ScrollDown,정답입니다,189.5326350000032,None,189.5326350000032,None,189.5326350000032,None,189.5326350000032,None,190.6542773000001,None,190.6542773000001,191.16428280000036,,,,,,,,,,,,,,,,225,2022-05-25_18h10.39.728,FishGame,2022.1.1,60.0315766090665,
,28,넌 영리해,2,Orange,A,6,4.033333333333333,ScrollDown,ScrollUp,Orange.png,1,Positive,Congruent,0,0,0,0,,,,,,,,,,,,,0,27,27,27,,,,,,,,,,,,,,,,,,,,,,,,,,,,,,,,,,,,,,,,,,,,,,,,,,,,,,,,,,,,,,,,,,,,,,,,,,,,,,,,,,,,,1.0895061641931534,1.2590546999999788,191.8263450000013,None,ScrollDown,정답입니다,191.8263450000013,None,191.8263450000013,None,191.8263450000013,None,191.8263450000013,None,192.9476035000007,None,192.9476035000007,193.44728560000294,,,,,,,,,,,,,,,,225,2022-05-25_18h10.39.728,FishGame,2022.1.1,60.0315766090665,
,29,넌 열심이야,1,Green,B,6.041666666666667,5.833333333333333,ScrollUp,ScrollDown,Green.png,1,Positive,Incongruent,0,0,0,0,,,,,,,,,,,,,0,28,28,28,,,,,,,,,,,,,,,,,,,,,,,,,,,,,,,,,,,,,,,,,,,,,,,,,,,,,,,,,,,,,,,,,,,,,,,,,,,,,,,,,,,,,1.6558641965190568,1.330817099998967,194.09994590000133,None,ScrollUp,정답입니다,194.09994590000133,None,194.09994590000133,None,194.09994590000133,None,194.09994590000133,None,195.30264530000204,None,195.30264530000204,195.81368740000107,,,,,,,,,,,,,,,,225,2022-05-25_18h10.39.728,FishGame,2022.1.1,60.0315766090665,
,30,넌 인기없어,4,Green,B,3,3.3,ScrollUp,ScrollDown,Green.png,1,Negative,Congruent,0,0,0,0,,,,,,,,,,,,,0,29,29,29,,,,,,,,,,,,,,,,,,,,,,,,,,,,,,,,,,,,,,,,,,,,,,,,,,,,,,,,,,,,,,,,,,,,,,,,,,,,,,,,,,,,,1.5570987661679587,0.9669041000015568,196.470587900003,None,ScrollUp,정답입니다,196.470587900003,None,196.470587900003,None,196.470587900003,None,196.470587900003,None,197.30494100000215,None,197.30494100000215,197.81342470000163,,,,,,,,,,,,,,,,225,2022-05-25_18h10.39.728,FishGame,2022.1.1,60.0315766090665,
,31,넌 익살스러워,3,Orange,A,4.708333333333334,4.833333333333333,ScrollDown,ScrollUp,Orange.png,1,Neutral,Neutral,0,0,0,0,,,,,,,,,,,,,0,30,30,30,,,,,,,,,,,,,,,,,,,,,,,,,,,,,,,,,,,,,,,,,,,,,,,,,,,,,,,,,,,,,,,,,,,,,,,,,,,,,,,,,,,,,1.0570987462997437,0.9828850000012608,198.47914560000208,None,ScrollDown,정답입니다,198.47914560000208,None,198.47914560000208,None,198.47914560000208,None,198.47914560000208,None,199.31970560000264,None,199.31970560000264,199.82987610000055,,,,,,,,,,,,,,,,225,2022-05-25_18h10.39.728,FishGame,2022.1.1,60.0315766090665,
,32,넌 이기적이야,5,Green,B,2.291666666666667,2.333333333333333,ScrollUp,ScrollDown,Green.png,1,Negative,Congruent,0,0,0,0,,,,,,,,,,,,,0,31,31,31,,,,,,,,,,,,,,,,,,,,,,,,,,,,,,,,,,,,,,,,,,,,,,,,,,,,,,,,,,,,,,,,,,,,,,,,,,,,,,,,,,,,,1.584876542290052,1.1563147000015306,200.47725790000186,None,ScrollUp,정답입니다,200.47725790000186,None,200.47725790000186,None,200.47725790000186,None,200.47725790000186,None,201.51334790000328,None,201.51334790000328,202.01293390000137,,,,,,,,,,,,,,,,225,2022-05-25_18h10.39.728,FishGame,2022.1.1,60.0315766090665,
,33,나를 데려가줘,6,Green,B,0,0,ScrollDown,ScrollUp,Green.png,1,NonTarget,NonTarget,0,0,0,0,,,,,,,,,,,,,0,32,32,32,,,,,,,,,,,,,,,,,,,,,,,,,,,,,,,,,,,,,,,,,,,,,,,,,,,,,,,,,,,,,,,,,,,,,,,,,,,,,,,,,,,,,1.0416666567325592,1.28249489999871,202.6636036000018,None,ScrollDown,정답입니다,202.6636036000018,None,202.6636036000018,None,202.6636036000018,None,202.6636036000018,None,203.81953620000058,None,203.81953620000058,204.3293663000004,,,,,,,,,,,,,,,,225,2022-05-25_18h10.39.728,FishGame,2022.1.1,60.0315766090665,
,34,넌 기회주의자야,5,Orange,A,2.875,2.133333333333333,ScrollDown,ScrollUp,Orange.png,1,Negative,Incongruent,0,0,0,0,,,,,,,,,,,,,0,33,33,33,,,,,,,,,,,,,,,,,,,,,,,,,,,,,,,,,,,,,,,,,,,,,,,,,,,,,,,,,,,,,,,,,,,,,,,,,,,,,,,,,,,,,1.0817901194095612,1.1981207999997423,204.99666369999977,None,ScrollDown,정답입니다,204.99666369999977,None,204.99666369999977,None,204.99666369999977,None,204.99666369999977,None,206.05057170000146,None,206.05057170000146,206.56242270000075,,,,,,,,,,,,,,,,225,2022-05-25_18h10.39.728,FishGame,2022.1.1,60.0315766090665,
,1,넌 미성숙해,4,Orange,A,3,3.2,ScrollDown,ScrollUp,Orange.png,2,Negative,Incongruent,0,0,0,0,,,,,,,,,,,,,,,,,0,0,0,0,,,,,,,,,,,,,,,,,,,,,,,,,,,,,,,,,,,,,,,,238.7420075000009,240.24138740000126,240.27470050000193,241.22467160000087,241.2746834999998,242.2245038000001,242.2245038000001,None,,,,,,,,,,,,,,,,,,,,,,,,,,,,,,,,,,1,1.2564089999978023,243.4298490000001,None,ScrollDown,정답입니다,243.4298490000001,None,243.4298490000001,None,243.4298490000001,None,243.4298490000001,None,244.49877680000282,None,244.49877680000282,245.00748270000258,207.062243700002,None,207.062243700002,None,0.05185185,-0.10185185,1,0,0,0.01606548999552615,None,237.05845110000155,None,,,225,2022-05-25_18h10.39.728,FishGame,2022.1.1,60.0315766090665,
,2,넌 반사회적이야,5,Green,B,2.416666666666667,2.033333333333333,ScrollUp,ScrollDown,Green.png,2,Negative,Congruent,0,0,0,0,,,,,,,,,,,,,,,,,0,1,1,1,,,,,,,,,,,,,,,,,,,,,,,,,,,,,,,,,,,,,,,,,,,,,,,,,,,,,,,,,,,,,,,,,,,,,,,,,,,,,,,,,1.634259263674418,1.2274131999984093,245.6650866000018,None,ScrollUp,정답입니다,245.6650866000018,None,245.6650866000018,None,245.6650866000018,None,245.6650866000018,None,246.75707150000017,None,246.75707150000017,247.25711560000127,,,,,,,,,,,,,,,,225,2022-05-25_18h10.39.728,FishGame,2022.1.1,60.0315766090665,
,3,넌 유능해,2,Orange,A,6.208333333333333,4.433333333333334,ScrollDown,ScrollUp,Orange.png,2,Positive,Congruent,0,0,0,0,,,,,,,,,,,,,,,,,0,2,2,2,,,,,,,,,,,,,,,,,,,,,,,,,,,,,,,,,,,,,,,,,,,,,,,,,,,,,,,,,,,,,,,,,,,,,,,,,,,,,,,,,1.0262345671653748,1.2432714000024134,247.9208647000014,None,ScrollDown,정답입니다,247.9208647000014,None,247.9208647000014,None,247.9208647000014,None,247.9208647000014,None,249.02375570000004,None,249.02375570000004,249.52360469999985,,,,,,,,,,,,,,,,225,2022-05-25_18h10.39.728,FishGame,2022.1.1,60.0315766090665,
,4,넌 능숙해,2,Green,B,5.666666666666667,4.733333333333333,ScrollUp,ScrollDown,Green.png,2,Positive,Incongruent,0,0,0,0,,,,,,,,,,,,,,,,,0,3,3,3,,,,,,,,,,,,,,,,,,,,,,,,,,,,,,,,,,,,,,,,,,,,,,,,,,,,,,,,,,,,,,,,,,,,,,,,,,,,,,,,,1.614197532335917,1.1206944000005024,250.17101410000032,None,ScrollUp,정답입니다,250.17101410000032,None,250.17101410000032,None,250.17101410000032,None,250.17101410000032,None,251.17326570000296,None,251.17326570000296,251.67333409999992,,,,,,,,,,,,,,,,225,2022-05-25_18h10.39.728,FishGame,2022.1.1,60.0315766090665,
,5,넌 진부해,4,Green,B,2.458333333333333,3.166666666666667,ScrollUp,ScrollDown,Green.png,2,Negative,Congruent,0,0,0,0,,,,,,,,,,,,,,,,,0,4,4,4,,,,,,,,,,,,,,,,,,,,,,,,,,,,,,,,,,,,,,,,,,,,,,,,,,,,,,,,,,,,,,,,,,,,,,,,,,,,,,,,,1.5524691368142762,0.866882500002248,252.33211370000208,None,ScrollUp,정답입니다,252.33211370000208,None,252.33211370000208,None,252.33211370000208,None,252.33211370000208,None,253.06343680000282,None,253.06343680000282,253.5730156000027,,,,,,,,,,,,,,,,225,2022-05-25_18h10.39.728,FishGame,2022.1.1,60.0315766090665,
,6,나를 보내줘,6,Orange,A,0,0,ScrollUp,ScrollDown,Orange.png,2,NonTarget,NonTarget,0,0,0,0,,,,,,,,,,,,,,,,,0,5,5,5,,,,,,,,,,,,,,,,,,,,,,,,,,,,,,,,,,,,,,,,,,,,,,,,,,,,,,,,,,,,,,,,,,,,,,,,,,,,,,,,,1.6126543184121451,1.3831800000007206,254.22917990000133,None,ScrollUp,정답입니다,254.22917990000133,None,254.22917990000133,None,254.22917990000133,None,254.22917990000133,None,255.48015149999992,None,255.48015149999992,255.9893469000017,,,,,,,,,,,,,,,,225,2022-05-25_18h10.39.728,FishGame,2022.1.1,60.0315766090665,
,7,넌 엄격해,3,Orange,A,4.166666666666666,4.1,ScrollDown,ScrollUp,Orange.png,2,Neutral,Neutral,0,0,0,0,,,,,,,,,,,,,,,,,0,6,6,6,,,,,,,,,,,,,,,,,,,,,,,,,,,,,,,,,,,,,,,,,,,,,,,,,,,,,,,,,,,,,,,,,,,,,,,,,,,,,,,,,1,1.1641438999977254,256.6539191000011,None,ScrollDown,정답입니다,256.6539191000011,None,256.6539191000011,None,256.6539191000011,None,256.6539191000011,None,257.6786358999998,None,257.6786358999998,258.1891187000001,,,,,,,,,,,,,,,,225,2022-05-25_18h10.39.728,FishGame,2022.1.1,60.0315766090665,
,8,나를 보내줘,6,Orange,A,0,0,ScrollUp,ScrollDown,Orange.png,2,NonTarget,NonTarget,0,0,0,0,,,,,,,,,,,,,,,,,0,7,7,7,,,,,,,,,,,,,,,,,,,,,,,,,,,,,,,,,,,,,,,,,,,,,,,,,,,,,,,,,,,,,,,,,,,,,,,,,,,,,,,,,1.5617283955216408,1.1488673000021663,258.8420479000015,None,ScrollUp,정답입니다,258.8420479000015,None,258.8420479000015,None,258.8420479000015,None,258.8420479000015,None,259.8623667000029,None,259.8623667000029,260.3721535000004,,,,,,,,,,,,,,,,225,2022-05-25_18h10.39.728,FishGame,2022.1.1,60.0315766090665,
,9,넌 대담해,3,Green,B,4.875,4.866666666666666,ScrollUp,ScrollDown,Green.png,2,Neutral,Neutral,0,0,0,0,,,,,,,,,,,,,,,,,0,8,8,8,,,,,,,,,,,,,,,,,,,,,,,,,,,,,,,,,,,,,,,,,,,,,,,,,,,,,,,,,,,,,,,,,,,,,,,,,,,,,,,,,1.6373456791043282,1.1503827999986243,261.0307586000017,None,ScrollUp,정답입니다,261.0307586000017,None,261.0307586000017,None,261.0307586000017,None,261.0307586000017,None,262.0449905000023,None,262.0449905000023,262.5552306000027,,,,,,,,,,,,,,,,225,2022-05-25_18h10.39.728,FishGame,2022.1.1,60.0315766090665,
,10,넌 꾸준해,1,Orange,A,5.916666666666668,5.8,ScrollDown,ScrollUp,Orange.png,2,Positive,Congruent,0,0,0,0,,,,,,,,,,,,,,,,,0,9,9,9,,,,,,,,,,,,,,,,,,,,,,,,,,,,,,,,,,,,,,,,,,,,,,,,,,,,,,,,,,,,,,,,,,,,,,,,,,,,,,,,,1.1774691343307495,0.8873375000002852,263.21755830000257,None,ScrollDown,정답입니다,263.21755830000257,None,263.21755830000257,None,263.21755830000257,None,263.21755830000257,None,263.97180350000053,None,263.97180350000053,264.47156780000296,,,,,,,,,,,,,,,,225,2022-05-25_18h10.39.728,FishGame,2022.1.1,60.0315766090665,
,11,나를 데려가줘,6,Green,B,0,0,ScrollDown,ScrollUp,Green.png,2,NonTarget,NonTarget,0,0,0,0,,,,,,,,,,,,,,,,,0,10,10,10,,,,,,,,,,,,,,,,,,,,,,,,,,,,,,,,,,,,,,,,,,,,,,,,,,,,,,,,,,,,,,,,,,,,,,,,,,,,,,,,,1.0509259402751923,1.2781720000020869,265.12522119999994,None,ScrollDown,정답입니다,265.12522119999994,None,265.12522119999994,None,265.12522119999994,None,265.12522119999994,None,266.27150640000036,None,266.27150640000036,266.77134240000305,,,,,,,,,,,,,,,,225,2022-05-25_18h10.39.728,FishGame,2022.1.1,60.0315766090665,
,12,넌 독선적이야,5,Orange,A,2.458333333333333,1.933333333333333,ScrollDown,ScrollUp,Orange.png,2,Negative,Incongruent,0,0,0,0,,,,,,,,,,,,,,,,,0,11,11,11,,,,,,,,,,,,,,,,,,,,,,,,,,,,,,,,,,,,,,,,,,,,,,,,,,,,,,,,,,,,,,,,,,,,,,,,,,,,,,,,,1,1.2906097000013688,267.43251020000025,None,ScrollDown,정답입니다,267.43251020000025,None,267.43251020000025,None,267.43251020000025,None,267.43251020000025,None,268.5877160000018,None,268.5877160000018,269.08771290000004,,,,,,,,,,,,,,,,225,2022-05-25_18h10.39.728,FishGame,2022.1.1,60.0315766090665,
,13,나를 보내줘,6,Orange,A,0,0,ScrollUp,ScrollDown,Orange.png,2,NonTarget,NonTarget,0,0,0,0,,,,,,,,,,,,,,,,,0,12,12,12,,,,,,,,,,,,,,,,,,,,,,,,,,,,,,,,,,,,,,,,,,,,,,,,,,,,,,,,,,,,,,,,,,,,,,,,,,,,,,,,,1.5586419738829136,0.9757045999976981,269.745674400001,None,ScrollUp,정답입니다,269.745674400001,None,269.745674400001,None,269.745674400001,None,269.745674400001,None,270.587402000001,None,270.587402000001,271.0874881000018,,,,,,,,,,,,,,,,225,2022-05-25_18h10.39.728,FishGame,2022.1.1,60.0315766090665,
,14,넌 책임감있어,1,Green,B,6.347826086956522,6,ScrollUp,ScrollDown,Green.png,2,Positive,Incongruent,0,0,0,0,,,,,,,,,,,,,,,,,0,13,13,13,,,,,,,,,,,,,,,,,,,,,,,,,,,,,,,,,,,,,,,,,,,,,,,,,,,,,,,,,,,,,,,,,,,,,,,,,,,,,,,,,1.4074074067175388,1.0350792999997793,271.7482381000009,None,ScrollDown,오답입니다,271.7482381000009,None,271.7482381000009,None,271.7482381000009,None,271.7482381000009,None,272.6507550000024,None,272.6507550000024,273.1538354000004,,,,,,,,,,,,,,,,225,2022-05-25_18h10.39.728,FishGame,2022.1.1,60.0315766090665,
,15,넌 문학적이야,3,Orange,A,4.708333333333334,4.333333333333333,ScrollDown,ScrollUp,Orange.png,2,Neutral,Neutral,0,0,0,0,,,,,,,,,,,,,,,,,0,14,14,14,,,,,,,,,,,,,,,,,,,,,,,,,,,,,,,,,,,,,,,,,,,,,,,,,,,,,,,,,,,,,,,,,,,,,,,,,,,,,,,,,1.0509259402751923,1.3560022999990906,273.8214052000003,None,ScrollDown,정답입니다,273.8214052000003,None,273.8214052000003,None,273.8214052000003,None,273.8214052000003,None,275.03175620000184,None,275.03175620000184,275.5368593000021,,,,,,,,,,,,,,,,225,2022-05-25_18h10.39.728,FishGame,2022.1.1,60.0315766090665,
,16,넌 재미있어,1,Green,B,5.875,5.7,ScrollUp,ScrollDown,Green.png,2,Positive,Incongruent,0,0,0,0,,,,,,,,,,,,,,,,,0,15,15,15,,,,,,,,,,,,,,,,,,,,,,,,,,,,,,,,,,,,,,,,,,,,,,,,,,,,,,,,,,,,,,,,,,,,,,,,,,,,,,,,,1.5339506162951388,1.3156111000025703,276.19010680000065,None,NoResponse,무응답입니다,276.19010680000065,None,276.19010680000065,None,276.19010680000065,None,276.19010680000065,None,277.3791861999998,None,277.3791861999998,277.8866343000009,,,,,,,,,,,,,,,,225,2022-05-25_18h10.39.728,FishGame,2022.1.1,60.0315766090665,
,17,나를 데려가줘,6,Green,B,0,0,ScrollDown,ScrollUp,Green.png,2,NonTarget,NonTarget,0,0,0,0,,,,,,,,,,,,,,,,,0,16,16,16,,,,,,,,,,,,,,,,,,,,,,,,,,,,,,,,,,,,,,,,,,,,,,,,,,,,,,,,,,,,,,,,,,,,,,,,,,,,,,,,,1,1.4479479000001447,278.53991900000256,None,ScrollDown,정답입니다,278.53991900000256,None,278.53991900000256,None,278.53991900000256,None,278.53991900000256,None,279.8600544000001,None,279.8600544000001,280.369594900003,,,,,,,,,,,,,,,,225,2022-05-25_18h10.39.728,FishGame,2022.1.1,60.0315766090665,
,18,넌 협력적이야,1,Orange,A,5.625,5.633333333333334,ScrollDown,ScrollUp,Orange.png,2,Positive,Congruent,0,0,0,0,,,,,,,,,,,,,,,,,0,17,17,17,,,,,,,,,,,,,,,,,,,,,,,,,,,,,,,,,,,,,,,,,,,,,,,,,,,,,,,,,,,,,,,,,,,,,,,,,,,,,,,,,1.0648148159186046,1.0165558999979112,281.03101490000336,None,ScrollDown,정답입니다,281.03101490000336,None,281.03101490000336,None,281.03101490000336,None,281.03101490000336,None,281.9086254000031,None,281.9086254000031,282.4193828000025,,,,,,,,,,,,,,,,225,2022-05-25_18h10.39.728,FishGame,2022.1.1,60.0315766090665,
,19,넌 평범해,3,Green,B,4.333333333333332,4.233333333333333,ScrollUp,ScrollDown,Green.png,2,Neutral,Neutral,0,0,0,0,,,,,,,,,,,,,,,,,0,18,18,18,,,,,,,,,,,,,,,,,,,,,,,,,,,,,,,,,,,,,,,,,,,,,,,,,,,,,,,,,,,,,,,,,,,,,,,,,,,,,,,,,1.6851851865649223,1.1375808999982837,283.07014040000286,None,ScrollUp,정답입니다,283.07014040000286,None,283.07014040000286,None,283.07014040000286,None,283.07014040000286,None,284.0857591000022,None,284.0857591000022,284.58562789999996,,,,,,,,,,,,,,,,225,2022-05-25_18h10.39.728,FishGame,2022.1.1,60.0315766090665,
,20,넌 오만해,5,Orange,A,2.333333333333333,2,ScrollDown,ScrollUp,Orange.png,2,Negative,Incongruent,0,0,0,0,,,,,,,,,,,,,,,,,0,19,19,19,,,,,,,,,,,,,,,,,,,,,,,,,,,,,,,,,,,,,,,,,,,,,,,,,,,,,,,,,,,,,,,,,,,,,,,,,,,,,,,,,1,1.093316099999356,285.2460953000009,None,ScrollDown,정답입니다,285.2460953000009,None,285.2460953000009,None,285.2460953000009,None,285.2460953000009,None,286.2023214000001,None,286.2023214000001,286.70207389999996,,,,,,,,,,,,,,,,225,2022-05-25_18h10.39.728,FishGame,2022.1.1,60.0315766090665,
,21,넌 운이없어,4,Green,B,3,3.466666666666667,ScrollUp,ScrollDown,Green.png,2,Negative,Congruent,0,0,0,0,,,,,,,,,,,,,,,,,0,20,20,20,,,,,,,,,,,,,,,,,,,,,,,,,,,,,,,,,,,,,,,,,,,,,,,,,,,,,,,,,,,,,,,,,,,,,,,,,,,,,,,,,2,1.1251776999997674,287.35822640000333,None,ScrollUp,정답입니다,287.35822640000333,None,287.35822640000333,None,287.35822640000333,None,287.35822640000333,None,288.3520453000019,None,288.3520453000019,288.8517720000018,,,,,,,,,,,,,,,,225,2022-05-25_18h10.39.728,FishGame,2022.1.1,60.0315766090665,
,22,넌 창조적이야,2,Green,B,6.125,4.633333333333334,ScrollUp,ScrollDown,Green.png,2,Positive,Incongruent,0,0,0,0,,,,,,,,,,,,,,,,,0,21,21,21,,,,,,,,,,,,,,,,,,,,,,,,,,,,,,,,,,,,,,,,,,,,,,,,,,,,,,,,,,,,,,,,,,,,,,,,,,,,,,,,,1.7175925920406976,1.0755091999999422,289.50879610000266,None,ScrollUp,정답입니다,289.50879610000266,None,289.50879610000266,None,289.50879610000266,None,289.50879610000266,None,290.4519173000008,None,290.4519173000008,290.9518553000016,,,,,,,,,,,,,,,,225,2022-05-25_18h10.39.728,FishGame,2022.1.1,60.0315766090665,
,23,나를 보내줘,6,Orange,A,0,0,ScrollUp,ScrollDown,Orange.png,2,NonTarget,NonTarget,0,0,0,0,,,,,,,,,,,,,,,,,0,22,22,22,,,,,,,,,,,,,,,,,,,,,,,,,,,,,,,,,,,,,,,,,,,,,,,,,,,,,,,,,,,,,,,,,,,,,,,,,,,,,,,,,1.6481481517354646,1.1931999000007636,291.6001776000012,None,ScrollUp,정답입니다,291.6001776000012,None,291.6001776000012,None,291.6001776000012,None,291.6001776000012,None,292.67037040000287,None,292.67037040000287,293.1847581000002,,,,,,,,,,,,,,,,225,2022-05-25_18h10.39.728,FishGame,2022.1.1,60.0315766090665,
,24,넌 통찰력있어,2,Orange,A,6.5,4.8,ScrollDown,ScrollUp,Orange.png,2,Positive,Congruent,0,0,0,0,,,,,,,,,,,,,,,,,0,23,23,23,,,,,,,,,,,,,,,,,,,,,,,,,,,,,,,,,,,,,,,,,,,,,,,,,,,,,,,,,,,,,,,,,,,,,,,,,,,,,,,,,1.0416666567325592,1.05207209999935,293.84456839999984,None,ScrollDown,정답입니다,293.84456839999984,None,293.84456839999984,None,293.84456839999984,None,293.84456839999984,None,294.7590741000022,None,294.7590741000022,295.2677610999999,,,,,,,,,,,,,,,,225,2022-05-25_18h10.39.728,FishGame,2022.1.1,60.0315766090665,
,25,넌 경솔해,5,Green,B,2.458333333333333,2.266666666666667,ScrollUp,ScrollDown,Green.png,2,Negative,Congruent,0,0,0,0,,,,,,,,,,,,,,,,,0,24,24,24,,,,,,,,,,,,,,,,,,,,,,,,,,,,,,,,,,,,,,,,,,,,,,,,,,,,,,,,,,,,,,,,,,,,,,,,,,,,,,,,,1.7067901194095612,1.0091425999999046,295.92376010000226,None,ScrollUp,정답입니다,295.92376010000226,None,295.92376010000226,None,295.92376010000226,None,295.92376010000226,None,296.7958122000018,None,296.7958122000018,297.30072140000266,,,,,,,,,,,,,,,,225,2022-05-25_18h10.39.728,FishGame,2022.1.1,60.0315766090665,
,26,넌 초조해,4,Orange,A,2.916666666666667,3.133333333333333,ScrollDown,ScrollUp,Orange.png,2,Negative,Incongruent,0,0,0,0,,,,,,,,,,,,,,,,,0,25,25,25,,,,,,,,,,,,,,,,,,,,,,,,,,,,,,,,,,,,,,,,,,,,,,,,,,,,,,,,,,,,,,,,,,,,,,,,,,,,,,,,,1,0.9396889999989071,297.96143270000175,None,ScrollDown,정답입니다,297.96143270000175,None,297.96143270000175,None,297.96143270000175,None,297.96143270000175,None,298.76763870000286,None,298.76763870000286,299.26712990000306,,,,,,,,,,,,,,,,225,2022-05-25_18h10.39.728,FishGame,2022.1.1,60.0315766090665,
,27,넌 무관심해,4,Green,B,2.833333333333333,2.9,ScrollUp,ScrollDown,Green.png,2,Negative,Congruent,0,0,0,0,,,,,,,,,,,,,,,,,0,26,26,26,,,,,,,,,,,,,,,,,,,,,,,,,,,,,,,,,,,,,,,,,,,,,,,,,,,,,,,,,,,,,,,,,,,,,,,,,,,,,,,,,1.8101851791143417,1.2908244999998715,299.9191935000017,None,ScrollUp,정답입니다,299.9191935000017,None,299.9191935000017,None,299.9191935000017,None,299.9191935000017,None,301.08377760000076,None,301.08377760000076,301.58350820000123,,,,,,,,,,,,,,,,225,2022-05-25_18h10.39.728,FishGame,2022.1.1,60.0315766090665,
,28,넌 감성적이야,3,Green,B,4.125,4.166666666666667,ScrollUp,ScrollDown,Green.png,2,Neutral,Neutral,0,0,0,0,,,,,,,,,,,,,,,,,0,27,27,27,,,,,,,,,,,,,,,,,,,,,,,,,,,,,,,,,,,,,,,,,,,,,,,,,,,,,,,,,,,,,,,,,,,,,,,,,,,,,,,,,1.5756172835826874,0.9647417999985919,302.2345990000031,None,ScrollUp,정답입니다,302.2345990000031,None,302.2345990000031,None,302.2345990000031,None,302.2345990000031,None,303.07249260000026,None,303.07249260000026,303.5833225000024,,,,,,,,,,,,,,,,225,2022-05-25_18h10.39.728,FishGame,2022.1.1,60.0315766090665,
,29,넌 배려심있어,1,Orange,A,6.083333333333333,5.5,ScrollDown,ScrollUp,Orange.png,2,Positive,Congruent,0,0,0,0,,,,,,,,,,,,,,,,,0,28,28,28,,,,,,,,,,,,,,,,,,,,,,,,,,,,,,,,,,,,,,,,,,,,,,,,,,,,,,,,,,,,,,,,,,,,,,,,,,,,,,,,,1.0694444576899211,0.9264732999981788,304.24660960000256,None,ScrollDown,정답입니다,304.24660960000256,None,304.24660960000256,None,304.24660960000256,None,304.24660960000256,None,305.03341660000297,None,305.03341660000297,305.53306050000174,,,,,,,,,,,,,,,,225,2022-05-25_18h10.39.728,FishGame,2022.1.1,60.0315766090665,
,30,넌 숨김없어,3,Orange,A,4.5,4.933333333333334,ScrollDown,ScrollUp,Orange.png,2,Neutral,Neutral,0,0,0,0,,,,,,,,,,,,,,,,,0,29,29,29,,,,,,,,,,,,,,,,,,,,,,,,,,,,,,,,,,,,,,,,,,,,,,,,,,,,,,,,,,,,,,,,,,,,,,,,,,,,,,,,,1.0725308855374653,0.9596341000033135,306.19587580000007,None,ScrollDown,정답입니다,306.19587580000007,None,306.19587580000007,None,306.19587580000007,None,306.19587580000007,None,307.0161154000016,None,307.0161154000016,307.51616150000336,,,,,,,,,,,,,,,,225,2022-05-25_18h10.39.728,FishGame,2022.1.1,60.0315766090665,
,31,넌 훌륭해,2,Green,B,5.916666666666667,4.033333333333333,ScrollUp,ScrollDown,Green.png,2,Positive,Incongruent,0,0,0,0,,,,,,,,,,,,,,,,,0,30,30,30,,,,,,,,,,,,,,,,,,,,,,,,,,,,,,,,,,,,,,,,,,,,,,,,,,,,,,,,,,,,,,,,,,,,,,,,,,,,,,,,,1.6234567910432816,1.103518099997018,308.17893240000194,None,ScrollUp,정답입니다,308.17893240000194,None,308.17893240000194,None,308.17893240000194,None,308.17893240000194,None,309.1445445999998,None,309.1445445999998,309.6491395000012,,,,,,,,,,,,,,,,225,2022-05-25_18h10.39.728,FishGame,2022.1.1,60.0315766090665,
,32,넌 슬기로워,2,Orange,A,6.166666666666667,4.1,ScrollDown,ScrollUp,Orange.png,2,Positive,Congruent,0,0,0,0,,,,,,,,,,,,,,,,,0,31,31,31,,,,,,,,,,,,,,,,,,,,,,,,,,,,,,,,,,,,,,,,,,,,,,,,,,,,,,,,,,,,,,,,,,,,,,,,,,,,,,,,,1.2021604826052983,0.823351900002308,310.30598100000134,None,ScrollDown,정답입니다,310.30598100000134,None,310.30598100000134,None,310.30598100000134,None,310.30598100000134,None,310.9936396000012,None,310.9936396000012,311.49889540000004,,,,,,,,,,,,,,,,225,2022-05-25_18h10.39.728,FishGame,2022.1.1,60.0315766090665,
,33,넌 냉혹해,5,Orange,A,2.583333333333333,2.1,ScrollDown,ScrollUp,Orange.png,2,Negative,Incongruent,0,0,0,0,,,,,,,,,,,,,,,,,0,32,32,32,,,,,,,,,,,,,,,,,,,,,,,,,,,,,,,,,,,,,,,,,,,,,,,,,,,,,,,,,,,,,,,,,,,,,,,,,,,,,,,,,1.0709876716136932,1.0313907000017934,312.16162299999996,None,ScrollDown,정답입니다,312.16162299999996,None,312.16162299999996,None,312.16162299999996,None,312.16162299999996,None,313.055068200003,None,313.055068200003,313.5653796000006,,,,,,,,,,,,,,,,225,2022-05-25_18h10.39.728,FishGame,2022.1.1,60.0315766090665,
,34,나를 데려가줘,6,Green,B,0,0,ScrollDown,ScrollUp,Green.png,2,NonTarget,NonTarget,0,0,0,0,,,,,,,,,,,,,,,,,0,33,33,33,,,,,,,,,,,,,,,,,,,,,,,,,,,,,,,,,,,,,,,,,,,,,,,,,,,,,,,,,,,,,,,,,,,,,,,,,,,,,,,,,1.212962955236435,1.0768155000005208,314.2154131000025,None,ScrollDown,정답입니다,314.2154131000025,None,314.2154131000025,None,314.2154131000025,None,314.2154131000025,None,315.16832890000296,None,315.16832890000296,315.68178100000296,,,,,,,,,,,,,,,,225,2022-05-25_18h10.39.728,FishGame,2022.1.1,60.0315766090665,
,35,넌 편파적이야,5,Green,B,2.125,2,ScrollUp,ScrollDown,Green.png,2,Negative,Congruent,0,0,0,0,,,,,,,,,,,,,,,,,0,34,34,34,,,,,,,,,,,,,,,,,,,,,,,,,,,,,,,,,,,,,,,,,,,,,,,,,,,,,,,,,,,,,,,,,,,,,,,,,,,,,,,,,1.8487654278675716,1.0081150000005437,316.33376500000304,None,ScrollUp,정답입니다,316.33376500000304,None,316.33376500000304,None,316.33376500000304,None,316.33376500000304,None,317.2153008000023,None,317.2153008000023,317.7148311000019,,,,,,,,,,,,,,,,225,2022-05-25_18h10.39.728,FishGame,2022.1.1,60.0315766090665,
,36,넌 슬퍼,4,Orange,A,2.583333333333333,3.066666666666667,ScrollDown,ScrollUp,Orange.png,2,Negative,Incongruent,0,0,0,0,,,,,,,,,,,,,,,,,0,35,35,35,,,,,,,,,,,,,,,,,,,,,,,,,,,,,,,,,,,,,,,,,,,,,,,,,,,,,,,,,,,,,,,,,,,,,,,,,,,,,,,,,1.1141975373029709,0.8239867000011145,318.3730531000001,None,ScrollDown,정답입니다,318.3730531000001,None,318.3730531000001,None,318.3730531000001,None,318.3730531000001,None,319.06507500000225,None,319.06507500000225,319.5646065000001,,,,,,,,,,,,,,,,225,2022-05-25_18h10.39.728,FishGame,2022.1.1,60.0315766090665,
,37,나를 데려가줘,6,Green,B,0,0,ScrollDown,ScrollUp,Green.png,2,NonTarget,NonTarget,0,0,0,0,,,,,,,,,,,,,,,,,0,36,36,36,,,,,,,,,,,,,,,,,,,,,,,,,,,,,,,,,,,,,,,,,,,,,,,,,,,,,,,,,,,,,,,,,,,,,,,,,,,,,,,,,1,1.0930853999998362,320.2160199000027,None,ScrollDown,정답입니다,320.2160199000027,None,320.2160199000027,None,320.2160199000027,None,320.2160199000027,None,321.1808853000002,None,321.1808853000002,321.68093320000116,,,,,,,,,,,,,,,,225,2022-05-25_18h10.39.728,FishGame,2022.1.1,60.0315766090665,
,38,넌 친절해,1,Green,B,6.041666666666667,5.533333333333333,ScrollUp,ScrollDown,Green.png,2,Positive,Incongruent,0,0,0,0,,,,,,,,,,,,,,,,,0,37,37,37,,,,,,,,,,,,,,,,,,,,,,,,,,,,,,,,,,,,,,,,,,,,,,,,,,,,,,,,,,,,,,,,,,,,,,,,,,,,,,,,,1.6574074104428291,1.135125999997399,322.3395008000007,None,ScrollUp,정답입니다,322.3395008000007,None,322.3395008000007,None,322.3395008000007,None,322.3395008000007,None,323.3393391000027,None,323.3393391000027,323.84730390000186,,,,,,,,,,,,,,,,225,2022-05-25_18h10.39.728,FishGame,2022.1.1,60.0315766090665,
,1,넌 엉성해,4,Orange,A,3,3.3,ScrollDown,ScrollUp,Orange.png,3,Negative,Incongruent,0,0,0,0,,,,,,,,,,,,,,,,,,,,,0,0,0,0,,,,,,,,,,,,,,,,,,,,,,,,,,,,,,,,,,,,355.42688270000144,356.9265054000025,356.95985700000165,357.9096692000021,357.95983120000164,358.90968040000007,358.90968040000007,None,,,,,,,,,,,,,,,,,,,,,,,,,,,,,,,,,,1.2237654278675716,1.1406119000021135,360.1077428000026,None,ScrollDown,정답입니다,360.1077428000026,None,360.1077428000026,None,360.1077428000026,None,360.1077428000026,None,361.06648490000225,None,361.06648490000225,361.575836,324.3473167000011,None,324.3473167000011,None,0.10462963,-0.09537037,1,0,0,0.016185589996894123,None,354.3602243000023,None,,,225,2022-05-25_18h10.39.728,FishGame,2022.1.1,60.0315766090665,
,2,나를 보내줘,6,Orange,A,0,0,ScrollUp,ScrollDown,Orange.png,3,NonTarget,NonTarget,0,0,0,0,,,,,,,,,,,,,,,,,,,,,0,1,1,1,,,,,,,,,,,,,,,,,,,,,,,,,,,,,,,,,,,,,,,,,,,,,,,,,,,,,,,,,,,,,,,,,,,,,,,,,,,,,1.7901234477758408,1.2578247000019473,362.2302202999999,None,ScrollUp,정답입니다,362.2302202999999,None,362.2302202999999,None,362.2302202999999,None,362.2302202999999,None,363.3529417999998,None,363.3529417999998,363.85889170000155,,,,,,,,,,,,,,,,225,2022-05-25_18h10.39.728,FishGame,2022.1.1,60.0315766090665,
,3,넌 활발해,1,Green,B,5.666666666666667,5.6,ScrollUp,ScrollDown,Green.png,3,Positive,Incongruent,0,0,0,0,,,,,,,,,,,,,,,,,,,,,0,2,2,2,,,,,,,,,,,,,,,,,,,,,,,,,,,,,,,,,,,,,,,,,,,,,,,,,,,,,,,,,,,,,,,,,,,,,,,,,,,,,1.594135800997416,1.1667287000018405,364.51153220000197,None,ScrollUp,정답입니다,364.51153220000197,None,364.51153220000197,None,364.51153220000197,None,364.51153220000197,None,365.5486598000025,None,365.5486598000025,366.05871470000056,,,,,,,,,,,,,,,,225,2022-05-25_18h10.39.728,FishGame,2022.1.1,60.0315766090665,
,4,넌 논리적이야,2,Orange,A,5.666666666666666,4.633333333333334,ScrollDown,ScrollUp,Orange.png,3,Positive,Congruent,0,0,0,0,,,,,,,,,,,,,,,,,,,,,0,3,3,3,,,,,,,,,,,,,,,,,,,,,,,,,,,,,,,,,,,,,,,,,,,,,,,,,,,,,,,,,,,,,,,,,,,,,,,,,,,,,1.32253085821867,0.9315515000016603,366.7158621000017,None,ScrollDown,정답입니다,366.7158621000017,None,366.7158621000017,None,366.7158621000017,None,366.7158621000017,None,367.5147029,None,367.5147029,368.02501600000323,,,,,,,,,,,,,,,,225,2022-05-25_18h10.39.728,FishGame,2022.1.1,60.0315766090665,
,5,넌 과묵해,3,Orange,A,3.875,4.4,ScrollDown,ScrollUp,Orange.png,3,Neutral,Neutral,0,0,0,0,,,,,,,,,,,,,,,,,,,,,0,4,4,4,,,,,,,,,,,,,,,,,,,,,,,,,,,,,,,,,,,,,,,,,,,,,,,,,,,,,,,,,,,,,,,,,,,,,,,,,,,,,1.1311728407939274,1.3831537000005483,368.6840357000001,None,ScrollDown,정답입니다,368.6840357000001,None,368.6840357000001,None,368.6840357000001,None,368.6840357000001,None,369.93189330000314,None,369.93189330000314,370.4414484000008,,,,,,,,,,,,,,,,225,2022-05-25_18h10.39.728,FishGame,2022.1.1,60.0315766090665,
,6,나를 데려가줘,6,Green,B,0,0,ScrollDown,ScrollUp,Green.png,3,NonTarget,NonTarget,0,0,0,0,,,,,,,,,,,,,,,,,,,,,0,5,5,5,,,,,,,,,,,,,,,,,,,,,,,,,,,,,,,,,,,,,,,,,,,,,,,,,,,,,,,,,,,,,,,,,,,,,,,,,,,,,1.1064814925193787,1.3140211999998428,371.085348800003,None,ScrollDown,정답입니다,371.085348800003,None,371.085348800003,None,371.085348800003,None,371.085348800003,None,372.27998410000146,None,372.27998410000146,372.7911023000015,,,,,,,,,,,,,,,,225,2022-05-25_18h10.39.728,FishGame,2022.1.1,60.0315766090665,
,7,넌 미숙해,4,Green,B,3,3,ScrollUp,ScrollDown,Green.png,3,Negative,Congruent,0,0,0,0,,,,,,,,,,,,,,,,,,,,,0,6,6,6,,,,,,,,,,,,,,,,,,,,,,,,,,,,,,,,,,,,,,,,,,,,,,,,,,,,,,,,,,,,,,,,,,,,,,,,,,,,,1.6851851865649223,0.9817829999992682,373.4370345000025,None,ScrollUp,정답입니다,373.4370345000025,None,373.4370345000025,None,373.4370345000025,None,373.4370345000025,None,374.29757950000203,None,374.29757950000203,374.807501700001,,,,,,,,,,,,,,,,225,2022-05-25_18h10.39.728,FishGame,2022.1.1,60.0315766090665,
,8,나를 보내줘,6,Orange,A,0,0,ScrollUp,ScrollDown,Orange.png,3,NonTarget,NonTarget,0,0,0,0,,,,,,,,,,,,,,,,,,,,,0,7,7,7,,,,,,,,,,,,,,,,,,,,,,,,,,,,,,,,,,,,,,,,,,,,,,,,,,,,,,,,,,,,,,,,,,,,,,,,,,,,,1.817901223897934,0.9827695999993011,375.46037849999993,None,ScrollUp,정답입니다,375.46037849999993,None,375.46037849999993,None,375.46037849999993,None,375.46037849999993,None,376.3139525000006,None,376.3139525000006,376.8239510000021,,,,,,,,,,,,,,,,225,2022-05-25_18h10.39.728,FishGame,2022.1.1,60.0315766090665,
,9,넌 자신만만해,3,Green,B,4.833333333333334,4.333333333333333,ScrollUp,ScrollDown,Green.png,3,Neutral,Neutral,0,0,0,0,,,,,,,,,,,,,,,,,,,,,0,8,8,8,,,,,,,,,,,,,,,,,,,,,,,,,,,,,,,,,,,,,,,,,,,,,,,,,,,,,,,,,,,,,,,,,,,,,,,,,,,,,1.5833333345750966,1.3775893000020005,377.4691715000008,None,ScrollUp,정답입니다,377.4691715000008,None,377.4691715000008,None,377.4691715000008,None,377.4691715000008,None,378.7235922,None,378.7235922,379.2236929000028,,,,,,,,,,,,,,,,225,2022-05-25_18h10.39.728,FishGame,2022.1.1,60.0315766090665,
,10,넌 탐욕스러워,5,Orange,A,2.25,2.1,ScrollDown,ScrollUp,Orange.png,3,Negative,Incongruent,0,0,0,0,,,,,,,,,,,,,,,,,,,,,0,9,9,9,,,,,,,,,,,,,,,,,,,,,,,,,,,,,,,,,,,,,,,,,,,,,,,,,,,,,,,,,,,,,,,,,,,,,,,,,,,,,1.0293209950129192,1.0409769999969285,379.89311010000165,None,ScrollDown,정답입니다,379.89311010000165,None,379.89311010000165,None,379.89311010000165,None,379.89311010000165,None,380.7899531000003,None,380.7899531000003,381.28998310000316,,,,,,,,,,,,,,,,225,2022-05-25_18h10.39.728,FishGame,2022.1.1,60.0315766090665,
,11,넌 인기있어,2,Orange,A,5.458333333333333,4.5,ScrollDown,ScrollUp,Orange.png,3,Positive,Congruent,0,0,0,0,,,,,,,,,,,,,,,,,,,,,0,10,10,10,,,,,,,,,,,,,,,,,,,,,,,,,,,,,,,,,,,,,,,,,,,,,,,,,,,,,,,,,,,,,,,,,,,,,,,,,,,,,1.2052469104528427,0.9857628999998269,381.9381405000022,None,ScrollDown,정답입니다,381.9381405000022,None,381.9381405000022,None,381.9381405000022,None,381.9381405000022,None,382.7992368000014,None,382.7992368000014,383.3064929000029,,,,,,,,,,,,,,,,225,2022-05-25_18h10.39.728,FishGame,2022.1.1,60.0315766090665,
,12,나를 데려가줘,6,Green,B,0,0,ScrollDown,ScrollUp,Green.png,3,NonTarget,NonTarget,0,0,0,0,,,,,,,,,,,,,,,,,,,,,0,11,11,11,,,,,,,,,,,,,,,,,,,,,,,,,,,,,,,,,,,,,,,,,,,,,,,,,,,,,,,,,,,,,,,,,,,,,,,,,,,,,1.2685185074806213,1.0817043999995803,383.95335140000316,None,ScrollDown,정답입니다,383.95335140000316,None,383.95335140000316,None,383.95335140000316,None,383.95335140000316,None,384.91237300000284,None,384.91237300000284,385.4228757000019,,,,,,,,,,,,,,,,225,2022-05-25_18h10.39.728,FishGame,2022.1.1,60.0315766090665,
,13,넌 뛰어나,2,Green,B,6.166666666666667,4,ScrollUp,ScrollDown,Green.png,3,Positive,Incongruent,0,0,0,0,,,,,,,,,,,,,,,,,,,,,0,12,12,12,,,,,,,,,,,,,,,,,,,,,,,,,,,,,,,,,,,,,,,,,,,,,,,,,,,,,,,,,,,,,,,,,,,,,,,,,,,,,1.8317901243766148,1.1001061999995727,386.0753215000004,None,ScrollUp,정답입니다,386.0753215000004,None,386.0753215000004,None,386.0753215000004,None,386.0753215000004,None,387.0452108000027,None,387.0452108000027,387.5558932000022,,,,,,,,,,,,,,,,225,2022-05-25_18h10.39.728,FishGame,2022.1.1,60.0315766090665,
,14,넌 낙관적이야,1,Orange,A,5.75,5.8,ScrollDown,ScrollUp,Orange.png,3,Positive,Congruent,0,0,0,0,,,,,,,,,,,,,,,,,,,,,0,13,13,13,,,,,,,,,,,,,,,,,,,,,,,,,,,,,,,,,,,,,,,,,,,,,,,,,,,,,,,,,,,,,,,,,,,,,,,,,,,,,1.1172839403152466,0.9412665999989258,388.21260000000257,None,ScrollDown,정답입니다,388.21260000000257,None,388.21260000000257,None,388.21260000000257,None,388.21260000000257,None,389.0222818000002,None,389.0222818000002,389.52219870000044,,,,,,,,,,,,,,,,225,2022-05-25_18h10.39.728,FishGame,2022.1.1,60.0315766090665,
,15,넌 산만해,4,Green,B,2.695652173913043,3.033333333333333,ScrollUp,ScrollDown,Green.png,3,Negative,Congruent,0,0,0,0,,,,,,,,,,,,,,,,,,,,,0,14,14,14,,,,,,,,,,,,,,,,,,,,,,,,,,,,,,,,,,,,,,,,,,,,,,,,,,,,,,,,,,,,,,,,,,,,,,,,,,,,,1.7345678955316544,0.8929764999993495,390.1775761000026,None,ScrollUp,정답입니다,390.1775761000026,None,390.1775761000026,None,390.1775761000026,None,390.1775761000026,None,390.93947070000286,None,390.93947070000286,391.43875050000133,,,,,,,,,,,,,,,,225,2022-05-25_18h10.39.728,FishGame,2022.1.1,60.0315766090665,
,16,나를 보내줘,6,Orange,A,0,0,ScrollUp,ScrollDown,Orange.png,3,NonTarget,NonTarget,0,0,0,0,,,,,,,,,,,,,,,,,,,,,0,15,15,15,,,,,,,,,,,,,,,,,,,,,,,,,,,,,,,,,,,,,,,,,,,,,,,,,,,,,,,,,,,,,,,,,,,,,,,,,,,,,1.5987654303510985,1.0226749000030395,392.0935426000033,None,ScrollUp,정답입니다,392.0935426000033,None,392.0935426000033,None,392.0935426000033,None,392.0935426000033,None,392.9818030000024,None,392.9818030000024,393.488483000001,,,,,,,,,,,,,,,,225,2022-05-25_18h10.39.728,FishGame,2022.1.1,60.0315766090665,
,17,넌 교활해,5,Green,B,2.333333333333333,2.133333333333333,ScrollUp,ScrollDown,Green.png,3,Negative,Congruent,0,0,0,0,,,,,,,,,,,,,,,,,,,,,0,16,16,16,,,,,,,,,,,,,,,,,,,,,,,,,,,,,,,,,,,,,,,,,,,,,,,,,,,,,,,,,,,,,,,,,,,,,,,,,,,,,1.6157407462596893,0.9717266999978165,394.13854710000305,None,ScrollUp,정답입니다,394.13854710000305,None,394.13854710000305,None,394.13854710000305,None,394.13854710000305,None,394.9882374000008,None,394.9882374000008,395.48819690000164,,,,,,,,,,,,,,,,225,2022-05-25_18h10.39.728,FishGame,2022.1.1,60.0315766090665,
,18,나를 보내줘,6,Orange,A,0,0,ScrollUp,ScrollDown,Orange.png,3,NonTarget,NonTarget,0,0,0,0,,,,,,,,,,,,,,,,,,,,,0,17,17,17,,,,,,,,,,,,,,,,,,,,,,,,,,,,,,,,,,,,,,,,,,,,,,,,,,,,,,,,,,,,,,,,,,,,,,,,,,,,,1.67746914178133,1.0264717999998538,396.1403473999999,None,ScrollUp,정답입니다,396.1403473999999,None,396.1403473999999,None,396.1403473999999,None,396.1403473999999,None,397.0379210000028,None,397.0379210000028,397.53799130000334,,,,,,,,,,,,,,,,225,2022-05-25_18h10.39.728,FishGame,2022.1.1,60.0315766090665,
,19,넌 불친절해,5,Green,B,2.208333333333333,2.033333333333333,ScrollUp,ScrollDown,Green.png,3,Negative,Congruent,0,0,0,0,,,,,,,,,,,,,,,,,,,,,0,18,18,18,,,,,,,,,,,,,,,,,,,,,,,,,,,,,,,,,,,,,,,,,,,,,,,,,,,,,,,,,,,,,,,,,,,,,,,,,,,,,1.723765422900518,1.057279099997686,398.20353760000216,None,ScrollUp,정답입니다,398.20353760000216,None,398.20353760000216,None,398.20353760000216,None,398.20353760000216,None,399.1209946000017,None,399.1209946000017,399.6210329000023,,,,,,,,,,,,,,,,225,2022-05-25_18h10.39.728,FishGame,2022.1.1,60.0315766090665,
,20,넌 지적이야,2,Green,B,5.75,4.366666666666666,ScrollUp,ScrollDown,Green.png,3,Positive,Incongruent,0,0,0,0,,,,,,,,,,,,,,,,,,,,,0,19,19,19,,,,,,,,,,,,,,,,,,,,,,,,,,,,,,,,,,,,,,,,,,,,,,,,,,,,,,,,,,,,,,,,,,,,,,,,,,,,,1.5262345684071383,1.0301298000013048,400.26600250000047,None,NoResponse,무응답입니다,400.26600250000047,None,400.26600250000047,None,400.26600250000047,None,400.26600250000047,None,401.1790000000001,None,401.1790000000001,401.68746250000186,,,,,,,,,,,,,,,,225,2022-05-25_18h10.39.728,FishGame,2022.1.1,60.0315766090665,
,21,넌 우유부단해,4,Orange,A,2.666666666666667,3.166666666666667,ScrollDown,ScrollUp,Orange.png,3,Negative,Incongruent,0,0,0,0,,,,,,,,,,,,,,,,,,,,,0,20,20,20,,,,,,,,,,,,,,,,,,,,,,,,,,,,,,,,,,,,,,,,,,,,,,,,,,,,,,,,,,,,,,,,,,,,,,,,,,,,,1.0848765472571056,1.0453718999997363,402.3543271000017,None,ScrollDown,정답입니다,402.3543271000017,None,402.3543271000017,None,402.3543271000017,None,402.3543271000017,None,403.25959130000047,None,403.25959130000047,403.77041960000133,,,,,,,,,,,,,,,,225,2022-05-25_18h10.39.728,FishGame,2022.1.1,60.0315766090665,
,22,나를 데려가줘,6,Green,B,0,0,ScrollDown,ScrollUp,Green.png,3,NonTarget,NonTarget,0,0,0,0,,,,,,,,,,,,,,,,,,,,,0,21,21,21,,,,,,,,,,,,,,,,,,,,,,,,,,,,,,,,,,,,,,,,,,,,,,,,,,,,,,,,,,,,,,,,,,,,,,,,,,,,,1.0231481393178303,1.4678146000005654,404.41770760000145,None,ScrollDown,정답입니다,404.41770760000145,None,404.41770760000145,None,404.41770760000145,None,404.41770760000145,None,405.7607951000027,None,405.7607951000027,406.2701346000031,,,,,,,,,,,,,,,,225,2022-05-25_18h10.39.728,FishGame,2022.1.1,60.0315766090665,
,23,넌 성실해,1,Green,B,6.041666666666666,5.7,ScrollUp,ScrollDown,Green.png,3,Positive,Incongruent,0,0,0,0,,,,,,,,,,,,,,,,,,,,,0,22,22,22,,,,,,,,,,,,,,,,,,,,,,,,,,,,,,,,,,,,,,,,,,,,,,,,,,,,,,,,,,,,,,,,,,,,,,,,,,,,,1.5432098750025034,0.9880008999971324,406.92018330000064,None,NoResponse,무응답입니다,406.92018330000064,None,406.92018330000064,None,406.92018330000064,None,406.92018330000064,None,407.7879169000007,None,407.7879169000007,408.3033620000024,,,,,,,,,,,,,,,,225,2022-05-25_18h10.39.728,FishGame,2022.1.1,60.0315766090665,
,24,넌 현실주의적이야,3,Orange,A,4.625,4.4,ScrollDown,ScrollUp,Orange.png,3,Neutral,Neutral,0,0,0,0,,,,,,,,,,,,,,,,,,,,,0,23,23,23,,,,,,,,,,,,,,,,,,,,,,,,,,,,,,,,,,,,,,,,,,,,,,,,,,,,,,,,,,,,,,,,,,,,,,,,,,,,,1.1666666616996129,0.935071899999457,408.9471767000032,None,ScrollDown,정답입니다,408.9471767000032,None,408.9471767000032,None,408.9471767000032,None,408.9471767000032,None,409.7636893000017,None,409.7636893000017,410.2696644000025,,,,,,,,,,,,,,,,225,2022-05-25_18h10.39.728,FishGame,2022.1.1,60.0315766090665,
,25,넌 진실돼,1,Orange,A,6.625,5.566666666666666,ScrollDown,ScrollUp,Orange.png,3,Positive,Congruent,0,0,0,0,,,,,,,,,,,,,,,,,,,,,0,24,24,24,,,,,,,,,,,,,,,,,,,,,,,,,,,,,,,,,,,,,,,,,,,,,,,,,,,,,,,,,,,,,,,,,,,,,,,,,,,,,1.0524691541989644,1.649487799997587,410.9487524000033,None,ScrollDown,정답입니다,410.9487524000033,None,410.9487524000033,None,410.9487524000033,None,410.9487524000033,None,412.44252380000034,None,412.44252380000034,412.9526986000019,,,,,,,,,,,,,,,,225,2022-05-25_18h10.39.728,FishGame,2022.1.1,60.0315766090665,
,26,넌 천진난만해,3,Green,B,4.958333333333334,4.833333333333333,ScrollUp,ScrollDown,Green.png,3,Neutral,Neutral,0,0,0,0,,,,,,,,,,,,,,,,,,,,,0,25,25,25,,,,,,,,,,,,,,,,,,,,,,,,,,,,,,,,,,,,,,,,,,,,,,,,,,,,,,,,,,,,,,,,,,,,,,,,,,,,,1.873456800977389,1.0995158000005176,413.6093273000006,None,ScrollUp,정답입니다,413.6093273000006,None,413.6093273000006,None,413.6093273000006,None,413.6093273000006,None,414.5757061000004,None,414.5757061000004,415.08572800000184,,,,,,,,,,,,,,,,225,2022-05-25_18h10.39.728,FishGame,2022.1.1,60.0315766090665,
,27,넌 교양없어,5,Orange,A,2.416666666666667,2.2,ScrollDown,ScrollUp,Orange.png,3,Negative,Incongruent,0,0,0,0,,,,,,,,,,,,,,,,,,,,,0,26,26,26,,,,,,,,,,,,,,,,,,,,,,,,,,,,,,,,,,,,,,,,,,,,,,,,,,,,,,,,,,,,,,,,,,,,,,,,,,,,,1,0.924195100000361,415.7413858,None,ScrollDown,정답입니다,415.7413858,None,415.7413858,None,415.7413858,None,415.7413858,None,416.5358096000018,None,416.5358096000018,417.0355933000028,,,,,,,,,,,,,,,,225,2022-05-25_18h10.39.728,FishGame,2022.1.1,60.0315766090665,
,28,나를 보내줘,6,Orange,A,0,0,ScrollUp,ScrollDown,Orange.png,3,NonTarget,NonTarget,0,0,0,0,,,,,,,,,,,,,,,,,,,,,0,27,27,27,,,,,,,,,,,,,,,,,,,,,,,,,,,,,,,,,,,,,,,,,,,,,,,,,,,,,,,,,,,,,,,,,,,,,,,,,,,,,1.6558641965190568,1.3173163999999815,417.6847978000005,None,ScrollUp,정답입니다,417.6847978000005,None,417.6847978000005,None,417.6847978000005,None,417.6847978000005,None,418.87570720000076,None,418.87570720000076,419.38516450000316,,,,,,,,,,,,,,,,225,2022-05-25_18h10.39.728,FishGame,2022.1.1,60.0315766090665,
,29,넌 엉뚱스러워,3,Orange,A,4.166666666666667,4.133333333333334,ScrollDown,ScrollUp,Orange.png,3,Neutral,Neutral,0,0,0,0,,,,,,,,,,,,,,,,,,,,,0,28,28,28,,,,,,,,,,,,,,,,,,,,,,,,,,,,,,,,,,,,,,,,,,,,,,,,,,,,,,,,,,,,,,,,,,,,,,,,,,,,,1.1388888855775197,1.1837697999981174,420.0460731000021,None,ScrollDown,정답입니다,420.0460731000021,None,420.0460731000021,None,420.0460731000021,None,420.0460731000021,None,421.09185380000054,None,421.09185380000054,421.6015417000017,,,,,,,,,,,,,,,,225,2022-05-25_18h10.39.728,FishGame,2022.1.1,60.0315766090665,
,30,넌 무지해,4,Green,B,2.541666666666667,3.066666666666667,ScrollUp,ScrollDown,Green.png,3,Negative,Congruent,0,0,0,0,,,,,,,,,,,,,,,,,,,,,0,29,29,29,,,,,,,,,,,,,,,,,,,,,,,,,,,,,,,,,,,,,,,,,,,,,,,,,,,,,,,,,,,,,,,,,,,,,,,,,,,,,1.8518518557151158,1.2834664000001794,422.2455790000022,None,ScrollUp,정답입니다,422.2455790000022,None,422.2455790000022,None,422.2455790000022,None,422.2455790000022,None,423.4075776999998,None,423.4075776999998,423.9180049000024,,,,,,,,,,,,,,,,225,2022-05-25_18h10.39.728,FishGame,2022.1.1,60.0315766090665,
,31,넌 음울해,5,Green,B,2.25,2.233333333333333,ScrollUp,ScrollDown,Green.png,3,Negative,Congruent,0,0,0,0,,,,,,,,,,,,,,,,,,,,,0,30,30,30,,,,,,,,,,,,,,,,,,,,,,,,,,,,,,,,,,,,,,,,,,,,,,,,,,,,,,,,,,,,,,,,,,,,,,,,,,,,,1.743827154239019,0.9368314999992435,424.57554600000003,None,ScrollUp,정답입니다,424.57554600000003,None,424.57554600000003,None,424.57554600000003,None,424.57554600000003,None,425.3776263,None,425.3776263,425.8843044000023,,,,,,,,,,,,,,,,225,2022-05-25_18h10.39.728,FishGame,2022.1.1,60.0315766090665,
,32,넌 냉소적이야,5,Orange,A,2.916666666666667,2.4,ScrollDown,ScrollUp,Orange.png,3,Negative,Incongruent,0,0,0,0,,,,,,,,,,,,,,,,,,,,,0,31,31,31,,,,,,,,,,,,,,,,,,,,,,,,,,,,,,,,,,,,,,,,,,,,,,,,,,,,,,,,,,,,,,,,,,,,,,,,,,,,,1.1790123482545216,1.1708641000004718,426.5703813,None,ScrollDown,정답입니다,426.5703813,None,426.5703813,None,426.5703813,None,426.5703813,None,427.58408390000113,None,427.58408390000113,428.0841176000031,,,,,,,,,,,,,,,,225,2022-05-25_18h10.39.728,FishGame,2022.1.1,60.0315766090665,
,33,나를 데려가줘,6,Green,B,0,0,ScrollDown,ScrollUp,Green.png,3,NonTarget,NonTarget,0,0,0,0,,,,,,,,,,,,,,,,,,,,,0,32,32,32,,,,,,,,,,,,,,,,,,,,,,,,,,,,,,,,,,,,,,,,,,,,,,,,,,,,,,,,,,,,,,,,,,,,,,,,,,,,,1.0324074228604634,1.1282475000007253,428.7333572000025,None,ScrollDown,정답입니다,428.7333572000025,None,428.7333572000025,None,428.7333572000025,None,428.7333572000025,None,429.73938780000026,None,429.73938780000026,430.2504328000032,,,,,,,,,,,,,,,,225,2022-05-25_18h10.39.728,FishGame,2022.1.1,60.0315766090665,
,34,넌 쾌활해,1,Orange,A,5.541666666666666,5.733333333333333,ScrollDown,ScrollUp,Orange.png,3,Positive,Congruent,0,0,0,0,,,,,,,,,,,,,,,,,,,,,0,33,33,33,,,,,,,,,,,,,,,,,,,,,,,,,,,,,,,,,,,,,,,,,,,,,,,,,,,,,,,,,,,,,,,,,,,,,,,,,,,,,1.0493827263514202,1.2713819000018702,430.91088480000326,None,ScrollDown,정답입니다,430.91088480000326,None,430.91088480000326,None,430.91088480000326,None,430.91088480000326,None,432.0501527000015,None,432.0501527000015,432.55020250000234,,,,,,,,,,,,,,,,225,2022-05-25_18h10.39.728,FishGame,2022.1.1,60.0315766090665,
,35,나를 보내줘,6,Orange,A,0,0,ScrollUp,ScrollDown,Orange.png,3,NonTarget,NonTarget,0,0,0,0,,,,,,,,,,,,,,,,,,,,,0,34,34,34,,,,,,,,,,,,,,,,,,,,,,,,,,,,,,,,,,,,,,,,,,,,,,,,,,,,,,,,,,,,,,,,,,,,,,,,,,,,,1.7083333333333335,1.0789144999980635,433.19754920000196,None,ScrollUp,정답입니다,433.19754920000196,None,433.19754920000196,None,433.19754920000196,None,433.19754920000196,None,434.15055610000127,None,434.15055610000127,434.6498720000018,,,,,,,,,,,,,,,,225,2022-05-25_18h10.39.728,FishGame,2022.1.1,60.0315766090665,
,36,넌 명랑해,1,Green,B,5.739130434782609,5.666666666666667,ScrollUp,ScrollDown,Green.png,3,Positive,Incongruent,0,0,0,0,,,,,,,,,,,,,,,,,,,,,0,35,35,35,,,,,,,,,,,,,,,,,,,,,,,,,,,,,,,,,,,,,,,,,,,,,,,,,,,,,,,,,,,,,,,,,,,,,,,,,,,,,1.6512345671653748,1.0275212999986252,435.3016602000025,None,ScrollUp,정답입니다,435.3016602000025,None,435.3016602000025,None,435.3016602000025,None,435.3016602000025,None,436.2000541000016,None,436.2000541000016,436.6995956000028,,,,,,,,,,,,,,,,225,2022-05-25_18h10.39.728,FishGame,2022.1.1,60.0315766090665,
,37,넌 멍해,4,Orange,A,2.833333333333333,3.4,ScrollDown,ScrollUp,Orange.png,3,Negative,Incongruent,0,0,0,0,,,,,,,,,,,,,,,,,,,,,0,36,36,36,,,,,,,,,,,,,,,,,,,,,,,,,,,,,,,,,,,,,,,,,,,,,,,,,,,,,,,,,,,,,,,,,,,,,,,,,,,,,1.2623456766208014,1.0845612000011897,437.37070620000304,None,ScrollDown,정답입니다,437.37070620000304,None,437.37070620000304,None,437.37070620000304,None,437.37070620000304,None,438.30662120000125,None,438.30662120000125,438.8160271000015,,,,,,,,,,,,,,,,225,2022-05-25_18h10.39.728,FishGame,2022.1.1,60.0315766090665,
,38,나를 데려가줘,6,Green,B,0,0,ScrollDown,ScrollUp,Green.png,3,NonTarget,NonTarget,0,0,0,0,,,,,,,,,,,,,,,,,,,,,0,37,37,37,,,,,,,,,,,,,,,,,,,,,,,,,,,,,,,,,,,,,,,,,,,,,,,,,,,,,,,,,,,,,,,,,,,,,,,,,,,,,1.1589506169160206,1.0343982999984291,439.46122390000164,None,ScrollDown,정답입니다,439.46122390000164,None,439.46122390000164,None,439.46122390000164,None,439.46122390000164,None,440.37284210000144,None,440.37284210000144,440.8824407000029,,,,,,,,,,,,,,,,225,2022-05-25_18h10.39.728,FishGame,2022.1.1,60.0315766090665,
,39,넌 현명해,2,Orange,A,6.541666666666666,4.533333333333333,ScrollDown,ScrollUp,Orange.png,3,Positive,Congruent,0,0,0,0,,,,,,,,,,,,,,,,,,,,,0,38,38,38,,,,,,,,,,,,,,,,,,,,,,,,,,,,,,,,,,,,,,,,,,,,,,,,,,,,,,,,,,,,,,,,,,,,,,,,,,,,,1.1574074029922485,1.192193099999713,441.53736670000217,None,ScrollDown,정답입니다,441.53736670000217,None,441.53736670000217,None,441.53736670000217,None,441.53736670000217,None,442.5988804000008,None,442.5988804000008,443.09884840000086,,,,,,,,,,,,,,,,225,2022-05-25_18h10.39.728,FishGame,2022.1.1,60.0315766090665,
,40,넌 수줍어,3,Green,B,3.541666666666666,4.366666666666666,ScrollUp,ScrollDown,Green.png,3,Neutral,Neutral,0,0,0,0,,,,,,,,,,,,,,,,,,,,,0,39,39,39,,,,,,,,,,,,,,,,,,,,,,,,,,,,,,,,,,,,,,,,,,,,,,,,,,,,,,,,,,,,,,,,,,,,,,,,,,,,,1.6373456791043282,1.139132400003291,443.7474572000028,None,ScrollUp,정답입니다,443.7474572000028,None,443.7474572000028,None,443.7474572000028,None,443.7474572000028,None,444.76550540000244,None,444.76550540000244,445.2652280000002,,,,,,,,,,,,,,,,225,2022-05-25_18h10.39.728,FishGame,2022.1.1,60.0315766090665,
,41,나를 데려가줘,6,Green,B,0,0,ScrollDown,ScrollUp,Green.png,3,NonTarget,NonTarget,0,0,0,0,,,,,,,,,,,,,,,,,,,,,0,40,40,40,,,,,,,,,,,,,,,,,,,,,,,,,,,,,,,,,,,,,,,,,,,,,,,,,,,,,,,,,,,,,,,,,,,,,,,,,,,,,1.2361111144224803,1.0591752999971504,445.91239580000183,None,ScrollDown,정답입니다,445.91239580000183,None,445.91239580000183,None,445.91239580000183,None,445.91239580000183,None,446.85066650000226,None,446.85066650000226,447.3649155000021,,,,,,,,,,,,,,,,225,2022-05-25_18h10.39.728,FishGame,2022.1.1,60.0315766090665,
,42,넌 성숙해,2,Green,B,5.833333333333333,4.533333333333333,ScrollUp,ScrollDown,Green.png,3,Positive,Incongruent,0,0,0,0,,,,,,,,,,,,,,,,,,,,,0,41,41,41,,,,,,,,,,,,,,,,,,,,,,,,,,,,,,,,,,,,,,,,,,,,,,,,,,,,,,,,,,,,,,,,,,,,,,,,,,,,,1.7623456716537476,1.249776999997266,448.0156132000011,None,ScrollUp,정답입니다,448.0156132000011,None,448.0156132000011,None,448.0156132000011,None,448.0156132000011,None,449.13824020000175,None,449.13824020000175,449.6479552000019,,,,,,,,,,,,,,,,225,2022-05-25_18h10.39.728,FishGame,2022.1.1,60.0315766090665,
,1,넌 매력적이야,2,Green,B,6.125,4.666666666666667,ScrollUp,ScrollDown,Green.png,4,Positive,Incongruent,0,0,0,0,,,,,,,,,,,,,,,,,,,,,,,,,0,0,0,0,,,,,,,,,,,,,,,,,,,,,,,,,,,,,,,,481.0946288000014,482.5938161000013,482.6270954000029,483.5770150000026,483.62699520000024,484.57690619999994,484.57690619999994,None,,,,,,,,,,,,,,,,,,,,,,,,,,,,,,,,,,1.8935185074806213,1.1544972000010603,485.76839120000295,None,ScrollUp,정답입니다,485.76839120000295,None,485.76839120000295,None,485.76839120000295,None,485.76839120000295,None,486.7489454000024,None,486.7489454000024,487.2599416000012,450.1478771000002,None,450.1478771000002,None,0.1037037,-0.107407406,1,0,0,0.01622018999842112,None,480.1607290000029,None,,,225,2022-05-25_18h10.39.728,FishGame,2022.1.1,60.0315766090665,
,2,나를 보내줘,6,Orange,A,0,0,ScrollUp,ScrollDown,Orange.png,4,NonTarget,NonTarget,0,0,0,0,,,,,,,,,,,,,,,,,,,,,,,,,0,1,1,1,,,,,,,,,,,,,,,,,,,,,,,,,,,,,,,,,,,,,,,,,,,,,,,,,,,,,,,,,,,,,,,,,,,,,,,,,1.787037044763565,1.2346437000014703,487.9098799000021,None,ScrollUp,정답입니다,487.9098799000021,None,487.9098799000021,None,487.9098799000021,None,487.9098799000021,None,489.01735800000097,None,489.01735800000097,489.5261623000006,,,,,,,,,,,,,,,,225,2022-05-25_18h10.39.728,FishGame,2022.1.1,60.0315766090665,
,3,넌 조심스러워,3,Orange,A,4.791666666666666,4.666666666666667,ScrollDown,ScrollUp,Orange.png,4,Neutral,Neutral,0,0,0,0,,,,,,,,,,,,,,,,,,,,,,,,,0,2,2,2,,,,,,,,,,,,,,,,,,,,,,,,,,,,,,,,,,,,,,,,,,,,,,,,,,,,,,,,,,,,,,,,,,,,,,,,,1.3086419701576233,1.0606379000018933,490.18282499999987,None,ScrollDown,정답입니다,490.18282499999987,None,490.18282499999987,None,490.18282499999987,None,490.18282499999987,None,491.11281790000066,None,491.11281790000066,491.626154900001,,,,,,,,,,,,,,,,225,2022-05-25_18h10.39.728,FishGame,2022.1.1,60.0315766090665,
,4,넌 철학적이야,3,Green,B,4.5,4.266666666666667,ScrollUp,ScrollDown,Green.png,4,Neutral,Neutral,0,0,0,0,,,,,,,,,,,,,,,,,,,,,,,,,0,3,3,3,,,,,,,,,,,,,,,,,,,,,,,,,,,,,,,,,,,,,,,,,,,,,,,,,,,,,,,,,,,,,,,,,,,,,,,,,2,1.136692199997924,492.2714969000008,None,ScrollUp,정답입니다,492.2714969000008,None,492.2714969000008,None,492.2714969000008,None,492.2714969000008,None,493.28465250000227,None,493.28465250000227,493.7923079000029,,,,,,,,,,,,,,,,225,2022-05-25_18h10.39.728,FishGame,2022.1.1,60.0315766090665,
,5,넌 쩨쩨해,5,Orange,A,2.375,2.133333333333333,ScrollDown,ScrollUp,Orange.png,4,Negative,Incongruent,0,0,0,0,,,,,,,,,,,,,,,,,,,,,,,,,0,4,4,4,,,,,,,,,,,,,,,,,,,,,,,,,,,,,,,,,,,,,,,,,,,,,,,,,,,,,,,,,,,,,,,,,,,,,,,,,1.126543199022611,1.0823665999996592,494.44577290000234,None,ScrollDown,정답입니다,494.44577290000234,None,494.44577290000234,None,494.44577290000234,None,494.44577290000234,None,495.3992548000024,None,495.3992548000024,495.9087165000019,,,,,,,,,,,,,,,,225,2022-05-25_18h10.39.728,FishGame,2022.1.1,60.0315766090665,
,6,나를 데려가줘,6,Green,B,0,0,ScrollDown,ScrollUp,Green.png,4,NonTarget,NonTarget,0,0,0,0,,,,,,,,,,,,,,,,,,,,,,,,,0,5,5,5,,,,,,,,,,,,,,,,,,,,,,,,,,,,,,,,,,,,,,,,,,,,,,,,,,,,,,,,,,,,,,,,,,,,,,,,,1.0679012437661488,1.049534500001755,496.5628998000029,None,ScrollDown,정답입니다,496.5628998000029,None,496.5628998000029,None,496.5628998000029,None,496.5628998000029,None,497.4816671000008,None,497.4816671000008,497.9918335000002,,,,,,,,,,,,,,,,225,2022-05-25_18h10.39.728,FishGame,2022.1.1,60.0315766090665,
,7,넌 고집불통이야,5,Green,B,2.875,2,ScrollUp,ScrollDown,Green.png,4,Negative,Congruent,0,0,0,0,,,,,,,,,,,,,,,,,,,,,,,,,0,6,6,6,,,,,,,,,,,,,,,,,,,,,,,,,,,,,,,,,,,,,,,,,,,,,,,,,,,,,,,,,,,,,,,,,,,,,,,,,1.873456800977389,1.1623557999992045,498.64478790000067,None,ScrollUp,정답입니다,498.64478790000067,None,498.64478790000067,None,498.64478790000067,None,498.64478790000067,None,499.6778260000028,None,499.6778260000028,500.19148190000124,,,,,,,,,,,,,,,,225,2022-05-25_18h10.39.728,FishGame,2022.1.1,60.0315766090665,
,8,넌 무심해,4,Orange,A,2.875,3.2,ScrollDown,ScrollUp,Orange.png,4,Negative,Incongruent,0,0,0,0,,,,,,,,,,,,,,,,,,,,,,,,,0,7,7,7,,,,,,,,,,,,,,,,,,,,,,,,,,,,,,,,,,,,,,,,,,,,,,,,,,,,,,,,,,,,,,,,,,,,,,,,,1,1.0655952000015532,500.8458511000026,None,ScrollDown,정답입니다,500.8458511000026,None,500.8458511000026,None,500.8458511000026,None,500.8458511000026,None,501.7801005000001,None,501.7801005000001,502.2913937000012,,,,,,,,,,,,,,,,225,2022-05-25_18h10.39.728,FishGame,2022.1.1,60.0315766090665,
,9,넌 정겨워,1,Orange,A,5.791666666666667,5.666666666666667,ScrollDown,ScrollUp,Orange.png,4,Positive,Congruent,0,0,0,0,,,,,,,,,,,,,,,,,,,,,,,,,0,8,8,8,,,,,,,,,,,,,,,,,,,,,,,,,,,,,,,,,,,,,,,,,,,,,,,,,,,,,,,,,,,,,,,,,,,,,,,,,1.2638888905445733,1.017158600003313,502.9469790000003,None,ScrollDown,정답입니다,502.9469790000003,None,502.9469790000003,None,502.9469790000003,None,502.9469790000003,None,503.8340044000033,None,503.8340044000033,504.34102760000314,,,,,,,,,,,,,,,,225,2022-05-25_18h10.39.728,FishGame,2022.1.1,60.0315766090665,
,10,나를 데려가줘,6,Green,B,0,0,ScrollDown,ScrollUp,Green.png,4,NonTarget,NonTarget,0,0,0,0,,,,,,,,,,,,,,,,,,,,,,,,,0,9,9,9,,,,,,,,,,,,,,,,,,,,,,,,,,,,,,,,,,,,,,,,,,,,,,,,,,,,,,,,,,,,,,,,,,,,,,,,,1.0478395124276478,1.1487266000003729,504.99881950000054,None,ScrollDown,정답입니다,504.99881950000054,None,504.99881950000054,None,504.99881950000054,None,504.99881950000054,None,506.01344020000033,None,506.01344020000033,506.5240506000009,,,,,,,,,,,,,,,,225,2022-05-25_18h10.39.728,FishGame,2022.1.1,60.0315766090665,
,11,넌 체제순응적이야,4,Green,B,3,3.6,ScrollUp,ScrollDown,Green.png,4,Negative,Congruent,0,0,0,0,,,,,,,,,,,,,,,,,,,,,,,,,0,10,10,10,,,,,,,,,,,,,,,,,,,,,,,,,,,,,,,,,,,,,,,,,,,,,,,,,,,,,,,,,,,,,,,,,,,,,,,,,2,1.115421200000128,507.1870110000018,None,ScrollUp,정답입니다,507.1870110000018,None,507.1870110000018,None,507.1870110000018,None,507.1870110000018,None,508.1623053000003,None,508.1623053000003,508.67380160000175,,,,,,,,,,,,,,,,225,2022-05-25_18h10.39.728,FishGame,2022.1.1,60.0315766090665,
,12,나를 보내줘,6,Orange,A,0,0,ScrollUp,ScrollDown,Orange.png,4,NonTarget,NonTarget,0,0,0,0,,,,,,,,,,,,,,,,,,,,,,,,,0,11,11,11,,,,,,,,,,,,,,,,,,,,,,,,,,,,,,,,,,,,,,,,,,,,,,,,,,,,,,,,,,,,,,,,,,,,,,,,,1.7608024577299755,0.994596199998341,509.3233158000003,None,ScrollUp,정답입니다,509.3233158000003,None,509.3233158000003,None,509.3233158000003,None,509.3233158000003,None,510.1938371000033,None,510.1938371000033,510.70688150000205,,,,,,,,,,,,,,,,225,2022-05-25_18h10.39.728,FishGame,2022.1.1,60.0315766090665,
,13,넌 박식해,2,Orange,A,5.625,3.933333333333333,ScrollDown,ScrollUp,Orange.png,4,Positive,Congruent,0,0,0,0,,,,,,,,,,,,,,,,,,,,,,,,,0,12,12,12,,,,,,,,,,,,,,,,,,,,,,,,,,,,,,,,,,,,,,,,,,,,,,,,,,,,,,,,,,,,,,,,,,,,,,,,,1.1126543233791988,1.0825928000012937,511.3646227999998,None,ScrollDown,정답입니다,511.3646227999998,None,511.3646227999998,None,511.3646227999998,None,511.3646227999998,None,512.3136795999999,None,512.3136795999999,512.8232669999998,,,,,,,,,,,,,,,,225,2022-05-25_18h10.39.728,FishGame,2022.1.1,60.0315766090665,
,14,나를 보내줘,6,Orange,A,0,0,ScrollUp,ScrollDown,Orange.png,4,NonTarget,NonTarget,0,0,0,0,,,,,,,,,,,,,,,,,,,,,,,,,0,13,13,13,,,,,,,,,,,,,,,,,,,,,,,,,,,,,,,,,,,,,,,,,,,,,,,,,,,,,,,,,,,,,,,,,,,,,,,,,1,1.0497882999989088,513.4800498000004,None,ScrollDown,오답입니다,513.4800498000004,None,513.4800498000004,None,513.4800498000004,None,513.4800498000004,None,514.3987948000031,None,514.3987948000031,514.906257300001,,,,,,,,,,,,,,,,225,2022-05-25_18h10.39.728,FishGame,2022.1.1,60.0315766090665,
,15,넌 침착해,1,Green,B,5.458333333333333,5.566666666666666,ScrollUp,ScrollDown,Green.png,4,Positive,Incongruent,0,0,0,0,,,,,,,,,,,,,,,,,,,,,,,,,0,14,14,14,,,,,,,,,,,,,,,,,,,,,,,,,,,,,,,,,,,,,,,,,,,,,,,,,,,,,,,,,,,,,,,,,,,,,,,,,1.89969136317571,1.0406393999983266,515.5585509000011,None,ScrollUp,정답입니다,515.5585509000011,None,515.5585509000011,None,515.5585509000011,None,515.5585509000011,None,516.4676611000032,None,516.4676611000032,516.9727160000002,,,,,,,,,,,,,,,,225,2022-05-25_18h10.39.728,FishGame,2022.1.1,60.0315766090665,
,16,나를 데려가줘,6,Green,B,0,0,ScrollDown,ScrollUp,Green.png,4,NonTarget,NonTarget,0,0,0,0,,,,,,,,,,,,,,,,,,,,,,,,,0,15,15,15,,,,,,,,,,,,,,,,,,,,,,,,,,,,,,,,,,,,,,,,,,,,,,,,,,,,,,,,,,,,,,,,,,,,,,,,,1.1682098756233852,1.1933920000010403,517.6184506000027,None,ScrollDown,정답입니다,517.6184506000027,None,517.6184506000027,None,517.6184506000027,None,517.6184506000027,None,518.6890096000025,None,518.6890096000025,519.189063400001,,,,,,,,,,,,,,,,225,2022-05-25_18h10.39.728,FishGame,2022.1.1,60.0315766090665,
,17,넌 행복해,1,Orange,A,6.416666666666666,6.166666666666667,ScrollDown,ScrollUp,Orange.png,4,Positive,Congruent,0,0,0,0,,,,,,,,,,,,,,,,,,,,,,,,,0,16,16,16,,,,,,,,,,,,,,,,,,,,,,,,,,,,,,,,,,,,,,,,,,,,,,,,,,,,,,,,,,,,,,,,,,,,,,,,,1.1790123482545216,1.114413399998739,519.8539392000021,None,ScrollDown,정답입니다,519.8539392000021,None,519.8539392000021,None,519.8539392000021,None,519.8539392000021,None,520.8290814000029,None,520.8290814000029,521.3388199000001,,,,,,,,,,,,,,,,225,2022-05-25_18h10.39.728,FishGame,2022.1.1,60.0315766090665,
,18,넌 겸손해,2,Green,B,5.791666666666667,4.766666666666667,ScrollUp,ScrollDown,Green.png,4,Positive,Incongruent,0,0,0,0,,,,,,,,,,,,,,,,,,,,,,,,,0,17,17,17,,,,,,,,,,,,,,,,,,,,,,,,,,,,,,,,,,,,,,,,,,,,,,,,,,,,,,,,,,,,,,,,,,,,,,,,,1.787037044763565,0.9797214999998687,521.9905736000001,None,ScrollUp,정답입니다,521.9905736000001,None,521.9905736000001,None,521.9905736000001,None,521.9905736000001,None,522.8436251000021,None,522.8436251000021,523.3551815999999,,,,,,,,,,,,,,,,225,2022-05-25_18h10.39.728,FishGame,2022.1.1,60.0315766090665,
,19,나를 보내줘,6,Orange,A,0,0,ScrollUp,ScrollDown,Orange.png,4,NonTarget,NonTarget,0,0,0,0,,,,,,,,,,,,,,,,,,,,,,,,,0,18,18,18,,,,,,,,,,,,,,,,,,,,,,,,,,,,,,,,,,,,,,,,,,,,,,,,,,,,,,,,,,,,,,,,,,,,,,,,,1.7700617164373398,0.9765411000007589,524.0087550000026,None,ScrollUp,정답입니다,524.0087550000026,None,524.0087550000026,None,524.0087550000026,None,524.0087550000026,None,524.857430600001,None,524.857430600001,525.3716534000014,,,,,,,,,,,,,,,,225,2022-05-25_18h10.39.728,FishGame,2022.1.1,60.0315766090665,
,20,넌 의심없어,3,Orange,A,4.166666666666667,4.6,ScrollDown,ScrollUp,Orange.png,4,Neutral,Neutral,0,0,0,0,,,,,,,,,,,,,,,,,,,,,,,,,0,19,19,19,,,,,,,,,,,,,,,,,,,,,,,,,,,,,,,,,,,,,,,,,,,,,,,,,,,,,,,,,,,,,,,,,,,,,,,,,1.1172839403152466,1.1910854000016116,526.0187490000026,None,ScrollDown,정답입니다,526.0187490000026,None,526.0187490000026,None,526.0187490000026,None,526.0187490000026,None,527.0879846000025,None,527.0879846000025,527.5880413000014,,,,,,,,,,,,,,,,225,2022-05-25_18h10.39.728,FishGame,2022.1.1,60.0315766090665,
,21,넌 시시해,4,Orange,A,2.666666666666667,2.966666666666667,ScrollDown,ScrollUp,Orange.png,4,Negative,Incongruent,0,0,0,0,,,,,,,,,,,,,,,,,,,,,,,,,0,20,20,20,,,,,,,,,,,,,,,,,,,,,,,,,,,,,,,,,,,,,,,,,,,,,,,,,,,,,,,,,,,,,,,,,,,,,,,,,1.3287037014961243,0.9827273999981117,528.2366556000015,None,ScrollDown,정답입니다,528.2366556000015,None,528.2366556000015,None,528.2366556000015,None,528.2366556000015,None,529.0962902000028,None,529.0962902000028,529.6044518000017,,,,,,,,,,,,,,,,225,2022-05-25_18h10.39.728,FishGame,2022.1.1,60.0315766090665,
,22,나를 데려가줘,6,Green,B,0,0,ScrollDown,ScrollUp,Green.png,4,NonTarget,NonTarget,0,0,0,0,,,,,,,,,,,,,,,,,,,,,,,,,0,21,21,21,,,,,,,,,,,,,,,,,,,,,,,,,,,,,,,,,,,,,,,,,,,,,,,,,,,,,,,,,,,,,,,,,,,,,,,,,1,1.4331558999983827,530.2551217,None,ScrollDown,정답입니다,530.2551217,None,530.2551217,None,530.2551217,None,530.2551217,None,531.5605226000007,None,531.5605226000007,532.0708003,,,,,,,,,,,,,,,,225,2022-05-25_18h10.39.728,FishGame,2022.1.1,60.0315766090665,
,23,넌 무정해,5,Orange,A,2.5,2.2,ScrollDown,ScrollUp,Orange.png,4,Negative,Incongruent,0,0,0,0,,,,,,,,,,,,,,,,,,,,,,,,,0,22,22,22,,,,,,,,,,,,,,,,,,,,,,,,,,,,,,,,,,,,,,,,,,,,,,,,,,,,,,,,,,,,,,,,,,,,,,,,,1.2391975422700245,1.1162647000019206,532.7190534000001,None,ScrollDown,정답입니다,532.7190534000001,None,532.7190534000001,None,532.7190534000001,None,532.7190534000001,None,533.7106135000031,None,533.7106135000031,534.2205500000018,,,,,,,,,,,,,,,,225,2022-05-25_18h10.39.728,FishGame,2022.1.1,60.0315766090665,
,24,넌 긍정적이야,1,Green,B,6.041666666666667,6.066666666666666,ScrollUp,ScrollDown,Green.png,4,Positive,Incongruent,0,0,0,0,,,,,,,,,,,,,,,,,,,,,,,,,0,23,23,23,,,,,,,,,,,,,,,,,,,,,,,,,,,,,,,,,,,,,,,,,,,,,,,,,,,,,,,,,,,,,,,,,,,,,,,,,1.6944444452722869,1.3388299999969604,534.8750967000014,None,ScrollUp,정답입니다,534.8750967000014,None,534.8750967000014,None,534.8750967000014,None,534.8750967000014,None,536.0867829000017,None,536.0867829000017,536.5868213000031,,,,,,,,,,,,,,,,225,2022-05-25_18h10.39.728,FishGame,2022.1.1,60.0315766090665,
,25,나를 보내줘,6,Orange,A,0,0,ScrollUp,ScrollDown,Orange.png,4,NonTarget,NonTarget,0,0,0,0,,,,,,,,,,,,,,,,,,,,,,,,,0,24,24,24,,,,,,,,,,,,,,,,,,,,,,,,,,,,,,,,,,,,,,,,,,,,,,,,,,,,,,,,,,,,,,,,,,,,,,,,,1.6851851865649223,1.1605947999996715,537.2398363000029,None,ScrollUp,정답입니다,537.2398363000029,None,537.2398363000029,None,537.2398363000029,None,537.2398363000029,None,538.2728627000033,None,538.2728627000033,538.7865197000028,,,,,,,,,,,,,,,,225,2022-05-25_18h10.39.728,FishGame,2022.1.1,60.0315766090665,
,26,넌 시기심이 많아,5,Green,B,2.458333333333333,2.233333333333333,ScrollUp,ScrollDown,Green.png,4,Negative,Congruent,0,0,0,0,,,,,,,,,,,,,,,,,,,,,,,,,0,25,25,25,,,,,,,,,,,,,,,,,,,,,,,,,,,,,,,,,,,,,,,,,,,,,,,,,,,,,,,,,,,,,,,,,,,,,,,,,1.6234567910432816,1.1557065999986662,539.4404080000022,None,ScrollUp,정답입니다,539.4404080000022,None,539.4404080000022,None,539.4404080000022,None,539.4404080000022,None,540.4699611000033,None,540.4699611000033,540.9695096000032,,,,,,,,,,,,,,,,225,2022-05-25_18h10.39.728,FishGame,2022.1.1,60.0315766090665,
,27,넌 탁월해,2,Orange,A,5.708333333333334,4.5,ScrollDown,ScrollUp,Orange.png,4,Positive,Congruent,0,0,0,0,,,,,,,,,,,,,,,,,,,,,,,,,0,26,26,26,,,,,,,,,,,,,,,,,,,,,,,,,,,,,,,,,,,,,,,,,,,,,,,,,,,,,,,,,,,,,,,,,,,,,,,,,1.0540123681227367,1.1325385000018287,541.6313696000034,None,ScrollDown,정답입니다,541.6313696000034,None,541.6313696000034,None,541.6313696000034,None,541.6313696000034,None,542.6251945000004,None,542.6251945000004,543.1359532000024,,,,,,,,,,,,,,,,225,2022-05-25_18h10.39.728,FishGame,2022.1.1,60.0315766090665,
,28,나를 데려가줘,6,Green,B,0,0,ScrollDown,ScrollUp,Green.png,4,NonTarget,NonTarget,0,0,0,0,,,,,,,,,,,,,,,,,,,,,,,,,0,27,27,27,,,,,,,,,,,,,,,,,,,,,,,,,,,,,,,,,,,,,,,,,,,,,,,,,,,,,,,,,,,,,,,,,,,,,,,,,1.0555555323759716,1.157802099998662,543.7758350000004,None,ScrollDown,정답입니다,543.7758350000004,None,543.7758350000004,None,543.7758350000004,None,543.7758350000004,None,544.8136902000006,None,544.8136902000006,545.3192127000002,,,,,,,,,,,,,,,,225,2022-05-25_18h10.39.728,FishGame,2022.1.1,60.0315766090665,
,29,넌 조용해,3,Green,B,4.333333333333333,4.166666666666667,ScrollUp,ScrollDown,Green.png,4,Neutral,Neutral,0,0,0,0,,,,,,,,,,,,,,,,,,,,,,,,,0,28,28,28,,,,,,,,,,,,,,,,,,,,,,,,,,,,,,,,,,,,,,,,,,,,,,,,,,,,,,,,,,,,,,,,,,,,,,,,,1.7762345721324284,2.5244543999979214,545.9694668000011,None,ScrollUp,정답입니다,545.9694668000011,None,545.9694668000011,None,545.9694668000011,None,545.9694668000011,None,548.3690005000026,None,548.3690005000026,548.8686871000027,,,,,,,,,,,,,,,,225,2022-05-25_18h10.39.728,FishGame,2022.1.1,60.0315766090665,
,30,넌 다정해,1,Orange,A,5.833333333333334,5.7,ScrollDown,ScrollUp,Orange.png,4,Positive,Congruent,0,0,0,0,,,,,,,,,,,,,,,,,,,,,,,,,0,29,29,29,,,,,,,,,,,,,,,,,,,,,,,,,,,,,,,,,,,,,,,,,,,,,,,,,,,,,,,,,,,,,,,,,,,,,,,,,1.2901234527428946,1.0614182999997865,549.5212587000024,None,ScrollDown,정답입니다,549.5212587000024,None,549.5212587000024,None,549.5212587000024,None,549.5212587000024,None,550.4562556000019,None,550.4562556000019,550.9683270000023,,,,,,,,,,,,,,,,225,2022-05-25_18h10.39.728,FishGame,2022.1.1,60.0315766090665,
,31,넌 능력있어,2,Green,B,6.166666666666666,4.6,ScrollUp,ScrollDown,Green.png,4,Positive,Incongruent,0,0,0,0,,,,,,,,,,,,,,,,,,,,,,,,,0,30,30,30,,,,,,,,,,,,,,,,,,,,,,,,,,,,,,,,,,,,,,,,,,,,,,,,,,,,,,,,,,,,,,,,,,,,,,,,,1.6712962985038757,0.9992961999996623,551.6152619000022,None,ScrollUp,정답입니다,551.6152619000022,None,551.6152619000022,None,551.6152619000022,None,551.6152619000022,None,552.491378900002,None,552.491378900002,553.0015112000001,,,,,,,,,,,,,,,,225,2022-05-25_18h10.39.728,FishGame,2022.1.1,60.0315766090665,
,32,넌 불쾌해,5,Orange,A,2.125,1.933333333333333,ScrollDown,ScrollUp,Orange.png,4,Negative,Incongruent,0,0,0,0,,,,,,,,,,,,,,,,,,,,,,,,,0,31,31,31,,,,,,,,,,,,,,,,,,,,,,,,,,,,,,,,,,,,,,,,,,,,,,,,,,,,,,,,,,,,,,,,,,,,,,,,,1,1.8078344000023208,553.6509956000009,None,ScrollDown,정답입니다,553.6509956000009,None,553.6509956000009,None,553.6509956000009,None,553.6509956000009,None,555.3344035000009,None,555.3344035000009,555.834503500002,,,,,,,,,,,,,,,,225,2022-05-25_18h10.39.728,FishGame,2022.1.1,60.0315766090665,
,33,나를 데려가줘,6,Green,B,0,0,ScrollDown,ScrollUp,Green.png,4,NonTarget,NonTarget,0,0,0,0,,,,,,,,,,,,,,,,,,,,,,,,,0,32,32,32,,,,,,,,,,,,,,,,,,,,,,,,,,,,,,,,,,,,,,,,,,,,,,,,,,,,,,,,,,,,,,,,,,,,,,,,,1.1018518507480621,1.1458929000000353,556.4847500000033,None,ScrollDown,정답입니다,556.4847500000033,None,556.4847500000033,None,556.4847500000033,None,556.4847500000033,None,557.5059667000023,None,557.5059667000023,558.017426800001,,,,,,,,,,,,,,,,225,2022-05-25_18h10.39.728,FishGame,2022.1.1,60.0315766090665,
,34,넌 유순해,3,Orange,A,4.458333333333333,5,ScrollDown,ScrollUp,Orange.png,4,Neutral,Neutral,0,0,0,0,,,,,,,,,,,,,,,,,,,,,,,,,0,33,33,33,,,,,,,,,,,,,,,,,,,,,,,,,,,,,,,,,,,,,,,,,,,,,,,,,,,,,,,,,,,,,,,,,,,,,,,,,1.1512345721324284,1.010370399999374,558.6670703000018,None,ScrollDown,정답입니다,558.6670703000018,None,558.6670703000018,None,558.6670703000018,None,558.6670703000018,None,559.5531083000024,None,559.5531083000024,560.0673308000005,,,,,,,,,,,,,,,,225,2022-05-25_18h10.39.728,FishGame,2022.1.1,60.0315766090665,
,35,넌 근심스러워,4,Green,B,2.708333333333333,3.133333333333333,ScrollUp,ScrollDown,Green.png,4,Negative,Congruent,0,0,0,0,,,,,,,,,,,,,,,,,,,,,,,,,0,34,34,34,,,,,,,,,,,,,,,,,,,,,,,,,,,,,,,,,,,,,,,,,,,,,,,,,,,,,,,,,,,,,,,,,,,,,,,,,1.5462962966412306,1.0981897999990906,560.7211985000031,None,NoResponse,무응답입니다,560.7211985000031,None,560.7211985000031,None,560.7211985000031,None,560.7211985000031,None,561.692295300003,None,561.692295300003,562.2002759000025,,,,,,,,,,,,,,,,225,2022-05-25_18h10.39.728,FishGame,2022.1.1,60.0315766090665,
,36,넌 세련되었어,2,Orange,A,5.5,4.6,ScrollDown,ScrollUp,Orange.png,4,Positive,Congruent,0,0,0,0,,,,,,,,,,,,,,,,,,,,,,,,,0,35,35,35,,,,,,,,,,,,,,,,,,,,,,,,,,,,,,,,,,,,,,,,,,,,,,,,,,,,,,,,,,,,,,,,,,,,,,,,,1.192901223897934,1.161392900001374,562.8720642000008,None,ScrollDown,정답입니다,562.8720642000008,None,562.8720642000008,None,562.8720642000008,None,562.8720642000008,None,563.8884792000026,None,563.8884792000026,564.3999945000032,,,,,,,,,,,,,,,,225,2022-05-25_18h10.39.728,FishGame,2022.1.1,60.0315766090665,
,37,나를 보내줘,6,Orange,A,0,0,ScrollUp,ScrollDown,Orange.png,4,NonTarget,NonTarget,0,0,0,0,,,,,,,,,,,,,,,,,,,,,,,,,0,36,36,36,,,,,,,,,,,,,,,,,,,,,,,,,,,,,,,,,,,,,,,,,,,,,,,,,,,,,,,,,,,,,,,,,,,,,,,,,1.5802469129363694,1.2177150000024994,565.0494576000019,None,ScrollUp,정답입니다,565.0494576000019,None,565.0494576000019,None,565.0494576000019,None,565.0494576000019,None,566.1406532000001,None,566.1406532000001,566.6495845000027,,,,,,,,,,,,,,,,225,2022-05-25_18h10.39.728,FishGame,2022.1.1,60.0315766090665,
,38,넌 확고해,3,Green,B,4.708333333333334,4.566666666666666,ScrollUp,ScrollDown,Green.png,4,Neutral,Neutral,0,0,0,0,,,,,,,,,,,,,,,,,,,,,,,,,0,37,37,37,,,,,,,,,,,,,,,,,,,,,,,,,,,,,,,,,,,,,,,,,,,,,,,,,,,,,,,,,,,,,,,,,,,,,,,,,1.825617293516795,1.0165167999984988,567.3052886000005,None,ScrollUp,정답입니다,567.3052886000005,None,567.3052886000005,None,567.3052886000005,None,567.3052886000005,None,568.1891707000032,None,568.1891707000032,568.6993303000017,,,,,,,,,,,,,,,,225,2022-05-25_18h10.39.728,FishGame,2022.1.1,60.0315766090665,
,39,넌 이해심이 많아,1,Green,B,6.041666666666668,5.533333333333333,ScrollUp,ScrollDown,Green.png,4,Positive,Incongruent,0,0,0,0,,,,,,,,,,,,,,,,,,,,,,,,,0,38,38,38,,,,,,,,,,,,,,,,,,,,,,,,,,,,,,,,,,,,,,,,,,,,,,,,,,,,,,,,,,,,,,,,,,,,,,,,,1.9845678806304932,1.1325369000005594,569.3455342000016,None,ScrollUp,정답입니다,569.3455342000016,None,569.3455342000016,None,569.3455342000016,None,569.3455342000016,None,570.3541516000005,None,570.3541516000005,570.8659227000026,,,,,,,,,,,,,,,,225,2022-05-25_18h10.39.728,FishGame,2022.1.1,60.0315766090665,
,40,나를 보내줘,6,Orange,A,0,0,ScrollUp,ScrollDown,Orange.png,4,NonTarget,NonTarget,0,0,0,0,,,,,,,,,,,,,,,,,,,,,,,,,0,39,39,39,,,,,,,,,,,,,,,,,,,,,,,,,,,,,,,,,,,,,,,,,,,,,,,,,,,,,,,,,,,,,,,,,,,,,,,,,2,1.1388460999987728,571.5156564000026,None,ScrollUp,정답입니다,571.5156564000026,None,571.5156564000026,None,571.5156564000026,None,571.5156564000026,None,572.5324403000013,None,572.5324403000013,573.0322205000011,,,,,,,,,,,,,,,,225,2022-05-25_18h10.39.728,FishGame,2022.1.1,60.0315766090665,
,41,넌 거칠어,4,Orange,A,2.625,3.033333333333333,ScrollDown,ScrollUp,Orange.png,4,Negative,Incongruent,0,0,0,0,,,,,,,,,,,,,,,,,,,,,,,,,0,40,40,40,,,,,,,,,,,,,,,,,,,,,,,,,,,,,,,,,,,,,,,,,,,,,,,,,,,,,,,,,,,,,,,,,,,,,,,,,1.0555555323759716,1.1473162000002048,573.7024779000021,None,ScrollDown,정답입니다,573.7024779000021,None,573.7024779000021,None,573.7024779000021,None,573.7024779000021,None,574.7034494,None,574.7034494,575.2152403,,,,,,,,,,,,,,,,225,2022-05-25_18h10.39.728,FishGame,2022.1.1,60.0315766090665,
,42,넌 변덕맞아,5,Green,B,2.75,2.166666666666667,ScrollUp,ScrollDown,Green.png,4,Negative,Congruent,0,0,0,0,,,,,,,,,,,,,,,,,,,,,,,,,0,41,41,41,,,,,,,,,,,,,,,,,,,,,,,,,,,,,,,,,,,,,,,,,,,,,,,,,,,,,,,,,,,,,,,,,,,,,,,,,1.904320980111758,1.041131599999062,575.931887900002,None,ScrollUp,정답입니다,575.931887900002,None,575.931887900002,None,575.931887900002,None,575.931887900002,None,576.7819428000003,None,576.7819428000003,577.2816632000031,,,,,,,,,,,,,,,,225,2022-05-25_18h10.39.728,FishGame,2022.1.1,60.0315766090665,
,43,나를 데려가줘,6,Green,B,0,0,ScrollDown,ScrollUp,Green.png,4,NonTarget,NonTarget,0,0,0,0,,,,,,,,,,,,,,,,,,,,,,,,,0,42,42,42,,,,,,,,,,,,,,,,,,,,,,,,,,,,,,,,,,,,,,,,,,,,,,,,,,,,,,,,,,,,,,,,,,,,,,,,,1.0185184975465138,1.1348819999984698,577.9271247000033,None,ScrollDown,정답입니다,577.9271247000033,None,577.9271247000033,None,577.9271247000033,None,577.9271247000033,None,578.9389970000011,None,578.9389970000011,579.4480330000006,,,,,,,,,,,,,,,,225,2022-05-25_18h10.39.728,FishGame,2022.1.1,60.0315766090665,
,44,넌 외로워,4,Green,B,2.833333333333333,3.3,ScrollUp,ScrollDown,Green.png,4,Negative,Congruent,0,0,0,0,,,,,,,,,,,,,,,,,,,,,,,,,0,43,43,43,,,,,,,,,,,,,,,,,,,,,,,,,,,,,,,,,,,,,,,,,,,,,,,,,,,,,,,,,,,,,,,,,,,,,,,,,1.8533950696388881,1.0615608000007342,580.1015743000025,None,ScrollUp,정답입니다,580.1015743000025,None,580.1015743000025,None,580.1015743000025,None,580.1015743000025,None,581.0314757000015,None,581.0314757000015,581.5310919000003,,,,,,,,,,,,,,,,225,2022-05-25_18h10.39.728,FishGame,2022.1.1,60.0315766090665,
,1,넌 불평스러워,5,Orange,A,2.25,2.066666666666667,ScrollDown,ScrollUp,Orange.png,5,Negative,Incongruent,0,0,0,0,,,,,,,,,,,,,,,,,,,,,,,,,,,,,0,0,0,0,,,,,,,,,,,,,,,,,,,,,,,,,,,,613.2940450000024,614.7938127000016,614.8269705000021,615.7769533000028,615.8268542000005,616.776837100002,616.776837100002,None,,,,,,,,,,,,,,,,,,,,,,,,,,,,,,,,,,1,1.365471199998865,617.9415234000007,None,ScrollDown,정답입니다,617.9415234000007,None,617.9415234000007,None,617.9415234000007,None,617.9415234000007,None,619.1500480000032,None,619.1500480000032,619.6595547000034,582.0310292000031,None,582.0310292000031,None,0.08796296,-0.06944445,1,0,0,0.01621709000028204,None,612.0440949000003,None,,,225,2022-05-25_18h10.39.728,FishGame,2022.1.1,60.0315766090665,
,2,나를 보내줘,6,Orange,A,0,0,ScrollUp,ScrollDown,Orange.png,5,NonTarget,NonTarget,0,0,0,0,,,,,,,,,,,,,,,,,,,,,,,,,,,,,0,1,1,1,,,,,,,,,,,,,,,,,,,,,,,,,,,,,,,,,,,,,,,,,,,,,,,,,,,,,,,,,,,,,,,,,,,,,1.8148148208856583,1.310747999999876,620.3113774000012,None,ScrollUp,정답입니다,620.3113774000012,None,620.3113774000012,None,620.3113774000012,None,620.3113774000012,None,621.4927339000023,None,621.4927339000023,621.9926259000022,,,,,,,,,,,,,,,,225,2022-05-25_18h10.39.728,FishGame,2022.1.1,60.0315766090665,
,3,넌 다재다능해,2,Green,B,6.208333333333333,4.5,ScrollUp,ScrollDown,Green.png,5,Positive,Incongruent,0,0,0,0,,,,,,,,,,,,,,,,,,,,,,,,,,,,,0,2,2,2,,,,,,,,,,,,,,,,,,,,,,,,,,,,,,,,,,,,,,,,,,,,,,,,,,,,,,,,,,,,,,,,,,,,,1.7283950646718345,0.9667709000023024,622.6428936000011,None,ScrollUp,정답입니다,622.6428936000011,None,622.6428936000011,None,622.6428936000011,None,622.6428936000011,None,623.4826788000028,None,623.4826788000028,623.9924003000015,,,,,,,,,,,,,,,,225,2022-05-25_18h10.39.728,FishGame,2022.1.1,60.0315766090665,
,4,넌 과감해,3,Orange,A,4.833333333333334,4.6,ScrollDown,ScrollUp,Orange.png,5,Neutral,Neutral,0,0,0,0,,,,,,,,,,,,,,,,,,,,,,,,,,,,,0,3,3,3,,,,,,,,,,,,,,,,,,,,,,,,,,,,,,,,,,,,,,,,,,,,,,,,,,,,,,,,,,,,,,,,,,,,,1.0416666567325592,1.1083493000005546,624.6418729000034,None,ScrollDown,정답입니다,624.6418729000034,None,624.6418729000034,None,624.6418729000034,None,624.6418729000034,None,625.6257887000029,None,625.6257887000029,626.1254352000033,,,,,,,,,,,,,,,,225,2022-05-25_18h10.39.728,FishGame,2022.1.1,60.0315766090665,
,5,넌 고분고분해,3,Green,B,3.75,4.033333333333333,ScrollUp,ScrollDown,Green.png,5,Neutral,Neutral,0,0,0,0,,,,,,,,,,,,,,,,,,,,,,,,,,,,,0,4,4,4,,,,,,,,,,,,,,,,,,,,,,,,,,,,,,,,,,,,,,,,,,,,,,,,,,,,,,,,,,,,,,,,,,,,,1.6080246890584626,1.0265262000029907,626.7813799000032,None,ScrollUp,정답입니다,626.7813799000032,None,626.7813799000032,None,626.7813799000032,None,626.7813799000032,None,627.6756841000024,None,627.6756841000024,628.1751371999999,,,,,,,,,,,,,,,,225,2022-05-25_18h10.39.728,FishGame,2022.1.1,60.0315766090665,
,6,나를 보내줘,6,Orange,A,0,0,ScrollUp,ScrollDown,Orange.png,5,NonTarget,NonTarget,0,0,0,0,,,,,,,,,,,,,,,,,,,,,,,,,,,,,0,5,5,5,,,,,,,,,,,,,,,,,,,,,,,,,,,,,,,,,,,,,,,,,,,,,,,,,,,,,,,,,,,,,,,,,,,,,1.6975308607021966,0.9320522000016354,628.8241396000012,None,ScrollUp,정답입니다,628.8241396000012,None,628.8241396000012,None,628.8241396000012,None,628.8241396000012,None,629.6311716000018,None,629.6311716000018,630.1416362000018,,,,,,,,,,,,,,,,225,2022-05-25_18h10.39.728,FishGame,2022.1.1,60.0315766090665,
,7,넌 잘 잊어,4,Orange,A,3,3.7,ScrollDown,ScrollUp,Orange.png,5,Negative,Incongruent,0,0,0,0,,,,,,,,,,,,,,,,,,,,,,,,,,,,,0,6,6,6,,,,,,,,,,,,,,,,,,,,,,,,,,,,,,,,,,,,,,,,,,,,,,,,,,,,,,,,,,,,,,,,,,,,,1.276234577099482,1.1413414999988163,630.8001472000033,None,ScrollDown,정답입니다,630.8001472000033,None,630.8001472000033,None,630.8001472000033,None,630.8001472000033,None,631.8078339000022,None,631.8078339000022,632.3079263,,,,,,,,,,,,,,,,225,2022-05-25_18h10.39.728,FishGame,2022.1.1,60.0315766090665,
,8,넌 탐구심이없어,4,Green,B,2.833333333333333,3.066666666666667,ScrollUp,ScrollDown,Green.png,5,Negative,Congruent,0,0,0,0,,,,,,,,,,,,,,,,,,,,,,,,,,,,,0,7,7,7,,,,,,,,,,,,,,,,,,,,,,,,,,,,,,,,,,,,,,,,,,,,,,,,,,,,,,,,,,,,,,,,,,,,,1.5771604912976422,0.946575899997697,632.9666222000014,None,ScrollUp,정답입니다,632.9666222000014,None,632.9666222000014,None,632.9666222000014,None,632.9666222000014,None,633.7796774000017,None,633.7796774000017,634.2910219000005,,,,,,,,,,,,,,,,225,2022-05-25_18h10.39.728,FishGame,2022.1.1,60.0315766090665,
,9,나를 데려가줘,6,Green,B,0,0,ScrollDown,ScrollUp,Green.png,5,NonTarget,NonTarget,0,0,0,0,,,,,,,,,,,,,,,,,,,,,,,,,,,,,0,8,8,8,,,,,,,,,,,,,,,,,,,,,,,,,,,,,,,,,,,,,,,,,,,,,,,,,,,,,,,,,,,,,,,,,,,,,1.1064814925193787,1.2188771000000997,634.9374048000027,None,ScrollDown,정답입니다,634.9374048000027,None,634.9374048000027,None,634.9374048000027,None,634.9374048000027,None,636.0332415000012,None,636.0332415000012,636.5409153,,,,,,,,,,,,,,,,225,2022-05-25_18h10.39.728,FishGame,2022.1.1,60.0315766090665,
,10,넌 참되어,2,Orange,A,6.041666666666664,4.733333333333333,ScrollDown,ScrollUp,Orange.png,5,Positive,Congruent,0,0,0,0,,,,,,,,,,,,,,,,,,,,,,,,,,,,,0,9,9,9,,,,,,,,,,,,,,,,,,,,,,,,,,,,,,,,,,,,,,,,,,,,,,,,,,,,,,,,,,,,,,,,,,,,,1.162037044763565,1.046417699999438,637.1947892000026,None,ScrollDown,정답입니다,637.1947892000026,None,637.1947892000026,None,637.1947892000026,None,637.1947892000026,None,638.1137596000008,None,638.1137596000008,638.6238721000009,,,,,,,,,,,,,,,,225,2022-05-25_18h10.39.728,FishGame,2022.1.1,60.0315766090665,
,11,넌 생기있어,1,Green,B,5.875,5.633333333333334,ScrollUp,ScrollDown,Green.png,5,Positive,Incongruent,0,0,0,0,,,,,,,,,,,,,,,,,,,,,,,,,,,,,0,10,10,10,,,,,,,,,,,,,,,,,,,,,,,,,,,,,,,,,,,,,,,,,,,,,,,,,,,,,,,,,,,,,,,,,,,,,1.4953703702582668,0.8838964000024134,639.2791240000006,None,NoResponse,무응답입니다,639.2791240000006,None,639.2791240000006,None,639.2791240000006,None,639.2791240000006,None,640.0333679000032,None,640.0333679000032,640.5402967000009,,,,,,,,,,,,,,,,225,2022-05-25_18h10.39.728,FishGame,2022.1.1,60.0315766090665,
,12,넌 비사교적이야,4,Green,B,2.875,2.9,ScrollUp,ScrollDown,Green.png,5,Negative,Congruent,0,0,0,0,,,,,,,,,,,,,,,,,,,,,,,,,,,,,0,11,11,11,,,,,,,,,,,,,,,,,,,,,,,,,,,,,,,,,,,,,,,,,,,,,,,,,,,,,,,,,,,,,,,,,,,,,1.9305555423100789,1.0274715999985347,641.1862236000015,None,ScrollUp,정답입니다,641.1862236000015,None,641.1862236000015,None,641.1862236000015,None,641.1862236000015,None,642.090595200003,None,642.090595200003,642.590004200003,,,,,,,,,,,,,,,,225,2022-05-25_18h10.39.728,FishGame,2022.1.1,60.0315766090665,
,13,나를 데려가줘,6,Green,B,0,0,ScrollDown,ScrollUp,Green.png,5,NonTarget,NonTarget,0,0,0,0,,,,,,,,,,,,,,,,,,,,,,,,,,,,,0,12,12,12,,,,,,,,,,,,,,,,,,,,,,,,,,,,,,,,,,,,,,,,,,,,,,,,,,,,,,,,,,,,,,,,,,,,,1,1.247424699999101,643.241754900002,None,ScrollDown,정답입니다,643.241754900002,None,643.241754900002,None,643.241754900002,None,643.241754900002,None,644.3620298000023,None,644.3620298000023,644.8730723000008,,,,,,,,,,,,,,,,225,2022-05-25_18h10.39.728,FishGame,2022.1.1,60.0315766090665,
,14,넌 고독해,4,Orange,A,2.916666666666667,3.233333333333333,ScrollDown,ScrollUp,Orange.png,5,Negative,Incongruent,0,0,0,0,,,,,,,,,,,,,,,,,,,,,,,,,,,,,0,13,13,13,,,,,,,,,,,,,,,,,,,,,,,,,,,,,,,,,,,,,,,,,,,,,,,,,,,,,,,,,,,,,,,,,,,,,1.0324074228604634,0.9441334000002826,645.5211026000034,None,ScrollDown,정답입니다,645.5211026000034,None,645.5211026000034,None,645.5211026000034,None,645.5211026000034,None,646.3426838000014,None,646.3426838000014,646.8561461999998,,,,,,,,,,,,,,,,225,2022-05-25_18h10.39.728,FishGame,2022.1.1,60.0315766090665,
,15,넌 신경질적이야,5,Green,B,2.375,2.233333333333333,ScrollUp,ScrollDown,Green.png,5,Negative,Congruent,0,0,0,0,,,,,,,,,,,,,,,,,,,,,,,,,,,,,0,14,14,14,,,,,,,,,,,,,,,,,,,,,,,,,,,,,,,,,,,,,,,,,,,,,,,,,,,,,,,,,,,,,,,,,,,,,2,1.243553600001178,647.5083888000008,None,ScrollUp,정답입니다,647.5083888000008,None,647.5083888000008,None,647.5083888000008,None,647.5083888000008,None,648.6253538000019,None,648.6253538000019,649.1392287000017,,,,,,,,,,,,,,,,225,2022-05-25_18h10.39.728,FishGame,2022.1.1,60.0315766090665,
,16,넌 똑똑해,2,Green,B,5.666666666666667,3.966666666666667,ScrollUp,ScrollDown,Green.png,5,Positive,Incongruent,0,0,0,0,,,,,,,,,,,,,,,,,,,,,,,,,,,,,0,15,15,15,,,,,,,,,,,,,,,,,,,,,,,,,,,,,,,,,,,,,,,,,,,,,,,,,,,,,,,,,,,,,,,,,,,,,1.8703703731298447,1.010722099999839,649.8012885000026,None,ScrollUp,정답입니다,649.8012885000026,None,649.8012885000026,None,649.8012885000026,None,649.8012885000026,None,650.6724826999998,None,650.6724826999998,651.1722928000017,,,,,,,,,,,,,,,,225,2022-05-25_18h10.39.728,FishGame,2022.1.1,60.0315766090665,
,17,나를 보내줘,6,Orange,A,0,0,ScrollUp,ScrollDown,Orange.png,5,NonTarget,NonTarget,0,0,0,0,,,,,,,,,,,,,,,,,,,,,,,,,,,,,0,16,16,16,,,,,,,,,,,,,,,,,,,,,,,,,,,,,,,,,,,,,,,,,,,,,,,,,,,,,,,,,,,,,,,,,,,,,2,1.1642786000011256,651.8204551000017,None,ScrollUp,정답입니다,651.8204551000017,None,651.8204551000017,None,651.8204551000017,None,651.8204551000017,None,652.8606510999998,None,652.8606510999998,653.3719204000008,,,,,,,,,,,,,,,,225,2022-05-25_18h10.39.728,FishGame,2022.1.1,60.0315766090665,
,18,넌 협조적이야,1,Orange,A,5.625,5.666666666666667,ScrollDown,ScrollUp,Orange.png,5,Positive,Congruent,0,0,0,0,,,,,,,,,,,,,,,,,,,,,,,,,,,,,0,17,17,17,,,,,,,,,,,,,,,,,,,,,,,,,,,,,,,,,,,,,,,,,,,,,,,,,,,,,,,,,,,,,,,,,,,,,1.0570987462997437,1.1147386000011466,654.0226932000005,None,ScrollDown,정답입니다,654.0226932000005,None,654.0226932000005,None,654.0226932000005,None,654.0226932000005,None,655.0103022000003,None,655.0103022000003,655.5216581000022,,,,,,,,,,,,,,,,225,2022-05-25_18h10.39.728,FishGame,2022.1.1,60.0315766090665,
,19,나를 데려가줘,6,Green,B,0,0,ScrollDown,ScrollUp,Green.png,5,NonTarget,NonTarget,0,0,0,0,,,,,,,,,,,,,,,,,,,,,,,,,,,,,0,18,18,18,,,,,,,,,,,,,,,,,,,,,,,,,,,,,,,,,,,,,,,,,,,,,,,,,,,,,,,,,,,,,,,,,,,,,1.1141975373029709,1.8919721000020218,656.1706628000029,None,ScrollDown,정답입니다,656.1706628000029,None,656.1706628000029,None,656.1706628000029,None,656.1706628000029,None,657.938356300001,None,657.938356300001,658.4380211000025,,,,,,,,,,,,,,,,225,2022-05-25_18h10.39.728,FishGame,2022.1.1,60.0315766090665,
,20,넌 몰인정해,5,Green,B,2.541666666666667,2.066666666666667,ScrollUp,ScrollDown,Green.png,5,Negative,Congruent,0,0,0,0,,,,,,,,,,,,,,,,,,,,,,,,,,,,,0,19,19,19,,,,,,,,,,,,,,,,,,,,,,,,,,,,,,,,,,,,,,,,,,,,,,,,,,,,,,,,,,,,,,,,,,,,,1.584876542290052,0.9433620000017982,659.0897031000022,None,ScrollUp,정답입니다,659.0897031000022,None,659.0897031000022,None,659.0897031000022,None,659.0897031000022,None,659.9043437,None,659.9043437,660.4043988000012,,,,,,,,,,,,,,,,225,2022-05-25_18h10.39.728,FishGame,2022.1.1,60.0315766090665,
,21,나를 데려가줘,6,Green,B,0,0,ScrollDown,ScrollUp,Green.png,5,NonTarget,NonTarget,0,0,0,0,,,,,,,,,,,,,,,,,,,,,,,,,,,,,0,20,20,20,,,,,,,,,,,,,,,,,,,,,,,,,,,,,,,,,,,,,,,,,,,,,,,,,,,,,,,,,,,,,,,,,,,,,1.1697530895471573,1.229517299998406,661.0555191000021,None,ScrollDown,정답입니다,661.0555191000021,None,661.0555191000021,None,661.0555191000021,None,661.0555191000021,None,662.1598684000019,None,662.1598684000019,662.6707744000014,,,,,,,,,,,,,,,,225,2022-05-25_18h10.39.728,FishGame,2022.1.1,60.0315766090665,
,22,넌 순진해,3,Green,B,4.125,4.166666666666667,ScrollUp,ScrollDown,Green.png,5,Neutral,Neutral,0,0,0,0,,,,,,,,,,,,,,,,,,,,,,,,,,,,,0,21,21,21,,,,,,,,,,,,,,,,,,,,,,,,,,,,,,,,,,,,,,,,,,,,,,,,,,,,,,,,,,,,,,,,,,,,,1.6666666691501937,1.0412421000000904,663.3132467000032,None,ScrollUp,정답입니다,663.3132467000032,None,663.3132467000032,None,663.3132467000032,None,663.3132467000032,None,664.2375271000019,None,664.2375271000019,664.7371948,,,,,,,,,,,,,,,,225,2022-05-25_18h10.39.728,FishGame,2022.1.1,60.0315766090665,
