name,TrialNum,Word,WordCategory,FishType,WordList,WordValence,WordReputation,CorrectResp,IncorrectResp,FishTypeFile,Round,WordType,Condition,LoopforOrange.thisRepN,LoopforOrange.thisTrialN,LoopforOrange.thisN,LoopforOrange.thisIndex,LoopForGreen.thisRepN,LoopForGreen.thisTrialN,LoopForGreen.thisN,LoopForGreen.thisIndex,GreenInstLoop.thisRepN,GreenInstLoop.thisTrialN,GreenInstLoop.thisN,GreenInstLoop.thisIndex,GreenPrac.thisRepN,GreenPrac.thisTrialN,GreenPrac.thisN,GreenPrac.thisIndex,trials_2.thisRepN,trials_2.thisTrialN,trials_2.thisN,trials_2.thisIndex,GreenRound1.thisRepN,GreenRound1.thisTrialN,GreenRound1.thisN,GreenRound1.thisIndex,GreenRound2.thisRepN,GreenRound2.thisTrialN,GreenRound2.thisN,GreenRound2.thisIndex,GreenRound3.thisRepN,GreenRound3.thisTrialN,GreenRound3.thisN,GreenRound3.thisIndex,GreenRound4.thisRepN,GreenRound4.thisTrialN,GreenRound4.thisN,GreenRound4.thisIndex,GreenRound5.thisRepN,GreenRound5.thisTrialN,GreenRound5.thisN,GreenRound5.thisIndex,text_2.started,text_2.stopped,text_3.started,text_3.stopped,key_resp.keys,key_resp.rt,key_resp.started,key_resp.stopped,PassI.started,PassI.stopped,PassInst.keys,PassInst.rt,PassInst.started,PassInst.stopped,mouse_2.x,mouse_2.y,mouse_2.leftButton,mouse_2.midButton,mouse_2.rightButton,mouse_2.started,mouse_2.stopped,image.started,image.stopped,text_5.started,text_5.stopped,text_6.started,text_6.stopped,text_7.started,text_7.stopped,text_8.started,text_8.stopped,slider_3.response,slider_3.rt,slider_3.started,slider_3.stopped,Response_3,Feedback_3,BackGround_3.started,BackGround_3.stopped,Fish_3.started,Fish_3.stopped,WordBox_3.started,WordBox_3.stopped,Words_3.started,Words_3.stopped,BackGround_Feedback_3.started,BackGround_Feedback_3.stopped,Feedbacks_3.started,Feedbacks_3.stopped,Continue_or_not_2.keys,Continue_or_not_2.rt,Continue_or_not_2.started,Continue_or_not_2.stopped,image_4.started,image_4.stopped,mouse_3.x,mouse_3.y,mouse_3.leftButton,mouse_3.midButton,mouse_3.rightButton,mouse_3.started,mouse_3.stopped,startmain.started,startmain.stopped,slider_4.response,slider_4.rt,slider_4.started,slider_4.stopped,Response_4,Feedback_4,BackGround_4.started,BackGround_4.stopped,Fish_4.started,Fish_4.stopped,WordBox_4.started,WordBox_4.stopped,Words_4.started,Words_4.stopped,BackGround_Feedback_4.started,BackGround_Feedback_4.stopped,Feedbacks_4.started,Feedbacks_4.stopped,text.started,text.stopped,break_interval.started,break_interval.stopped,mouse.x,mouse.y,mouse.leftButton,mouse.midButton,mouse.rightButton,mouse.started,mouse.stopped,stratnextround.started,stratnextround.stopped,endgame.started,endgame.stopped,participant,date,expName,psychopyVersion,frameRate,
,,,,,,,,,,,,,,,,,,,,,,,,,,,,,,,,,,,,,,,,,,,,,,,,,,,,,,23.05522499998915,None,23.05522499998915,None,space,3.395475700002862,23.53038659998856,None,,,,,,,,,,,,,,,,,,,,,,,,,,,,,,,,,,,,,,,,,,,,,,,,,,,,,,,,,,,,,,,,,,,,,,,,,,,,,,,,,,,,,,,,,,226,2022-05-26_10h49.08.127,FishGame,2022.1.1,60.07922046182844,
물고기과제_instruction(참가자용)GreenVersion.mp4,,,,,,,,,,,,,,,,,,0,0,0,0,0,0,0,0,,,,,,,,,,,,,,,,,,,,,,,,,,,,,,,,,,,,,94.24554879999778,None,n,12.194785100000445,94.24554879999778,None,,,,,,,,,,,,,,,,,,,,,,,,,,,,,,,,,,,,,,,,,,,,,,,,,,,,,,,,,,,,,,,,,,,,,,,,,,,,,,,,,,,,226,2022-05-26_10h49.08.127,FishGame,2022.1.1,60.07922046182844,
,1,넌 교활해,5,Orange,B,2.333333333333333,2.133333333333333,ScrollUp,ScrollDown,Orange.png,practice,,,,,,,0,0,0,0,,,,,0,0,0,0,0,0,0,0,,,,,,,,,,,,,,,,,,,,,,,,,,,,,,,,,,,0.05648148,-0.22962964,1,0,0,0.5131540300062625,None,106.46969509999326,None,110.03611580000143,111.53574880000087,111.56909579999046,112.51893769999151,112.5690520999924,113.51880130000063,113.51880130000063,None,1.5509259259949126,2.098616300005233,114.73193460000039,None,ScrollUp,정답입니다,114.73193460000039,None,114.73193460000039,None,114.73193460000039,None,114.73193460000039,None,116.63783229999535,None,116.63783229999535,117.15175920000183,,,,,,,,,,,,,,,,,,,,,,,,,,,,,,,,,,,,,,,,,,,,,,,,,226,2022-05-26_10h49.08.127,FishGame,2022.1.1,60.07922046182844,
,2,넌 슬기로워,2,Green,A,6.166666666666667,4.1,ScrollDown,ScrollUp,Green.png,practice,,,,,,,0,0,0,0,,,,,0,0,0,0,0,1,1,1,,,,,,,,,,,,,,,,,,,,,,,,,,,,,,,,,,,,,,,,,,,,,,,,,,,,1.2577160596847534,1.1025970000046073,117.79978519999713,None,ScrollDown,정답입니다,117.79978519999713,None,117.79978519999713,None,117.79978519999713,None,117.79978519999713,None,118.76192239999364,None,118.76192239999364,119.26850439999544,,,,,,,,,,,,,,,,,,,,,,,,,,,,,,,,,,,,,,,,,,,,,,,,,226,2022-05-26_10h49.08.127,FishGame,2022.1.1,60.07922046182844,
,3,나를 보내줘,6,Green,A,0,0,ScrollUp,ScrollDown,Green.png,practice,,,,,,,0,0,0,0,,,,,0,0,0,0,0,2,2,2,,,,,,,,,,,,,,,,,,,,,,,,,,,,,,,,,,,,,,,,,,,,,,,,,,,,1.805555562178294,1.3322505999967689,119.92188739999256,None,ScrollUp,정답입니다,119.92188739999256,None,119.92188739999256,None,119.92188739999256,None,119.92188739999256,None,121.1250197999907,None,121.1250197999907,121.63436799999909,,,,,,,,,,,,,,,,,,,,,,,,,,,,,,,,,,,,,,,,,,,,,,,,,226,2022-05-26_10h49.08.127,FishGame,2022.1.1,60.07922046182844,
,4,나를 데려가줘,6,Orange,B,0,0,ScrollDown,ScrollUp,Orange.png,practice,,,,,,,0,0,0,0,,,,,0,0,0,0,0,3,3,3,,,,,,,,,,,,,,,,,,,,,,,,,,,,,,,,,,,,,,,,,,,,,,,,,,,,1.1574074029922485,1.0912470999901416,122.2946007999999,None,ScrollDown,정답입니다,122.2946007999999,None,122.2946007999999,None,122.2946007999999,None,122.2946007999999,None,123.24585269999807,None,123.24585269999807,123.75079109999933,,,,,,,,,,,,,,,,,,,,,,,,,,,,,,,,,,,,,,,,,,,,,,,,,226,2022-05-26_10h49.08.127,FishGame,2022.1.1,60.07922046182844,
,1,넌 교활해,5,Orange,B,2.333333333333333,2.133333333333333,ScrollUp,ScrollDown,Orange.png,practice,,,,,,,0,0,0,0,,,,,0,0,0,0,,,,,,,,,,,,,,,,,,,,,,,,,,,,,,,,,,,,,,,,,,,,,,,,,,,,,,,,,,,,,,,,,,,,,,,,,,n,2.440433000010671,124.2507656999951,None,124.2507656999951,None,,,,,,,,,,,,,,,,,,,,,,,,,,,,,,,,,,,,,,,,,,,226,2022-05-26_10h49.08.127,FishGame,2022.1.1,60.07922046182844,
,1,넌 따뜻해,1,Orange,B,6.083333333333333,5.6,ScrollUp,ScrollDown,Orange.png,1,Positive,Incongruent,,,,,0,0,0,0,,,,,,,,,,,,,0,0,0,0,,,,,,,,,,,,,,,,,,,,,,,,,,,,,,,,,,,,,,,,129.00026079999225,130.49999189999653,130.5333907999884,131.48332839999057,131.53320409999287,132.48307119999663,132.48307119999663,None,,,,,,,,,,,,,,,,,,,,,,,,,0.09907407,-0.121296294,1,0,0,0.31367603001126554,None,126.71715589999803,None,1.5339506162951388,1.3559458999952767,133.70204730000114,None,NoResponse,무응답입니다,133.70204730000114,None,133.70204730000114,None,133.70204730000114,None,133.70204730000114,None,134.87069429999974,None,134.87069429999974,135.38261819999025,,,,,,,,,,,,,,,,226,2022-05-26_10h49.08.127,FishGame,2022.1.1,60.07922046182844,
,2,넌 기품있어,2,Orange,B,5.791666666666668,4.5,ScrollUp,ScrollDown,Orange.png,1,Positive,Incongruent,,,,,0,0,0,0,,,,,,,,,,,,,0,1,1,1,,,,,,,,,,,,,,,,,,,,,,,,,,,,,,,,,,,,,,,,,,,,,,,,,,,,,,,,,,,,,,,,,,,,,,,,,,,,,,,,,1.6080246890584626,1.0195016999932704,136.03552669999772,None,ScrollUp,정답입니다,136.03552669999772,None,136.03552669999772,None,136.03552669999772,None,136.03552669999772,None,136.91576910000003,None,136.91576910000003,137.41569589999563,,,,,,,,,,,,,,,,226,2022-05-26_10h49.08.127,FishGame,2022.1.1,60.07922046182844,
,3,나를 보내줘,6,Green,A,0,0,ScrollUp,ScrollDown,Green.png,1,NonTarget,NonTarget,,,,,0,0,0,0,,,,,,,,,,,,,0,2,2,2,,,,,,,,,,,,,,,,,,,,,,,,,,,,,,,,,,,,,,,,,,,,,,,,,,,,,,,,,,,,,,,,,,,,,,,,,,,,,,,,,1.8163580348094304,1.4098643000033917,138.08052529999986,None,ScrollUp,정답입니다,138.08052529999986,None,138.08052529999986,None,138.08052529999986,None,138.08052529999986,None,139.35139179999533,None,139.35139179999533,139.8653334999981,,,,,,,,,,,,,,,,226,2022-05-26_10h49.08.127,FishGame,2022.1.1,60.07922046182844,
,4,넌 수동적이야,4,Green,A,2.833333333333333,2.933333333333333,ScrollDown,ScrollUp,Green.png,1,Negative,Incongruent,,,,,0,0,0,0,,,,,,,,,,,,,0,3,3,3,,,,,,,,,,,,,,,,,,,,,,,,,,,,,,,,,,,,,,,,,,,,,,,,,,,,,,,,,,,,,,,,,,,,,,,,,,,,,,,,,1.0493827263514202,1.134204400004819,140.53293049999047,None,ScrollDown,정답입니다,140.53293049999047,None,140.53293049999047,None,140.53293049999047,None,140.53293049999047,None,141.52275920000102,None,141.52275920000102,142.03175080000074,,,,,,,,,,,,,,,,226,2022-05-26_10h49.08.127,FishGame,2022.1.1,60.07922046182844,
,5,넌 사심이 없어,3,Orange,B,4.916666666666666,4.333333333333333,ScrollUp,ScrollDown,Orange.png,1,Neutral,Neutral,,,,,0,0,0,0,,,,,,,,,,,,,0,4,4,4,,,,,,,,,,,,,,,,,,,,,,,,,,,,,,,,,,,,,,,,,,,,,,,,,,,,,,,,,,,,,,,,,,,,,,,,,,,,,,,,,1.723765422900518,1.0250644000043394,142.69563679999555,None,ScrollUp,정답입니다,142.69563679999555,None,142.69563679999555,None,142.69563679999555,None,142.69563679999555,None,143.58329999999842,None,143.58329999999842,144.09833769999386,,,,,,,,,,,,,,,,226,2022-05-26_10h49.08.127,FishGame,2022.1.1,60.07922046182844,
,6,넌 헤퍼,5,Green,A,2.458333333333334,2.233333333333333,ScrollDown,ScrollUp,Green.png,1,Negative,Incongruent,,,,,0,0,0,0,,,,,,,,,,,,,0,5,5,5,,,,,,,,,,,,,,,,,,,,,,,,,,,,,,,,,,,,,,,,,,,,,,,,,,,,,,,,,,,,,,,,,,,,,,,,,,,,,,,,,1,1.162801300000865,144.7526011000009,None,ScrollDown,정답입니다,144.7526011000009,None,144.7526011000009,None,144.7526011000009,None,144.7526011000009,None,145.7866517999937,None,145.7866517999937,146.2979542999965,,,,,,,,,,,,,,,,226,2022-05-26_10h49.08.127,FishGame,2022.1.1,60.07922046182844,
,7,넌 말쑥해,3,Green,A,4.833333333333334,4.333333333333333,ScrollDown,ScrollUp,Green.png,1,Neutral,Neutral,,,,,0,0,0,0,,,,,,,,,,,,,0,6,6,6,,,,,,,,,,,,,,,,,,,,,,,,,,,,,,,,,,,,,,,,,,,,,,,,,,,,,,,,,,,,,,,,,,,,,,,,,,,,,,,,,1,1.0183143000031123,146.9553232999897,None,ScrollDown,정답입니다,146.9553232999897,None,146.9553232999897,None,146.9553232999897,None,146.9553232999897,None,147.84080189999077,None,147.84080189999077,148.3476651999954,,,,,,,,,,,,,,,,226,2022-05-26_10h49.08.127,FishGame,2022.1.1,60.07922046182844,
,8,넌 투덜거려,5,Orange,B,2.541666666666667,2.266666666666667,ScrollUp,ScrollDown,Orange.png,1,Negative,Congruent,,,,,0,0,0,0,,,,,,,,,,,,,0,7,7,7,,,,,,,,,,,,,,,,,,,,,,,,,,,,,,,,,,,,,,,,,,,,,,,,,,,,,,,,,,,,,,,,,,,,,,,,,,,,,,,,,2,1.1931526999978814,149.02021180000156,None,ScrollUp,정답입니다,149.02021180000156,None,149.02021180000156,None,149.02021180000156,None,149.02021180000156,None,150.06431259999226,None,150.06431259999226,150.56397899999865,,,,,,,,,,,,,,,,226,2022-05-26_10h49.08.127,FishGame,2022.1.1,60.07922046182844,
,9,넌 적극적이야,1,Green,A,5.708333333333333,5.533333333333333,ScrollDown,ScrollUp,Green.png,1,Positive,Congruent,,,,,0,0,0,0,,,,,,,,,,,,,0,8,8,8,,,,,,,,,,,,,,,,,,,,,,,,,,,,,,,,,,,,,,,,,,,,,,,,,,,,,,,,,,,,,,,,,,,,,,,,,,,,,,,,,1,1.1848606999992626,151.22237160000077,None,ScrollDown,정답입니다,151.22237160000077,None,151.22237160000077,None,151.22237160000077,None,151.22237160000077,None,152.2719677999994,None,152.2719677999994,152.7803375999938,,,,,,,,,,,,,,,,226,2022-05-26_10h49.08.127,FishGame,2022.1.1,60.07922046182844,
,10,넌 재미없어,4,Orange,B,2.625,2.966666666666667,ScrollUp,ScrollDown,Orange.png,1,Negative,Congruent,,,,,0,0,0,0,,,,,,,,,,,,,0,9,9,9,,,,,,,,,,,,,,,,,,,,,,,,,,,,,,,,,,,,,,,,,,,,,,,,,,,,,,,,,,,,,,,,,,,,,,,,,,,,,,,,,1.9814815024534862,1.162110000004759,153.4454654000001,None,ScrollUp,정답입니다,153.4454654000001,None,153.4454654000001,None,153.4454654000001,None,153.4454654000001,None,154.46413569999277,None,154.46413569999277,154.9634389999992,,,,,,,,,,,,,,,,226,2022-05-26_10h49.08.127,FishGame,2022.1.1,60.07922046182844,
,11,넌 명석해,2,Green,A,5.875,4.033333333333333,ScrollDown,ScrollUp,Green.png,1,Positive,Congruent,,,,,0,0,0,0,,,,,,,,,,,,,0,10,10,10,,,,,,,,,,,,,,,,,,,,,,,,,,,,,,,,,,,,,,,,,,,,,,,,,,,,,,,,,,,,,,,,,,,,,,,,,,,,,,,,,1,0.9601777000061702,155.62198119999084,None,ScrollDown,정답입니다,155.62198119999084,None,155.62198119999084,None,155.62198119999084,None,155.62198119999084,None,156.44656810000015,None,156.44656810000015,156.94655860000057,,,,,,,,,,,,,,,,226,2022-05-26_10h49.08.127,FishGame,2022.1.1,60.07922046182844,
,12,나를 데려가줘,6,Orange,B,0,0,ScrollDown,ScrollUp,Orange.png,1,NonTarget,NonTarget,,,,,0,0,0,0,,,,,,,,,,,,,0,11,11,11,,,,,,,,,,,,,,,,,,,,,,,,,,,,,,,,,,,,,,,,,,,,,,,,,,,,,,,,,,,,,,,,,,,,,,,,,,,,,,,,,1,1.3151518999948166,157.62263820000226,None,ScrollDown,정답입니다,157.62263820000226,None,157.62263820000226,None,157.62263820000226,None,157.62263820000226,None,158.7863956999936,None,158.7863956999936,159.29628019999654,,,,,,,,,,,,,,,,226,2022-05-26_10h49.08.127,FishGame,2022.1.1,60.07922046182844,
,13,넌 소심해,4,Green,A,3,3.1,ScrollDown,ScrollUp,Green.png,1,Negative,Incongruent,,,,,0,0,0,0,,,,,,,,,,,,,0,12,12,12,,,,,,,,,,,,,,,,,,,,,,,,,,,,,,,,,,,,,,,,,,,,,,,,,,,,,,,,,,,,,,,,,,,,,,,,,,,,,,,,,1.0817901194095612,1.0855587999976706,159.95342299999902,None,ScrollDown,정답입니다,159.95342299999902,None,159.95342299999902,None,159.95342299999902,None,159.95342299999902,None,160.90516619999835,None,160.90516619999835,161.4127232000028,,,,,,,,,,,,,,,,226,2022-05-26_10h49.08.127,FishGame,2022.1.1,60.07922046182844,
,14,넌 합리적이야,2,Green,A,5.583333333333333,4.733333333333333,ScrollDown,ScrollUp,Green.png,1,Positive,Congruent,,,,,0,0,0,0,,,,,,,,,,,,,0,13,13,13,,,,,,,,,,,,,,,,,,,,,,,,,,,,,,,,,,,,,,,,,,,,,,,,,,,,,,,,,,,,,,,,,,,,,,,,,,,,,,,,,1,0.985939000005601,162.07282439999108,None,ScrollDown,정답입니다,162.07282439999108,None,162.07282439999108,None,162.07282439999108,None,162.07282439999108,None,162.92943299999752,None,162.92943299999752,163.42909079999663,,,,,,,,,,,,,,,,226,2022-05-26_10h49.08.127,FishGame,2022.1.1,60.07922046182844,
,15,넌 무자비해,5,Orange,B,2.333333333333333,2.1,ScrollUp,ScrollDown,Orange.png,1,Negative,Congruent,,,,,0,0,0,0,,,,,,,,,,,,,0,14,14,14,,,,,,,,,,,,,,,,,,,,,,,,,,,,,,,,,,,,,,,,,,,,,,,,,,,,,,,,,,,,,,,,,,,,,,,,,,,,,,,,,1.9938271641731262,1.0402450000110548,164.0951500999945,None,ScrollUp,정답입니다,164.0951500999945,None,164.0951500999945,None,164.0951500999945,None,164.0951500999945,None,164.9954285999993,None,164.9954285999993,165.4954071999964,,,,,,,,,,,,,,,,226,2022-05-26_10h49.08.127,FishGame,2022.1.1,60.07922046182844,
,16,나를 보내줘,6,Green,A,0,0,ScrollUp,ScrollDown,Green.png,1,NonTarget,NonTarget,,,,,0,0,0,0,,,,,,,,,,,,,0,15,15,15,,,,,,,,,,,,,,,,,,,,,,,,,,,,,,,,,,,,,,,,,,,,,,,,,,,,,,,,,,,,,,,,,,,,,,,,,,,,,,,,,1.8132716069618862,1.0939973000058671,166.14709319999383,None,ScrollUp,정답입니다,166.14709319999383,None,166.14709319999383,None,166.14709319999383,None,166.14709319999383,None,167.11184969999886,None,167.11184969999886,167.6118456999975,,,,,,,,,,,,,,,,226,2022-05-26_10h49.08.127,FishGame,2022.1.1,60.07922046182844,
,17,넌 현실적이야,3,Orange,B,4.608695652173913,4.766666666666667,ScrollUp,ScrollDown,Orange.png,1,Neutral,Neutral,,,,,0,0,0,0,,,,,,,,,,,,,0,16,16,16,,,,,,,,,,,,,,,,,,,,,,,,,,,,,,,,,,,,,,,,,,,,,,,,,,,,,,,,,,,,,,,,,,,,,,,,,,,,,,,,,1.7916666616996129,1.251958699998795,168.27704760000051,None,ScrollUp,정답입니다,168.27704760000051,None,168.27704760000051,None,168.27704760000051,None,168.27704760000051,None,169.3876295999944,None,169.3876295999944,169.89490709999518,,,,,,,,,,,,,,,,226,2022-05-26_10h49.08.127,FishGame,2022.1.1,60.07922046182844,
,18,넌 의리있어,1,Orange,B,5.833333333333334,5.633333333333334,ScrollUp,ScrollDown,Orange.png,1,Positive,Incongruent,,,,,0,0,0,0,,,,,,,,,,,,,0,17,17,17,,,,,,,,,,,,,,,,,,,,,,,,,,,,,,,,,,,,,,,,,,,,,,,,,,,,,,,,,,,,,,,,,,,,,,,,,,,,,,,,,1.723765422900518,1.650914699988789,170.55719629999658,None,ScrollUp,정답입니다,170.55719629999658,None,170.55719629999658,None,170.55719629999658,None,170.55719629999658,None,172.07035449999967,None,172.07035449999967,172.57788869999058,,,,,,,,,,,,,,,,226,2022-05-26_10h49.08.127,FishGame,2022.1.1,60.07922046182844,
,19,넌 신경과민이야,5,Green,A,2.541666666666667,2.166666666666667,ScrollDown,ScrollUp,Green.png,1,Negative,Incongruent,,,,,0,0,0,0,,,,,,,,,,,,,0,18,18,18,,,,,,,,,,,,,,,,,,,,,,,,,,,,,,,,,,,,,,,,,,,,,,,,,,,,,,,,,,,,,,,,,,,,,,,,,,,,,,,,,1.0123456915219624,0.9814858000027016,173.2449690999929,None,ScrollDown,정답입니다,173.2449690999929,None,173.2449690999929,None,173.2449690999929,None,173.2449690999929,None,174.08383409999078,None,174.08383409999078,174.59428799999296,,,,,,,,,,,,,,,,226,2022-05-26_10h49.08.127,FishGame,2022.1.1,60.07922046182844,
,20,넌 편안해,1,Green,A,5.916666666666666,5.866666666666666,ScrollDown,ScrollUp,Green.png,1,Positive,Congruent,,,,,0,0,0,0,,,,,,,,,,,,,0,19,19,19,,,,,,,,,,,,,,,,,,,,,,,,,,,,,,,,,,,,,,,,,,,,,,,,,,,,,,,,,,,,,,,,,,,,,,,,,,,,,,,,,1.09413580596447,0.9551633999944897,175.25284549999924,None,ScrollDown,정답입니다,175.25284549999924,None,175.25284549999924,None,175.25284549999924,None,175.25284549999924,None,176.0773976999917,None,176.0773976999917,176.57744809999713,,,,,,,,,,,,,,,,226,2022-05-26_10h49.08.127,FishGame,2022.1.1,60.07922046182844,
,21,넌 품위있어,2,Orange,B,5.291666666666666,4.466666666666667,ScrollUp,ScrollDown,Orange.png,1,Positive,Incongruent,,,,,0,0,0,0,,,,,,,,,,,,,0,20,20,20,,,,,,,,,,,,,,,,,,,,,,,,,,,,,,,,,,,,,,,,,,,,,,,,,,,,,,,,,,,,,,,,,,,,,,,,,,,,,,,,,1.5108024687506258,1.0780597999983002,177.23973750000005,None,NoResponse,무응답입니다,177.23973750000005,None,177.23973750000005,None,177.23973750000005,None,177.23973750000005,None,178.18139579999843,None,178.18139579999843,178.69369849999202,,,,,,,,,,,,,,,,226,2022-05-26_10h49.08.127,FishGame,2022.1.1,60.07922046182844,
,22,넌 빈틈없어,3,Green,A,4.833333333333333,3.966666666666667,ScrollDown,ScrollUp,Green.png,1,Neutral,Neutral,,,,,0,0,0,0,,,,,,,,,,,,,0,21,21,21,,,,,,,,,,,,,,,,,,,,,,,,,,,,,,,,,,,,,,,,,,,,,,,,,,,,,,,,,,,,,,,,,,,,,,,,,,,,,,,,,1,0.9794691999995848,179.35892459999013,None,ScrollDown,정답입니다,179.35892459999013,None,179.35892459999013,None,179.35892459999013,None,179.35892459999013,None,180.19976089999545,None,180.19976089999545,180.71016509999754,,,,,,,,,,,,,,,,226,2022-05-26_10h49.08.127,FishGame,2022.1.1,60.07922046182844,
,23,넌 상상력없어,4,Orange,B,2.833333333333333,3.133333333333333,ScrollUp,ScrollDown,Orange.png,1,Negative,Congruent,,,,,0,0,0,0,,,,,,,,,,,,,0,22,22,22,,,,,,,,,,,,,,,,,,,,,,,,,,,,,,,,,,,,,,,,,,,,,,,,,,,,,,,,,,,,,,,,,,,,,,,,,,,,,,,,,1.7391975373029709,0.9258880999987014,181.3748959999939,None,ScrollUp,정답입니다,181.3748959999939,None,181.3748959999939,None,181.3748959999939,None,181.3748959999939,None,182.162880399992,None,182.162880399992,182.6766639999987,,,,,,,,,,,,,,,,226,2022-05-26_10h49.08.127,FishGame,2022.1.1,60.07922046182844,
,24,넌 지혜로워,2,Orange,B,6.333333333333334,4.633333333333334,ScrollUp,ScrollDown,Orange.png,1,Positive,Incongruent,,,,,0,0,0,0,,,,,,,,,,,,,0,23,23,23,,,,,,,,,,,,,,,,,,,,,,,,,,,,,,,,,,,,,,,,,,,,,,,,,,,,,,,,,,,,,,,,,,,,,,,,,,,,,,,,,1.7500000099341075,1.0143997999985004,183.345173099995,None,ScrollUp,정답입니다,183.345173099995,None,183.345173099995,None,183.345173099995,None,183.345173099995,None,184.21625450000283,None,184.21625450000283,184.7263496999949,,,,,,,,,,,,,,,,226,2022-05-26_10h49.08.127,FishGame,2022.1.1,60.07922046182844,
,25,넌 시끄러워,4,Green,A,2.833333333333333,3.033333333333333,ScrollDown,ScrollUp,Green.png,1,Negative,Incongruent,,,,,0,0,0,0,,,,,,,,,,,,,0,24,24,24,,,,,,,,,,,,,,,,,,,,,,,,,,,,,,,,,,,,,,,,,,,,,,,,,,,,,,,,,,,,,,,,,,,,,,,,,,,,,,,,,1.0740740497907002,0.9876521000114735,185.38873809999495,None,ScrollDown,정답입니다,185.38873809999495,None,185.38873809999495,None,185.38873809999495,None,185.38873809999495,None,186.24300029998994,None,186.24300029998994,186.74271919998864,,,,,,,,,,,,,,,,226,2022-05-26_10h49.08.127,FishGame,2022.1.1,60.07922046182844,
,26,넌 만사태평이야,3,Orange,B,4,4.333333333333333,ScrollUp,ScrollDown,Orange.png,1,Neutral,Neutral,,,,,0,0,0,0,,,,,,,,,,,,,0,25,25,25,,,,,,,,,,,,,,,,,,,,,,,,,,,,,,,,,,,,,,,,,,,,,,,,,,,,,,,,,,,,,,,,,,,,,,,,,,,,,,,,,1.9567901293436687,1.0168435000086902,187.41211309999926,None,ScrollUp,정답입니다,187.41211309999926,None,187.41211309999926,None,187.41211309999926,None,187.41211309999926,None,188.2820461999945,None,188.2820461999945,188.7926041000028,,,,,,,,,,,,,,,,226,2022-05-26_10h49.08.127,FishGame,2022.1.1,60.07922046182844,
,27,넌 붙임성있어,1,Green,A,5.708333333333333,5.633333333333334,ScrollDown,ScrollUp,Green.png,1,Positive,Congruent,,,,,0,0,0,0,,,,,,,,,,,,,0,26,26,26,,,,,,,,,,,,,,,,,,,,,,,,,,,,,,,,,,,,,,,,,,,,,,,,,,,,,,,,,,,,,,,,,,,,,,,,,,,,,,,,,1,0.9281970000010915,189.46497409998847,None,ScrollDown,정답입니다,189.46497409998847,None,189.46497409998847,None,189.46497409998847,None,189.46497409998847,None,190.24333159999514,None,190.24333159999514,190.75890889999573,,,,,,,,,,,,,,,,226,2022-05-26_10h49.08.127,FishGame,2022.1.1,60.07922046182844,
,28,넌 영리해,2,Green,A,6,4.033333333333333,ScrollDown,ScrollUp,Green.png,1,Positive,Congruent,,,,,0,0,0,0,,,,,,,,,,,,,0,27,27,27,,,,,,,,,,,,,,,,,,,,,,,,,,,,,,,,,,,,,,,,,,,,,,,,,,,,,,,,,,,,,,,,,,,,,,,,,,,,,,,,,1,0.8889969000010751,191.4140400999895,None,ScrollDown,정답입니다,191.4140400999895,None,191.4140400999895,None,191.4140400999895,None,191.4140400999895,None,192.16891439999745,None,192.16891439999745,192.6752753999899,,,,,,,,,,,,,,,,226,2022-05-26_10h49.08.127,FishGame,2022.1.1,60.07922046182844,
,29,넌 열심이야,1,Orange,B,6.041666666666667,5.833333333333333,ScrollUp,ScrollDown,Orange.png,1,Positive,Incongruent,,,,,0,0,0,0,,,,,,,,,,,,,0,28,28,28,,,,,,,,,,,,,,,,,,,,,,,,,,,,,,,,,,,,,,,,,,,,,,,,,,,,,,,,,,,,,,,,,,,,,,,,,,,,,,,,,2,1.0173971000040183,193.33832379999512,None,ScrollUp,정답입니다,193.33832379999512,None,193.33832379999512,None,193.33832379999512,None,193.33832379999512,None,194.2148659999948,None,194.2148659999948,194.72513659999822,,,,,,,,,,,,,,,,226,2022-05-26_10h49.08.127,FishGame,2022.1.1,60.07922046182844,
,30,넌 인기없어,4,Orange,B,3,3.3,ScrollUp,ScrollDown,Orange.png,1,Negative,Congruent,,,,,0,0,0,0,,,,,,,,,,,,,0,29,29,29,,,,,,,,,,,,,,,,,,,,,,,,,,,,,,,,,,,,,,,,,,,,,,,,,,,,,,,,,,,,,,,,,,,,,,,,,,,,,,,,,1.663580241302649,0.9179179999919143,195.38811439998972,None,ScrollUp,정답입니다,195.38811439998972,None,195.38811439998972,None,195.38811439998972,None,195.38811439998972,None,196.16871630000242,None,196.16871630000242,196.6751254999981,,,,,,,,,,,,,,,,226,2022-05-26_10h49.08.127,FishGame,2022.1.1,60.07922046182844,
,31,넌 익살스러워,3,Green,A,4.708333333333334,4.833333333333333,ScrollDown,ScrollUp,Green.png,1,Neutral,Neutral,,,,,0,0,0,0,,,,,,,,,,,,,0,30,30,30,,,,,,,,,,,,,,,,,,,,,,,,,,,,,,,,,,,,,,,,,,,,,,,,,,,,,,,,,,,,,,,,,,,,,,,,,,,,,,,,,1,1.0180408000014722,197.3353655999963,None,ScrollDown,정답입니다,197.3353655999963,None,197.3353655999963,None,197.3353655999963,None,197.3353655999963,None,198.2157628999994,None,198.2157628999994,198.72465959998954,,,,,,,,,,,,,,,,226,2022-05-26_10h49.08.127,FishGame,2022.1.1,60.07922046182844,
,32,넌 이기적이야,5,Orange,B,2.291666666666667,2.333333333333333,ScrollUp,ScrollDown,Orange.png,1,Negative,Congruent,,,,,0,0,0,0,,,,,,,,,,,,,0,31,31,31,,,,,,,,,,,,,,,,,,,,,,,,,,,,,,,,,,,,,,,,,,,,,,,,,,,,,,,,,,,,,,,,,,,,,,,,,,,,,,,,,2,1.1275652000040282,199.38097889999335,None,ScrollUp,정답입니다,199.38097889999335,None,199.38097889999335,None,199.38097889999335,None,199.38097889999335,None,200.37451369999326,None,200.37451369999326,200.8742854000011,,,,,,,,,,,,,,,,226,2022-05-26_10h49.08.127,FishGame,2022.1.1,60.07922046182844,
,33,나를 데려가줘,6,Orange,B,0,0,ScrollDown,ScrollUp,Orange.png,1,NonTarget,NonTarget,,,,,0,0,0,0,,,,,,,,,,,,,0,32,32,32,,,,,,,,,,,,,,,,,,,,,,,,,,,,,,,,,,,,,,,,,,,,,,,,,,,,,,,,,,,,,,,,,,,,,,,,,,,,,,,,,1,1.464084199993522,201.53617159998976,None,ScrollDown,정답입니다,201.53617159998976,None,201.53617159998976,None,201.53617159998976,None,201.53617159998976,None,202.86368379999476,None,202.86368379999476,203.37401739999768,,,,,,,,,,,,,,,,226,2022-05-26_10h49.08.127,FishGame,2022.1.1,60.07922046182844,
,34,넌 기회주의자야,5,Green,A,2.875,2.133333333333333,ScrollDown,ScrollUp,Green.png,1,Negative,Incongruent,,,,,0,0,0,0,,,,,,,,,,,,,0,33,33,33,,,,,,,,,,,,,,,,,,,,,,,,,,,,,,,,,,,,,,,,,,,,,,,,,,,,,,,,,,,,,,,,,,,,,,,,,,,,,,,,,1,1.4947737000038614,204.03578890000063,None,ScrollDown,정답입니다,204.03578890000063,None,204.03578890000063,None,204.03578890000063,None,204.03578890000063,None,205.39037480000115,None,205.39037480000115,205.89030159999675,,,,,,,,,,,,,,,,226,2022-05-26_10h49.08.127,FishGame,2022.1.1,60.07922046182844,
,1,넌 미성숙해,4,Green,A,3,3.2,ScrollDown,ScrollUp,Green.png,2,Negative,Incongruent,,,,,0,0,0,0,,,,,,,,,,,,,,,,,0,0,0,0,,,,,,,,,,,,,,,,,,,,,,,,,,,,,,,,,,,,238.5197816,240.01923569999053,240.05261959999916,241.00256219999574,241.05251979999593,242.0024226999958,242.0024226999958,None,,,,,,,,,,,,,,,,,,,,,,,,,,,,,,,,,,1,1.8974597999913385,243.19796279999719,None,ScrollDown,정답입니다,243.19796279999719,None,243.19796279999719,None,243.19796279999719,None,243.19796279999719,None,244.911829699995,None,244.911829699995,245.41862359999504,206.39022689999547,None,206.39022689999547,None,0.18611111,-0.21388888,1,0,0,0.01595312998688314,None,236.4030386999948,None,,,226,2022-05-26_10h49.08.127,FishGame,2022.1.1,60.07922046182844,
,2,넌 반사회적이야,5,Orange,B,2.416666666666667,2.033333333333333,ScrollUp,ScrollDown,Orange.png,2,Negative,Congruent,,,,,0,0,0,0,,,,,,,,,,,,,,,,,0,1,1,1,,,,,,,,,,,,,,,,,,,,,,,,,,,,,,,,,,,,,,,,,,,,,,,,,,,,,,,,,,,,,,,,,,,,,,,,,,,,,2,1.1254394999996293,246.08207309999852,None,ScrollUp,정답입니다,246.08207309999852,None,246.08207309999852,None,246.08207309999852,None,246.08207309999852,None,247.06862530000217,None,247.06862530000217,247.56832229999418,,,,,,,,,,,,,,,,226,2022-05-26_10h49.08.127,FishGame,2022.1.1,60.07922046182844,
,3,넌 유능해,2,Green,A,6.208333333333333,4.433333333333334,ScrollDown,ScrollUp,Green.png,2,Positive,Congruent,,,,,0,0,0,0,,,,,,,,,,,,,,,,,0,2,2,2,,,,,,,,,,,,,,,,,,,,,,,,,,,,,,,,,,,,,,,,,,,,,,,,,,,,,,,,,,,,,,,,,,,,,,,,,,,,,1.0354938507080078,1.101386399997864,248.230705199996,None,ScrollDown,정답입니다,248.230705199996,None,248.230705199996,None,248.230705199996,None,248.230705199996,None,249.1922135999921,None,249.1922135999921,249.70139999999083,,,,,,,,,,,,,,,,226,2022-05-26_10h49.08.127,FishGame,2022.1.1,60.07922046182844,
,4,넌 능숙해,2,Orange,B,5.666666666666667,4.733333333333333,ScrollUp,ScrollDown,Orange.png,2,Positive,Incongruent,,,,,0,0,0,0,,,,,,,,,,,,,,,,,0,3,3,3,,,,,,,,,,,,,,,,,,,,,,,,,,,,,,,,,,,,,,,,,,,,,,,,,,,,,,,,,,,,,,,,,,,,,,,,,,,,,1.9367283980051677,0.9154902000009315,250.35748839999724,None,ScrollUp,정답입니다,250.35748839999724,None,250.35748839999724,None,250.35748839999724,None,250.35748839999724,None,251.141564199992,None,251.141564199992,251.65109679999296,,,,,,,,,,,,,,,,226,2022-05-26_10h49.08.127,FishGame,2022.1.1,60.07922046182844,
,5,넌 진부해,4,Orange,B,2.458333333333333,3.166666666666667,ScrollUp,ScrollDown,Orange.png,2,Negative,Congruent,,,,,0,0,0,0,,,,,,,,,,,,,,,,,0,4,4,4,,,,,,,,,,,,,,,,,,,,,,,,,,,,,,,,,,,,,,,,,,,,,,,,,,,,,,,,,,,,,,,,,,,,,,,,,,,,,2,1.1801215000014054,252.31436699999904,None,ScrollUp,정답입니다,252.31436699999904,None,252.31436699999904,None,252.31436699999904,None,252.31436699999904,None,253.35594409999612,None,253.35594409999612,253.86755679998896,,,,,,,,,,,,,,,,226,2022-05-26_10h49.08.127,FishGame,2022.1.1,60.07922046182844,
,6,나를 보내줘,6,Green,A,0,0,ScrollUp,ScrollDown,Green.png,2,NonTarget,NonTarget,,,,,0,0,0,0,,,,,,,,,,,,,,,,,0,5,5,5,,,,,,,,,,,,,,,,,,,,,,,,,,,,,,,,,,,,,,,,,,,,,,,,,,,,,,,,,,,,,,,,,,,,,,,,,,,,,2,1.2003077999979723,254.51979449999635,None,ScrollUp,정답입니다,254.51979449999635,None,254.51979449999635,None,254.51979449999635,None,254.51979449999635,None,255.59090399999695,None,255.59090399999695,256.1005969999969,,,,,,,,,,,,,,,,226,2022-05-26_10h49.08.127,FishGame,2022.1.1,60.07922046182844,
,7,넌 엄격해,3,Green,A,4.166666666666666,4.1,ScrollDown,ScrollUp,Green.png,2,Neutral,Neutral,,,,,0,0,0,0,,,,,,,,,,,,,,,,,0,6,6,6,,,,,,,,,,,,,,,,,,,,,,,,,,,,,,,,,,,,,,,,,,,,,,,,,,,,,,,,,,,,,,,,,,,,,,,,,,,,,1,1.010375900004874,256.76085829999647,None,ScrollDown,정답입니다,256.76085829999647,None,256.76085829999647,None,256.76085829999647,None,256.76085829999647,None,257.6333721999981,None,257.6333721999981,258.1336833999958,,,,,,,,,,,,,,,,226,2022-05-26_10h49.08.127,FishGame,2022.1.1,60.07922046182844,
,8,나를 보내줘,6,Green,A,0,0,ScrollUp,ScrollDown,Green.png,2,NonTarget,NonTarget,,,,,0,0,0,0,,,,,,,,,,,,,,,,,0,7,7,7,,,,,,,,,,,,,,,,,,,,,,,,,,,,,,,,,,,,,,,,,,,,,,,,,,,,,,,,,,,,,,,,,,,,,,,,,,,,,2,1.2582574999978533,258.78421349999553,None,ScrollUp,정답입니다,258.78421349999553,None,258.78421349999553,None,258.78421349999553,None,258.78421349999553,None,259.91685309998866,None,259.91685309998866,260.41670459999295,,,,,,,,,,,,,,,,226,2022-05-26_10h49.08.127,FishGame,2022.1.1,60.07922046182844,
,9,넌 대담해,3,Orange,B,4.875,4.866666666666666,ScrollUp,ScrollDown,Orange.png,2,Neutral,Neutral,,,,,0,0,0,0,,,,,,,,,,,,,,,,,0,8,8,8,,,,,,,,,,,,,,,,,,,,,,,,,,,,,,,,,,,,,,,,,,,,,,,,,,,,,,,,,,,,,,,,,,,,,,,,,,,,,2,1.1335442999989027,261.08076070000243,None,ScrollUp,정답입니다,261.08076070000243,None,261.08076070000243,None,261.08076070000243,None,261.08076070000243,None,262.07270959999005,None,262.07270959999005,262.5829967999889,,,,,,,,,,,,,,,,226,2022-05-26_10h49.08.127,FishGame,2022.1.1,60.07922046182844,
,10,넌 꾸준해,1,Green,A,5.916666666666668,5.8,ScrollDown,ScrollUp,Green.png,2,Positive,Congruent,,,,,0,0,0,0,,,,,,,,,,,,,,,,,0,9,9,9,,,,,,,,,,,,,,,,,,,,,,,,,,,,,,,,,,,,,,,,,,,,,,,,,,,,,,,,,,,,,,,,,,,,,,,,,,,,,1,1.1581609999993816,263.2454130999977,None,ScrollDown,정답입니다,263.2454130999977,None,263.2454130999977,None,263.2454130999977,None,263.2454130999977,None,264.2663662999985,None,264.2663662999985,264.76610799999617,,,,,,,,,,,,,,,,226,2022-05-26_10h49.08.127,FishGame,2022.1.1,60.07922046182844,
,11,나를 데려가줘,6,Orange,B,0,0,ScrollDown,ScrollUp,Orange.png,2,NonTarget,NonTarget,,,,,0,0,0,0,,,,,,,,,,,,,,,,,0,10,10,10,,,,,,,,,,,,,,,,,,,,,,,,,,,,,,,,,,,,,,,,,,,,,,,,,,,,,,,,,,,,,,,,,,,,,,,,,,,,,1,1.1926524000009522,265.42461139999796,None,ScrollDown,정답입니다,265.42461139999796,None,265.42461139999796,None,265.42461139999796,None,265.42461139999796,None,266.48277000000235,None,266.48277000000235,266.982534099996,,,,,,,,,,,,,,,,226,2022-05-26_10h49.08.127,FishGame,2022.1.1,60.07922046182844,
,12,넌 독선적이야,5,Green,A,2.458333333333333,1.933333333333333,ScrollDown,ScrollUp,Green.png,2,Negative,Incongruent,,,,,0,0,0,0,,,,,,,,,,,,,,,,,0,11,11,11,,,,,,,,,,,,,,,,,,,,,,,,,,,,,,,,,,,,,,,,,,,,,,,,,,,,,,,,,,,,,,,,,,,,,,,,,,,,,1,1.1937574000039604,267.6487574999919,None,ScrollDown,정답입니다,267.6487574999919,None,267.6487574999919,None,267.6487574999919,None,267.6487574999919,None,268.69887449999806,None,268.69887449999806,269.1988524999906,,,,,,,,,,,,,,,,226,2022-05-26_10h49.08.127,FishGame,2022.1.1,60.07922046182844,
,13,나를 보내줘,6,Green,A,0,0,ScrollUp,ScrollDown,Green.png,2,NonTarget,NonTarget,,,,,0,0,0,0,,,,,,,,,,,,,,,,,0,12,12,12,,,,,,,,,,,,,,,,,,,,,,,,,,,,,,,,,,,,,,,,,,,,,,,,,,,,,,,,,,,,,,,,,,,,,,,,,,,,,2,1.1958633000031114,269.85097329999553,None,ScrollUp,정답입니다,269.85097329999553,None,269.85097329999553,None,269.85097329999553,None,269.85097329999553,None,270.92064769999706,None,270.92064769999706,271.4320081999904,,,,,,,,,,,,,,,,226,2022-05-26_10h49.08.127,FishGame,2022.1.1,60.07922046182844,
,14,넌 책임감있어,1,Orange,B,6.347826086956522,6,ScrollUp,ScrollDown,Orange.png,2,Positive,Incongruent,,,,,0,0,0,0,,,,,,,,,,,,,,,,,0,13,13,13,,,,,,,,,,,,,,,,,,,,,,,,,,,,,,,,,,,,,,,,,,,,,,,,,,,,,,,,,,,,,,,,,,,,,,,,,,,,,2,1.3998246000119252,272.0972846999939,None,ScrollUp,정답입니다,272.0972846999939,None,272.0972846999939,None,272.0972846999939,None,272.0972846999939,None,273.3548655999912,None,273.3548655999912,273.8648952999938,,,,,,,,,,,,,,,,226,2022-05-26_10h49.08.127,FishGame,2022.1.1,60.07922046182844,
,15,넌 문학적이야,3,Green,A,4.708333333333334,4.333333333333333,ScrollDown,ScrollUp,Green.png,2,Neutral,Neutral,,,,,0,0,0,0,,,,,,,,,,,,,,,,,0,14,14,14,,,,,,,,,,,,,,,,,,,,,,,,,,,,,,,,,,,,,,,,,,,,,,,,,,,,,,,,,,,,,,,,,,,,,,,,,,,,,1,1.0607100000052014,274.52341870000237,None,ScrollDown,정답입니다,274.52341870000237,None,274.52341870000237,None,274.52341870000237,None,274.52341870000237,None,275.44838889999664,None,275.44838889999664,275.9480516999902,,,,,,,,,,,,,,,,226,2022-05-26_10h49.08.127,FishGame,2022.1.1,60.07922046182844,
,16,넌 재미있어,1,Orange,B,5.875,5.7,ScrollUp,ScrollDown,Orange.png,2,Positive,Incongruent,,,,,0,0,0,0,,,,,,,,,,,,,,,,,0,15,15,15,,,,,,,,,,,,,,,,,,,,,,,,,,,,,,,,,,,,,,,,,,,,,,,,,,,,,,,,,,,,,,,,,,,,,,,,,,,,,1.9212963084379833,1.1850842999992892,276.60552800000005,None,ScrollUp,정답입니다,276.60552800000005,None,276.60552800000005,None,276.60552800000005,None,276.60552800000005,None,277.6551236999949,None,277.6551236999949,278.1644959999976,,,,,,,,,,,,,,,,226,2022-05-26_10h49.08.127,FishGame,2022.1.1,60.07922046182844,
,17,나를 데려가줘,6,Orange,B,0,0,ScrollDown,ScrollUp,Orange.png,2,NonTarget,NonTarget,,,,,0,0,0,0,,,,,,,,,,,,,,,,,0,16,16,16,,,,,,,,,,,,,,,,,,,,,,,,,,,,,,,,,,,,,,,,,,,,,,,,,,,,,,,,,,,,,,,,,,,,,,,,,,,,,1.0370370149612427,1.0269686999963596,278.8245115999889,None,ScrollDown,정답입니다,278.8245115999889,None,278.8245115999889,None,278.8245115999889,None,278.8245115999889,None,279.7136898999888,None,279.7136898999888,280.2141574999987,,,,,,,,,,,,,,,,226,2022-05-26_10h49.08.127,FishGame,2022.1.1,60.07922046182844,
,18,넌 협력적이야,1,Green,A,5.625,5.633333333333334,ScrollDown,ScrollUp,Green.png,2,Positive,Congruent,,,,,0,0,0,0,,,,,,,,,,,,,,,,,0,17,17,17,,,,,,,,,,,,,,,,,,,,,,,,,,,,,,,,,,,,,,,,,,,,,,,,,,,,,,,,,,,,,,,,,,,,,,,,,,,,,1.1095678955316544,1.0172974000015529,280.87078539999493,None,ScrollDown,정답입니다,280.87078539999493,None,280.87078539999493,None,280.87078539999493,None,280.87078539999493,None,281.7550779000012,None,281.7550779000012,282.2638866999914,,,,,,,,,,,,,,,,226,2022-05-26_10h49.08.127,FishGame,2022.1.1,60.07922046182844,
,19,넌 평범해,3,Orange,B,4.333333333333332,4.233333333333333,ScrollUp,ScrollDown,Orange.png,2,Neutral,Neutral,,,,,0,0,0,0,,,,,,,,,,,,,,,,,0,18,18,18,,,,,,,,,,,,,,,,,,,,,,,,,,,,,,,,,,,,,,,,,,,,,,,,,,,,,,,,,,,,,,,,,,,,,,,,,,,,,1.743827154239019,1.097600599998259,282.9255858999968,None,ScrollUp,정답입니다,282.9255858999968,None,282.9255858999968,None,282.9255858999968,None,282.9255858999968,None,283.8860486999911,None,283.8860486999911,284.39695769999526,,,,,,,,,,,,,,,,226,2022-05-26_10h49.08.127,FishGame,2022.1.1,60.07922046182844,
,20,넌 오만해,5,Green,A,2.333333333333333,2,ScrollDown,ScrollUp,Green.png,2,Negative,Incongruent,,,,,0,0,0,0,,,,,,,,,,,,,,,,,0,19,19,19,,,,,,,,,,,,,,,,,,,,,,,,,,,,,,,,,,,,,,,,,,,,,,,,,,,,,,,,,,,,,,,,,,,,,,,,,,,,,1.040123442808787,1.061842399998568,285.0510249999934,None,ScrollDown,정답입니다,285.0510249999934,None,285.0510249999934,None,285.0510249999934,None,285.0510249999934,None,285.9802869999985,None,285.9802869999985,286.48005079998984,,,,,,,,,,,,,,,,226,2022-05-26_10h49.08.127,FishGame,2022.1.1,60.07922046182844,
,21,넌 운이없어,4,Orange,B,3,3.466666666666667,ScrollUp,ScrollDown,Orange.png,2,Negative,Congruent,,,,,0,0,0,0,,,,,,,,,,,,,,,,,0,20,20,20,,,,,,,,,,,,,,,,,,,,,,,,,,,,,,,,,,,,,,,,,,,,,,,,,,,,,,,,,,,,,,,,,,,,,,,,,,,,,1.8225308656692505,0.9759787000075448,287.1414525,None,ScrollUp,정답입니다,287.1414525,None,287.1414525,None,287.1414525,None,287.1414525,None,287.9833140999981,None,287.9833140999981,288.49647050000203,,,,,,,,,,,,,,,,226,2022-05-26_10h49.08.127,FishGame,2022.1.1,60.07922046182844,
,22,넌 창조적이야,2,Orange,B,6.125,4.633333333333334,ScrollUp,ScrollDown,Orange.png,2,Positive,Incongruent,,,,,0,0,0,0,,,,,,,,,,,,,,,,,0,21,21,21,,,,,,,,,,,,,,,,,,,,,,,,,,,,,,,,,,,,,,,,,,,,,,,,,,,,,,,,,,,,,,,,,,,,,,,,,,,,,1.9444444676240284,0.9986729000083869,289.16277860000264,None,ScrollUp,정답입니다,289.16277860000264,None,289.16277860000264,None,289.16277860000264,None,289.16277860000264,None,290.01934499999334,None,290.01934499999334,290.52950099999725,,,,,,,,,,,,,,,,226,2022-05-26_10h49.08.127,FishGame,2022.1.1,60.07922046182844,
,23,나를 보내줘,6,Green,A,0,0,ScrollUp,ScrollDown,Green.png,2,NonTarget,NonTarget,,,,,0,0,0,0,,,,,,,,,,,,,,,,,0,22,22,22,,,,,,,,,,,,,,,,,,,,,,,,,,,,,,,,,,,,,,,,,,,,,,,,,,,,,,,,,,,,,,,,,,,,,,,,,,,,,1.799382706483205,1.0357457000063732,291.1799381000019,None,ScrollUp,정답입니다,291.1799381000019,None,291.1799381000019,None,291.1799381000019,None,291.1799381000019,None,292.0889133000019,None,292.0889133000019,292.5958949999913,,,,,,,,,,,,,,,,226,2022-05-26_10h49.08.127,FishGame,2022.1.1,60.07922046182844,
,24,넌 통찰력있어,2,Green,A,6.5,4.8,ScrollDown,ScrollUp,Green.png,2,Positive,Congruent,,,,,0,0,0,0,,,,,,,,,,,,,,,,,0,23,23,23,,,,,,,,,,,,,,,,,,,,,,,,,,,,,,,,,,,,,,,,,,,,,,,,,,,,,,,,,,,,,,,,,,,,,,,,,,,,,1.0154321193695068,0.9900823999923887,293.25710599999,None,ScrollDown,정답입니다,293.25710599999,None,293.25710599999,None,293.25710599999,None,293.25710599999,None,294.11231899999257,None,294.11231899999257,294.61234809999587,,,,,,,,,,,,,,,,226,2022-05-26_10h49.08.127,FishGame,2022.1.1,60.07922046182844,
,25,넌 경솔해,5,Orange,B,2.458333333333333,2.266666666666667,ScrollUp,ScrollDown,Orange.png,2,Negative,Congruent,,,,,0,0,0,0,,,,,,,,,,,,,,,,,0,24,24,24,,,,,,,,,,,,,,,,,,,,,,,,,,,,,,,,,,,,,,,,,,,,,,,,,,,,,,,,,,,,,,,,,,,,,,,,,,,,,1.8981481492519379,0.9777112000010675,295.2764989999996,None,ScrollUp,정답입니다,295.2764989999996,None,295.2764989999996,None,295.2764989999996,None,295.2764989999996,None,296.11223299999256,None,296.11223299999256,296.6121009999915,,,,,,,,,,,,,,,,226,2022-05-26_10h49.08.127,FishGame,2022.1.1,60.07922046182844,
,26,넌 초조해,4,Green,A,2.916666666666667,3.133333333333333,ScrollDown,ScrollUp,Green.png,2,Negative,Incongruent,,,,,0,0,0,0,,,,,,,,,,,,,,,,,0,25,25,25,,,,,,,,,,,,,,,,,,,,,,,,,,,,,,,,,,,,,,,,,,,,,,,,,,,,,,,,,,,,,,,,,,,,,,,,,,,,,1,1.1625510999874678,297.2696949999954,None,ScrollDown,정답입니다,297.2696949999954,None,297.2696949999954,None,297.2696949999954,None,297.2696949999954,None,298.3005669999984,None,298.3005669999984,298.8117889999994,,,,,,,,,,,,,,,,226,2022-05-26_10h49.08.127,FishGame,2022.1.1,60.07922046182844,
,27,넌 무관심해,4,Orange,B,2.833333333333333,2.9,ScrollUp,ScrollDown,Orange.png,2,Negative,Congruent,,,,,0,0,0,0,,,,,,,,,,,,,,,,,0,26,26,26,,,,,,,,,,,,,,,,,,,,,,,,,,,,,,,,,,,,,,,,,,,,,,,,,,,,,,,,,,,,,,,,,,,,,,,,,,,,,1.6929012313485146,1.044389200003934,299.475626200001,None,ScrollUp,정답입니다,299.475626200001,None,299.475626200001,None,299.475626200001,None,299.475626200001,None,300.3790638999926,None,300.3790638999926,300.8782638999983,,,,,,,,,,,,,,,,226,2022-05-26_10h49.08.127,FishGame,2022.1.1,60.07922046182844,
,28,넌 감성적이야,3,Orange,B,4.125,4.166666666666667,ScrollUp,ScrollDown,Orange.png,2,Neutral,Neutral,,,,,0,0,0,0,,,,,,,,,,,,,,,,,0,27,27,27,,,,,,,,,,,,,,,,,,,,,,,,,,,,,,,,,,,,,,,,,,,,,,,,,,,,,,,,,,,,,,,,,,,,,,,,,,,,,1.5972222226361432,1.374333799991291,301.53582999999344,None,ScrollUp,정답입니다,301.53582999999344,None,301.53582999999344,None,301.53582999999344,None,301.53582999999344,None,302.77785620000213,None,302.77785620000213,303.2779406999907,,,,,,,,,,,,,,,,226,2022-05-26_10h49.08.127,FishGame,2022.1.1,60.07922046182844,
,29,넌 배려심있어,1,Green,A,6.083333333333333,5.5,ScrollDown,ScrollUp,Green.png,2,Positive,Congruent,,,,,0,0,0,0,,,,,,,,,,,,,,,,,0,28,28,28,,,,,,,,,,,,,,,,,,,,,,,,,,,,,,,,,,,,,,,,,,,,,,,,,,,,,,,,,,,,,,,,,,,,,,,,,,,,,1.126543199022611,1.1261807999981102,303.9342977999913,None,ScrollDown,정답입니다,303.9342977999913,None,303.9342977999913,None,303.9342977999913,None,303.9342977999913,None,304.93078389999573,None,304.93078389999573,305.4442668999982,,,,,,,,,,,,,,,,226,2022-05-26_10h49.08.127,FishGame,2022.1.1,60.07922046182844,
,30,넌 숨김없어,3,Green,A,4.5,4.933333333333334,ScrollDown,ScrollUp,Green.png,2,Neutral,Neutral,,,,,0,0,0,0,,,,,,,,,,,,,,,,,0,29,29,29,,,,,,,,,,,,,,,,,,,,,,,,,,,,,,,,,,,,,,,,,,,,,,,,,,,,,,,,,,,,,,,,,,,,,,,,,,,,,1.2993827114502587,0.8113116000022274,306.0975432999985,None,ScrollDown,정답입니다,306.0975432999985,None,306.0975432999985,None,306.0975432999985,None,306.0975432999985,None,306.78252339999017,None,306.78252339999017,307.2941664999962,,,,,,,,,,,,,,,,226,2022-05-26_10h49.08.127,FishGame,2022.1.1,60.07922046182844,
,31,넌 훌륭해,2,Orange,B,5.916666666666667,4.033333333333333,ScrollUp,ScrollDown,Orange.png,2,Positive,Incongruent,,,,,0,0,0,0,,,,,,,,,,,,,,,,,0,30,30,30,,,,,,,,,,,,,,,,,,,,,,,,,,,,,,,,,,,,,,,,,,,,,,,,,,,,,,,,,,,,,,,,,,,,,,,,,,,,,1.9027777661879857,1.017542700006743,307.9698633999942,None,ScrollUp,정답입니다,307.9698633999942,None,307.9698633999942,None,307.9698633999942,None,307.9698633999942,None,308.8342236000026,None,308.8342236000026,309.3437094999972,,,,,,,,,,,,,,,,226,2022-05-26_10h49.08.127,FishGame,2022.1.1,60.07922046182844,
,32,넌 슬기로워,2,Green,A,6.166666666666667,4.1,ScrollDown,ScrollUp,Green.png,2,Positive,Congruent,,,,,0,0,0,0,,,,,,,,,,,,,,,,,0,31,31,31,,,,,,,,,,,,,,,,,,,,,,,,,,,,,,,,,,,,,,,,,,,,,,,,,,,,,,,,,,,,,,,,,,,,,,,,,,,,,1,0.9437697999965167,310.00035459999344,None,ScrollDown,정답입니다,310.00035459999344,None,310.00035459999344,None,310.00035459999344,None,310.00035459999344,None,310.8108357000019,None,310.8108357000019,311.31022269999085,,,,,,,,,,,,,,,,226,2022-05-26_10h49.08.127,FishGame,2022.1.1,60.07922046182844,
,33,넌 냉혹해,5,Green,A,2.583333333333333,2.1,ScrollDown,ScrollUp,Green.png,2,Negative,Incongruent,,,,,0,0,0,0,,,,,,,,,,,,,,,,,0,32,32,32,,,,,,,,,,,,,,,,,,,,,,,,,,,,,,,,,,,,,,,,,,,,,,,,,,,,,,,,,,,,,,,,,,,,,,,,,,,,,1,0.9114932999946177,311.96477379999124,None,ScrollDown,정답입니다,311.96477379999124,None,311.96477379999124,None,311.96477379999124,None,311.96477379999124,None,312.7473420000024,None,312.7473420000024,313.2598915999988,,,,,,,,,,,,,,,,226,2022-05-26_10h49.08.127,FishGame,2022.1.1,60.07922046182844,
,34,나를 데려가줘,6,Orange,B,0,0,ScrollDown,ScrollUp,Orange.png,2,NonTarget,NonTarget,,,,,0,0,0,0,,,,,,,,,,,,,,,,,0,33,33,33,,,,,,,,,,,,,,,,,,,,,,,,,,,,,,,,,,,,,,,,,,,,,,,,,,,,,,,,,,,,,,,,,,,,,,,,,,,,,1.0509259402751923,1.1103679000079865,313.91026489999786,None,ScrollDown,정답입니다,313.91026489999786,None,313.91026489999786,None,313.91026489999786,None,313.91026489999786,None,314.89625920000253,None,314.89625920000253,315.4095793000015,,,,,,,,,,,,,,,,226,2022-05-26_10h49.08.127,FishGame,2022.1.1,60.07922046182844,
,35,넌 편파적이야,5,Orange,B,2.125,2,ScrollUp,ScrollDown,Orange.png,2,Negative,Congruent,,,,,0,0,0,0,,,,,,,,,,,,,,,,,0,34,34,34,,,,,,,,,,,,,,,,,,,,,,,,,,,,,,,,,,,,,,,,,,,,,,,,,,,,,,,,,,,,,,,,,,,,,,,,,,,,,2,1.0121690000087256,316.07217749999836,None,ScrollUp,정답입니다,316.07217749999836,None,316.07217749999836,None,316.07217749999836,None,316.07217749999836,None,316.9467105999938,None,316.9467105999938,317.4593618999934,,,,,,,,,,,,,,,,226,2022-05-26_10h49.08.127,FishGame,2022.1.1,60.07922046182844,
,36,넌 슬퍼,4,Green,A,2.583333333333333,3.066666666666667,ScrollDown,ScrollUp,Green.png,2,Negative,Incongruent,,,,,0,0,0,0,,,,,,,,,,,,,,,,,0,35,35,35,,,,,,,,,,,,,,,,,,,,,,,,,,,,,,,,,,,,,,,,,,,,,,,,,,,,,,,,,,,,,,,,,,,,,,,,,,,,,1.2407407313585281,0.7786437999893678,318.1099719999911,None,ScrollDown,정답입니다,318.1099719999911,None,318.1099719999911,None,318.1099719999911,None,318.1099719999911,None,318.76446379999106,None,318.76446379999106,319.2758341000008,,,,,,,,,,,,,,,,226,2022-05-26_10h49.08.127,FishGame,2022.1.1,60.07922046182844,
,37,나를 데려가줘,6,Orange,B,0,0,ScrollDown,ScrollUp,Orange.png,2,NonTarget,NonTarget,,,,,0,0,0,0,,,,,,,,,,,,,,,,,0,36,36,36,,,,,,,,,,,,,,,,,,,,,,,,,,,,,,,,,,,,,,,,,,,,,,,,,,,,,,,,,,,,,,,,,,,,,,,,,,,,,1,1.0788407999934861,319.93048799999815,None,ScrollDown,정답입니다,319.93048799999815,None,319.93048799999815,None,319.93048799999815,None,319.93048799999815,None,320.8758407999994,None,320.8758407999994,321.37554749999254,,,,,,,,,,,,,,,,226,2022-05-26_10h49.08.127,FishGame,2022.1.1,60.07922046182844,
,38,넌 친절해,1,Orange,B,6.041666666666667,5.533333333333333,ScrollUp,ScrollDown,Orange.png,2,Positive,Incongruent,,,,,0,0,0,0,,,,,,,,,,,,,,,,,0,37,37,37,,,,,,,,,,,,,,,,,,,,,,,,,,,,,,,,,,,,,,,,,,,,,,,,,,,,,,,,,,,,,,,,,,,,,,,,,,,,,1.6651234552264214,1.0096710999932839,322.03494309999223,None,ScrollUp,정답입니다,322.03494309999223,None,322.03494309999223,None,322.03494309999223,None,322.03494309999223,None,322.9107823999948,None,322.9107823999948,323.42526809999254,,,,,,,,,,,,,,,,226,2022-05-26_10h49.08.127,FishGame,2022.1.1,60.07922046182844,
,1,넌 엉성해,4,Green,A,3,3.3,ScrollDown,ScrollUp,Green.png,3,Negative,Incongruent,,,,,0,0,0,0,,,,,,,,,,,,,,,,,,,,,0,0,0,0,,,,,,,,,,,,,,,,,,,,,,,,,,,,,,,,355.2380998000008,356.7379362999927,356.7712601999956,357.7209384000016,357.7709921999922,358.7208365999977,358.7208365999977,None,,,,,,,,,,,,,,,,,,,,,,,,,,,,,,,,,,1.2361111144224803,1.040334500008612,359.91733949999616,None,ScrollDown,정답입니다,359.91733949999616,None,359.91733949999616,None,359.91733949999616,None,359.91733949999616,None,360.77581310000096,None,360.77581310000096,361.28718309999385,323.9251896999922,None,323.9251896999922,None,0.037962962,-0.34444445,1,0,0,0.01617752999300137,None,353.921399400002,None,,,226,2022-05-26_10h49.08.127,FishGame,2022.1.1,60.07922046182844,
,2,나를 보내줘,6,Green,A,0,0,ScrollUp,ScrollDown,Green.png,3,NonTarget,NonTarget,,,,,0,0,0,0,,,,,,,,,,,,,,,,,,,,,0,1,1,1,,,,,,,,,,,,,,,,,,,,,,,,,,,,,,,,,,,,,,,,,,,,,,,,,,,,,,,,,,,,,,,,,,,,,,,,,1.5462962966412306,1.4541593000030844,361.94451339999796,None,NoResponse,무응답입니다,361.94451339999796,None,361.94451339999796,None,361.94451339999796,None,361.94451339999796,None,363.26414210000075,None,363.26414210000075,363.7701270999969,,,,,,,,,,,,,,,,226,2022-05-26_10h49.08.127,FishGame,2022.1.1,60.07922046182844,
,3,넌 활발해,1,Orange,B,5.666666666666667,5.6,ScrollUp,ScrollDown,Orange.png,3,Positive,Incongruent,,,,,0,0,0,0,,,,,,,,,,,,,,,,,,,,,0,2,2,2,,,,,,,,,,,,,,,,,,,,,,,,,,,,,,,,,,,,,,,,,,,,,,,,,,,,,,,,,,,,,,,,,,,,,,,,,1.7885802586873372,1.0591205999953672,364.43227819999447,None,ScrollUp,정답입니다,364.43227819999447,None,364.43227819999447,None,364.43227819999447,None,364.43227819999447,None,365.3576033999998,None,365.3576033999998,365.8699266999902,,,,,,,,,,,,,,,,226,2022-05-26_10h49.08.127,FishGame,2022.1.1,60.07922046182844,
,4,넌 논리적이야,2,Green,A,5.666666666666666,4.633333333333334,ScrollDown,ScrollUp,Green.png,3,Positive,Congruent,,,,,0,0,0,0,,,,,,,,,,,,,,,,,,,,,0,3,3,3,,,,,,,,,,,,,,,,,,,,,,,,,,,,,,,,,,,,,,,,,,,,,,,,,,,,,,,,,,,,,,,,,,,,,,,,,1.1450617164373398,0.968623499997193,366.5282622999948,None,ScrollDown,정답입니다,366.5282622999948,None,366.5282622999948,None,366.5282622999948,None,366.5282622999948,None,367.36236030000146,None,367.36236030000146,367.8695185999968,,,,,,,,,,,,,,,,226,2022-05-26_10h49.08.127,FishGame,2022.1.1,60.07922046182844,
,5,넌 과묵해,3,Green,A,3.875,4.4,ScrollDown,ScrollUp,Green.png,3,Neutral,Neutral,,,,,0,0,0,0,,,,,,,,,,,,,,,,,,,,,0,4,4,4,,,,,,,,,,,,,,,,,,,,,,,,,,,,,,,,,,,,,,,,,,,,,,,,,,,,,,,,,,,,,,,,,,,,,,,,,1.1697530895471573,0.8435541999933776,368.5253754000005,None,ScrollDown,정답입니다,368.5253754000005,None,368.5253754000005,None,368.5253754000005,None,368.5253754000005,None,369.23636519999127,None,369.23636519999127,369.7360677999968,,,,,,,,,,,,,,,,226,2022-05-26_10h49.08.127,FishGame,2022.1.1,60.07922046182844,
,6,나를 데려가줘,6,Orange,B,0,0,ScrollDown,ScrollUp,Orange.png,3,NonTarget,NonTarget,,,,,0,0,0,0,,,,,,,,,,,,,,,,,,,,,0,5,5,5,,,,,,,,,,,,,,,,,,,,,,,,,,,,,,,,,,,,,,,,,,,,,,,,,,,,,,,,,,,,,,,,,,,,,,,,,1.2654321044683456,0.9837602000043262,370.3928998999909,None,ScrollDown,정답입니다,370.3928998999909,None,370.3928998999909,None,370.3928998999909,None,370.3928998999909,None,371.24364459999197,None,371.24364459999197,371.7525079999905,,,,,,,,,,,,,,,,226,2022-05-26_10h49.08.127,FishGame,2022.1.1,60.07922046182844,
,7,넌 미숙해,4,Orange,B,3,3,ScrollUp,ScrollDown,Orange.png,3,Negative,Congruent,,,,,0,0,0,0,,,,,,,,,,,,,,,,,,,,,0,6,6,6,,,,,,,,,,,,,,,,,,,,,,,,,,,,,,,,,,,,,,,,,,,,,,,,,,,,,,,,,,,,,,,,,,,,,,,,,1.89969136317571,1.031414400000358,372.41251270000066,None,ScrollUp,정답입니다,372.41251270000066,None,372.41251270000066,None,372.41251270000066,None,372.41251270000066,None,373.3126970000012,None,373.3126970000012,373.8189335999923,,,,,,,,,,,,,,,,226,2022-05-26_10h49.08.127,FishGame,2022.1.1,60.07922046182844,
,8,나를 보내줘,6,Green,A,0,0,ScrollUp,ScrollDown,Green.png,3,NonTarget,NonTarget,,,,,0,0,0,0,,,,,,,,,,,,,,,,,,,,,0,7,7,7,,,,,,,,,,,,,,,,,,,,,,,,,,,,,,,,,,,,,,,,,,,,,,,,,,,,,,,,,,,,,,,,,,,,,,,,,1.9259259502092998,0.9579291999980342,374.4696202999912,None,ScrollUp,정답입니다,374.4696202999912,None,374.4696202999912,None,374.4696202999912,None,374.4696202999912,None,375.3019617999962,None,375.3019617999962,375.8019936999917,,,,,,,,,,,,,,,,226,2022-05-26_10h49.08.127,FishGame,2022.1.1,60.07922046182844,
,9,넌 자신만만해,3,Orange,B,4.833333333333334,4.333333333333333,ScrollUp,ScrollDown,Orange.png,3,Neutral,Neutral,,,,,0,0,0,0,,,,,,,,,,,,,,,,,,,,,0,8,8,8,,,,,,,,,,,,,,,,,,,,,,,,,,,,,,,,,,,,,,,,,,,,,,,,,,,,,,,,,,,,,,,,,,,,,,,,,1.652777781089147,1.0498984000005294,376.45561299999827,None,ScrollUp,정답입니다,376.45561299999827,None,376.45561299999827,None,376.45561299999827,None,376.45561299999827,None,377.3765704999969,None,377.3765704999969,377.88507109999773,,,,,,,,,,,,,,,,226,2022-05-26_10h49.08.127,FishGame,2022.1.1,60.07922046182844,
,10,넌 탐욕스러워,5,Green,A,2.25,2.1,ScrollDown,ScrollUp,Green.png,3,Negative,Incongruent,,,,,0,0,0,0,,,,,,,,,,,,,,,,,,,,,0,9,9,9,,,,,,,,,,,,,,,,,,,,,,,,,,,,,,,,,,,,,,,,,,,,,,,,,,,,,,,,,,,,,,,,,,,,,,,,,1,1.0328395999968052,378.54601989999355,None,ScrollDown,정답입니다,378.54601989999355,None,378.54601989999355,None,378.54601989999355,None,378.54601989999355,None,379.4423698000028,None,379.4423698000028,379.95147429998906,,,,,,,,,,,,,,,,226,2022-05-26_10h49.08.127,FishGame,2022.1.1,60.07922046182844,
,11,넌 인기있어,2,Green,A,5.458333333333333,4.5,ScrollDown,ScrollUp,Green.png,3,Positive,Congruent,,,,,0,0,0,0,,,,,,,,,,,,,,,,,,,,,0,10,10,10,,,,,,,,,,,,,,,,,,,,,,,,,,,,,,,,,,,,,,,,,,,,,,,,,,,,,,,,,,,,,,,,,,,,,,,,,1.1141975373029709,0.8349469999957364,380.5960383999918,None,ScrollDown,정답입니다,380.5960383999918,None,380.5960383999918,None,380.5960383999918,None,380.5960383999918,None,381.3120205000014,None,381.3120205000014,381.81789910000225,,,,,,,,,,,,,,,,226,2022-05-26_10h49.08.127,FishGame,2022.1.1,60.07922046182844,
,12,나를 데려가줘,6,Orange,B,0,0,ScrollDown,ScrollUp,Orange.png,3,NonTarget,NonTarget,,,,,0,0,0,0,,,,,,,,,,,,,,,,,,,,,0,11,11,11,,,,,,,,,,,,,,,,,,,,,,,,,,,,,,,,,,,,,,,,,,,,,,,,,,,,,,,,,,,,,,,,,,,,,,,,,1.8811728457609813,0.9324788000085391,382.46925579999515,None,ScrollUp,오답입니다,382.46925579999515,None,382.46925579999515,None,382.46925579999515,None,382.46925579999515,None,383.2775907999894,None,383.2775907999894,383.78425899999274,,,,,,,,,,,,,,,,226,2022-05-26_10h49.08.127,FishGame,2022.1.1,60.07922046182844,
,13,넌 뛰어나,2,Orange,B,6.166666666666667,4,ScrollUp,ScrollDown,Orange.png,3,Positive,Incongruent,,,,,0,0,0,0,,,,,,,,,,,,,,,,,,,,,0,12,12,12,,,,,,,,,,,,,,,,,,,,,,,,,,,,,,,,,,,,,,,,,,,,,,,,,,,,,,,,,,,,,,,,,,,,,,,,,1.7345678955316544,1.078429800007143,384.44451679999474,None,ScrollUp,정답입니다,384.44451679999474,None,384.44451679999474,None,384.44451679999474,None,384.44451679999474,None,385.38641310000094,None,385.38641310000094,385.90099290000217,,,,,,,,,,,,,,,,226,2022-05-26_10h49.08.127,FishGame,2022.1.1,60.07922046182844,
,14,넌 낙관적이야,1,Green,A,5.75,5.8,ScrollDown,ScrollUp,Green.png,3,Positive,Congruent,,,,,0,0,0,0,,,,,,,,,,,,,,,,,,,,,0,13,13,13,,,,,,,,,,,,,,,,,,,,,,,,,,,,,,,,,,,,,,,,,,,,,,,,,,,,,,,,,,,,,,,,,,,,,,,,,1.0848765472571056,0.9438326999952551,386.5501388999983,None,ScrollDown,정답입니다,386.5501388999983,None,386.5501388999983,None,386.5501388999983,None,386.5501388999983,None,387.37254899999243,None,387.37254899999243,387.8837560999964,,,,,,,,,,,,,,,,226,2022-05-26_10h49.08.127,FishGame,2022.1.1,60.07922046182844,
,15,넌 산만해,4,Orange,B,2.695652173913043,3.033333333333333,ScrollUp,ScrollDown,Orange.png,3,Negative,Congruent,,,,,0,0,0,0,,,,,,,,,,,,,,,,,,,,,0,14,14,14,,,,,,,,,,,,,,,,,,,,,,,,,,,,,,,,,,,,,,,,,,,,,,,,,,,,,,,,,,,,,,,,,,,,,,,,,1.8163580348094304,1.1115085000055842,388.54820140000083,None,ScrollUp,정답입니다,388.54820140000083,None,388.54820140000083,None,388.54820140000083,None,388.54820140000083,None,389.5169300999987,None,389.5169300999987,390.01682869999786,,,,,,,,,,,,,,,,226,2022-05-26_10h49.08.127,FishGame,2022.1.1,60.07922046182844,
,16,나를 보내줘,6,Green,A,0,0,ScrollUp,ScrollDown,Green.png,3,NonTarget,NonTarget,,,,,0,0,0,0,,,,,,,,,,,,,,,,,,,,,0,15,15,15,,,,,,,,,,,,,,,,,,,,,,,,,,,,,,,,,,,,,,,,,,,,,,,,,,,,,,,,,,,,,,,,,,,,,,,,,1.9753086467583973,1.0435434999963036,390.6660888999904,None,ScrollUp,정답입니다,390.6660888999904,None,390.6660888999904,None,390.6660888999904,None,390.6660888999904,None,391.5833752999897,None,391.5833752999897,392.08330620000197,,,,,,,,,,,,,,,,226,2022-05-26_10h49.08.127,FishGame,2022.1.1,60.07922046182844,
,17,넌 교활해,5,Orange,B,2.333333333333333,2.133333333333333,ScrollUp,ScrollDown,Orange.png,3,Negative,Congruent,,,,,0,0,0,0,,,,,,,,,,,,,,,,,,,,,0,16,16,16,,,,,,,,,,,,,,,,,,,,,,,,,,,,,,,,,,,,,,,,,,,,,,,,,,,,,,,,,,,,,,,,,,,,,,,,,1.6759259278575578,0.9337822000088636,392.73977229998854,None,ScrollUp,정답입니다,392.73977229998854,None,392.73977229998854,None,392.73977229998854,None,392.73977229998854,None,393.54079129999445,None,393.54079129999445,394.04954229999566,,,,,,,,,,,,,,,,226,2022-05-26_10h49.08.127,FishGame,2022.1.1,60.07922046182844,
,18,나를 보내줘,6,Green,A,0,0,ScrollUp,ScrollDown,Green.png,3,NonTarget,NonTarget,,,,,0,0,0,0,,,,,,,,,,,,,,,,,,,,,0,17,17,17,,,,,,,,,,,,,,,,,,,,,,,,,,,,,,,,,,,,,,,,,,,,,,,,,,,,,,,,,,,,,,,,,,,,,,,,,1.8518518557151158,1.1682702000107383,394.6982067999925,None,ScrollUp,정답입니다,394.6982067999925,None,394.6982067999925,None,394.6982067999925,None,394.6982067999925,None,395.74084779999976,None,395.74084779999976,396.2493569999933,,,,,,,,,,,,,,,,226,2022-05-26_10h49.08.127,FishGame,2022.1.1,60.07922046182844,
,19,넌 불친절해,5,Orange,B,2.208333333333333,2.033333333333333,ScrollUp,ScrollDown,Orange.png,3,Negative,Congruent,,,,,0,0,0,0,,,,,,,,,,,,,,,,,,,,,0,18,18,18,,,,,,,,,,,,,,,,,,,,,,,,,,,,,,,,,,,,,,,,,,,,,,,,,,,,,,,,,,,,,,,,,,,,,,,,,2,1.2604947999934666,396.90566769998986,None,ScrollUp,정답입니다,396.90566769998986,None,396.90566769998986,None,396.90566769998986,None,396.90566769998986,None,398.03568479999376,None,398.03568479999376,398.5490301999962,,,,,,,,,,,,,,,,226,2022-05-26_10h49.08.127,FishGame,2022.1.1,60.07922046182844,
,20,넌 지적이야,2,Orange,B,5.75,4.366666666666666,ScrollUp,ScrollDown,Orange.png,3,Positive,Incongruent,,,,,0,0,0,0,,,,,,,,,,,,,,,,,,,,,0,19,19,19,,,,,,,,,,,,,,,,,,,,,,,,,,,,,,,,,,,,,,,,,,,,,,,,,,,,,,,,,,,,,,,,,,,,,,,,,2,0.8876804000028642,399.2025893999962,None,ScrollUp,정답입니다,399.2025893999962,None,399.2025893999962,None,399.2025893999962,None,399.2025893999962,None,399.9654504999926,None,399.9654504999926,400.46538670000155,,,,,,,,,,,,,,,,226,2022-05-26_10h49.08.127,FishGame,2022.1.1,60.07922046182844,
,21,넌 우유부단해,4,Green,A,2.666666666666667,3.166666666666667,ScrollDown,ScrollUp,Green.png,3,Negative,Incongruent,,,,,0,0,0,0,,,,,,,,,,,,,,,,,,,,,0,20,20,20,,,,,,,,,,,,,,,,,,,,,,,,,,,,,,,,,,,,,,,,,,,,,,,,,,,,,,,,,,,,,,,,,,,,,,,,,1,0.9413498000067193,401.12486609999905,None,ScrollDown,정답입니다,401.12486609999905,None,401.12486609999905,None,401.12486609999905,None,401.12486609999905,None,401.93220850000216,None,401.93220850000216,402.43193829999655,,,,,,,,,,,,,,,,226,2022-05-26_10h49.08.127,FishGame,2022.1.1,60.07922046182844,
,22,나를 데려가줘,6,Orange,B,0,0,ScrollDown,ScrollUp,Orange.png,3,NonTarget,NonTarget,,,,,0,0,0,0,,,,,,,,,,,,,,,,,,,,,0,21,21,21,,,,,,,,,,,,,,,,,,,,,,,,,,,,,,,,,,,,,,,,,,,,,,,,,,,,,,,,,,,,,,,,,,,,,,,,,1,1.0255504999950062,403.08433749999676,None,ScrollDown,정답입니다,403.08433749999676,None,403.08433749999676,None,403.08433749999676,None,403.08433749999676,None,403.9815696000005,None,403.9815696000005,404.48162890000094,,,,,,,,,,,,,,,,226,2022-05-26_10h49.08.127,FishGame,2022.1.1,60.07922046182844,
,23,넌 성실해,1,Orange,B,6.041666666666666,5.7,ScrollUp,ScrollDown,Orange.png,3,Positive,Incongruent,,,,,0,0,0,0,,,,,,,,,,,,,,,,,,,,,0,22,22,22,,,,,,,,,,,,,,,,,,,,,,,,,,,,,,,,,,,,,,,,,,,,,,,,,,,,,,,,,,,,,,,,,,,,,,,,,2,1.3333668999985093,405.13766019999457,None,ScrollUp,정답입니다,405.13766019999457,None,405.13766019999457,None,405.13766019999457,None,405.13766019999457,None,406.3378607999912,None,406.3378607999912,406.84823959998903,,,,,,,,,,,,,,,,226,2022-05-26_10h49.08.127,FishGame,2022.1.1,60.07922046182844,
,24,넌 현실주의적이야,3,Green,A,4.625,4.4,ScrollDown,ScrollUp,Green.png,3,Neutral,Neutral,,,,,0,0,0,0,,,,,,,,,,,,,,,,,,,,,0,23,23,23,,,,,,,,,,,,,,,,,,,,,,,,,,,,,,,,,,,,,,,,,,,,,,,,,,,,,,,,,,,,,,,,,,,,,,,,,1.1790123482545216,1.2193117999995593,407.4906694999954,None,ScrollDown,정답입니다,407.4906694999954,None,407.4906694999954,None,407.4906694999954,None,407.4906694999954,None,408.58940379999694,None,408.58940379999694,409.097758399992,,,,,,,,,,,,,,,,226,2022-05-26_10h49.08.127,FishGame,2022.1.1,60.07922046182844,
,25,넌 진실돼,1,Green,A,6.625,5.566666666666666,ScrollDown,ScrollUp,Green.png,3,Positive,Congruent,,,,,0,0,0,0,,,,,,,,,,,,,,,,,,,,,0,24,24,24,,,,,,,,,,,,,,,,,,,,,,,,,,,,,,,,,,,,,,,,,,,,,,,,,,,,,,,,,,,,,,,,,,,,,,,,,1,1.0393473000003723,409.7523378999904,None,ScrollDown,정답입니다,409.7523378999904,None,409.7523378999904,None,409.7523378999904,None,409.7523378999904,None,410.66442899999674,None,410.66442899999674,411.1641082999995,,,,,,,,,,,,,,,,226,2022-05-26_10h49.08.127,FishGame,2022.1.1,60.07922046182844,
,26,넌 천진난만해,3,Orange,B,4.958333333333334,4.833333333333333,ScrollUp,ScrollDown,Orange.png,3,Neutral,Neutral,,,,,0,0,0,0,,,,,,,,,,,,,,,,,,,,,0,25,25,25,,,,,,,,,,,,,,,,,,,,,,,,,,,,,,,,,,,,,,,,,,,,,,,,,,,,,,,,,,,,,,,,,,,,,,,,,2,1.161743499993463,411.8278985999932,None,ScrollUp,정답입니다,411.8278985999932,None,411.8278985999932,None,411.8278985999932,None,411.8278985999932,None,412.85056249999616,None,412.85056249999616,413.3640158999915,,,,,,,,,,,,,,,,226,2022-05-26_10h49.08.127,FishGame,2022.1.1,60.07922046182844,
,27,넌 교양없어,5,Green,A,2.416666666666667,2.2,ScrollDown,ScrollUp,Green.png,3,Negative,Incongruent,,,,,0,0,0,0,,,,,,,,,,,,,,,,,,,,,0,26,26,26,,,,,,,,,,,,,,,,,,,,,,,,,,,,,,,,,,,,,,,,,,,,,,,,,,,,,,,,,,,,,,,,,,,,,,,,,1.0046296219031017,1.0337100000033388,414.0092069999955,None,ScrollDown,정답입니다,414.0092069999955,None,414.0092069999955,None,414.0092069999955,None,414.0092069999955,None,414.9220227999904,None,414.9220227999904,415.4302176999918,,,,,,,,,,,,,,,,226,2022-05-26_10h49.08.127,FishGame,2022.1.1,60.07922046182844,
,28,나를 보내줘,6,Green,A,0,0,ScrollUp,ScrollDown,Green.png,3,NonTarget,NonTarget,,,,,0,0,0,0,,,,,,,,,,,,,,,,,,,,,0,27,27,27,,,,,,,,,,,,,,,,,,,,,,,,,,,,,,,,,,,,,,,,,,,,,,,,,,,,,,,,,,,,,,,,,,,,,,,,,2,1.2482493999996223,416.0778477999993,None,ScrollUp,정답입니다,416.0778477999993,None,416.0778477999993,None,416.0778477999993,None,416.0778477999993,None,417.20251299999654,None,417.20251299999654,417.7135617000022,,,,,,,,,,,,,,,,226,2022-05-26_10h49.08.127,FishGame,2022.1.1,60.07922046182844,
,29,넌 엉뚱스러워,3,Green,A,4.166666666666667,4.133333333333334,ScrollDown,ScrollUp,Green.png,3,Neutral,Neutral,,,,,0,0,0,0,,,,,,,,,,,,,,,,,,,,,0,28,28,28,,,,,,,,,,,,,,,,,,,,,,,,,,,,,,,,,,,,,,,,,,,,,,,,,,,,,,,,,,,,,,,,,,,,,,,,,1,0.9768256999959704,418.3630991999962,None,ScrollDown,정답입니다,418.3630991999962,None,418.3630991999962,None,418.3630991999962,None,418.3630991999962,None,419.2133518999908,None,419.2133518999908,419.713030400002,,,,,,,,,,,,,,,,226,2022-05-26_10h49.08.127,FishGame,2022.1.1,60.07922046182844,
,30,넌 무지해,4,Orange,B,2.541666666666667,3.066666666666667,ScrollUp,ScrollDown,Orange.png,3,Negative,Congruent,,,,,0,0,0,0,,,,,,,,,,,,,,,,,,,,,0,29,29,29,,,,,,,,,,,,,,,,,,,,,,,,,,,,,,,,,,,,,,,,,,,,,,,,,,,,,,,,,,,,,,,,,,,,,,,,,1.9552469154198964,1.0318567999929655,420.36464949999936,None,ScrollUp,정답입니다,420.36464949999936,None,420.36464949999936,None,420.36464949999936,None,420.36464949999936,None,421.26862979998987,None,421.26862979998987,421.7796113999939,,,,,,,,,,,,,,,,226,2022-05-26_10h49.08.127,FishGame,2022.1.1,60.07922046182844,
,31,넌 음울해,5,Orange,B,2.25,2.233333333333333,ScrollUp,ScrollDown,Orange.png,3,Negative,Congruent,,,,,0,0,0,0,,,,,,,,,,,,,,,,,,,,,0,30,30,30,,,,,,,,,,,,,,,,,,,,,,,,,,,,,,,,,,,,,,,,,,,,,,,,,,,,,,,,,,,,,,,,,,,,,,,,,1.8240740795930226,0.8182429999869782,422.43652389998897,None,ScrollUp,정답입니다,422.43652389998897,None,422.43652389998897,None,422.43652389998897,None,422.43652389998897,None,423.12228499999037,None,423.12228499999037,423.6291804999928,,,,,,,,,,,,,,,,226,2022-05-26_10h49.08.127,FishGame,2022.1.1,60.07922046182844,
,32,넌 냉소적이야,5,Green,A,2.916666666666667,2.4,ScrollDown,ScrollUp,Green.png,3,Negative,Incongruent,,,,,0,0,0,0,,,,,,,,,,,,,,,,,,,,,0,31,31,31,,,,,,,,,,,,,,,,,,,,,,,,,,,,,,,,,,,,,,,,,,,,,,,,,,,,,,,,,,,,,,,,,,,,,,,,,1.1466049303611119,1.0724298999994062,424.27504729999055,None,ScrollDown,정답입니다,424.27504729999055,None,424.27504729999055,None,424.27504729999055,None,424.27504729999055,None,425.2293532999902,None,425.2293532999902,425.7289626999991,,,,,,,,,,,,,,,,226,2022-05-26_10h49.08.127,FishGame,2022.1.1,60.07922046182844,
,33,나를 데려가줘,6,Orange,B,0,0,ScrollDown,ScrollUp,Orange.png,3,NonTarget,NonTarget,,,,,0,0,0,0,,,,,,,,,,,,,,,,,,,,,0,32,32,32,,,,,,,,,,,,,,,,,,,,,,,,,,,,,,,,,,,,,,,,,,,,,,,,,,,,,,,,,,,,,,,,,,,,,,,,,1.0046296219031017,1.2262192000052892,426.3858956999902,None,ScrollDown,정답입니다,426.3858956999902,None,426.3858956999902,None,426.3858956999902,None,426.3858956999902,None,427.47906649998913,None,427.47906649998913,427.9786313999939,,,,,,,,,,,,,,,,226,2022-05-26_10h49.08.127,FishGame,2022.1.1,60.07922046182844,
,34,넌 쾌활해,1,Green,A,5.541666666666666,5.733333333333333,ScrollDown,ScrollUp,Green.png,3,Positive,Congruent,,,,,0,0,0,0,,,,,,,,,,,,,,,,,,,,,0,33,33,33,,,,,,,,,,,,,,,,,,,,,,,,,,,,,,,,,,,,,,,,,,,,,,,,,,,,,,,,,,,,,,,,,,,,,,,,,1,1.1753246000007493,428.63503249999485,None,ScrollDown,정답입니다,428.63503249999485,None,428.63503249999485,None,428.63503249999485,None,428.63503249999485,None,429.6788378999918,None,429.6788378999918,430.17840079999587,,,,,,,,,,,,,,,,226,2022-05-26_10h49.08.127,FishGame,2022.1.1,60.07922046182844,
,35,나를 보내줘,6,Green,A,0,0,ScrollUp,ScrollDown,Green.png,3,NonTarget,NonTarget,,,,,0,0,0,0,,,,,,,,,,,,,,,,,,,,,0,34,34,34,,,,,,,,,,,,,,,,,,,,,,,,,,,,,,,,,,,,,,,,,,,,,,,,,,,,,,,,,,,,,,,,,,,,,,,,,1.9984568059444427,0.9943297999998322,430.82537469999806,None,ScrollUp,정답입니다,430.82537469999806,None,430.82537469999806,None,430.82537469999806,None,430.82537469999806,None,431.6948818999954,None,431.6948818999954,432.19471939999494,,,,,,,,,,,,,,,,226,2022-05-26_10h49.08.127,FishGame,2022.1.1,60.07922046182844,
,36,넌 명랑해,1,Orange,B,5.739130434782609,5.666666666666667,ScrollUp,ScrollDown,Orange.png,3,Positive,Incongruent,,,,,0,0,0,0,,,,,,,,,,,,,,,,,,,,,0,35,35,35,,,,,,,,,,,,,,,,,,,,,,,,,,,,,,,,,,,,,,,,,,,,,,,,,,,,,,,,,,,,,,,,,,,,,,,,,1.8811728457609813,1.153355400005239,432.8517406000028,None,ScrollUp,정답입니다,432.8517406000028,None,432.8517406000028,None,432.8517406000028,None,432.8517406000028,None,433.871556699989,None,433.871556699989,434.3778469999961,,,,,,,,,,,,,,,,226,2022-05-26_10h49.08.127,FishGame,2022.1.1,60.07922046182844,
,37,넌 멍해,4,Green,A,2.833333333333333,3.4,ScrollDown,ScrollUp,Green.png,3,Negative,Incongruent,,,,,0,0,0,0,,,,,,,,,,,,,,,,,,,,,0,36,36,36,,,,,,,,,,,,,,,,,,,,,,,,,,,,,,,,,,,,,,,,,,,,,,,,,,,,,,,,,,,,,,,,,,,,,,,,,1.0740740497907002,1.0676845999987563,435.03344549999747,None,ScrollDown,정답입니다,435.03344549999747,None,435.03344549999747,None,435.03344549999747,None,435.03344549999747,None,435.9698645000026,None,435.9698645000026,436.47756449998997,,,,,,,,,,,,,,,,226,2022-05-26_10h49.08.127,FishGame,2022.1.1,60.07922046182844,
,38,나를 데려가줘,6,Orange,B,0,0,ScrollDown,ScrollUp,Orange.png,3,NonTarget,NonTarget,,,,,0,0,0,0,,,,,,,,,,,,,,,,,,,,,0,37,37,37,,,,,,,,,,,,,,,,,,,,,,,,,,,,,,,,,,,,,,,,,,,,,,,,,,,,,,,,,,,,,,,,,,,,,,,,,1.121913582086563,1.1334074000042165,437.1322558999964,None,ScrollDown,정답입니다,437.1322558999964,None,437.1322558999964,None,437.1322558999964,None,437.1322558999964,None,438.1336849999934,None,438.1336849999934,438.64388309999777,,,,,,,,,,,,,,,,226,2022-05-26_10h49.08.127,FishGame,2022.1.1,60.07922046182844,
,39,넌 현명해,2,Green,A,6.541666666666666,4.533333333333333,ScrollDown,ScrollUp,Green.png,3,Positive,Congruent,,,,,0,0,0,0,,,,,,,,,,,,,,,,,,,,,0,38,38,38,,,,,,,,,,,,,,,,,,,,,,,,,,,,,,,,,,,,,,,,,,,,,,,,,,,,,,,,,,,,,,,,,,,,,,,,,1,1.7103810999979032,439.2928167999926,None,ScrollDown,정답입니다,439.2928167999926,None,439.2928167999926,None,439.2928167999926,None,439.2928167999926,None,440.87688419999904,None,440.87688419999904,441.37687179999193,,,,,,,,,,,,,,,,226,2022-05-26_10h49.08.127,FishGame,2022.1.1,60.07922046182844,
,40,넌 수줍어,3,Orange,B,3.541666666666666,4.366666666666666,ScrollUp,ScrollDown,Orange.png,3,Neutral,Neutral,,,,,0,0,0,0,,,,,,,,,,,,,,,,,,,,,0,39,39,39,,,,,,,,,,,,,,,,,,,,,,,,,,,,,,,,,,,,,,,,,,,,,,,,,,,,,,,,,,,,,,,,,,,,,,,,,1.9907407363255818,1.1205789999949047,442.0356766999903,None,ScrollUp,정답입니다,442.0356766999903,None,442.0356766999903,None,442.0356766999903,None,442.0356766999903,None,443.0266080000001,None,443.0266080000001,443.5266427000024,,,,,,,,,,,,,,,,226,2022-05-26_10h49.08.127,FishGame,2022.1.1,60.07922046182844,
,41,나를 데려가줘,6,Orange,B,0,0,ScrollDown,ScrollUp,Orange.png,3,NonTarget,NonTarget,,,,,0,0,0,0,,,,,,,,,,,,,,,,,,,,,0,40,40,40,,,,,,,,,,,,,,,,,,,,,,,,,,,,,,,,,,,,,,,,,,,,,,,,,,,,,,,,,,,,,,,,,,,,,,,,,1.0493827263514202,1.1243988000060199,444.20447250000143,None,ScrollDown,정답입니다,444.20447250000143,None,444.20447250000143,None,444.20447250000143,None,444.20447250000143,None,445.18049600000086,None,445.18049600000086,445.6930552999984,,,,,,,,,,,,,,,,226,2022-05-26_10h49.08.127,FishGame,2022.1.1,60.07922046182844,
,42,넌 성숙해,2,Orange,B,5.833333333333333,4.533333333333333,ScrollUp,ScrollDown,Orange.png,3,Positive,Incongruent,,,,,0,0,0,0,,,,,,,,,,,,,,,,,,,,,0,41,41,41,,,,,,,,,,,,,,,,,,,,,,,,,,,,,,,,,,,,,,,,,,,,,,,,,,,,,,,,,,,,,,,,,,,,,,,,,1.879629631837209,1.1190867999976035,446.348290599999,None,ScrollUp,정답입니다,446.348290599999,None,446.348290599999,None,446.348290599999,None,446.348290599999,None,447.3350965999998,None,447.3350965999998,447.8427796999895,,,,,,,,,,,,,,,,226,2022-05-26_10h49.08.127,FishGame,2022.1.1,60.07922046182844,
,1,넌 매력적이야,2,Orange,B,6.125,4.666666666666667,ScrollUp,ScrollDown,Orange.png,4,Positive,Incongruent,,,,,0,0,0,0,,,,,,,,,,,,,,,,,,,,,,,,,0,0,0,0,,,,,,,,,,,,,,,,,,,,,,,,,,,,482.4051460999908,483.90487649998977,483.9382506999973,484.88810009999725,484.9381107999943,485.88797209999757,485.88797209999757,None,,,,,,,,,,,,,,,,,,,,,,,,,,,,,,,,,,2,1.6081258000049274,487.0909459999966,None,ScrollUp,정답입니다,487.0909459999966,None,487.0909459999966,None,487.0909459999966,None,487.0909459999966,None,488.5120287999889,None,488.5120287999889,489.0208608999965,448.34259099999326,None,448.34259099999326,None,0.2638889,-0.1,1,0,0,0.016222630001720972,None,478.3554901999887,None,,,226,2022-05-26_10h49.08.127,FishGame,2022.1.1,60.07922046182844,
,2,나를 보내줘,6,Green,A,0,0,ScrollUp,ScrollDown,Green.png,4,NonTarget,NonTarget,,,,,0,0,0,0,,,,,,,,,,,,,,,,,,,,,,,,,0,1,1,1,,,,,,,,,,,,,,,,,,,,,,,,,,,,,,,,,,,,,,,,,,,,,,,,,,,,,,,,,,,,,,,,,,,,,1.9984568059444427,1.3016532999899937,489.6666150999954,None,ScrollUp,정답입니다,489.6666150999954,None,489.6666150999954,None,489.6666150999954,None,489.6666150999954,None,490.84583159998874,None,490.84583159998874,491.353849799998,,,,,,,,,,,,,,,,226,2022-05-26_10h49.08.127,FishGame,2022.1.1,60.07922046182844,
,3,넌 조심스러워,3,Green,A,4.791666666666666,4.666666666666667,ScrollDown,ScrollUp,Green.png,4,Neutral,Neutral,,,,,0,0,0,0,,,,,,,,,,,,,,,,,,,,,,,,,0,2,2,2,,,,,,,,,,,,,,,,,,,,,,,,,,,,,,,,,,,,,,,,,,,,,,,,,,,,,,,,,,,,,,,,,,,,,1.0231481393178303,0.9412729000032414,492.01086609999766,None,ScrollDown,정답입니다,492.01086609999766,None,492.01086609999766,None,492.01086609999766,None,492.01086609999766,None,492.82062269999005,None,492.82062269999005,493.32024719999754,,,,,,,,,,,,,,,,226,2022-05-26_10h49.08.127,FishGame,2022.1.1,60.07922046182844,
,4,넌 철학적이야,3,Orange,B,4.5,4.266666666666667,ScrollUp,ScrollDown,Orange.png,4,Neutral,Neutral,,,,,0,0,0,0,,,,,,,,,,,,,,,,,,,,,,,,,0,3,3,3,,,,,,,,,,,,,,,,,,,,,,,,,,,,,,,,,,,,,,,,,,,,,,,,,,,,,,,,,,,,,,,,,,,,,1.9243827362855275,1.0894962000020314,493.98445730000094,None,ScrollUp,정답입니다,493.98445730000094,None,493.98445730000094,None,493.98445730000094,None,493.98445730000094,None,494.9370731999952,None,494.9370731999952,495.43672469999,,,,,,,,,,,,,,,,226,2022-05-26_10h49.08.127,FishGame,2022.1.1,60.07922046182844,
,5,넌 쩨쩨해,5,Green,A,2.375,2.133333333333333,ScrollDown,ScrollUp,Green.png,4,Negative,Incongruent,,,,,0,0,0,0,,,,,,,,,,,,,,,,,,,,,,,,,0,4,4,4,,,,,,,,,,,,,,,,,,,,,,,,,,,,,,,,,,,,,,,,,,,,,,,,,,,,,,,,,,,,,,,,,,,,,1.0216049253940582,1.0683097000000998,496.0896136999945,None,ScrollDown,정답입니다,496.0896136999945,None,496.0896136999945,None,496.0896136999945,None,496.0896136999945,None,497.02807079999184,None,497.02807079999184,497.5364578000008,,,,,,,,,,,,,,,,226,2022-05-26_10h49.08.127,FishGame,2022.1.1,60.07922046182844,
,6,나를 데려가줘,6,Orange,B,0,0,ScrollDown,ScrollUp,Orange.png,4,NonTarget,NonTarget,,,,,0,0,0,0,,,,,,,,,,,,,,,,,,,,,,,,,0,5,5,5,,,,,,,,,,,,,,,,,,,,,,,,,,,,,,,,,,,,,,,,,,,,,,,,,,,,,,,,,,,,,,,,,,,,,1.0447530845801036,1.4862538000015775,498.1900225999998,None,ScrollDown,정답입니다,498.1900225999998,None,498.1900225999998,None,498.1900225999998,None,498.1900225999998,None,499.5456634000002,None,499.5456634000002,500.05274559999816,,,,,,,,,,,,,,,,226,2022-05-26_10h49.08.127,FishGame,2022.1.1,60.07922046182844,
,7,넌 고집불통이야,5,Orange,B,2.875,2,ScrollUp,ScrollDown,Orange.png,4,Negative,Congruent,,,,,0,0,0,0,,,,,,,,,,,,,,,,,,,,,,,,,0,6,6,6,,,,,,,,,,,,,,,,,,,,,,,,,,,,,,,,,,,,,,,,,,,,,,,,,,,,,,,,,,,,,,,,,,,,,1.9645061492919922,1.1329434999934165,500.7153752000013,None,ScrollUp,정답입니다,500.7153752000013,None,500.7153752000013,None,500.7153752000013,None,500.7153752000013,None,501.70892799999274,None,501.70892799999274,502.2191329999914,,,,,,,,,,,,,,,,226,2022-05-26_10h49.08.127,FishGame,2022.1.1,60.07922046182844,
,8,넌 무심해,4,Green,A,2.875,3.2,ScrollDown,ScrollUp,Green.png,4,Negative,Incongruent,,,,,0,0,0,0,,,,,,,,,,,,,,,,,,,,,,,,,0,7,7,7,,,,,,,,,,,,,,,,,,,,,,,,,,,,,,,,,,,,,,,,,,,,,,,,,,,,,,,,,,,,,,,,,,,,,1,1.0498464999982389,502.8692308000027,None,ScrollDown,정답입니다,502.8692308000027,None,502.8692308000027,None,502.8692308000027,None,502.8692308000027,None,503.7932890999946,None,503.7932890999946,504.302197099998,,,,,,,,,,,,,,,,226,2022-05-26_10h49.08.127,FishGame,2022.1.1,60.07922046182844,
,9,넌 정겨워,1,Green,A,5.791666666666667,5.666666666666667,ScrollDown,ScrollUp,Green.png,4,Positive,Congruent,,,,,0,0,0,0,,,,,,,,,,,,,,,,,,,,,,,,,0,8,8,8,,,,,,,,,,,,,,,,,,,,,,,,,,,,,,,,,,,,,,,,,,,,,,,,,,,,,,,,,,,,,,,,,,,,,1.1697530895471573,0.9278902999940328,504.9707449999987,None,ScrollDown,정답입니다,504.9707449999987,None,504.9707449999987,None,504.9707449999987,None,504.9707449999987,None,505.75486029998865,None,505.75486029998865,506.2686307999975,,,,,,,,,,,,,,,,226,2022-05-26_10h49.08.127,FishGame,2022.1.1,60.07922046182844,
,10,나를 데려가줘,6,Orange,B,0,0,ScrollDown,ScrollUp,Orange.png,4,NonTarget,NonTarget,,,,,0,0,0,0,,,,,,,,,,,,,,,,,,,,,,,,,0,9,9,9,,,,,,,,,,,,,,,,,,,,,,,,,,,,,,,,,,,,,,,,,,,,,,,,,,,,,,,,,,,,,,,,,,,,,1,0.999999099993147,506.92017849998956,None,ScrollDown,정답입니다,506.92017849998956,None,506.92017849998956,None,506.92017849998956,None,506.92017849998956,None,507.79237539999303,None,507.79237539999303,508.3017067999899,,,,,,,,,,,,,,,,226,2022-05-26_10h49.08.127,FishGame,2022.1.1,60.07922046182844,
,11,넌 체제순응적이야,4,Orange,B,3,3.6,ScrollUp,ScrollDown,Orange.png,4,Negative,Congruent,,,,,0,0,0,0,,,,,,,,,,,,,,,,,,,,,,,,,0,10,10,10,,,,,,,,,,,,,,,,,,,,,,,,,,,,,,,,,,,,,,,,,,,,,,,,,,,,,,,,,,,,,,,,,,,,,2,1.204224000000977,508.97359470000083,None,ScrollUp,정답입니다,508.97359470000083,None,508.97359470000083,None,508.97359470000083,None,508.97359470000083,None,510.03487550000136,None,510.03487550000136,510.5346741999965,,,,,,,,,,,,,,,,226,2022-05-26_10h49.08.127,FishGame,2022.1.1,60.07922046182844,
,12,나를 보내줘,6,Green,A,0,0,ScrollUp,ScrollDown,Green.png,4,NonTarget,NonTarget,,,,,0,0,0,0,,,,,,,,,,,,,,,,,,,,,,,,,0,11,11,11,,,,,,,,,,,,,,,,,,,,,,,,,,,,,,,,,,,,,,,,,,,,,,,,,,,,,,,,,,,,,,,,,,,,,1.884259248773257,1.1680333999975119,511.18578079999133,None,ScrollUp,정답입니다,511.18578079999133,None,511.18578079999133,None,511.18578079999133,None,511.18578079999133,None,512.224650899996,None,512.224650899996,512.7344728000025,,,,,,,,,,,,,,,,226,2022-05-26_10h49.08.127,FishGame,2022.1.1,60.07922046182844,
,13,넌 박식해,2,Green,A,5.625,3.933333333333333,ScrollDown,ScrollUp,Green.png,4,Positive,Congruent,,,,,0,0,0,0,,,,,,,,,,,,,,,,,,,,,,,,,0,12,12,12,,,,,,,,,,,,,,,,,,,,,,,,,,,,,,,,,,,,,,,,,,,,,,,,,,,,,,,,,,,,,,,,,,,,,1.0447530845801036,0.9095081999985268,513.3914614999958,None,ScrollDown,정답입니다,513.3914614999958,None,513.3914614999958,None,513.3914614999958,None,513.3914614999958,None,514.1677971999889,None,514.1677971999889,514.667552599989,,,,,,,,,,,,,,,,226,2022-05-26_10h49.08.127,FishGame,2022.1.1,60.07922046182844,
,14,나를 보내줘,6,Green,A,0,0,ScrollUp,ScrollDown,Green.png,4,NonTarget,NonTarget,,,,,0,0,0,0,,,,,,,,,,,,,,,,,,,,,,,,,0,13,13,13,,,,,,,,,,,,,,,,,,,,,,,,,,,,,,,,,,,,,,,,,,,,,,,,,,,,,,,,,,,,,,,,,,,,,1.8024691343307495,1.5850703000032809,515.31795099999,None,ScrollUp,정답입니다,515.31795099999,None,515.31795099999,None,515.31795099999,None,515.31795099999,None,516.7767439000017,None,516.7767439000017,517.2839346999972,,,,,,,,,,,,,,,,226,2022-05-26_10h49.08.127,FishGame,2022.1.1,60.07922046182844,
,15,넌 침착해,1,Orange,B,5.458333333333333,5.566666666666666,ScrollUp,ScrollDown,Orange.png,4,Positive,Incongruent,,,,,0,0,0,0,,,,,,,,,,,,,,,,,,,,,,,,,0,14,14,14,,,,,,,,,,,,,,,,,,,,,,,,,,,,,,,,,,,,,,,,,,,,,,,,,,,,,,,,,,,,,,,,,,,,,2,1.5229969000065466,517.9427424999885,None,ScrollUp,정답입니다,517.9427424999885,None,517.9427424999885,None,517.9427424999885,None,517.9427424999885,None,519.3334799000004,None,519.3334799000004,519.8336416999955,,,,,,,,,,,,,,,,226,2022-05-26_10h49.08.127,FishGame,2022.1.1,60.07922046182844,
,16,나를 데려가줘,6,Orange,B,0,0,ScrollDown,ScrollUp,Orange.png,4,NonTarget,NonTarget,,,,,0,0,0,0,,,,,,,,,,,,,,,,,,,,,,,,,0,15,15,15,,,,,,,,,,,,,,,,,,,,,,,,,,,,,,,,,,,,,,,,,,,,,,,,,,,,,,,,,,,,,,,,,,,,,1,1.4340265999926487,520.4899735999934,None,ScrollDown,정답입니다,520.4899735999934,None,520.4899735999934,None,520.4899735999934,None,520.4899735999934,None,521.7905043999926,None,521.7905043999926,522.2999464000022,,,,,,,,,,,,,,,,226,2022-05-26_10h49.08.127,FishGame,2022.1.1,60.07922046182844,
,17,넌 행복해,1,Green,A,6.416666666666666,6.166666666666667,ScrollDown,ScrollUp,Green.png,4,Positive,Congruent,,,,,0,0,0,0,,,,,,,,,,,,,,,,,,,,,,,,,0,16,16,16,,,,,,,,,,,,,,,,,,,,,,,,,,,,,,,,,,,,,,,,,,,,,,,,,,,,,,,,,,,,,,,,,,,,,1,1.3927125000045635,522.9584620999958,None,ScrollDown,정답입니다,522.9584620999958,None,522.9584620999958,None,522.9584620999958,None,522.9584620999958,None,524.2165270999976,None,524.2165270999976,524.7162450999895,,,,,,,,,,,,,,,,226,2022-05-26_10h49.08.127,FishGame,2022.1.1,60.07922046182844,
,18,넌 겸손해,2,Orange,B,5.791666666666667,4.766666666666667,ScrollUp,ScrollDown,Orange.png,4,Positive,Incongruent,,,,,0,0,0,0,,,,,,,,,,,,,,,,,,,,,,,,,0,17,17,17,,,,,,,,,,,,,,,,,,,,,,,,,,,,,,,,,,,,,,,,,,,,,,,,,,,,,,,,,,,,,,,,,,,,,1.9135802388191223,1.0602603000006638,525.3763667999883,None,ScrollUp,정답입니다,525.3763667999883,None,525.3763667999883,None,525.3763667999883,None,525.3763667999883,None,526.2997117999912,None,526.2997117999912,526.7993092999968,,,,,,,,,,,,,,,,226,2022-05-26_10h49.08.127,FishGame,2022.1.1,60.07922046182844,
,19,나를 보내줘,6,Green,A,0,0,ScrollUp,ScrollDown,Green.png,4,NonTarget,NonTarget,,,,,0,0,0,0,,,,,,,,,,,,,,,,,,,,,,,,,0,18,18,18,,,,,,,,,,,,,,,,,,,,,,,,,,,,,,,,,,,,,,,,,,,,,,,,,,,,,,,,,,,,,,,,,,,,,1.6882716019948325,1.251359700007015,527.4460322999948,None,ScrollUp,정답입니다,527.4460322999948,None,527.4460322999948,None,527.4460322999948,None,527.4460322999948,None,528.5746311999974,None,528.5746311999974,529.0824471999949,,,,,,,,,,,,,,,,226,2022-05-26_10h49.08.127,FishGame,2022.1.1,60.07922046182844,
,20,넌 의심없어,3,Green,A,4.166666666666667,4.6,ScrollDown,ScrollUp,Green.png,4,Neutral,Neutral,,,,,0,0,0,0,,,,,,,,,,,,,,,,,,,,,,,,,0,19,19,19,,,,,,,,,,,,,,,,,,,,,,,,,,,,,,,,,,,,,,,,,,,,,,,,,,,,,,,,,,,,,,,,,,,,,1,1.415184199999203,529.7390968999971,None,ScrollDown,정답입니다,529.7390968999971,None,529.7390968999971,None,529.7390968999971,None,529.7390968999971,None,531.0225430999999,None,531.0225430999999,531.5320939999947,,,,,,,,,,,,,,,,226,2022-05-26_10h49.08.127,FishGame,2022.1.1,60.07922046182844,
,21,넌 시시해,4,Green,A,2.666666666666667,2.966666666666667,ScrollDown,ScrollUp,Green.png,4,Negative,Incongruent,,,,,0,0,0,0,,,,,,,,,,,,,,,,,,,,,,,,,0,20,20,20,,,,,,,,,,,,,,,,,,,,,,,,,,,,,,,,,,,,,,,,,,,,,,,,,,,,,,,,,,,,,,,,,,,,,1,1.047321699996246,532.175433700002,None,ScrollDown,정답입니다,532.175433700002,None,532.175433700002,None,532.175433700002,None,532.175433700002,None,533.1042176999908,None,533.1042176999908,533.615177300002,,,,,,,,,,,,,,,,226,2022-05-26_10h49.08.127,FishGame,2022.1.1,60.07922046182844,
,22,나를 데려가줘,6,Orange,B,0,0,ScrollDown,ScrollUp,Orange.png,4,NonTarget,NonTarget,,,,,0,0,0,0,,,,,,,,,,,,,,,,,,,,,,,,,0,21,21,21,,,,,,,,,,,,,,,,,,,,,,,,,,,,,,,,,,,,,,,,,,,,,,,,,,,,,,,,,,,,,,,,,,,,,1.1250000099341075,1.6676472999970429,534.277514100002,None,ScrollDown,정답입니다,534.277514100002,None,534.277514100002,None,534.277514100002,None,534.277514100002,None,535.8059714999981,None,535.8059714999981,536.3147981999937,,,,,,,,,,,,,,,,226,2022-05-26_10h49.08.127,FishGame,2022.1.1,60.07922046182844,
,23,넌 무정해,5,Green,A,2.5,2.2,ScrollDown,ScrollUp,Green.png,4,Negative,Incongruent,,,,,0,0,0,0,,,,,,,,,,,,,,,,,,,,,,,,,0,22,22,22,,,,,,,,,,,,,,,,,,,,,,,,,,,,,,,,,,,,,,,,,,,,,,,,,,,,,,,,,,,,,,,,,,,,,1.160493830839793,1.4276641000033123,536.9616265999939,None,ScrollDown,정답입니다,536.9616265999939,None,536.9616265999939,None,536.9616265999939,None,536.9616265999939,None,538.2647268000001,None,538.2647268000001,538.7645047999977,,,,,,,,,,,,,,,,226,2022-05-26_10h49.08.127,FishGame,2022.1.1,60.07922046182844,
,24,넌 긍정적이야,1,Orange,B,6.041666666666667,6.066666666666666,ScrollUp,ScrollDown,Orange.png,4,Positive,Incongruent,,,,,0,0,0,0,,,,,,,,,,,,,,,,,,,,,,,,,0,23,23,23,,,,,,,,,,,,,,,,,,,,,,,,,,,,,,,,,,,,,,,,,,,,,,,,,,,,,,,,,,,,,,,,,,,,,1.8873456766208012,1.2990129999961937,539.4328722999926,None,ScrollUp,정답입니다,539.4328722999926,None,539.4328722999926,None,539.4328722999926,None,539.4328722999926,None,540.5975237999955,None,540.5975237999955,541.0975215999933,,,,,,,,,,,,,,,,226,2022-05-26_10h49.08.127,FishGame,2022.1.1,60.07922046182844,
,25,나를 보내줘,6,Green,A,0,0,ScrollUp,ScrollDown,Green.png,4,NonTarget,NonTarget,,,,,0,0,0,0,,,,,,,,,,,,,,,,,,,,,,,,,0,24,24,24,,,,,,,,,,,,,,,,,,,,,,,,,,,,,,,,,,,,,,,,,,,,,,,,,,,,,,,,,,,,,,,,,,,,,1.839506169160207,1.2835275000106776,541.749250199995,None,ScrollUp,정답입니다,541.749250199995,None,541.749250199995,None,541.749250199995,None,541.749250199995,None,542.9041561999911,None,542.9041561999911,543.4139398999978,,,,,,,,,,,,,,,,226,2022-05-26_10h49.08.127,FishGame,2022.1.1,60.07922046182844,
,26,넌 시기심이 많아,5,Orange,B,2.458333333333333,2.233333333333333,ScrollUp,ScrollDown,Orange.png,4,Negative,Congruent,,,,,0,0,0,0,,,,,,,,,,,,,,,,,,,,,,,,,0,25,25,25,,,,,,,,,,,,,,,,,,,,,,,,,,,,,,,,,,,,,,,,,,,,,,,,,,,,,,,,,,,,,,,,,,,,,1.9969135920206706,1.243201000004774,544.0795294999989,None,ScrollUp,정답입니다,544.0795294999989,None,544.0795294999989,None,544.0795294999989,None,544.0795294999989,None,545.1840076999943,None,545.1840076999943,545.696999199994,,,,,,,,,,,,,,,,226,2022-05-26_10h49.08.127,FishGame,2022.1.1,60.07922046182844,
,27,넌 탁월해,2,Green,A,5.708333333333334,4.5,ScrollDown,ScrollUp,Green.png,4,Positive,Congruent,,,,,0,0,0,0,,,,,,,,,,,,,,,,,,,,,,,,,0,26,26,26,,,,,,,,,,,,,,,,,,,,,,,,,,,,,,,,,,,,,,,,,,,,,,,,,,,,,,,,,,,,,,,,,,,,,1.160493830839793,0.9963224999955855,546.3538393999916,None,ScrollDown,정답입니다,546.3538393999916,None,546.3538393999916,None,546.3538393999916,None,546.3538393999916,None,547.218584599992,None,547.218584599992,547.7299722000025,,,,,,,,,,,,,,,,226,2022-05-26_10h49.08.127,FishGame,2022.1.1,60.07922046182844,
,28,나를 데려가줘,6,Orange,B,0,0,ScrollDown,ScrollUp,Orange.png,4,NonTarget,NonTarget,,,,,0,0,0,0,,,,,,,,,,,,,,,,,,,,,,,,,0,27,27,27,,,,,,,,,,,,,,,,,,,,,,,,,,,,,,,,,,,,,,,,,,,,,,,,,,,,,,,,,,,,,,,,,,,,,1.1250000099341075,1.0773151000030339,548.385634899998,None,ScrollDown,정답입니다,548.385634899998,None,548.385634899998,None,548.385634899998,None,548.385634899998,None,549.3303311999916,None,549.3303311999916,549.8296587999939,,,,,,,,,,,,,,,,226,2022-05-26_10h49.08.127,FishGame,2022.1.1,60.07922046182844,
,29,넌 조용해,3,Orange,B,4.333333333333333,4.166666666666667,ScrollUp,ScrollDown,Orange.png,4,Neutral,Neutral,,,,,0,0,0,0,,,,,,,,,,,,,,,,,,,,,,,,,0,28,28,28,,,,,,,,,,,,,,,,,,,,,,,,,,,,,,,,,,,,,,,,,,,,,,,,,,,,,,,,,,,,,,,,,,,,,1.9537037014961243,1.0590042999974685,550.49113699999,None,ScrollUp,정답입니다,550.49113699999,None,550.49113699999,None,550.49113699999,None,550.49113699999,None,551.4150287999946,None,551.4150287999946,551.9294455999916,,,,,,,,,,,,,,,,226,2022-05-26_10h49.08.127,FishGame,2022.1.1,60.07922046182844,
,30,넌 다정해,1,Green,A,5.833333333333334,5.7,ScrollDown,ScrollUp,Green.png,4,Positive,Congruent,,,,,0,0,0,0,,,,,,,,,,,,,,,,,,,,,,,,,0,29,29,29,,,,,,,,,,,,,,,,,,,,,,,,,,,,,,,,,,,,,,,,,,,,,,,,,,,,,,,,,,,,,,,,,,,,,1,1.112688099994557,552.5815588999976,None,ScrollDown,정답입니다,552.5815588999976,None,552.5815588999976,None,552.5815588999976,None,552.5815588999976,None,553.5676038999954,None,553.5676038999954,554.0791898000025,,,,,,,,,,,,,,,,226,2022-05-26_10h49.08.127,FishGame,2022.1.1,60.07922046182844,
,31,넌 능력있어,2,Orange,B,6.166666666666666,4.6,ScrollUp,ScrollDown,Orange.png,4,Positive,Incongruent,,,,,0,0,0,0,,,,,,,,,,,,,,,,,,,,,,,,,0,30,30,30,,,,,,,,,,,,,,,,,,,,,,,,,,,,,,,,,,,,,,,,,,,,,,,,,,,,,,,,,,,,,,,,,,,,,1.9012345770994823,0.9483516000036616,554.7358137999981,None,ScrollUp,정답입니다,554.7358137999981,None,554.7358137999981,None,554.7358137999981,None,554.7358137999981,None,555.5522021999932,None,555.5522021999932,556.0622910999955,,,,,,,,,,,,,,,,226,2022-05-26_10h49.08.127,FishGame,2022.1.1,60.07922046182844,
,32,넌 불쾌해,5,Green,A,2.125,1.933333333333333,ScrollDown,ScrollUp,Green.png,4,Negative,Incongruent,,,,,0,0,0,0,,,,,,,,,,,,,,,,,,,,,,,,,0,31,31,31,,,,,,,,,,,,,,,,,,,,,,,,,,,,,,,,,,,,,,,,,,,,,,,,,,,,,,,,,,,,,,,,,,,,,1.0725308855374653,1.0006435999966925,556.7068533999991,None,ScrollDown,정답입니다,556.7068533999991,None,556.7068533999991,None,556.7068533999991,None,556.7068533999991,None,557.5864843000018,None,557.5864843000018,558.0953365999885,,,,,,,,,,,,,,,,226,2022-05-26_10h49.08.127,FishGame,2022.1.1,60.07922046182844,
,33,나를 데려가줘,6,Orange,B,0,0,ScrollDown,ScrollUp,Orange.png,4,NonTarget,NonTarget,,,,,0,0,0,0,,,,,,,,,,,,,,,,,,,,,,,,,0,32,32,32,,,,,,,,,,,,,,,,,,,,,,,,,,,,,,,,,,,,,,,,,,,,,,,,,,,,,,,,,,,,,,,,,,,,,1,1.0444152999989456,558.7517251999961,None,ScrollDown,정답입니다,558.7517251999961,None,558.7517251999961,None,558.7517251999961,None,558.7517251999961,None,559.6620706999965,None,559.6620706999965,560.1617718999914,,,,,,,,,,,,,,,,226,2022-05-26_10h49.08.127,FishGame,2022.1.1,60.07922046182844,
,34,넌 유순해,3,Green,A,4.458333333333333,5,ScrollDown,ScrollUp,Green.png,4,Neutral,Neutral,,,,,0,0,0,0,,,,,,,,,,,,,,,,,,,,,,,,,0,33,33,33,,,,,,,,,,,,,,,,,,,,,,,,,,,,,,,,,,,,,,,,,,,,,,,,,,,,,,,,,,,,,,,,,,,,,1,1.0496571999974549,560.8059142999991,None,ScrollDown,정답입니다,560.8059142999991,None,560.8059142999991,None,560.8059142999991,None,560.8059142999991,None,561.7351490000001,None,561.7351490000001,562.2446907999984,,,,,,,,,,,,,,,,226,2022-05-26_10h49.08.127,FishGame,2022.1.1,60.07922046182844,
,35,넌 근심스러워,4,Orange,B,2.708333333333333,3.133333333333333,ScrollUp,ScrollDown,Orange.png,4,Negative,Congruent,,,,,0,0,0,0,,,,,,,,,,,,,,,,,,,,,,,,,0,34,34,34,,,,,,,,,,,,,,,,,,,,,,,,,,,,,,,,,,,,,,,,,,,,,,,,,,,,,,,,,,,,,,,,,,,,,2,0.941202300004079,562.9051688999898,None,ScrollUp,정답입니다,562.9051688999898,None,562.9051688999898,None,562.9051688999898,None,562.9051688999898,None,563.7112231999927,None,563.7112231999927,564.2112275999971,,,,,,,,,,,,,,,,226,2022-05-26_10h49.08.127,FishGame,2022.1.1,60.07922046182844,
,36,넌 세련되었어,2,Green,A,5.5,4.6,ScrollDown,ScrollUp,Green.png,4,Positive,Congruent,,,,,0,0,0,0,,,,,,,,,,,,,,,,,,,,,,,,,0,35,35,35,,,,,,,,,,,,,,,,,,,,,,,,,,,,,,,,,,,,,,,,,,,,,,,,,,,,,,,,,,,,,,,,,,,,,1,1.043546700006118,564.8780850999901,None,ScrollDown,정답입니다,564.8780850999901,None,564.8780850999901,None,564.8780850999901,None,564.8780850999901,None,565.777617300002,None,565.777617300002,566.2776331999921,,,,,,,,,,,,,,,,226,2022-05-26_10h49.08.127,FishGame,2022.1.1,60.07922046182844,
,37,나를 보내줘,6,Green,A,0,0,ScrollUp,ScrollDown,Green.png,4,NonTarget,NonTarget,,,,,0,0,0,0,,,,,,,,,,,,,,,,,,,,,,,,,0,36,36,36,,,,,,,,,,,,,,,,,,,,,,,,,,,,,,,,,,,,,,,,,,,,,,,,,,,,,,,,,,,,,,,,,,,,,1.9876543084780376,1.0837270999909379,566.9300911000028,None,ScrollUp,정답입니다,566.9300911000028,None,566.9300911000028,None,566.9300911000028,None,566.9300911000028,None,567.8834508,None,567.8834508,568.39407509999,,,,,,,,,,,,,,,,226,2022-05-26_10h49.08.127,FishGame,2022.1.1,60.07922046182844,
,38,넌 확고해,3,Orange,B,4.708333333333334,4.566666666666666,ScrollUp,ScrollDown,Orange.png,4,Neutral,Neutral,,,,,0,0,0,0,,,,,,,,,,,,,,,,,,,,,,,,,0,37,37,37,,,,,,,,,,,,,,,,,,,,,,,,,,,,,,,,,,,,,,,,,,,,,,,,,,,,,,,,,,,,,,,,,,,,,1.8564814726511638,1.0782411999971373,569.056330499996,None,ScrollUp,정답입니다,569.056330499996,None,569.056330499996,None,569.056330499996,None,569.056330499996,None,569.9936650000018,None,569.9936650000018,570.4937178999971,,,,,,,,,,,,,,,,226,2022-05-26_10h49.08.127,FishGame,2022.1.1,60.07922046182844,
,39,넌 이해심이 많아,1,Orange,B,6.041666666666668,5.533333333333333,ScrollUp,ScrollDown,Orange.png,4,Positive,Incongruent,,,,,0,0,0,0,,,,,,,,,,,,,,,,,,,,,,,,,0,38,38,38,,,,,,,,,,,,,,,,,,,,,,,,,,,,,,,,,,,,,,,,,,,,,,,,,,,,,,,,,,,,,,,,,,,,,1.9691357910633087,1.100255900004413,571.1501958000008,None,ScrollUp,정답입니다,571.1501958000008,None,571.1501958000008,None,571.1501958000008,None,571.1501958000008,None,572.1163269999961,None,572.1163269999961,572.6270349999977,,,,,,,,,,,,,,,,226,2022-05-26_10h49.08.127,FishGame,2022.1.1,60.07922046182844,
,40,나를 보내줘,6,Green,A,0,0,ScrollUp,ScrollDown,Green.png,4,NonTarget,NonTarget,,,,,0,0,0,0,,,,,,,,,,,,,,,,,,,,,,,,,0,39,39,39,,,,,,,,,,,,,,,,,,,,,,,,,,,,,,,,,,,,,,,,,,,,,,,,,,,,,,,,,,,,,,,,,,,,,1.8657407313585281,1.0673393000033684,573.2677160000021,None,ScrollUp,정답입니다,573.2677160000021,None,573.2677160000021,None,573.2677160000021,None,573.2677160000021,None,574.2170827999944,None,574.2170827999944,574.7266294000001,,,,,,,,,,,,,,,,226,2022-05-26_10h49.08.127,FishGame,2022.1.1,60.07922046182844,
,41,넌 거칠어,4,Green,A,2.625,3.033333333333333,ScrollDown,ScrollUp,Green.png,4,Negative,Incongruent,,,,,0,0,0,0,,,,,,,,,,,,,,,,,,,,,,,,,0,40,40,40,,,,,,,,,,,,,,,,,,,,,,,,,,,,,,,,,,,,,,,,,,,,,,,,,,,,,,,,,,,,,,,,,,,,,1,1.2172185000090394,575.4398954999924,None,ScrollDown,정답입니다,575.4398954999924,None,575.4398954999924,None,575.4398954999924,None,575.4398954999924,None,576.4680946000008,None,576.4680946000008,576.9762551000022,,,,,,,,,,,,,,,,226,2022-05-26_10h49.08.127,FishGame,2022.1.1,60.07922046182844,
,42,넌 변덕맞아,5,Orange,B,2.75,2.166666666666667,ScrollUp,ScrollDown,Orange.png,4,Negative,Congruent,,,,,0,0,0,0,,,,,,,,,,,,,,,,,,,,,,,,,0,41,41,41,,,,,,,,,,,,,,,,,,,,,,,,,,,,,,,,,,,,,,,,,,,,,,,,,,,,,,,,,,,,,,,,,,,,,1.8672839452823002,1.0700533999915933,577.6386205000017,None,ScrollUp,정답입니다,577.6386205000017,None,577.6386205000017,None,577.6386205000017,None,577.6386205000017,None,578.5760292999912,None,578.5760292999912,579.0760382000008,,,,,,,,,,,,,,,,226,2022-05-26_10h49.08.127,FishGame,2022.1.1,60.07922046182844,
,43,나를 데려가줘,6,Orange,B,0,0,ScrollDown,ScrollUp,Orange.png,4,NonTarget,NonTarget,,,,,0,0,0,0,,,,,,,,,,,,,,,,,,,,,,,,,0,42,42,42,,,,,,,,,,,,,,,,,,,,,,,,,,,,,,,,,,,,,,,,,,,,,,,,,,,,,,,,,,,,,,,,,,,,,1,1.2023351999960141,579.7270638999908,None,ScrollDown,정답입니다,579.7270638999908,None,579.7270638999908,None,579.7270638999908,None,579.7270638999908,None,580.8013399999909,None,580.8013399999909,581.3090693999984,,,,,,,,,,,,,,,,226,2022-05-26_10h49.08.127,FishGame,2022.1.1,60.07922046182844,
,44,넌 외로워,4,Orange,B,2.833333333333333,3.3,ScrollUp,ScrollDown,Orange.png,4,Negative,Congruent,,,,,0,0,0,0,,,,,,,,,,,,,,,,,,,,,,,,,0,43,43,43,,,,,,,,,,,,,,,,,,,,,,,,,,,,,,,,,,,,,,,,,,,,,,,,,,,,,,,,,,,,,,,,,,,,,2,1.0344476999889594,581.9699540000001,None,ScrollUp,정답입니다,581.9699540000001,None,581.9699540000001,None,581.9699540000001,None,581.9699540000001,None,582.8660161000007,None,582.8660161000007,583.3754209999897,,,,,,,,,,,,,,,,226,2022-05-26_10h49.08.127,FishGame,2022.1.1,60.07922046182844,
,1,넌 불평스러워,5,Green,A,2.25,2.066666666666667,ScrollDown,ScrollUp,Green.png,5,Negative,Incongruent,,,,,0,0,0,0,,,,,,,,,,,,,,,,,,,,,,,,,,,,,0,0,0,0,,,,,,,,,,,,,,,,,,,,,,,,615.2382354000001,616.7378987999982,616.7711972999969,617.7210993999906,617.771115999989,618.7209329999896,618.7209329999896,None,,,,,,,,,,,,,,,,,,,,,,,,,,,,,,,,,,1.7222222338120141,1.289619599992875,619.9109420999885,None,ScrollUp,오답입니다,619.9109420999885,None,619.9109420999885,None,619.9109420999885,None,619.9109420999885,None,621.0292667999893,None,621.0292667999893,621.5373445000005,583.8754031999997,None,583.8754031999997,None,0.21203704,-0.13240741,1,0,0,0.01620153000112623,None,613.8882381000003,None,,,226,2022-05-26_10h49.08.127,FishGame,2022.1.1,60.07922046182844,
,2,나를 보내줘,6,Green,A,0,0,ScrollUp,ScrollDown,Green.png,5,NonTarget,NonTarget,,,,,0,0,0,0,,,,,,,,,,,,,,,,,,,,,,,,,,,,,0,1,1,1,,,,,,,,,,,,,,,,,,,,,,,,,,,,,,,,,,,,,,,,,,,,,,,,,,,,,,,,,,,,,,,,,1.9891975224018097,1.334290400001919,622.1836942999944,None,ScrollUp,정답입니다,622.1836942999944,None,622.1836942999944,None,622.1836942999944,None,622.1836942999944,None,623.3951215999987,None,623.3951215999987,623.9036334999983,,,,,,,,,,,,,,,,226,2022-05-26_10h49.08.127,FishGame,2022.1.1,60.07922046182844,
,3,넌 다재다능해,2,Orange,B,6.208333333333333,4.5,ScrollUp,ScrollDown,Orange.png,5,Positive,Incongruent,,,,,0,0,0,0,,,,,,,,,,,,,,,,,,,,,,,,,,,,,0,2,2,2,,,,,,,,,,,,,,,,,,,,,,,,,,,,,,,,,,,,,,,,,,,,,,,,,,,,,,,,,,,,,,,,,1.8425925970077515,1.0732753000047524,624.5616000000009,None,ScrollUp,정답입니다,624.5616000000009,None,624.5616000000009,None,624.5616000000009,None,624.5616000000009,None,625.5033720999927,None,625.5033720999927,626.003232899995,,,,,,,,,,,,,,,,226,2022-05-26_10h49.08.127,FishGame,2022.1.1,60.07922046182844,
,4,넌 과감해,3,Green,A,4.833333333333334,4.6,ScrollDown,ScrollUp,Green.png,5,Neutral,Neutral,,,,,0,0,0,0,,,,,,,,,,,,,,,,,,,,,,,,,,,,,0,3,3,3,,,,,,,,,,,,,,,,,,,,,,,,,,,,,,,,,,,,,,,,,,,,,,,,,,,,,,,,,,,,,,,,,1,1.2684931999974651,626.6484650999919,None,ScrollDown,정답입니다,626.6484650999919,None,626.6484650999919,None,626.6484650999919,None,626.6484650999919,None,627.7956236000027,None,627.7956236000027,628.3031002999924,,,,,,,,,,,,,,,,226,2022-05-26_10h49.08.127,FishGame,2022.1.1,60.07922046182844,
,5,넌 고분고분해,3,Orange,B,3.75,4.033333333333333,ScrollUp,ScrollDown,Orange.png,5,Neutral,Neutral,,,,,0,0,0,0,,,,,,,,,,,,,,,,,,,,,,,,,,,,,0,4,4,4,,,,,,,,,,,,,,,,,,,,,,,,,,,,,,,,,,,,,,,,,,,,,,,,,,,,,,,,,,,,,,,,,1.9212963084379833,1.0649506000045221,628.9622691999975,None,ScrollUp,정답입니다,628.9622691999975,None,628.9622691999975,None,628.9622691999975,None,628.9622691999975,None,629.8919159999932,None,629.8919159999932,630.4027929000003,,,,,,,,,,,,,,,,226,2022-05-26_10h49.08.127,FishGame,2022.1.1,60.07922046182844,
,6,나를 보내줘,6,Green,A,0,0,ScrollUp,ScrollDown,Green.png,5,NonTarget,NonTarget,,,,,0,0,0,0,,,,,,,,,,,,,,,,,,,,,,,,,,,,,0,5,5,5,,,,,,,,,,,,,,,,,,,,,,,,,,,,,,,,,,,,,,,,,,,,,,,,,,,,,,,,,,,,,,,,,1.8765432039896648,1.175635699997656,631.0557391999901,None,ScrollUp,정답입니다,631.0557391999901,None,631.0557391999901,None,631.0557391999901,None,631.0557391999901,None,632.1024803999899,None,632.1024803999899,632.6024869999965,,,,,,,,,,,,,,,,226,2022-05-26_10h49.08.127,FishGame,2022.1.1,60.07922046182844,
,7,넌 잘 잊어,4,Green,A,3,3.7,ScrollDown,ScrollUp,Green.png,5,Negative,Incongruent,,,,,0,0,0,0,,,,,,,,,,,,,,,,,,,,,,,,,,,,,0,6,6,6,,,,,,,,,,,,,,,,,,,,,,,,,,,,,,,,,,,,,,,,,,,,,,,,,,,,,,,,,,,,,,,,,1,1.1601482999976724,633.2644616999896,None,ScrollDown,정답입니다,633.2644616999896,None,633.2644616999896,None,633.2644616999896,None,633.2644616999896,None,634.2855721999949,None,634.2855721999949,634.7855407999887,,,,,,,,,,,,,,,,226,2022-05-26_10h49.08.127,FishGame,2022.1.1,60.07922046182844,
,8,넌 탐구심이없어,4,Orange,B,2.833333333333333,3.066666666666667,ScrollUp,ScrollDown,Orange.png,5,Negative,Congruent,,,,,0,0,0,0,,,,,,,,,,,,,,,,,,,,,,,,,,,,,0,7,7,7,,,,,,,,,,,,,,,,,,,,,,,,,,,,,,,,,,,,,,,,,,,,,,,,,,,,,,,,,,,,,,,,,1.8873456766208012,0.9474095999903511,635.4501147999981,None,ScrollUp,정답입니다,635.4501147999981,None,635.4501147999981,None,635.4501147999981,None,635.4501147999981,None,636.2575127000018,None,636.2575127000018,636.7687491999968,,,,,,,,,,,,,,,,226,2022-05-26_10h49.08.127,FishGame,2022.1.1,60.07922046182844,
,9,나를 데려가줘,6,Orange,B,0,0,ScrollDown,ScrollUp,Orange.png,5,NonTarget,NonTarget,,,,,0,0,0,0,,,,,,,,,,,,,,,,,,,,,,,,,,,,,0,8,8,8,,,,,,,,,,,,,,,,,,,,,,,,,,,,,,,,,,,,,,,,,,,,,,,,,,,,,,,,,,,,,,,,,1,1.3753577000024961,637.414972300001,None,ScrollDown,정답입니다,637.414972300001,None,637.414972300001,None,637.414972300001,None,637.414972300001,None,638.6686137999932,None,638.6686137999932,639.1683153999911,,,,,,,,,,,,,,,,226,2022-05-26_10h49.08.127,FishGame,2022.1.1,60.07922046182844,
,10,넌 참되어,2,Green,A,6.041666666666664,4.733333333333333,ScrollDown,ScrollUp,Green.png,5,Positive,Congruent,,,,,0,0,0,0,,,,,,,,,,,,,,,,,,,,,,,,,,,,,0,9,9,9,,,,,,,,,,,,,,,,,,,,,,,,,,,,,,,,,,,,,,,,,,,,,,,,,,,,,,,,,,,,,,,,,1,1.114453300004243,639.8205939999898,None,ScrollDown,정답입니다,639.8205939999898,None,639.8205939999898,None,639.8205939999898,None,639.8205939999898,None,640.807665100001,None,640.807665100001,641.3180739999952,,,,,,,,,,,,,,,,226,2022-05-26_10h49.08.127,FishGame,2022.1.1,60.07922046182844,
,11,넌 생기있어,1,Orange,B,5.875,5.633333333333334,ScrollUp,ScrollDown,Orange.png,5,Positive,Incongruent,,,,,0,0,0,0,,,,,,,,,,,,,,,,,,,,,,,,,,,,,0,10,10,10,,,,,,,,,,,,,,,,,,,,,,,,,,,,,,,,,,,,,,,,,,,,,,,,,,,,,,,,,,,,,,,,,1.8626543283462524,1.0151996999920812,641.9793265999906,None,ScrollUp,정답입니다,641.9793265999906,None,641.9793265999906,None,641.9793265999906,None,641.9793265999906,None,642.8565528999898,None,642.8565528999898,643.3678696999996,,,,,,,,,,,,,,,,226,2022-05-26_10h49.08.127,FishGame,2022.1.1,60.07922046182844,
,12,넌 비사교적이야,4,Orange,B,2.875,2.9,ScrollUp,ScrollDown,Orange.png,5,Negative,Congruent,,,,,0,0,0,0,,,,,,,,,,,,,,,,,,,,,,,,,,,,,0,11,11,11,,,,,,,,,,,,,,,,,,,,,,,,,,,,,,,,,,,,,,,,,,,,,,,,,,,,,,,,,,,,,,,,,1.959876557191213,1.0559321999899112,644.0238064000005,None,ScrollUp,정답입니다,644.0238064000005,None,644.0238064000005,None,644.0238064000005,None,644.0238064000005,None,644.9508792999986,None,644.9508792999986,645.4508734999981,,,,,,,,,,,,,,,,226,2022-05-26_10h49.08.127,FishGame,2022.1.1,60.07922046182844,
,13,나를 데려가줘,6,Orange,B,0,0,ScrollDown,ScrollUp,Orange.png,5,NonTarget,NonTarget,,,,,0,0,0,0,,,,,,,,,,,,,,,,,,,,,,,,,,,,,0,12,12,12,,,,,,,,,,,,,,,,,,,,,,,,,,,,,,,,,,,,,,,,,,,,,,,,,,,,,,,,,,,,,,,,,1.1188271542390187,1.2965697000036016,646.1046508,None,ScrollDown,정답입니다,646.1046508,None,646.1046508,None,646.1046508,None,646.1046508,None,647.2727292999916,None,647.2727292999916,647.7839536999963,,,,,,,,,,,,,,,,226,2022-05-26_10h49.08.127,FishGame,2022.1.1,60.07922046182844,
,14,넌 고독해,4,Green,A,2.916666666666667,3.233333333333333,ScrollDown,ScrollUp,Green.png,5,Negative,Incongruent,,,,,0,0,0,0,,,,,,,,,,,,,,,,,,,,,,,,,,,,,0,13,13,13,,,,,,,,,,,,,,,,,,,,,,,,,,,,,,,,,,,,,,,,,,,,,,,,,,,,,,,,,,,,,,,,,1.0925925920406978,1.0580440999910934,648.4342793999967,None,ScrollDown,정답입니다,648.4342793999967,None,648.4342793999967,None,648.4342793999967,None,648.4342793999967,None,649.3668484999944,None,649.3668484999944,649.866976099991,,,,,,,,,,,,,,,,226,2022-05-26_10h49.08.127,FishGame,2022.1.1,60.07922046182844,
,15,넌 신경질적이야,5,Orange,B,2.375,2.233333333333333,ScrollUp,ScrollDown,Orange.png,5,Negative,Congruent,,,,,0,0,0,0,,,,,,,,,,,,,,,,,,,,,,,,,,,,,0,14,14,14,,,,,,,,,,,,,,,,,,,,,,,,,,,,,,,,,,,,,,,,,,,,,,,,,,,,,,,,,,,,,,,,,1.8811728457609813,1.082879800000228,650.5296129999915,None,ScrollUp,정답입니다,650.5296129999915,None,650.5296129999915,None,650.5296129999915,None,650.5296129999915,None,651.4736458999978,None,651.4736458999978,651.9833657999989,,,,,,,,,,,,,,,,226,2022-05-26_10h49.08.127,FishGame,2022.1.1,60.07922046182844,
,16,넌 똑똑해,2,Orange,B,5.666666666666667,3.966666666666667,ScrollUp,ScrollDown,Orange.png,5,Positive,Incongruent,,,,,0,0,0,0,,,,,,,,,,,,,,,,,,,,,,,,,,,,,0,15,15,15,,,,,,,,,,,,,,,,,,,,,,,,,,,,,,,,,,,,,,,,,,,,,,,,,,,,,,,,,,,,,,,,,1.787037044763565,1.0307183999975678,652.643963399998,None,ScrollUp,정답입니다,652.643963399998,None,652.643963399998,None,652.643963399998,None,652.643963399998,None,653.539600499993,None,653.539600499993,654.0497059999907,,,,,,,,,,,,,,,,226,2022-05-26_10h49.08.127,FishGame,2022.1.1,60.07922046182844,
,17,나를 보내줘,6,Green,A,0,0,ScrollUp,ScrollDown,Green.png,5,NonTarget,NonTarget,,,,,0,0,0,0,,,,,,,,,,,,,,,,,,,,,,,,,,,,,0,16,16,16,,,,,,,,,,,,,,,,,,,,,,,,,,,,,,,,,,,,,,,,,,,,,,,,,,,,,,,,,,,,,,,,,2,1.1094759999978123,654.6940912999999,None,ScrollUp,정답입니다,654.6940912999999,None,654.6940912999999,None,654.6940912999999,None,654.6940912999999,None,655.6829039000004,None,655.6829039000004,656.182868399992,,,,,,,,,,,,,,,,226,2022-05-26_10h49.08.127,FishGame,2022.1.1,60.07922046182844,
,18,넌 협조적이야,1,Green,A,5.625,5.666666666666667,ScrollDown,ScrollUp,Green.png,5,Positive,Congruent,,,,,0,0,0,0,,,,,,,,,,,,,,,,,,,,,,,,,,,,,0,17,17,17,,,,,,,,,,,,,,,,,,,,,,,,,,,,,,,,,,,,,,,,,,,,,,,,,,,,,,,,,,,,,,,,,1.1080246816078823,1.0534808000084013,656.8312136999884,None,ScrollDown,정답입니다,656.8312136999884,None,656.8312136999884,None,656.8312136999884,None,656.8312136999884,None,657.7658020999952,None,657.7658020999952,658.2659474999964,,,,,,,,,,,,,,,,226,2022-05-26_10h49.08.127,FishGame,2022.1.1,60.07922046182844,
,19,나를 데려가줘,6,Orange,B,0,0,ScrollDown,ScrollUp,Orange.png,5,NonTarget,NonTarget,,,,,0,0,0,0,,,,,,,,,,,,,,,,,,,,,,,,,,,,,0,18,18,18,,,,,,,,,,,,,,,,,,,,,,,,,,,,,,,,,,,,,,,,,,,,,,,,,,,,,,,,,,,,,,,,,1.0370370149612427,1.0514829000021564,658.9217537999939,None,ScrollDown,정답입니다,658.9217537999939,None,658.9217537999939,None,658.9217537999939,None,658.9217537999939,None,659.8405386999948,None,659.8405386999948,660.3489403999993,,,,,,,,,,,,,,,,226,2022-05-26_10h49.08.127,FishGame,2022.1.1,60.07922046182844,
,20,넌 몰인정해,5,Orange,B,2.541666666666667,2.066666666666667,ScrollUp,ScrollDown,Orange.png,5,Negative,Congruent,,,,,0,0,0,0,,,,,,,,,,,,,,,,,,,,,,,,,,,,,0,19,19,19,,,,,,,,,,,,,,,,,,,,,,,,,,,,,,,,,,,,,,,,,,,,,,,,,,,,,,,,,,,,,,,,,1.8873456766208012,1.116830699989805,661.0073993999977,None,ScrollUp,정답입니다,661.0073993999977,None,661.0073993999977,None,661.0073993999977,None,661.0073993999977,None,661.9901116999972,None,661.9901116999972,662.4987045000016,,,,,,,,,,,,,,,,226,2022-05-26_10h49.08.127,FishGame,2022.1.1,60.07922046182844,
,21,나를 데려가줘,6,Orange,B,0,0,ScrollDown,ScrollUp,Orange.png,5,NonTarget,NonTarget,,,,,0,0,0,0,,,,,,,,,,,,,,,,,,,,,,,,,,,,,0,20,20,20,,,,,,,,,,,,,,,,,,,,,,,,,,,,,,,,,,,,,,,,,,,,,,,,,,,,,,,,,,,,,,,,,1.1388888855775197,1.1762579000060214,663.1526574000018,None,ScrollDown,정답입니다,663.1526574000018,None,663.1526574000018,None,663.1526574000018,None,663.1526574000018,None,664.1986440999899,None,664.1986440999899,664.6984200000006,,,,,,,,,,,,,,,,226,2022-05-26_10h49.08.127,FishGame,2022.1.1,60.07922046182844,
,22,넌 순진해,3,Orange,B,4.125,4.166666666666667,ScrollUp,ScrollDown,Orange.png,5,Neutral,Neutral,,,,,0,0,0,0,,,,,,,,,,,,,,,,,,,,,,,,,,,,,0,21,21,21,,,,,,,,,,,,,,,,,,,,,,,,,,,,,,,,,,,,,,,,,,,,,,,,,,,,,,,,,,,,,,,,,1.9969135920206706,1.7259122999967076,665.3495465000015,None,ScrollUp,정답입니다,665.3495465000015,None,665.3495465000015,None,665.3495465000015,None,665.3495465000015,None,666.9482815999945,None,666.9482815999945,667.4480928999983,,,,,,,,,,,,,,,,226,2022-05-26_10h49.08.127,FishGame,2022.1.1,60.07922046182844,
,23,넌 신뢰할만해,1,Green,A,6.625,5.533333333333333,ScrollDown,ScrollUp,Green.png,5,Positive,Congruent,,,,,0,0,0,0,,,,,,,,,,,,,,,,,,,,,,,,,,,,,0,22,22,22,,,,,,,,,,,,,,,,,,,,,,,,,,,,,,,,,,,,,,,,,,,,,,,,,,,,,,,,,,,,,,,,,1,1.2830159000004642,668.1055388999957,None,ScrollDown,정답입니다,668.1055388999957,None,668.1055388999957,None,668.1055388999957,None,668.1055388999957,None,669.2551717999886,None,669.2551717999886,669.7644175999885,,,,,,,,,,,,,,,,226,2022-05-26_10h49.08.127,FishGame,2022.1.1,60.07922046182844,
