name,TrialNum,Word,WordCategory,FishType,WordList,WordValence,WordReputation,CorrectResp,IncorrectResp,FishTypeFile,Round,WordType,Condition,LoopforOrange.thisRepN,LoopforOrange.thisTrialN,LoopforOrange.thisN,LoopforOrange.thisIndex,OrangeInstLoop.thisRepN,OrangeInstLoop.thisTrialN,OrangeInstLoop.thisN,OrangeInstLoop.thisIndex,OrangePrac.thisRepN,OrangePrac.thisTrialN,OrangePrac.thisN,OrangePrac.thisIndex,temp1.thisRepN,temp1.thisTrialN,temp1.thisN,temp1.thisIndex,OrangeRound1.thisRepN,OrangeRound1.thisTrialN,OrangeRound1.thisN,OrangeRound1.thisIndex,OrangeRound2.thisRepN,OrangeRound2.thisTrialN,OrangeRound2.thisN,OrangeRound2.thisIndex,OrangeRound3.thisRepN,OrangeRound3.thisTrialN,OrangeRound3.thisN,OrangeRound3.thisIndex,OrangeRound4.thisRepN,OrangeRound4.thisTrialN,OrangeRound4.thisN,OrangeRound4.thisIndex,OrangeRound5.thisRepN,OrangeRound5.thisTrialN,OrangeRound5.thisN,OrangeRound5.thisIndex,LoopForGreen.thisRepN,LoopForGreen.thisTrialN,LoopForGreen.thisN,LoopForGreen.thisIndex,text_2.started,text_2.stopped,text_3.started,text_3.stopped,key_resp.keys,key_resp.rt,key_resp.started,key_resp.stopped,PassI_2.started,PassI_2.stopped,PassInst_2.keys,PassInst_2.rt,PassInst_2.started,PassInst_2.stopped,mouse_2.x,mouse_2.y,mouse_2.leftButton,mouse_2.midButton,mouse_2.rightButton,mouse_2.started,mouse_2.stopped,image.started,image.stopped,text_5.started,text_5.stopped,text_6.started,text_6.stopped,text_7.started,text_7.stopped,text_8.started,text_8.stopped,slider_2.response,slider_2.rt,slider_2.started,slider_2.stopped,Response_2,Feedback_2,BackGround_2.started,BackGround_2.stopped,Fish_2.started,Fish_2.stopped,WordBox_2.started,WordBox_2.stopped,Words_2.started,Words_2.stopped,BackGround_Feedback_2.started,BackGround_Feedback_2.stopped,Feedbacks_2.started,Feedbacks_2.stopped,Continue_or_not.keys,Continue_or_not.rt,Continue_or_not.started,Continue_or_not.stopped,image_3.started,image_3.stopped,mouse_3.x,mouse_3.y,mouse_3.leftButton,mouse_3.midButton,mouse_3.rightButton,mouse_3.started,mouse_3.stopped,startmain.started,startmain.stopped,slider.response,slider.rt,slider.started,slider.stopped,Response,Feedback,BackGround.started,BackGround.stopped,Fish.started,Fish.stopped,WordBox.started,WordBox.stopped,Words.started,Words.stopped,BackGround_Feedback.started,BackGround_Feedback.stopped,Feedbacks.started,Feedbacks.stopped,text.started,text.stopped,break_interval.started,break_interval.stopped,mouse.x,mouse.y,mouse.leftButton,mouse.midButton,mouse.rightButton,mouse.started,mouse.stopped,stratnextround.started,stratnextround.stopped,endgame.started,endgame.stopped,participant,date,expName,psychopyVersion,frameRate,
,,,,,,,,,,,,,,,,,,,,,,,,,,,,,,,,,,,,,,,,,,,,,,,,,,,,,,20.24540670000033,None,20.24540670000033,None,space,1.7916111999998066,20.72917180000013,None,,,,,,,,,,,,,,,,,,,,,,,,,,,,,,,,,,,,,,,,,,,,,,,,,,,,,,,,,,,,,,,,,,,,,,,,,,,,,,,,,,,,,,,,,,227,2022-05-31_14h00.48.128,FishGame,2022.1.1,60.01439145105137,
물고기과제_instruction(참가자용)OrangeVersion.mp4,,,,,,,,,,,,,,0,0,0,0,0,0,0,0,,,,,,,,,,,,,,,,,,,,,,,,,,,,,,,,,,,,,,,,,89.38360200000034,None,n,3.3433147999999164,89.38360200000034,None,,,,,,,,,,,,,,,,,,,,,,,,,,,,,,,,,,,,,,,,,,,,,,,,,,,,,,,,,,,,,,,,,,,,,,,,,,,,,,,,,,,,227,2022-05-31_14h00.48.128,FishGame,2022.1.1,60.01439145105137,
,1,넌 교활해,5,Green,B,2.333333333333333,2.133333333333333,ScrollUp,ScrollDown,Green.png,practice,,,0,0,0,0,,,,,0,0,0,0,0,0,0,0,,,,,,,,,,,,,,,,,,,,,,,,,,,,,,,,,,,,,,,0.18240741,-0.27222222,1,0,0,0.5136667900001157,None,92.75312710000026,None,97.06924650000019,98.56916799999999,98.60227510000004,99.55234960000007,99.60231870000007,100.55213500000036,100.55213500000036,None,2,1.9860539000001154,101.7433374000002,None,ScrollUp,정답입니다,101.7433374000002,None,101.7433374000002,None,101.7433374000002,None,101.7433374000002,None,103.54810029999999,None,103.54810029999999,104.05150500000036,,,,,,,,,,,,,,,,,,,,,,,,,,,,,,,,,,,,,,,,,,,,,,,,,227,2022-05-31_14h00.48.128,FishGame,2022.1.1,60.01439145105137,
,2,넌 슬기로워,2,Orange,A,6.166666666666667,4.1,ScrollDown,ScrollUp,Orange.png,practice,,,0,0,0,0,,,,,0,0,0,0,0,1,1,1,,,,,,,,,,,,,,,,,,,,,,,,,,,,,,,,,,,,,,,,,,,,,,,,,,,,,,,,1,1.4376388000000588,104.7119659,None,ScrollDown,정답입니다,104.7119659,None,104.7119659,None,104.7119659,None,104.7119659,None,106.00893930000029,None,106.00893930000029,106.5180319000001,,,,,,,,,,,,,,,,,,,,,,,,,,,,,,,,,,,,,,,,,,,,,,,,,227,2022-05-31_14h00.48.128,FishGame,2022.1.1,60.01439145105137,
,3,나를 보내줘,6,Orange,A,0,0,ScrollUp,ScrollDown,Orange.png,practice,,,0,0,0,0,,,,,0,0,0,0,0,2,2,2,,,,,,,,,,,,,,,,,,,,,,,,,,,,,,,,,,,,,,,,,,,,,,,,,,,,,,,,2,1.5339194999996835,107.16711630000009,None,ScrollUp,정답입니다,107.16711630000009,None,107.16711630000009,None,107.16711630000009,None,107.16711630000009,None,108.57203410000011,None,108.57203410000011,109.08434260000013,,,,,,,,,,,,,,,,,,,,,,,,,,,,,,,,,,,,,,,,,,,,,,,,,227,2022-05-31_14h00.48.128,FishGame,2022.1.1,60.01439145105137,
,4,나를 데려가줘,6,Green,B,0,0,ScrollDown,ScrollUp,Green.png,practice,,,0,0,0,0,,,,,0,0,0,0,0,3,3,3,,,,,,,,,,,,,,,,,,,,,,,,,,,,,,,,,,,,,,,,,,,,,,,,,,,,,,,,1,1.5107481000000007,109.7263567,None,ScrollDown,정답입니다,109.7263567,None,109.7263567,None,109.7263567,None,109.7263567,None,111.11731220000001,None,111.11731220000001,111.6172633000001,,,,,,,,,,,,,,,,,,,,,,,,,,,,,,,,,,,,,,,,,,,,,,,,,227,2022-05-31_14h00.48.128,FishGame,2022.1.1,60.01439145105137,
,1,넌 교활해,5,Green,B,2.333333333333333,2.133333333333333,ScrollUp,ScrollDown,Green.png,practice,,,0,0,0,0,,,,,0,0,0,0,,,,,,,,,,,,,,,,,,,,,,,,,,,,,,,,,,,,,,,,,,,,,,,,,,,,,,,,,,,,,,,,,,,,,,,,,,,,,,n,2.6145674999997937,112.11711650000007,None,112.11711650000007,None,,,,,,,,,,,,,,,,,,,,,,,,,,,,,,,,,,,,,,,,,,,227,2022-05-31_14h00.48.128,FishGame,2022.1.1,60.01439145105137,
,1,넌 따뜻해,1,Green,B,6.083333333333333,5.6,ScrollUp,ScrollDown,Green.png,1,Positive,Incongruent,0,0,0,0,,,,,,,,,,,,,0,0,0,0,,,,,,,,,,,,,,,,,,,,,,,,,,,,,,,,,,,,,,,,,,,,118.7168144000002,120.21637830000009,120.24964339999997,121.19944490000034,121.24935930000038,122.19921520000025,122.19921520000025,None,,,,,,,,,,,,,,,,,,,,,,,,,0.14166667,-0.13703704,1,0,0,0.31389669000009235,None,114.7503356000002,None,1.8209876517454784,1.3131647000000157,123.3883552000002,None,ScrollUp,정답입니다,123.3883552000002,None,123.3883552000002,None,123.3883552000002,None,123.3883552000002,None,124.52149920000011,None,124.52149920000011,125.03220880000026,,,,,,,,,,,,,,,,227,2022-05-31_14h00.48.128,FishGame,2022.1.1,60.01439145105137,
,2,넌 기품있어,2,Green,B,5.791666666666668,4.5,ScrollUp,ScrollDown,Green.png,1,Positive,Incongruent,0,0,0,0,,,,,,,,,,,,,0,1,1,1,,,,,,,,,,,,,,,,,,,,,,,,,,,,,,,,,,,,,,,,,,,,,,,,,,,,,,,,,,,,,,,,,,,,,,,,,,,,,,,,,,,,,2,1.2982929999998305,125.68738510000003,None,ScrollUp,정답입니다,125.68738510000003,None,125.68738510000003,None,125.68738510000003,None,125.68738510000003,None,126.85081080000009,None,126.85081080000009,127.36543930000016,,,,,,,,,,,,,,,,227,2022-05-31_14h00.48.128,FishGame,2022.1.1,60.01439145105137,
,3,나를 보내줘,6,Orange,A,0,0,ScrollUp,ScrollDown,Orange.png,1,NonTarget,NonTarget,0,0,0,0,,,,,,,,,,,,,0,2,2,2,,,,,,,,,,,,,,,,,,,,,,,,,,,,,,,,,,,,,,,,,,,,,,,,,,,,,,,,,,,,,,,,,,,,,,,,,,,,,,,,,,,,,2,1.186904400000003,128.0248518000003,None,ScrollUp,정답입니다,128.0248518000003,None,128.0248518000003,None,128.0248518000003,None,128.0248518000003,None,129.07984810000016,None,129.07984810000016,129.58159460000024,,,,,,,,,,,,,,,,227,2022-05-31_14h00.48.128,FishGame,2022.1.1,60.01439145105137,
,4,넌 수동적이야,4,Orange,A,2.833333333333333,2.933333333333333,ScrollDown,ScrollUp,Orange.png,1,Negative,Incongruent,0,0,0,0,,,,,,,,,,,,,0,3,3,3,,,,,,,,,,,,,,,,,,,,,,,,,,,,,,,,,,,,,,,,,,,,,,,,,,,,,,,,,,,,,,,,,,,,,,,,,,,,,,,,,,,,,1,1.0490796999997656,130.2519795000003,None,ScrollDown,정답입니다,130.2519795000003,None,130.2519795000003,None,130.2519795000003,None,130.2519795000003,None,131.1521647000004,None,131.1521647000004,131.66476710000006,,,,,,,,,,,,,,,,227,2022-05-31_14h00.48.128,FishGame,2022.1.1,60.01439145105137,
,5,넌 사심이 없어,3,Green,B,4.916666666666666,4.333333333333333,ScrollUp,ScrollDown,Green.png,1,Neutral,Neutral,0,0,0,0,,,,,,,,,,,,,0,4,4,4,,,,,,,,,,,,,,,,,,,,,,,,,,,,,,,,,,,,,,,,,,,,,,,,,,,,,,,,,,,,,,,,,,,,,,,,,,,,,,,,,,,,,2,1.455219599999964,132.31652900000017,None,ScrollUp,정답입니다,132.31652900000017,None,132.31652900000017,None,132.31652900000017,None,132.31652900000017,None,133.6459431000003,None,133.6459431000003,134.14784410000038,,,,,,,,,,,,,,,,227,2022-05-31_14h00.48.128,FishGame,2022.1.1,60.01439145105137,
,6,넌 헤퍼,5,Orange,A,2.458333333333334,2.233333333333333,ScrollDown,ScrollUp,Orange.png,1,Negative,Incongruent,0,0,0,0,,,,,,,,,,,,,0,5,5,5,,,,,,,,,,,,,,,,,,,,,,,,,,,,,,,,,,,,,,,,,,,,,,,,,,,,,,,,,,,,,,,,,,,,,,,,,,,,,,,,,,,,,1,1.1604763999998795,134.80120220000026,None,ScrollDown,정답입니다,134.80120220000026,None,134.80120220000026,None,134.80120220000026,None,134.80120220000026,None,135.8310032000004,None,135.8310032000004,136.3309188000003,,,,,,,,,,,,,,,,227,2022-05-31_14h00.48.128,FishGame,2022.1.1,60.01439145105137,
,7,넌 말쑥해,3,Orange,A,4.833333333333334,4.333333333333333,ScrollDown,ScrollUp,Orange.png,1,Neutral,Neutral,0,0,0,0,,,,,,,,,,,,,0,6,6,6,,,,,,,,,,,,,,,,,,,,,,,,,,,,,,,,,,,,,,,,,,,,,,,,,,,,,,,,,,,,,,,,,,,,,,,,,,,,,,,,,,,,,1,1.269565799999782,136.99047950000022,None,ScrollDown,정답입니다,136.99047950000022,None,136.99047950000022,None,136.99047950000022,None,136.99047950000022,None,138.12242560000004,None,138.12242560000004,138.63055030000032,,,,,,,,,,,,,,,,227,2022-05-31_14h00.48.128,FishGame,2022.1.1,60.01439145105137,
,8,넌 투덜거려,5,Green,B,2.541666666666667,2.266666666666667,ScrollUp,ScrollDown,Green.png,1,Negative,Congruent,0,0,0,0,,,,,,,,,,,,,0,7,7,7,,,,,,,,,,,,,,,,,,,,,,,,,,,,,,,,,,,,,,,,,,,,,,,,,,,,,,,,,,,,,,,,,,,,,,,,,,,,,,,,,,,,,2,1.165347600000132,139.29092290000017,None,ScrollUp,정답입니다,139.29092290000017,None,139.29092290000017,None,139.29092290000017,None,139.29092290000017,None,140.31577200000038,None,140.31577200000038,140.83018790000006,,,,,,,,,,,,,,,,227,2022-05-31_14h00.48.128,FishGame,2022.1.1,60.01439145105137,
,9,넌 적극적이야,1,Orange,A,5.708333333333333,5.533333333333333,ScrollDown,ScrollUp,Orange.png,1,Positive,Congruent,0,0,0,0,,,,,,,,,,,,,0,8,8,8,,,,,,,,,,,,,,,,,,,,,,,,,,,,,,,,,,,,,,,,,,,,,,,,,,,,,,,,,,,,,,,,,,,,,,,,,,,,,,,,,,,,,1,0.9265572999997858,141.4870702000003,None,ScrollDown,정답입니다,141.4870702000003,None,141.4870702000003,None,141.4870702000003,None,141.4870702000003,None,142.28006830000004,None,142.28006830000004,142.78005200000007,,,,,,,,,,,,,,,,227,2022-05-31_14h00.48.128,FishGame,2022.1.1,60.01439145105137,
,10,넌 재미없어,4,Green,B,2.625,2.966666666666667,ScrollUp,ScrollDown,Green.png,1,Negative,Congruent,0,0,0,0,,,,,,,,,,,,,0,9,9,9,,,,,,,,,,,,,,,,,,,,,,,,,,,,,,,,,,,,,,,,,,,,,,,,,,,,,,,,,,,,,,,,,,,,,,,,,,,,,,,,,,,,,2,1.1103699999998753,143.42962510000007,None,ScrollUp,정답입니다,143.42962510000007,None,143.42962510000007,None,143.42962510000007,None,143.42962510000007,None,144.4131983000002,None,144.4131983000002,144.91323660000035,,,,,,,,,,,,,,,,227,2022-05-31_14h00.48.128,FishGame,2022.1.1,60.01439145105137,
,11,넌 명석해,2,Orange,A,5.875,4.033333333333333,ScrollDown,ScrollUp,Orange.png,1,Positive,Congruent,0,0,0,0,,,,,,,,,,,,,0,10,10,10,,,,,,,,,,,,,,,,,,,,,,,,,,,,,,,,,,,,,,,,,,,,,,,,,,,,,,,,,,,,,,,,,,,,,,,,,,,,,,,,,,,,,1,1.0438980999997511,145.56746330000033,None,ScrollDown,정답입니다,145.56746330000033,None,145.56746330000033,None,145.56746330000033,None,145.56746330000033,None,146.4759438000001,None,146.4759438000001,146.97943010000017,,,,,,,,,,,,,,,,227,2022-05-31_14h00.48.128,FishGame,2022.1.1,60.01439145105137,
,12,나를 데려가줘,6,Green,B,0,0,ScrollDown,ScrollUp,Green.png,1,NonTarget,NonTarget,0,0,0,0,,,,,,,,,,,,,0,11,11,11,,,,,,,,,,,,,,,,,,,,,,,,,,,,,,,,,,,,,,,,,,,,,,,,,,,,,,,,,,,,,,,,,,,,,,,,,,,,,,,,,,,,,1,1.39028959999996,147.6304839000004,None,ScrollDown,정답입니다,147.6304839000004,None,147.6304839000004,None,147.6304839000004,None,147.6304839000004,None,148.89576000000034,None,148.89576000000034,149.3958220000004,,,,,,,,,,,,,,,,227,2022-05-31_14h00.48.128,FishGame,2022.1.1,60.01439145105137,
,13,넌 소심해,4,Orange,A,3,3.1,ScrollDown,ScrollUp,Orange.png,1,Negative,Incongruent,0,0,0,0,,,,,,,,,,,,,0,12,12,12,,,,,,,,,,,,,,,,,,,,,,,,,,,,,,,,,,,,,,,,,,,,,,,,,,,,,,,,,,,,,,,,,,,,,,,,,,,,,,,,,,,,,1,1.0612662000003183,150.04872270000033,None,ScrollDown,정답입니다,150.04872270000033,None,150.04872270000033,None,150.04872270000033,None,150.04872270000033,None,150.97862740000028,None,150.97862740000028,151.47896579999997,,,,,,,,,,,,,,,,227,2022-05-31_14h00.48.128,FishGame,2022.1.1,60.01439145105137,
,14,넌 합리적이야,2,Orange,A,5.583333333333333,4.733333333333333,ScrollDown,ScrollUp,Orange.png,1,Positive,Congruent,0,0,0,0,,,,,,,,,,,,,0,13,13,13,,,,,,,,,,,,,,,,,,,,,,,,,,,,,,,,,,,,,,,,,,,,,,,,,,,,,,,,,,,,,,,,,,,,,,,,,,,,,,,,,,,,,1,1.0329851999999846,152.13442410000016,None,ScrollDown,정답입니다,152.13442410000016,None,152.13442410000016,None,152.13442410000016,None,152.13442410000016,None,153.03326400000014,None,153.03326400000014,153.54513459999998,,,,,,,,,,,,,,,,227,2022-05-31_14h00.48.128,FishGame,2022.1.1,60.01439145105137,
,15,넌 무자비해,5,Green,B,2.333333333333333,2.1,ScrollUp,ScrollDown,Green.png,1,Negative,Congruent,0,0,0,0,,,,,,,,,,,,,0,14,14,14,,,,,,,,,,,,,,,,,,,,,,,,,,,,,,,,,,,,,,,,,,,,,,,,,,,,,,,,,,,,,,,,,,,,,,,,,,,,,,,,,,,,,2,1.0881055999998352,154.19820170000003,None,ScrollUp,정답입니다,154.19820170000003,None,154.19820170000003,None,154.19820170000003,None,154.19820170000003,None,155.15271070000017,None,155.15271070000017,155.66152290000036,,,,,,,,,,,,,,,,227,2022-05-31_14h00.48.128,FishGame,2022.1.1,60.01439145105137,
,16,나를 보내줘,6,Orange,A,0,0,ScrollUp,ScrollDown,Orange.png,1,NonTarget,NonTarget,0,0,0,0,,,,,,,,,,,,,0,15,15,15,,,,,,,,,,,,,,,,,,,,,,,,,,,,,,,,,,,,,,,,,,,,,,,,,,,,,,,,,,,,,,,,,,,,,,,,,,,,,,,,,,,,,1.9537037014961243,1.538311700000122,156.30922050000027,None,ScrollUp,정답입니다,156.30922050000027,None,156.30922050000027,None,156.30922050000027,None,156.30922050000027,None,157.71940840000025,None,157.71940840000025,158.22801210000034,,,,,,,,,,,,,,,,227,2022-05-31_14h00.48.128,FishGame,2022.1.1,60.01439145105137,
,17,넌 현실적이야,3,Green,B,4.608695652173913,4.766666666666667,ScrollUp,ScrollDown,Green.png,1,Neutral,Neutral,0,0,0,0,,,,,,,,,,,,,0,16,16,16,,,,,,,,,,,,,,,,,,,,,,,,,,,,,,,,,,,,,,,,,,,,,,,,,,,,,,,,,,,,,,,,,,,,,,,,,,,,,,,,,,,,,1.9691357910633087,1.3425218000002133,158.8883882,None,ScrollUp,정답입니다,158.8883882,None,158.8883882,None,158.8883882,None,158.8883882,None,160.09425920000012,None,160.09425920000012,160.5942971000004,,,,,,,,,,,,,,,,227,2022-05-31_14h00.48.128,FishGame,2022.1.1,60.01439145105137,
,18,넌 의리있어,1,Green,B,5.833333333333334,5.633333333333334,ScrollUp,ScrollDown,Green.png,1,Positive,Incongruent,0,0,0,0,,,,,,,,,,,,,0,17,17,17,,,,,,,,,,,,,,,,,,,,,,,,,,,,,,,,,,,,,,,,,,,,,,,,,,,,,,,,,,,,,,,,,,,,,,,,,,,,,,,,,,,,,2,1.1347851999998966,161.24154660000022,None,ScrollUp,정답입니다,161.24154660000022,None,161.24154660000022,None,161.24154660000022,None,161.24154660000022,None,162.2488142000002,None,162.2488142000002,162.7608027000001,,,,,,,,,,,,,,,,227,2022-05-31_14h00.48.128,FishGame,2022.1.1,60.01439145105137,
,19,넌 신경과민이야,5,Orange,A,2.541666666666667,2.166666666666667,ScrollDown,ScrollUp,Orange.png,1,Negative,Incongruent,0,0,0,0,,,,,,,,,,,,,0,18,18,18,,,,,,,,,,,,,,,,,,,,,,,,,,,,,,,,,,,,,,,,,,,,,,,,,,,,,,,,,,,,,,,,,,,,,,,,,,,,,,,,,,,,,1,1.3262768999998116,163.42055170000003,None,ScrollDown,정답입니다,163.42055170000003,None,163.42055170000003,None,163.42055170000003,None,163.42055170000003,None,164.61047159999998,None,164.61047159999998,165.1104965000004,,,,,,,,,,,,,,,,227,2022-05-31_14h00.48.128,FishGame,2022.1.1,60.01439145105137,
,20,넌 편안해,1,Orange,A,5.916666666666666,5.866666666666666,ScrollDown,ScrollUp,Orange.png,1,Positive,Congruent,0,0,0,0,,,,,,,,,,,,,0,19,19,19,,,,,,,,,,,,,,,,,,,,,,,,,,,,,,,,,,,,,,,,,,,,,,,,,,,,,,,,,,,,,,,,,,,,,,,,,,,,,,,,,,,,,1,1.0812546999995902,165.76534530000026,None,ScrollDown,정답입니다,165.76534530000026,None,165.76534530000026,None,165.76534530000026,None,165.76534530000026,None,166.7131115000002,None,166.7131115000002,167.22690980000016,,,,,,,,,,,,,,,,227,2022-05-31_14h00.48.128,FishGame,2022.1.1,60.01439145105137,
,21,넌 품위있어,2,Green,B,5.291666666666666,4.466666666666667,ScrollUp,ScrollDown,Green.png,1,Positive,Incongruent,0,0,0,0,,,,,,,,,,,,,0,20,20,20,,,,,,,,,,,,,,,,,,,,,,,,,,,,,,,,,,,,,,,,,,,,,,,,,,,,,,,,,,,,,,,,,,,,,,,,,,,,,,,,,,,,,1.9876543084780376,1.28862590000017,167.87219770000002,None,ScrollUp,정답입니다,167.87219770000002,None,167.87219770000002,None,167.87219770000002,None,167.87219770000002,None,169.04139950000035,None,169.04139950000035,169.54333150000002,,,,,,,,,,,,,,,,227,2022-05-31_14h00.48.128,FishGame,2022.1.1,60.01439145105137,
,22,넌 빈틈없어,3,Orange,A,4.833333333333333,3.966666666666667,ScrollDown,ScrollUp,Orange.png,1,Neutral,Neutral,0,0,0,0,,,,,,,,,,,,,0,21,21,21,,,,,,,,,,,,,,,,,,,,,,,,,,,,,,,,,,,,,,,,,,,,,,,,,,,,,,,,,,,,,,,,,,,,,,,,,,,,,,,,,,,,,1,1.0351340000001983,170.19777680000016,None,ScrollDown,정답입니다,170.19777680000016,None,170.19777680000016,None,170.19777680000016,None,170.19777680000016,None,171.10326980000036,None,171.10326980000036,171.60967840000012,,,,,,,,,,,,,,,,227,2022-05-31_14h00.48.128,FishGame,2022.1.1,60.01439145105137,
,23,넌 상상력없어,4,Green,B,2.833333333333333,3.133333333333333,ScrollUp,ScrollDown,Green.png,1,Negative,Congruent,0,0,0,0,,,,,,,,,,,,,0,22,22,22,,,,,,,,,,,,,,,,,,,,,,,,,,,,,,,,,,,,,,,,,,,,,,,,,,,,,,,,,,,,,,,,,,,,,,,,,,,,,,,,,,,,,2,1.2340784999996686,172.2585479000004,None,ScrollUp,정답입니다,172.2585479000004,None,172.2585479000004,None,172.2585479000004,None,172.2585479000004,None,173.36388050000005,None,173.36388050000005,173.87588800000003,,,,,,,,,,,,,,,,227,2022-05-31_14h00.48.128,FishGame,2022.1.1,60.01439145105137,
,24,넌 지혜로워,2,Green,B,6.333333333333334,4.633333333333334,ScrollUp,ScrollDown,Green.png,1,Positive,Incongruent,0,0,0,0,,,,,,,,,,,,,0,23,23,23,,,,,,,,,,,,,,,,,,,,,,,,,,,,,,,,,,,,,,,,,,,,,,,,,,,,,,,,,,,,,,,,,,,,,,,,,,,,,,,,,,,,,2,1.2911924999998519,174.53051360000018,None,ScrollUp,정답입니다,174.53051360000018,None,174.53051360000018,None,174.53051360000018,None,174.53051360000018,None,175.69242930000019,None,175.69242930000019,176.1924508000002,,,,,,,,,,,,,,,,227,2022-05-31_14h00.48.128,FishGame,2022.1.1,60.01439145105137,
,25,넌 시끄러워,4,Orange,A,2.833333333333333,3.033333333333333,ScrollDown,ScrollUp,Orange.png,1,Negative,Incongruent,0,0,0,0,,,,,,,,,,,,,0,24,24,24,,,,,,,,,,,,,,,,,,,,,,,,,,,,,,,,,,,,,,,,,,,,,,,,,,,,,,,,,,,,,,,,,,,,,,,,,,,,,,,,,,,,,1.0046296219031017,1.127789699999994,176.85446690000026,None,ScrollDown,정답입니다,176.85446690000026,None,176.85446690000026,None,176.85446690000026,None,176.85446690000026,None,177.84164710000005,None,177.84164710000005,178.34209710000005,,,,,,,,,,,,,,,,227,2022-05-31_14h00.48.128,FishGame,2022.1.1,60.01439145105137,
,26,넌 만사태평이야,3,Green,B,4,4.333333333333333,ScrollUp,ScrollDown,Green.png,1,Neutral,Neutral,0,0,0,0,,,,,,,,,,,,,0,25,25,25,,,,,,,,,,,,,,,,,,,,,,,,,,,,,,,,,,,,,,,,,,,,,,,,,,,,,,,,,,,,,,,,,,,,,,,,,,,,,,,,,,,,,2,1.257336000000123,178.99474800000007,None,ScrollUp,정답입니다,178.99474800000007,None,178.99474800000007,None,178.99474800000007,None,178.99474800000007,None,180.12508900000012,None,180.12508900000012,180.62521730000026,,,,,,,,,,,,,,,,227,2022-05-31_14h00.48.128,FishGame,2022.1.1,60.01439145105137,
,27,넌 붙임성있어,1,Orange,A,5.708333333333333,5.633333333333334,ScrollDown,ScrollUp,Orange.png,1,Positive,Congruent,0,0,0,0,,,,,,,,,,,,,0,26,26,26,,,,,,,,,,,,,,,,,,,,,,,,,,,,,,,,,,,,,,,,,,,,,,,,,,,,,,,,,,,,,,,,,,,,,,,,,,,,,,,,,,,,,1,0.9492287000002761,181.28172220000033,None,ScrollDown,정답입니다,181.28172220000033,None,181.28172220000033,None,181.28172220000033,None,181.28172220000033,None,182.09563340000022,None,182.09563340000022,182.6080723,,,,,,,,,,,,,,,,227,2022-05-31_14h00.48.128,FishGame,2022.1.1,60.01439145105137,
,28,넌 영리해,2,Orange,A,6,4.033333333333333,ScrollDown,ScrollUp,Orange.png,1,Positive,Congruent,0,0,0,0,,,,,,,,,,,,,0,27,27,27,,,,,,,,,,,,,,,,,,,,,,,,,,,,,,,,,,,,,,,,,,,,,,,,,,,,,,,,,,,,,,,,,,,,,,,,,,,,,,,,,,,,,1,1.0178518000002441,183.2605408000004,None,ScrollDown,정답입니다,183.2605408000004,None,183.2605408000004,None,183.2605408000004,None,183.2605408000004,None,184.1460932,None,184.1460932,184.65781570000036,,,,,,,,,,,,,,,,227,2022-05-31_14h00.48.128,FishGame,2022.1.1,60.01439145105137,
,29,넌 열심이야,1,Green,B,6.041666666666667,5.833333333333333,ScrollUp,ScrollDown,Green.png,1,Positive,Incongruent,0,0,0,0,,,,,,,,,,,,,0,28,28,28,,,,,,,,,,,,,,,,,,,,,,,,,,,,,,,,,,,,,,,,,,,,,,,,,,,,,,,,,,,,,,,,,,,,,,,,,,,,,,,,,,,,,2,1.0318601000003582,185.3047918000002,None,ScrollUp,정답입니다,185.3047918000002,None,185.3047918000002,None,185.3047918000002,None,185.3047918000002,None,186.20973060000006,None,186.20973060000006,186.7243483000002,,,,,,,,,,,,,,,,227,2022-05-31_14h00.48.128,FishGame,2022.1.1,60.01439145105137,
,30,넌 인기없어,4,Green,B,3,3.3,ScrollUp,ScrollDown,Green.png,1,Negative,Congruent,0,0,0,0,,,,,,,,,,,,,0,29,29,29,,,,,,,,,,,,,,,,,,,,,,,,,,,,,,,,,,,,,,,,,,,,,,,,,,,,,,,,,,,,,,,,,,,,,,,,,,,,,,,,,,,,,2,1.0958174999996118,187.37097170000015,None,ScrollUp,정답입니다,187.37097170000015,None,187.37097170000015,None,187.37097170000015,None,187.37097170000015,None,188.33999220000032,None,188.33999220000032,188.8406855000003,,,,,,,,,,,,,,,,227,2022-05-31_14h00.48.128,FishGame,2022.1.1,60.01439145105137,
,31,넌 익살스러워,3,Orange,A,4.708333333333334,4.833333333333333,ScrollDown,ScrollUp,Orange.png,1,Neutral,Neutral,0,0,0,0,,,,,,,,,,,,,0,30,30,30,,,,,,,,,,,,,,,,,,,,,,,,,,,,,,,,,,,,,,,,,,,,,,,,,,,,,,,,,,,,,,,,,,,,,,,,,,,,,,,,,,,,,1,1.1899353999997402,189.4978188,None,ScrollDown,정답입니다,189.4978188,None,189.4978188,None,189.4978188,None,189.4978188,None,190.55724550000014,None,190.55724550000014,191.0571176000003,,,,,,,,,,,,,,,,227,2022-05-31_14h00.48.128,FishGame,2022.1.1,60.01439145105137,
,32,넌 이기적이야,5,Green,B,2.291666666666667,2.333333333333333,ScrollUp,ScrollDown,Green.png,1,Negative,Congruent,0,0,0,0,,,,,,,,,,,,,0,31,31,31,,,,,,,,,,,,,,,,,,,,,,,,,,,,,,,,,,,,,,,,,,,,,,,,,,,,,,,,,,,,,,,,,,,,,,,,,,,,,,,,,,,,,2,1.0056933999999274,191.6996868000001,None,ScrollUp,정답입니다,191.6996868000001,None,191.6996868000001,None,191.6996868000001,None,191.6996868000001,None,192.58814230000007,None,192.58814230000007,193.09011650000002,,,,,,,,,,,,,,,,227,2022-05-31_14h00.48.128,FishGame,2022.1.1,60.01439145105137,
,33,나를 데려가줘,6,Green,B,0,0,ScrollDown,ScrollUp,Green.png,1,NonTarget,NonTarget,0,0,0,0,,,,,,,,,,,,,0,32,32,32,,,,,,,,,,,,,,,,,,,,,,,,,,,,,,,,,,,,,,,,,,,,,,,,,,,,,,,,,,,,,,,,,,,,,,,,,,,,,,,,,,,,,1,1.252576599999884,193.7313178000004,None,ScrollDown,정답입니다,193.7313178000004,None,193.7313178000004,None,193.7313178000004,None,193.7313178000004,None,194.86219580000034,None,194.86219580000034,195.37315510000008,,,,,,,,,,,,,,,,227,2022-05-31_14h00.48.128,FishGame,2022.1.1,60.01439145105137,
,34,넌 기회주의자야,5,Orange,A,2.875,2.133333333333333,ScrollDown,ScrollUp,Orange.png,1,Negative,Incongruent,0,0,0,0,,,,,,,,,,,,,0,33,33,33,,,,,,,,,,,,,,,,,,,,,,,,,,,,,,,,,,,,,,,,,,,,,,,,,,,,,,,,,,,,,,,,,,,,,,,,,,,,,,,,,,,,,1.0524691541989644,1.1395950000000994,196.02947970000014,None,ScrollDown,정답입니다,196.02947970000014,None,196.02947970000014,None,196.02947970000014,None,196.02947970000014,None,197.03968600000007,None,197.03968600000007,197.5395037000003,,,,,,,,,,,,,,,,227,2022-05-31_14h00.48.128,FishGame,2022.1.1,60.01439145105137,
,1,넌 미성숙해,4,Orange,A,3,3.2,ScrollDown,ScrollUp,Orange.png,2,Negative,Incongruent,0,0,0,0,,,,,,,,,,,,,,,,,0,0,0,0,,,,,,,,,,,,,,,,,,,,,,,,,,,,,,,,,,,,,,,,232.1852431000002,233.68503450000026,233.71844480000027,234.6680548000004,234.71816920000037,235.66791300000023,235.66791300000023,None,,,,,,,,,,,,,,,,,,,,,,,,,,,,,,,,,,1.0416666567325592,1.3242919999997866,236.85109880000027,None,ScrollDown,정답입니다,236.85109880000027,None,236.85109880000027,None,236.85109880000027,None,236.85109880000027,None,238.00105030000032,None,238.00105030000032,238.5008657000003,198.03938719999996,None,198.03938719999996,None,0.21666667,-0.035185184,1,0,0,0.016070789999503177,None,228.0524078000003,None,,,227,2022-05-31_14h00.48.128,FishGame,2022.1.1,60.01439145105137,
,2,넌 반사회적이야,5,Green,B,2.416666666666667,2.033333333333333,ScrollUp,ScrollDown,Green.png,2,Negative,Congruent,0,0,0,0,,,,,,,,,,,,,,,,,0,1,1,1,,,,,,,,,,,,,,,,,,,,,,,,,,,,,,,,,,,,,,,,,,,,,,,,,,,,,,,,,,,,,,,,,,,,,,,,,,,,,,,,,2,0.9268414000002849,239.1474304000003,None,ScrollUp,정답입니다,239.1474304000003,None,239.1474304000003,None,239.1474304000003,None,239.1474304000003,None,239.94565890000013,None,239.94565890000013,240.45075010000028,,,,,,,,,,,,,,,,227,2022-05-31_14h00.48.128,FishGame,2022.1.1,60.01439145105137,
,3,넌 유능해,2,Orange,A,6.208333333333333,4.433333333333334,ScrollDown,ScrollUp,Orange.png,2,Positive,Congruent,0,0,0,0,,,,,,,,,,,,,,,,,0,2,2,2,,,,,,,,,,,,,,,,,,,,,,,,,,,,,,,,,,,,,,,,,,,,,,,,,,,,,,,,,,,,,,,,,,,,,,,,,,,,,,,,,1,0.8773093999998309,241.10367620000034,None,ScrollDown,정답입니다,241.10367620000034,None,241.10367620000034,None,241.10367620000034,None,241.10367620000034,None,241.85022019999997,None,241.85022019999997,242.3502682000003,,,,,,,,,,,,,,,,227,2022-05-31_14h00.48.128,FishGame,2022.1.1,60.01439145105137,
,4,넌 능숙해,2,Green,B,5.666666666666667,4.733333333333333,ScrollUp,ScrollDown,Green.png,2,Positive,Incongruent,0,0,0,0,,,,,,,,,,,,,,,,,0,3,3,3,,,,,,,,,,,,,,,,,,,,,,,,,,,,,,,,,,,,,,,,,,,,,,,,,,,,,,,,,,,,,,,,,,,,,,,,,,,,,,,,,2,0.8827167999997982,242.99239490000036,None,ScrollUp,정답입니다,242.99239490000036,None,242.99239490000036,None,242.99239490000036,None,242.99239490000036,None,243.75379090000024,None,243.75379090000024,244.26710720000028,,,,,,,,,,,,,,,,227,2022-05-31_14h00.48.128,FishGame,2022.1.1,60.01439145105137,
,5,넌 진부해,4,Green,B,2.458333333333333,3.166666666666667,ScrollUp,ScrollDown,Green.png,2,Negative,Congruent,0,0,0,0,,,,,,,,,,,,,,,,,0,4,4,4,,,,,,,,,,,,,,,,,,,,,,,,,,,,,,,,,,,,,,,,,,,,,,,,,,,,,,,,,,,,,,,,,,,,,,,,,,,,,,,,,2,1.026055400000132,244.91965730000038,None,ScrollUp,정답입니다,244.91965730000038,None,244.91965730000038,None,244.91965730000038,None,244.91965730000038,None,245.81687620000002,None,245.81687620000002,246.31657620000033,,,,,,,,,,,,,,,,227,2022-05-31_14h00.48.128,FishGame,2022.1.1,60.01439145105137,
,6,나를 보내줘,6,Orange,A,0,0,ScrollUp,ScrollDown,Orange.png,2,NonTarget,NonTarget,0,0,0,0,,,,,,,,,,,,,,,,,0,5,5,5,,,,,,,,,,,,,,,,,,,,,,,,,,,,,,,,,,,,,,,,,,,,,,,,,,,,,,,,,,,,,,,,,,,,,,,,,,,,,,,,,1.9814815024534862,1.2437285999999403,246.96289260000003,None,ScrollUp,정답입니다,246.96289260000003,None,246.96289260000003,None,246.96289260000003,None,246.96289260000003,None,248.08319950000032,None,248.08319950000032,248.58291270000018,,,,,,,,,,,,,,,,227,2022-05-31_14h00.48.128,FishGame,2022.1.1,60.01439145105137,
,7,넌 엄격해,3,Orange,A,4.166666666666666,4.1,ScrollDown,ScrollUp,Orange.png,2,Neutral,Neutral,0,0,0,0,,,,,,,,,,,,,,,,,0,6,6,6,,,,,,,,,,,,,,,,,,,,,,,,,,,,,,,,,,,,,,,,,,,,,,,,,,,,,,,,,,,,,,,,,,,,,,,,,,,,,,,,,1.1111111094554265,0.9078430999998091,249.23403010000038,None,ScrollDown,정답입니다,249.23403010000038,None,249.23403010000038,None,249.23403010000038,None,249.23403010000038,None,250.01619150000033,None,250.01619150000033,250.5160476000001,,,,,,,,,,,,,,,,227,2022-05-31_14h00.48.128,FishGame,2022.1.1,60.01439145105137,
,8,나를 보내줘,6,Orange,A,0,0,ScrollUp,ScrollDown,Orange.png,2,NonTarget,NonTarget,0,0,0,0,,,,,,,,,,,,,,,,,0,7,7,7,,,,,,,,,,,,,,,,,,,,,,,,,,,,,,,,,,,,,,,,,,,,,,,,,,,,,,,,,,,,,,,,,,,,,,,,,,,,,,,,,1.7808641890684764,1.0036157999998068,251.16443430000027,None,ScrollUp,정답입니다,251.16443430000027,None,251.16443430000027,None,251.16443430000027,None,251.16443430000027,None,252.04022610000038,None,252.04022610000038,252.54906680000022,,,,,,,,,,,,,,,,227,2022-05-31_14h00.48.128,FishGame,2022.1.1,60.01439145105137,
,9,넌 대담해,3,Green,B,4.875,4.866666666666666,ScrollUp,ScrollDown,Green.png,2,Neutral,Neutral,0,0,0,0,,,,,,,,,,,,,,,,,0,8,8,8,,,,,,,,,,,,,,,,,,,,,,,,,,,,,,,,,,,,,,,,,,,,,,,,,,,,,,,,,,,,,,,,,,,,,,,,,,,,,,,,,2,1.1937760999999227,253.19843390000005,None,ScrollUp,정답입니다,253.19843390000005,None,253.19843390000005,None,253.19843390000005,None,253.19843390000005,None,254.26582120000012,None,254.26582120000012,254.76561970000012,,,,,,,,,,,,,,,,227,2022-05-31_14h00.48.128,FishGame,2022.1.1,60.01439145105137,
,10,넌 꾸준해,1,Orange,A,5.916666666666668,5.8,ScrollDown,ScrollUp,Orange.png,2,Positive,Congruent,0,0,0,0,,,,,,,,,,,,,,,,,0,9,9,9,,,,,,,,,,,,,,,,,,,,,,,,,,,,,,,,,,,,,,,,,,,,,,,,,,,,,,,,,,,,,,,,,,,,,,,,,,,,,,,,,1,0.9875715000002856,255.4198604000003,None,ScrollDown,정답입니다,255.4198604000003,None,255.4198604000003,None,255.4198604000003,None,255.4198604000003,None,256.2727331000001,None,256.2727331000001,256.7819962000003,,,,,,,,,,,,,,,,227,2022-05-31_14h00.48.128,FishGame,2022.1.1,60.01439145105137,
,11,나를 데려가줘,6,Green,B,0,0,ScrollDown,ScrollUp,Green.png,2,NonTarget,NonTarget,0,0,0,0,,,,,,,,,,,,,,,,,0,10,10,10,,,,,,,,,,,,,,,,,,,,,,,,,,,,,,,,,,,,,,,,,,,,,,,,,,,,,,,,,,,,,,,,,,,,,,,,,,,,,,,,,1,0.9841340000002674,257.4257268000001,None,ScrollDown,정답입니다,257.4257268000001,None,257.4257268000001,None,257.4257268000001,None,257.4257268000001,None,258.2864916000003,None,258.2864916000003,258.79834800000026,,,,,,,,,,,,,,,,227,2022-05-31_14h00.48.128,FishGame,2022.1.1,60.01439145105137,
,12,넌 독선적이야,5,Orange,A,2.458333333333333,1.933333333333333,ScrollDown,ScrollUp,Orange.png,2,Negative,Incongruent,0,0,0,0,,,,,,,,,,,,,,,,,0,11,11,11,,,,,,,,,,,,,,,,,,,,,,,,,,,,,,,,,,,,,,,,,,,,,,,,,,,,,,,,,,,,,,,,,,,,,,,,,,,,,,,,,1.0293209950129192,1.2508843000000525,259.4538316000003,None,ScrollDown,정답입니다,259.4538316000003,None,259.4538316000003,None,259.4538316000003,None,259.4538316000003,None,260.5695745000003,None,260.5695745000003,261.08146450000004,,,,,,,,,,,,,,,,227,2022-05-31_14h00.48.128,FishGame,2022.1.1,60.01439145105137,
,13,나를 보내줘,6,Orange,A,0,0,ScrollUp,ScrollDown,Orange.png,2,NonTarget,NonTarget,0,0,0,0,,,,,,,,,,,,,,,,,0,12,12,12,,,,,,,,,,,,,,,,,,,,,,,,,,,,,,,,,,,,,,,,,,,,,,,,,,,,,,,,,,,,,,,,,,,,,,,,,,,,,,,,,1.9336419701576233,0.9865187000000333,261.7277788000001,None,ScrollUp,정답입니다,261.7277788000001,None,261.7277788000001,None,261.7277788000001,None,261.7277788000001,None,262.5873888000001,None,262.5873888000001,263.0978269000002,,,,,,,,,,,,,,,,227,2022-05-31_14h00.48.128,FishGame,2022.1.1,60.01439145105137,
,14,넌 책임감있어,1,Green,B,6.347826086956522,6,ScrollUp,ScrollDown,Green.png,2,Positive,Incongruent,0,0,0,0,,,,,,,,,,,,,,,,,0,13,13,13,,,,,,,,,,,,,,,,,,,,,,,,,,,,,,,,,,,,,,,,,,,,,,,,,,,,,,,,,,,,,,,,,,,,,,,,,,,,,,,,,1.9320987562338512,0.8172703000000183,263.7439363000003,None,ScrollUp,정답입니다,263.7439363000003,None,263.7439363000003,None,263.7439363000003,None,263.7439363000003,None,264.4354453000001,None,264.4354453000001,264.9476264,,,,,,,,,,,,,,,,227,2022-05-31_14h00.48.128,FishGame,2022.1.1,60.01439145105137,
,15,넌 문학적이야,3,Orange,A,4.708333333333334,4.333333333333333,ScrollDown,ScrollUp,Orange.png,2,Neutral,Neutral,0,0,0,0,,,,,,,,,,,,,,,,,0,14,14,14,,,,,,,,,,,,,,,,,,,,,,,,,,,,,,,,,,,,,,,,,,,,,,,,,,,,,,,,,,,,,,,,,,,,,,,,,,,,,,,,,1.0092592636744182,0.9165972000000693,265.6024489000001,None,ScrollDown,정답입니다,265.6024489000001,None,265.6024489000001,None,265.6024489000001,None,265.6024489000001,None,266.3848737000003,None,266.3848737000003,266.8974234000002,,,,,,,,,,,,,,,,227,2022-05-31_14h00.48.128,FishGame,2022.1.1,60.01439145105137,
,16,넌 재미있어,1,Green,B,5.875,5.7,ScrollUp,ScrollDown,Green.png,2,Positive,Incongruent,0,0,0,0,,,,,,,,,,,,,,,,,0,15,15,15,,,,,,,,,,,,,,,,,,,,,,,,,,,,,,,,,,,,,,,,,,,,,,,,,,,,,,,,,,,,,,,,,,,,,,,,,,,,,,,,,1.9336419701576233,1.0279158000003008,267.53929340000013,None,ScrollUp,정답입니다,267.53929340000013,None,267.53929340000013,None,267.53929340000013,None,267.53929340000013,None,268.4422767000001,None,268.4422767000001,268.9471115000001,,,,,,,,,,,,,,,,227,2022-05-31_14h00.48.128,FishGame,2022.1.1,60.01439145105137,
,17,나를 데려가줘,6,Green,B,0,0,ScrollDown,ScrollUp,Green.png,2,NonTarget,NonTarget,0,0,0,0,,,,,,,,,,,,,,,,,0,16,16,16,,,,,,,,,,,,,,,,,,,,,,,,,,,,,,,,,,,,,,,,,,,,,,,,,,,,,,,,,,,,,,,,,,,,,,,,,,,,,,,,,1,1.3834099000000606,269.58963360000007,None,ScrollDown,정답입니다,269.58963360000007,None,269.58963360000007,None,269.58963360000007,None,269.58963360000007,None,270.85151859999996,None,270.85151859999996,271.36339580000003,,,,,,,,,,,,,,,,227,2022-05-31_14h00.48.128,FishGame,2022.1.1,60.01439145105137,
,18,넌 협력적이야,1,Orange,A,5.625,5.633333333333334,ScrollDown,ScrollUp,Orange.png,2,Positive,Congruent,0,0,0,0,,,,,,,,,,,,,,,,,0,17,17,17,,,,,,,,,,,,,,,,,,,,,,,,,,,,,,,,,,,,,,,,,,,,,,,,,,,,,,,,,,,,,,,,,,,,,,,,,,,,,,,,,1,1.0073904999999286,272.0142413000003,None,ScrollDown,정답입니다,272.0142413000003,None,272.0142413000003,None,272.0142413000003,None,272.0142413000003,None,272.8966955000001,None,272.8966955000001,273.3964672000002,,,,,,,,,,,,,,,,227,2022-05-31_14h00.48.128,FishGame,2022.1.1,60.01439145105137,
,19,넌 평범해,3,Green,B,4.333333333333332,4.233333333333333,ScrollUp,ScrollDown,Green.png,2,Neutral,Neutral,0,0,0,0,,,,,,,,,,,,,,,,,0,18,18,18,,,,,,,,,,,,,,,,,,,,,,,,,,,,,,,,,,,,,,,,,,,,,,,,,,,,,,,,,,,,,,,,,,,,,,,,,,,,,,,,,1.9567901293436687,1.2548719000001256,274.04292140000007,None,ScrollUp,정답입니다,274.04292140000007,None,274.04292140000007,None,274.04292140000007,None,274.04292140000007,None,275.17195010000023,None,275.17195010000023,275.6794713000004,,,,,,,,,,,,,,,,227,2022-05-31_14h00.48.128,FishGame,2022.1.1,60.01439145105137,
,20,넌 오만해,5,Orange,A,2.333333333333333,2,ScrollDown,ScrollUp,Orange.png,2,Negative,Incongruent,0,0,0,0,,,,,,,,,,,,,,,,,0,19,19,19,,,,,,,,,,,,,,,,,,,,,,,,,,,,,,,,,,,,,,,,,,,,,,,,,,,,,,,,,,,,,,,,,,,,,,,,,,,,,,,,,1,0.914608799999769,276.33680300000015,None,ScrollDown,정답입니다,276.33680300000015,None,276.33680300000015,None,276.33680300000015,None,276.33680300000015,None,277.11505160000024,None,277.11505160000024,277.6292540000004,,,,,,,,,,,,,,,,227,2022-05-31_14h00.48.128,FishGame,2022.1.1,60.01439145105137,
,21,넌 운이없어,4,Green,B,3,3.466666666666667,ScrollUp,ScrollDown,Green.png,2,Negative,Congruent,0,0,0,0,,,,,,,,,,,,,,,,,0,20,20,20,,,,,,,,,,,,,,,,,,,,,,,,,,,,,,,,,,,,,,,,,,,,,,,,,,,,,,,,,,,,,,,,,,,,,,,,,,,,,,,,,2,0.9115879000000859,278.2759536000003,None,ScrollUp,정답입니다,278.2759536000003,None,278.2759536000003,None,278.2759536000003,None,278.2759536000003,None,279.06224020000036,None,279.06224020000036,279.56238759999997,,,,,,,,,,,,,,,,227,2022-05-31_14h00.48.128,FishGame,2022.1.1,60.01439145105137,
,22,넌 창조적이야,2,Green,B,6.125,4.633333333333334,ScrollUp,ScrollDown,Green.png,2,Positive,Incongruent,0,0,0,0,,,,,,,,,,,,,,,,,0,21,21,21,,,,,,,,,,,,,,,,,,,,,,,,,,,,,,,,,,,,,,,,,,,,,,,,,,,,,,,,,,,,,,,,,,,,,,,,,,,,,,,,,2,1.0507889999998952,280.2097855000002,None,ScrollUp,정답입니다,280.2097855000002,None,280.2097855000002,None,280.2097855000002,None,280.2097855000002,None,281.1337249000003,None,281.1337249000003,281.64535920000026,,,,,,,,,,,,,,,,227,2022-05-31_14h00.48.128,FishGame,2022.1.1,60.01439145105137,
,23,나를 보내줘,6,Orange,A,0,0,ScrollUp,ScrollDown,Orange.png,2,NonTarget,NonTarget,0,0,0,0,,,,,,,,,,,,,,,,,0,22,22,22,,,,,,,,,,,,,,,,,,,,,,,,,,,,,,,,,,,,,,,,,,,,,,,,,,,,,,,,,,,,,,,,,,,,,,,,,,,,,,,,,1.8086419651905696,1.2785928000002968,282.3051524000002,None,ScrollUp,정답입니다,282.3051524000002,None,282.3051524000002,None,282.3051524000002,None,282.3051524000002,None,283.4454992000001,None,283.4454992000001,283.9449995,,,,,,,,,,,,,,,,227,2022-05-31_14h00.48.128,FishGame,2022.1.1,60.01439145105137,
,24,넌 통찰력있어,2,Orange,A,6.5,4.8,ScrollDown,ScrollUp,Orange.png,2,Positive,Congruent,0,0,0,0,,,,,,,,,,,,,,,,,0,23,23,23,,,,,,,,,,,,,,,,,,,,,,,,,,,,,,,,,,,,,,,,,,,,,,,,,,,,,,,,,,,,,,,,,,,,,,,,,,,,,,,,,1.0555555323759716,1.5153099999997721,284.60976070000015,None,ScrollDown,정답입니다,284.60976070000015,None,284.60976070000015,None,284.60976070000015,None,284.60976070000015,None,285.9842007000002,None,285.9842007000002,286.4948091000001,,,,,,,,,,,,,,,,227,2022-05-31_14h00.48.128,FishGame,2022.1.1,60.01439145105137,
,25,넌 경솔해,5,Green,B,2.458333333333333,2.266666666666667,ScrollUp,ScrollDown,Green.png,2,Negative,Congruent,0,0,0,0,,,,,,,,,,,,,,,,,0,24,24,24,,,,,,,,,,,,,,,,,,,,,,,,,,,,,,,,,,,,,,,,,,,,,,,,,,,,,,,,,,,,,,,,,,,,,,,,,,,,,,,,,2,1.1360341999998127,287.15143530000023,None,ScrollUp,정답입니다,287.15143530000023,None,287.15143530000023,None,287.15143530000023,None,287.15143530000023,None,288.15184620000036,None,288.15184620000036,288.66091170000027,,,,,,,,,,,,,,,,227,2022-05-31_14h00.48.128,FishGame,2022.1.1,60.01439145105137,
,26,넌 초조해,4,Orange,A,2.916666666666667,3.133333333333333,ScrollDown,ScrollUp,Orange.png,2,Negative,Incongruent,0,0,0,0,,,,,,,,,,,,,,,,,0,25,25,25,,,,,,,,,,,,,,,,,,,,,,,,,,,,,,,,,,,,,,,,,,,,,,,,,,,,,,,,,,,,,,,,,,,,,,,,,,,,,,,,,1,1.1234521000001223,289.32181790000004,None,ScrollDown,정답입니다,289.32181790000004,None,289.32181790000004,None,289.32181790000004,None,289.32181790000004,None,290.3108634,None,290.3108634,290.81083560000025,,,,,,,,,,,,,,,,227,2022-05-31_14h00.48.128,FishGame,2022.1.1,60.01439145105137,
,27,넌 무관심해,4,Green,B,2.833333333333333,2.9,ScrollUp,ScrollDown,Green.png,2,Negative,Congruent,0,0,0,0,,,,,,,,,,,,,,,,,0,26,26,26,,,,,,,,,,,,,,,,,,,,,,,,,,,,,,,,,,,,,,,,,,,,,,,,,,,,,,,,,,,,,,,,,,,,,,,,,,,,,,,,,2,1.3130833000000166,291.46832410000025,None,ScrollUp,정답입니다,291.46832410000025,None,291.46832410000025,None,291.46832410000025,None,291.46832410000025,None,292.6464066000003,None,292.6464066000003,293.1605919000003,,,,,,,,,,,,,,,,227,2022-05-31_14h00.48.128,FishGame,2022.1.1,60.01439145105137,
,28,넌 감성적이야,3,Green,B,4.125,4.166666666666667,ScrollUp,ScrollDown,Green.png,2,Neutral,Neutral,0,0,0,0,,,,,,,,,,,,,,,,,0,27,27,27,,,,,,,,,,,,,,,,,,,,,,,,,,,,,,,,,,,,,,,,,,,,,,,,,,,,,,,,,,,,,,,,,,,,,,,,,,,,,,,,,2,1.1865770000003977,293.81695960000025,None,ScrollUp,정답입니다,293.81695960000025,None,293.81695960000025,None,293.81695960000025,None,293.81695960000025,None,294.8748488000001,None,294.8748488000001,295.3768964000001,,,,,,,,,,,,,,,,227,2022-05-31_14h00.48.128,FishGame,2022.1.1,60.01439145105137,
,29,넌 배려심있어,1,Orange,A,6.083333333333333,5.5,ScrollDown,ScrollUp,Orange.png,2,Positive,Congruent,0,0,0,0,,,,,,,,,,,,,,,,,0,28,28,28,,,,,,,,,,,,,,,,,,,,,,,,,,,,,,,,,,,,,,,,,,,,,,,,,,,,,,,,,,,,,,,,,,,,,,,,,,,,,,,,,1.0216049253940582,1.164431500000319,296.0453112,None,ScrollDown,정답입니다,296.0453112,None,296.0453112,None,296.0453112,None,296.0453112,None,297.0637898,None,297.0637898,297.57669060000035,,,,,,,,,,,,,,,,227,2022-05-31_14h00.48.128,FishGame,2022.1.1,60.01439145105137,
,30,넌 숨김없어,3,Orange,A,4.5,4.933333333333334,ScrollDown,ScrollUp,Orange.png,2,Neutral,Neutral,0,0,0,0,,,,,,,,,,,,,,,,,0,29,29,29,,,,,,,,,,,,,,,,,,,,,,,,,,,,,,,,,,,,,,,,,,,,,,,,,,,,,,,,,,,,,,,,,,,,,,,,,,,,,,,,,1,1.0259687000002486,298.2574953000003,None,ScrollDown,정답입니다,298.2574953000003,None,298.2574953000003,None,298.2574953000003,None,298.2574953000003,None,299.12640820000024,None,299.12640820000024,299.6265168,,,,,,,,,,,,,,,,227,2022-05-31_14h00.48.128,FishGame,2022.1.1,60.01439145105137,
,31,넌 훌륭해,2,Green,B,5.916666666666667,4.033333333333333,ScrollUp,ScrollDown,Green.png,2,Positive,Incongruent,0,0,0,0,,,,,,,,,,,,,,,,,0,30,30,30,,,,,,,,,,,,,,,,,,,,,,,,,,,,,,,,,,,,,,,,,,,,,,,,,,,,,,,,,,,,,,,,,,,,,,,,,,,,,,,,,2,1.144525799999883,300.29604689999996,None,ScrollUp,정답입니다,300.29604689999996,None,300.29604689999996,None,300.29604689999996,None,300.29604689999996,None,301.29256080000005,None,301.29256080000005,301.7926231000001,,,,,,,,,,,,,,,,227,2022-05-31_14h00.48.128,FishGame,2022.1.1,60.01439145105137,
,32,넌 슬기로워,2,Orange,A,6.166666666666667,4.1,ScrollDown,ScrollUp,Orange.png,2,Positive,Congruent,0,0,0,0,,,,,,,,,,,,,,,,,0,31,31,31,,,,,,,,,,,,,,,,,,,,,,,,,,,,,,,,,,,,,,,,,,,,,,,,,,,,,,,,,,,,,,,,,,,,,,,,,,,,,,,,,1,1.105040999999801,302.4620852000003,None,ScrollDown,정답입니다,302.4620852000003,None,302.4620852000003,None,302.4620852000003,None,302.4620852000003,None,303.4176596000002,None,303.4176596000002,303.9257364,,,,,,,,,,,,,,,,227,2022-05-31_14h00.48.128,FishGame,2022.1.1,60.01439145105137,
,33,넌 냉혹해,5,Orange,A,2.583333333333333,2.1,ScrollDown,ScrollUp,Orange.png,2,Negative,Incongruent,0,0,0,0,,,,,,,,,,,,,,,,,0,32,32,32,,,,,,,,,,,,,,,,,,,,,,,,,,,,,,,,,,,,,,,,,,,,,,,,,,,,,,,,,,,,,,,,,,,,,,,,,,,,,,,,,1,1.0441838000001553,304.59036140000035,None,ScrollDown,정답입니다,304.59036140000035,None,304.59036140000035,None,304.59036140000035,None,304.59036140000035,None,305.4920917000004,None,305.4920917000004,305.9920839000001,,,,,,,,,,,,,,,,227,2022-05-31_14h00.48.128,FishGame,2022.1.1,60.01439145105137,
,34,나를 데려가줘,6,Green,B,0,0,ScrollDown,ScrollUp,Green.png,2,NonTarget,NonTarget,0,0,0,0,,,,,,,,,,,,,,,,,0,33,33,33,,,,,,,,,,,,,,,,,,,,,,,,,,,,,,,,,,,,,,,,,,,,,,,,,,,,,,,,,,,,,,,,,,,,,,,,,,,,,,,,,1,1.341514300000199,306.6608710000005,None,ScrollDown,정답입니다,306.6608710000005,None,306.6608710000005,None,306.6608710000005,None,306.6608710000005,None,307.85842360000015,None,307.85842360000015,308.35859180000034,,,,,,,,,,,,,,,,227,2022-05-31_14h00.48.128,FishGame,2022.1.1,60.01439145105137,
,35,넌 편파적이야,5,Green,B,2.125,2,ScrollUp,ScrollDown,Green.png,2,Negative,Congruent,0,0,0,0,,,,,,,,,,,,,,,,,0,34,34,34,,,,,,,,,,,,,,,,,,,,,,,,,,,,,,,,,,,,,,,,,,,,,,,,,,,,,,,,,,,,,,,,,,,,,,,,,,,,,,,,,2,1.0986227000003055,309.01662820000047,None,ScrollUp,정답입니다,309.01662820000047,None,309.01662820000047,None,309.01662820000047,None,309.01662820000047,None,309.9776218000002,None,309.9776218000002,310.4917244000003,,,,,,,,,,,,,,,,227,2022-05-31_14h00.48.128,FishGame,2022.1.1,60.01439145105137,
,36,넌 슬퍼,4,Orange,A,2.583333333333333,3.066666666666667,ScrollDown,ScrollUp,Orange.png,2,Negative,Incongruent,0,0,0,0,,,,,,,,,,,,,,,,,0,35,35,35,,,,,,,,,,,,,,,,,,,,,,,,,,,,,,,,,,,,,,,,,,,,,,,,,,,,,,,,,,,,,,,,,,,,,,,,,,,,,,,,,1,0.9433919000002788,311.1412198000003,None,ScrollDown,정답입니다,311.1412198000003,None,311.1412198000003,None,311.1412198000003,None,311.1412198000003,None,311.9581868,None,311.9581868,312.45803939999996,,,,,,,,,,,,,,,,227,2022-05-31_14h00.48.128,FishGame,2022.1.1,60.01439145105137,
,37,나를 데려가줘,6,Green,B,0,0,ScrollDown,ScrollUp,Green.png,2,NonTarget,NonTarget,0,0,0,0,,,,,,,,,,,,,,,,,0,36,36,36,,,,,,,,,,,,,,,,,,,,,,,,,,,,,,,,,,,,,,,,,,,,,,,,,,,,,,,,,,,,,,,,,,,,,,,,,,,,,,,,,1.0108024775981903,1.1945740999999543,313.10218589999977,None,ScrollDown,정답입니다,313.10218589999977,None,313.10218589999977,None,313.10218589999977,None,313.10218589999977,None,314.1744051999999,None,314.1744051999999,314.67435330000035,,,,,,,,,,,,,,,,227,2022-05-31_14h00.48.128,FishGame,2022.1.1,60.01439145105137,
,38,넌 친절해,1,Green,B,6.041666666666667,5.533333333333333,ScrollUp,ScrollDown,Green.png,2,Positive,Incongruent,0,0,0,0,,,,,,,,,,,,,,,,,0,37,37,37,,,,,,,,,,,,,,,,,,,,,,,,,,,,,,,,,,,,,,,,,,,,,,,,,,,,,,,,,,,,,,,,,,,,,,,,,,,,,,,,,1.9845678806304932,1.1787937999997666,315.33576159999984,None,ScrollUp,정답입니다,315.33576159999984,None,315.33576159999984,None,315.33576159999984,None,315.33576159999984,None,316.37409230000003,None,316.37409230000003,316.8740603000001,,,,,,,,,,,,,,,,227,2022-05-31_14h00.48.128,FishGame,2022.1.1,60.01439145105137,
,1,넌 엉성해,4,Orange,A,3,3.3,ScrollDown,ScrollUp,Orange.png,3,Negative,Incongruent,0,0,0,0,,,,,,,,,,,,,,,,,,,,,0,0,0,0,,,,,,,,,,,,,,,,,,,,,,,,,,,,,,,,,,,,349.00358280000046,350.5033182000002,350.5366241000006,351.48654410000063,351.5363841000003,352.48633459999974,352.48633459999974,None,,,,,,,,,,,,,,,,,,,,,,,,,,,,,,,,,,1,1.2539828999997553,353.6781242000002,None,ScrollDown,정답입니다,353.6781242000002,None,353.6781242000002,None,353.6781242000002,None,353.6781242000002,None,354.74587500000007,None,354.74587500000007,355.25278949999984,317.37419180000006,None,317.37419180000006,None,0.28611112,-0.09537037,1,0,0,0.016242290000263893,None,347.3867888,None,,,227,2022-05-31_14h00.48.128,FishGame,2022.1.1,60.01439145105137,
,2,나를 보내줘,6,Orange,A,0,0,ScrollUp,ScrollDown,Orange.png,3,NonTarget,NonTarget,0,0,0,0,,,,,,,,,,,,,,,,,,,,,0,1,1,1,,,,,,,,,,,,,,,,,,,,,,,,,,,,,,,,,,,,,,,,,,,,,,,,,,,,,,,,,,,,,,,,,,,,,,,,,,,,,2,1.0617225999994844,355.9026832000004,None,ScrollUp,정답입니다,355.9026832000004,None,355.9026832000004,None,355.9026832000004,None,355.9026832000004,None,356.8323820999999,None,356.8323820999999,357.3357178000001,,,,,,,,,,,,,,,,227,2022-05-31_14h00.48.128,FishGame,2022.1.1,60.01439145105137,
,3,넌 활발해,1,Green,B,5.666666666666667,5.6,ScrollUp,ScrollDown,Green.png,3,Positive,Incongruent,0,0,0,0,,,,,,,,,,,,,,,,,,,,,0,2,2,2,,,,,,,,,,,,,,,,,,,,,,,,,,,,,,,,,,,,,,,,,,,,,,,,,,,,,,,,,,,,,,,,,,,,,,,,,,,,,2,0.9416502000003675,357.9889059000002,None,ScrollUp,정답입니다,357.9889059000002,None,357.9889059000002,None,357.9889059000002,None,357.9889059000002,None,358.8020289000001,None,358.8020289000001,359.30205419999993,,,,,,,,,,,,,,,,227,2022-05-31_14h00.48.128,FishGame,2022.1.1,60.01439145105137,
,4,넌 논리적이야,2,Orange,A,5.666666666666666,4.633333333333334,ScrollDown,ScrollUp,Orange.png,3,Positive,Congruent,0,0,0,0,,,,,,,,,,,,,,,,,,,,,0,3,3,3,,,,,,,,,,,,,,,,,,,,,,,,,,,,,,,,,,,,,,,,,,,,,,,,,,,,,,,,,,,,,,,,,,,,,,,,,,,,,1,1.2269986000001154,359.95817880000004,None,ScrollDown,정답입니다,359.95817880000004,None,359.95817880000004,None,359.95817880000004,None,359.95817880000004,None,361.05171949999976,None,361.05171949999976,361.5517044000003,,,,,,,,,,,,,,,,227,2022-05-31_14h00.48.128,FishGame,2022.1.1,60.01439145105137,
,5,넌 과묵해,3,Orange,A,3.875,4.4,ScrollDown,ScrollUp,Orange.png,3,Neutral,Neutral,0,0,0,0,,,,,,,,,,,,,,,,,,,,,0,4,4,4,,,,,,,,,,,,,,,,,,,,,,,,,,,,,,,,,,,,,,,,,,,,,,,,,,,,,,,,,,,,,,,,,,,,,,,,,,,,,1,1.0328894000003856,362.2028812000003,None,ScrollDown,정답입니다,362.2028812000003,None,362.2028812000003,None,362.2028812000003,None,362.2028812000003,None,363.10576979999996,None,363.10576979999996,363.6180356,,,,,,,,,,,,,,,,227,2022-05-31_14h00.48.128,FishGame,2022.1.1,60.01439145105137,
,6,나를 데려가줘,6,Green,B,0,0,ScrollDown,ScrollUp,Green.png,3,NonTarget,NonTarget,0,0,0,0,,,,,,,,,,,,,,,,,,,,,0,5,5,5,,,,,,,,,,,,,,,,,,,,,,,,,,,,,,,,,,,,,,,,,,,,,,,,,,,,,,,,,,,,,,,,,,,,,,,,,,,,,1,1.2498230000001058,364.26428609999994,None,ScrollDown,정답입니다,364.26428609999994,None,364.26428609999994,None,364.26428609999994,None,364.26428609999994,None,365.38863880000054,None,365.38863880000054,365.90111320000005,,,,,,,,,,,,,,,,227,2022-05-31_14h00.48.128,FishGame,2022.1.1,60.01439145105137,
,7,넌 미숙해,4,Green,B,3,3,ScrollUp,ScrollDown,Green.png,3,Negative,Congruent,0,0,0,0,,,,,,,,,,,,,,,,,,,,,0,6,6,6,,,,,,,,,,,,,,,,,,,,,,,,,,,,,,,,,,,,,,,,,,,,,,,,,,,,,,,,,,,,,,,,,,,,,,,,,,,,,2,1.0770848000001934,366.5449399000004,None,ScrollUp,정답입니다,366.5449399000004,None,366.5449399000004,None,366.5449399000004,None,366.5449399000004,None,367.50110970000014,None,367.50110970000014,368.0008380000004,,,,,,,,,,,,,,,,227,2022-05-31_14h00.48.128,FishGame,2022.1.1,60.01439145105137,
,8,나를 보내줘,6,Orange,A,0,0,ScrollUp,ScrollDown,Orange.png,3,NonTarget,NonTarget,0,0,0,0,,,,,,,,,,,,,,,,,,,,,0,7,7,7,,,,,,,,,,,,,,,,,,,,,,,,,,,,,,,,,,,,,,,,,,,,,,,,,,,,,,,,,,,,,,,,,,,,,,,,,,,,,2,1.1702023999996527,368.65177129999984,None,ScrollUp,정답입니다,368.65177129999984,None,368.65177129999984,None,368.65177129999984,None,368.65177129999984,None,369.69872350000014,None,369.69872350000014,370.20073600000023,,,,,,,,,,,,,,,,227,2022-05-31_14h00.48.128,FishGame,2022.1.1,60.01439145105137,
,9,넌 자신만만해,3,Green,B,4.833333333333334,4.333333333333333,ScrollUp,ScrollDown,Green.png,3,Neutral,Neutral,0,0,0,0,,,,,,,,,,,,,,,,,,,,,0,8,8,8,,,,,,,,,,,,,,,,,,,,,,,,,,,,,,,,,,,,,,,,,,,,,,,,,,,,,,,,,,,,,,,,,,,,,,,,,,,,,2,1.2782716000001528,370.8423916000006,None,ScrollUp,정답입니다,370.8423916000006,None,370.8423916000006,None,370.8423916000006,None,370.8423916000006,None,371.99682340000027,None,371.99682340000027,372.5002245999999,,,,,,,,,,,,,,,,227,2022-05-31_14h00.48.128,FishGame,2022.1.1,60.01439145105137,
,10,넌 탐욕스러워,5,Orange,A,2.25,2.1,ScrollDown,ScrollUp,Orange.png,3,Negative,Incongruent,0,0,0,0,,,,,,,,,,,,,,,,,,,,,0,9,9,9,,,,,,,,,,,,,,,,,,,,,,,,,,,,,,,,,,,,,,,,,,,,,,,,,,,,,,,,,,,,,,,,,,,,,,,,,,,,,1,0.9111999000006108,373.16284120000046,None,ScrollDown,정답입니다,373.16284120000046,None,373.16284120000046,None,373.16284120000046,None,373.16284120000046,None,373.9332592000005,None,373.9332592000005,374.4334918999998,,,,,,,,,,,,,,,,227,2022-05-31_14h00.48.128,FishGame,2022.1.1,60.01439145105137,
,11,넌 인기있어,2,Orange,A,5.458333333333333,4.5,ScrollDown,ScrollUp,Orange.png,3,Positive,Congruent,0,0,0,0,,,,,,,,,,,,,,,,,,,,,0,10,10,10,,,,,,,,,,,,,,,,,,,,,,,,,,,,,,,,,,,,,,,,,,,,,,,,,,,,,,,,,,,,,,,,,,,,,,,,,,,,,1,1.1476072000004933,375.0837883999998,None,ScrollDown,정답입니다,375.0837883999998,None,375.0837883999998,None,375.0837883999998,None,375.0837883999998,None,376.1025169999998,None,376.1025169999998,376.6165696000003,,,,,,,,,,,,,,,,227,2022-05-31_14h00.48.128,FishGame,2022.1.1,60.01439145105137,
,12,나를 데려가줘,6,Green,B,0,0,ScrollDown,ScrollUp,Green.png,3,NonTarget,NonTarget,0,0,0,0,,,,,,,,,,,,,,,,,,,,,0,11,11,11,,,,,,,,,,,,,,,,,,,,,,,,,,,,,,,,,,,,,,,,,,,,,,,,,,,,,,,,,,,,,,,,,,,,,,,,,,,,,1,1.2117847999998048,377.26321620000044,None,ScrollDown,정답입니다,377.26321620000044,None,377.26321620000044,None,377.26321620000044,None,377.26321620000044,None,378.34953749999977,None,378.34953749999977,378.8493794000001,,,,,,,,,,,,,,,,227,2022-05-31_14h00.48.128,FishGame,2022.1.1,60.01439145105137,
,13,넌 뛰어나,2,Green,B,6.166666666666667,4,ScrollUp,ScrollDown,Green.png,3,Positive,Incongruent,0,0,0,0,,,,,,,,,,,,,,,,,,,,,0,12,12,12,,,,,,,,,,,,,,,,,,,,,,,,,,,,,,,,,,,,,,,,,,,,,,,,,,,,,,,,,,,,,,,,,,,,,,,,,,,,,2,1.0326998000000458,379.49546109999983,None,ScrollUp,정답입니다,379.49546109999983,None,379.49546109999983,None,379.49546109999983,None,379.49546109999983,None,380.4027381000001,None,380.4027381000001,380.9158115000005,,,,,,,,,,,,,,,,227,2022-05-31_14h00.48.128,FishGame,2022.1.1,60.01439145105137,
,14,넌 낙관적이야,1,Orange,A,5.75,5.8,ScrollDown,ScrollUp,Orange.png,3,Positive,Congruent,0,0,0,0,,,,,,,,,,,,,,,,,,,,,0,13,13,13,,,,,,,,,,,,,,,,,,,,,,,,,,,,,,,,,,,,,,,,,,,,,,,,,,,,,,,,,,,,,,,,,,,,,,,,,,,,,1,0.9682399000002988,381.5722142999998,None,ScrollDown,정답입니다,381.5722142999998,None,381.5722142999998,None,381.5722142999998,None,381.5722142999998,None,382.40422979999994,None,382.40422979999994,382.91566569999986,,,,,,,,,,,,,,,,227,2022-05-31_14h00.48.128,FishGame,2022.1.1,60.01439145105137,
,15,넌 산만해,4,Green,B,2.695652173913043,3.033333333333333,ScrollUp,ScrollDown,Green.png,3,Negative,Congruent,0,0,0,0,,,,,,,,,,,,,,,,,,,,,0,14,14,14,,,,,,,,,,,,,,,,,,,,,,,,,,,,,,,,,,,,,,,,,,,,,,,,,,,,,,,,,,,,,,,,,,,,,,,,,,,,,2,1.1155023000001165,383.5670653000002,None,ScrollUp,정답입니다,383.5670653000002,None,383.5670653000002,None,383.5670653000002,None,383.5670653000002,None,384.5512150999998,None,384.5512150999998,385.06552669999974,,,,,,,,,,,,,,,,227,2022-05-31_14h00.48.128,FishGame,2022.1.1,60.01439145105137,
,16,나를 보내줘,6,Orange,A,0,0,ScrollUp,ScrollDown,Orange.png,3,NonTarget,NonTarget,0,0,0,0,,,,,,,,,,,,,,,,,,,,,0,15,15,15,,,,,,,,,,,,,,,,,,,,,,,,,,,,,,,,,,,,,,,,,,,,,,,,,,,,,,,,,,,,,,,,,,,,,,,,,,,,,2,1.085829300000114,385.7184892,None,ScrollUp,정답입니다,385.7184892,None,385.7184892,None,385.7184892,None,385.7184892,None,386.6799375000005,None,386.6799375000005,387.181822,,,,,,,,,,,,,,,,227,2022-05-31_14h00.48.128,FishGame,2022.1.1,60.01439145105137,
,17,넌 교활해,5,Green,B,2.333333333333333,2.133333333333333,ScrollUp,ScrollDown,Green.png,3,Negative,Congruent,0,0,0,0,,,,,,,,,,,,,,,,,,,,,0,16,16,16,,,,,,,,,,,,,,,,,,,,,,,,,,,,,,,,,,,,,,,,,,,,,,,,,,,,,,,,,,,,,,,,,,,,,,,,,,,,,2,1.08364470000015,387.8275011999999,None,ScrollUp,정답입니다,387.8275011999999,None,387.8275011999999,None,387.8275011999999,None,387.8275011999999,None,388.78504699999985,None,388.78504699999985,389.29837129999987,,,,,,,,,,,,,,,,227,2022-05-31_14h00.48.128,FishGame,2022.1.1,60.01439145105137,
,18,나를 보내줘,6,Orange,A,0,0,ScrollUp,ScrollDown,Orange.png,3,NonTarget,NonTarget,0,0,0,0,,,,,,,,,,,,,,,,,,,,,0,17,17,17,,,,,,,,,,,,,,,,,,,,,,,,,,,,,,,,,,,,,,,,,,,,,,,,,,,,,,,,,,,,,,,,,,,,,,,,,,,,,2,1.1121471999995265,389.9493378000002,None,ScrollUp,정답입니다,389.9493378000002,None,389.9493378000002,None,389.9493378000002,None,389.9493378000002,None,390.9313014000004,None,390.9313014000004,391.43133549999993,,,,,,,,,,,,,,,,227,2022-05-31_14h00.48.128,FishGame,2022.1.1,60.01439145105137,
,19,넌 불친절해,5,Green,B,2.208333333333333,2.033333333333333,ScrollUp,ScrollDown,Green.png,3,Negative,Congruent,0,0,0,0,,,,,,,,,,,,,,,,,,,,,0,18,18,18,,,,,,,,,,,,,,,,,,,,,,,,,,,,,,,,,,,,,,,,,,,,,,,,,,,,,,,,,,,,,,,,,,,,,,,,,,,,,2,1.1446710000000166,392.0826275000004,None,ScrollUp,정답입니다,392.0826275000004,None,392.0826275000004,None,392.0826275000004,None,392.0826275000004,None,393.0975248999998,None,393.0975248999998,393.5975056000002,,,,,,,,,,,,,,,,227,2022-05-31_14h00.48.128,FishGame,2022.1.1,60.01439145105137,
,20,넌 지적이야,2,Green,B,5.75,4.366666666666666,ScrollUp,ScrollDown,Green.png,3,Positive,Incongruent,0,0,0,0,,,,,,,,,,,,,,,,,,,,,0,19,19,19,,,,,,,,,,,,,,,,,,,,,,,,,,,,,,,,,,,,,,,,,,,,,,,,,,,,,,,,,,,,,,,,,,,,,,,,,,,,,2,1.1499916000002486,394.24579500000027,None,ScrollUp,정답입니다,394.24579500000027,None,394.24579500000027,None,394.24579500000027,None,394.24579500000027,None,395.2677445000004,None,395.2677445000004,395.7805924999998,,,,,,,,,,,,,,,,227,2022-05-31_14h00.48.128,FishGame,2022.1.1,60.01439145105137,
,21,넌 우유부단해,4,Orange,A,2.666666666666667,3.166666666666667,ScrollDown,ScrollUp,Orange.png,3,Negative,Incongruent,0,0,0,0,,,,,,,,,,,,,,,,,,,,,0,20,20,20,,,,,,,,,,,,,,,,,,,,,,,,,,,,,,,,,,,,,,,,,,,,,,,,,,,,,,,,,,,,,,,,,,,,,,,,,,,,,1,0.9940476000001581,396.4369685000006,None,ScrollDown,정답입니다,396.4369685000006,None,396.4369685000006,None,396.4369685000006,None,396.4369685000006,None,397.2969957999999,None,397.2969957999999,397.79703030000064,,,,,,,,,,,,,,,,227,2022-05-31_14h00.48.128,FishGame,2022.1.1,60.01439145105137,
,22,나를 데려가줘,6,Green,B,0,0,ScrollDown,ScrollUp,Green.png,3,NonTarget,NonTarget,0,0,0,0,,,,,,,,,,,,,,,,,,,,,0,21,21,21,,,,,,,,,,,,,,,,,,,,,,,,,,,,,,,,,,,,,,,,,,,,,,,,,,,,,,,,,,,,,,,,,,,,,,,,,,,,,1,1.3323645000000397,398.44376370000055,None,ScrollDown,정답입니다,398.44376370000055,None,398.44376370000055,None,398.44376370000055,None,398.44376370000055,None,399.65086590000055,None,399.65086590000055,400.16344739999977,,,,,,,,,,,,,,,,227,2022-05-31_14h00.48.128,FishGame,2022.1.1,60.01439145105137,
,23,넌 성실해,1,Green,B,6.041666666666666,5.7,ScrollUp,ScrollDown,Green.png,3,Positive,Incongruent,0,0,0,0,,,,,,,,,,,,,,,,,,,,,0,22,22,22,,,,,,,,,,,,,,,,,,,,,,,,,,,,,,,,,,,,,,,,,,,,,,,,,,,,,,,,,,,,,,,,,,,,,,,,,,,,,2,1.2027244999999311,400.810078,None,ScrollUp,정답입니다,400.810078,None,400.810078,None,400.810078,None,400.810078,None,401.89457510000057,None,401.89457510000057,402.39644590000034,,,,,,,,,,,,,,,,227,2022-05-31_14h00.48.128,FishGame,2022.1.1,60.01439145105137,
,24,넌 현실주의적이야,3,Orange,A,4.625,4.4,ScrollDown,ScrollUp,Orange.png,3,Neutral,Neutral,0,0,0,0,,,,,,,,,,,,,,,,,,,,,0,23,23,23,,,,,,,,,,,,,,,,,,,,,,,,,,,,,,,,,,,,,,,,,,,,,,,,,,,,,,,,,,,,,,,,,,,,,,,,,,,,,1,1.3122061000003669,403.05053259999977,None,ScrollDown,정답입니다,403.05053259999977,None,403.05053259999977,None,403.05053259999977,None,403.05053259999977,None,404.22961950000035,None,404.22961950000035,404.72938900000054,,,,,,,,,,,,,,,,227,2022-05-31_14h00.48.128,FishGame,2022.1.1,60.01439145105137,
,25,넌 진실돼,1,Orange,A,6.625,5.566666666666666,ScrollDown,ScrollUp,Orange.png,3,Positive,Congruent,0,0,0,0,,,,,,,,,,,,,,,,,,,,,0,24,24,24,,,,,,,,,,,,,,,,,,,,,,,,,,,,,,,,,,,,,,,,,,,,,,,,,,,,,,,,,,,,,,,,,,,,,,,,,,,,,1,1.0866844000001947,405.3869246999998,None,ScrollDown,정답입니다,405.3869246999998,None,405.3869246999998,None,405.3869246999998,None,405.3869246999998,None,406.33594370000037,None,406.33594370000037,406.84587669999974,,,,,,,,,,,,,,,,227,2022-05-31_14h00.48.128,FishGame,2022.1.1,60.01439145105137,
,26,넌 천진난만해,3,Green,B,4.958333333333334,4.833333333333333,ScrollUp,ScrollDown,Green.png,3,Neutral,Neutral,0,0,0,0,,,,,,,,,,,,,,,,,,,,,0,25,25,25,,,,,,,,,,,,,,,,,,,,,,,,,,,,,,,,,,,,,,,,,,,,,,,,,,,,,,,,,,,,,,,,,,,,,,,,,,,,,2,1.1255395999996836,407.4989822000002,None,ScrollUp,정답입니다,407.4989822000002,None,407.4989822000002,None,407.4989822000002,None,407.4989822000002,None,408.49581100000023,None,408.49581100000023,408.99566430000004,,,,,,,,,,,,,,,,227,2022-05-31_14h00.48.128,FishGame,2022.1.1,60.01439145105137,
,27,넌 교양없어,5,Orange,A,2.416666666666667,2.2,ScrollDown,ScrollUp,Orange.png,3,Negative,Incongruent,0,0,0,0,,,,,,,,,,,,,,,,,,,,,0,26,26,26,,,,,,,,,,,,,,,,,,,,,,,,,,,,,,,,,,,,,,,,,,,,,,,,,,,,,,,,,,,,,,,,,,,,,,,,,,,,,1,1.066799400000491,409.65178440000045,None,ScrollDown,정답입니다,409.65178440000045,None,409.65178440000045,None,409.65178440000045,None,409.65178440000045,None,410.58325790000026,None,410.58325790000026,411.0954903000006,,,,,,,,,,,,,,,,227,2022-05-31_14h00.48.128,FishGame,2022.1.1,60.01439145105137,
,28,나를 보내줘,6,Orange,A,0,0,ScrollUp,ScrollDown,Orange.png,3,NonTarget,NonTarget,0,0,0,0,,,,,,,,,,,,,,,,,,,,,0,27,27,27,,,,,,,,,,,,,,,,,,,,,,,,,,,,,,,,,,,,,,,,,,,,,,,,,,,,,,,,,,,,,,,,,,,,,,,,,,,,,2,1.2074517000000924,411.7491590000004,None,ScrollUp,정답입니다,411.7491590000004,None,411.7491590000004,None,411.7491590000004,None,411.7491590000004,None,412.8220457000002,None,412.8220457000002,413.32829730000003,,,,,,,,,,,,,,,,227,2022-05-31_14h00.48.128,FishGame,2022.1.1,60.01439145105137,
,29,넌 엉뚱스러워,3,Orange,A,4.166666666666667,4.133333333333334,ScrollDown,ScrollUp,Orange.png,3,Neutral,Neutral,0,0,0,0,,,,,,,,,,,,,,,,,,,,,0,28,28,28,,,,,,,,,,,,,,,,,,,,,,,,,,,,,,,,,,,,,,,,,,,,,,,,,,,,,,,,,,,,,,,,,,,,,,,,,,,,,1,1.249217800000224,413.9959164000006,None,ScrollDown,정답입니다,413.9959164000006,None,413.9959164000006,None,413.9959164000006,None,413.9959164000006,None,415.0985732000004,None,415.0985732000004,415.61144280000053,,,,,,,,,,,,,,,,227,2022-05-31_14h00.48.128,FishGame,2022.1.1,60.01439145105137,
,30,넌 무지해,4,Green,B,2.541666666666667,3.066666666666667,ScrollUp,ScrollDown,Green.png,3,Negative,Congruent,0,0,0,0,,,,,,,,,,,,,,,,,,,,,0,29,29,29,,,,,,,,,,,,,,,,,,,,,,,,,,,,,,,,,,,,,,,,,,,,,,,,,,,,,,,,,,,,,,,,,,,,,,,,,,,,,2,1.166753399999834,416.2578666000004,None,ScrollUp,정답입니다,416.2578666000004,None,416.2578666000004,None,416.2578666000004,None,416.2578666000004,None,417.2979786000001,None,417.2979786000001,417.81126020000056,,,,,,,,,,,,,,,,227,2022-05-31_14h00.48.128,FishGame,2022.1.1,60.01439145105137,
,31,넌 음울해,5,Green,B,2.25,2.233333333333333,ScrollUp,ScrollDown,Green.png,3,Negative,Congruent,0,0,0,0,,,,,,,,,,,,,,,,,,,,,0,30,30,30,,,,,,,,,,,,,,,,,,,,,,,,,,,,,,,,,,,,,,,,,,,,,,,,,,,,,,,,,,,,,,,,,,,,,,,,,,,,,2,1.2106764999998632,418.46419730000025,None,ScrollUp,정답입니다,418.46419730000025,None,418.46419730000025,None,418.46419730000025,None,418.46419730000025,None,419.5442256000001,None,419.5442256000001,420.0442628000005,,,,,,,,,,,,,,,,227,2022-05-31_14h00.48.128,FishGame,2022.1.1,60.01439145105137,
,32,넌 냉소적이야,5,Orange,A,2.916666666666667,2.4,ScrollDown,ScrollUp,Orange.png,3,Negative,Incongruent,0,0,0,0,,,,,,,,,,,,,,,,,,,,,0,31,31,31,,,,,,,,,,,,,,,,,,,,,,,,,,,,,,,,,,,,,,,,,,,,,,,,,,,,,,,,,,,,,,,,,,,,,,,,,,,,,1,1.1331262000003335,420.69012470000007,None,ScrollDown,정답입니다,420.69012470000007,None,420.69012470000007,None,420.69012470000007,None,420.69012470000007,None,421.6983931,None,421.6983931,422.21060720000014,,,,,,,,,,,,,,,,227,2022-05-31_14h00.48.128,FishGame,2022.1.1,60.01439145105137,
,33,나를 데려가줘,6,Green,B,0,0,ScrollDown,ScrollUp,Green.png,3,NonTarget,NonTarget,0,0,0,0,,,,,,,,,,,,,,,,,,,,,0,32,32,32,,,,,,,,,,,,,,,,,,,,,,,,,,,,,,,,,,,,,,,,,,,,,,,,,,,,,,,,,,,,,,,,,,,,,,,,,,,,,1,1.2505189000003156,422.85613950000015,None,ScrollDown,정답입니다,422.85613950000015,None,422.85613950000015,None,422.85613950000015,None,422.85613950000015,None,423.98224249999976,None,423.98224249999976,424.49350210000057,,,,,,,,,,,,,,,,227,2022-05-31_14h00.48.128,FishGame,2022.1.1,60.01439145105137,
,34,넌 쾌활해,1,Orange,A,5.541666666666666,5.733333333333333,ScrollDown,ScrollUp,Orange.png,3,Positive,Congruent,0,0,0,0,,,,,,,,,,,,,,,,,,,,,0,33,33,33,,,,,,,,,,,,,,,,,,,,,,,,,,,,,,,,,,,,,,,,,,,,,,,,,,,,,,,,,,,,,,,,,,,,,,,,,,,,,1,1.0222948000000542,425.14877560000014,None,ScrollDown,정답입니다,425.14877560000014,None,425.14877560000014,None,425.14877560000014,None,425.14877560000014,None,426.0354041000005,None,426.0354041000005,426.5436886000002,,,,,,,,,,,,,,,,227,2022-05-31_14h00.48.128,FishGame,2022.1.1,60.01439145105137,
,35,나를 보내줘,6,Orange,A,0,0,ScrollUp,ScrollDown,Orange.png,3,NonTarget,NonTarget,0,0,0,0,,,,,,,,,,,,,,,,,,,,,0,34,34,34,,,,,,,,,,,,,,,,,,,,,,,,,,,,,,,,,,,,,,,,,,,,,,,,,,,,,,,,,,,,,,,,,,,,,,,,,,,,,2,1.8494092999999339,427.1982174999998,None,ScrollUp,정답입니다,427.1982174999998,None,427.1982174999998,None,427.1982174999998,None,427.1982174999998,None,428.9125607000001,None,428.9125607000001,429.4265564000002,,,,,,,,,,,,,,,,227,2022-05-31_14h00.48.128,FishGame,2022.1.1,60.01439145105137,
,36,넌 명랑해,1,Green,B,5.739130434782609,5.666666666666667,ScrollUp,ScrollDown,Green.png,3,Positive,Incongruent,0,0,0,0,,,,,,,,,,,,,,,,,,,,,0,35,35,35,,,,,,,,,,,,,,,,,,,,,,,,,,,,,,,,,,,,,,,,,,,,,,,,,,,,,,,,,,,,,,,,,,,,,,,,,,,,,2,1.3161681999999928,430.0724572000004,None,ScrollUp,정답입니다,430.0724572000004,None,430.0724572000004,None,430.0724572000004,None,430.0724572000004,None,431.26268519999985,None,431.26268519999985,431.7759540000002,,,,,,,,,,,,,,,,227,2022-05-31_14h00.48.128,FishGame,2022.1.1,60.01439145105137,
,37,넌 멍해,4,Orange,A,2.833333333333333,3.4,ScrollDown,ScrollUp,Orange.png,3,Negative,Incongruent,0,0,0,0,,,,,,,,,,,,,,,,,,,,,0,36,36,36,,,,,,,,,,,,,,,,,,,,,,,,,,,,,,,,,,,,,,,,,,,,,,,,,,,,,,,,,,,,,,,,,,,,,,,,,,,,,1,1.7334246000000348,432.4312381000004,None,ScrollDown,정답입니다,432.4312381000004,None,432.4312381000004,None,432.4312381000004,None,432.4312381000004,None,434.02987189999976,None,434.02987189999976,434.54233560000057,,,,,,,,,,,,,,,,227,2022-05-31_14h00.48.128,FishGame,2022.1.1,60.01439145105137,
,38,나를 데려가줘,6,Green,B,0,0,ScrollDown,ScrollUp,Green.png,3,NonTarget,NonTarget,0,0,0,0,,,,,,,,,,,,,,,,,,,,,0,37,37,37,,,,,,,,,,,,,,,,,,,,,,,,,,,,,,,,,,,,,,,,,,,,,,,,,,,,,,,,,,,,,,,,,,,,,,,,,,,,,1,1.2299347999996826,435.1891048000002,None,ScrollDown,정답입니다,435.1891048000002,None,435.1891048000002,None,435.1891048000002,None,435.1891048000002,None,436.29291479999983,None,436.29291479999983,436.7919244999998,,,,,,,,,,,,,,,,227,2022-05-31_14h00.48.128,FishGame,2022.1.1,60.01439145105137,
,39,넌 현명해,2,Orange,A,6.541666666666666,4.533333333333333,ScrollDown,ScrollUp,Orange.png,3,Positive,Congruent,0,0,0,0,,,,,,,,,,,,,,,,,,,,,0,38,38,38,,,,,,,,,,,,,,,,,,,,,,,,,,,,,,,,,,,,,,,,,,,,,,,,,,,,,,,,,,,,,,,,,,,,,,,,,,,,,1,1.3003959999996368,437.442356,None,ScrollDown,정답입니다,437.442356,None,437.442356,None,437.442356,None,437.442356,None,438.6134581000001,None,438.6134581000001,439.1251008000004,,,,,,,,,,,,,,,,227,2022-05-31_14h00.48.128,FishGame,2022.1.1,60.01439145105137,
,40,넌 수줍어,3,Green,B,3.541666666666666,4.366666666666666,ScrollUp,ScrollDown,Green.png,3,Neutral,Neutral,0,0,0,0,,,,,,,,,,,,,,,,,,,,,0,39,39,39,,,,,,,,,,,,,,,,,,,,,,,,,,,,,,,,,,,,,,,,,,,,,,,,,,,,,,,,,,,,,,,,,,,,,,,,,,,,,2,1.1172249000001102,439.77222180000035,None,ScrollUp,정답입니다,439.77222180000035,None,439.77222180000035,None,439.77222180000035,None,439.77222180000035,None,440.76342179999983,None,440.76342179999983,441.2749251,,,,,,,,,,,,,,,,227,2022-05-31_14h00.48.128,FishGame,2022.1.1,60.01439145105137,
,41,나를 데려가줘,6,Green,B,0,0,ScrollDown,ScrollUp,Green.png,3,NonTarget,NonTarget,0,0,0,0,,,,,,,,,,,,,,,,,,,,,0,40,40,40,,,,,,,,,,,,,,,,,,,,,,,,,,,,,,,,,,,,,,,,,,,,,,,,,,,,,,,,,,,,,,,,,,,,,,,,,,,,,1,1.1446143000002849,441.9241068000006,None,ScrollDown,정답입니다,441.9241068000006,None,441.9241068000006,None,441.9241068000006,None,441.9241068000006,None,442.94122670000024,None,442.94122670000024,443.4412683000005,,,,,,,,,,,,,,,,227,2022-05-31_14h00.48.128,FishGame,2022.1.1,60.01439145105137,
,42,넌 성숙해,2,Green,B,5.833333333333333,4.533333333333333,ScrollUp,ScrollDown,Green.png,3,Positive,Incongruent,0,0,0,0,,,,,,,,,,,,,,,,,,,,,0,41,41,41,,,,,,,,,,,,,,,,,,,,,,,,,,,,,,,,,,,,,,,,,,,,,,,,,,,,,,,,,,,,,,,,,,,,,,,,,,,,,2,1.2032920999999988,444.0961594000005,None,ScrollUp,정답입니다,444.0961594000005,None,444.0961594000005,None,444.0961594000005,None,444.0961594000005,None,445.1725134000003,None,445.1725134000003,445.67415160000064,,,,,,,,,,,,,,,,227,2022-05-31_14h00.48.128,FishGame,2022.1.1,60.01439145105137,
,1,넌 매력적이야,2,Green,B,6.125,4.666666666666667,ScrollUp,ScrollDown,Green.png,4,Positive,Incongruent,0,0,0,0,,,,,,,,,,,,,,,,,,,,,,,,,0,0,0,0,,,,,,,,,,,,,,,,,,,,,,,,,,,,,,,,477.72054979999984,479.22000530000014,479.2532931999999,480.20315830000027,480.2531954000001,481.20303639999975,481.20303639999975,None,,,,,,,,,,,,,,,,,,,,,,,,,,,,,,,,,,2,1.2680434000003515,482.39907749999975,None,ScrollUp,정답입니다,482.39907749999975,None,482.39907749999975,None,482.39907749999975,None,482.39907749999975,None,483.4860954999999,None,483.4860954999999,483.98604490000025,446.17414640000015,None,446.17414640000015,None,0.2777778,-0.062037036,1,0,0,0.016154090000782162,None,476.18692000000055,None,,,227,2022-05-31_14h00.48.128,FishGame,2022.1.1,60.01439145105137,
,2,나를 보내줘,6,Orange,A,0,0,ScrollUp,ScrollDown,Orange.png,4,NonTarget,NonTarget,0,0,0,0,,,,,,,,,,,,,,,,,,,,,,,,,0,1,1,1,,,,,,,,,,,,,,,,,,,,,,,,,,,,,,,,,,,,,,,,,,,,,,,,,,,,,,,,,,,,,,,,,,,,,,,,,2,1.2430292999997619,484.63856559999977,None,ScrollUp,정답입니다,484.63856559999977,None,484.63856559999977,None,484.63856559999977,None,484.63856559999977,None,485.75239530000044,None,485.75239530000044,486.2523336999998,,,,,,,,,,,,,,,,227,2022-05-31_14h00.48.128,FishGame,2022.1.1,60.01439145105137,
,3,넌 조심스러워,3,Orange,A,4.791666666666666,4.666666666666667,ScrollDown,ScrollUp,Orange.png,4,Neutral,Neutral,0,0,0,0,,,,,,,,,,,,,,,,,,,,,,,,,0,2,2,2,,,,,,,,,,,,,,,,,,,,,,,,,,,,,,,,,,,,,,,,,,,,,,,,,,,,,,,,,,,,,,,,,,,,,,,,,1,1.1171942000000854,486.9107852000002,None,ScrollDown,정답입니다,486.9107852000002,None,486.9107852000002,None,486.9107852000002,None,486.9107852000002,None,487.89045450000003,None,487.89045450000003,488.40214570000035,,,,,,,,,,,,,,,,227,2022-05-31_14h00.48.128,FishGame,2022.1.1,60.01439145105137,
,4,넌 철학적이야,3,Green,B,4.5,4.266666666666667,ScrollUp,ScrollDown,Green.png,4,Neutral,Neutral,0,0,0,0,,,,,,,,,,,,,,,,,,,,,,,,,0,3,3,3,,,,,,,,,,,,,,,,,,,,,,,,,,,,,,,,,,,,,,,,,,,,,,,,,,,,,,,,,,,,,,,,,,,,,,,,,2,1.0207231000003958,489.04886810000016,None,ScrollUp,정답입니다,489.04886810000016,None,489.04886810000016,None,489.04886810000016,None,489.04886810000016,None,489.9499414000006,None,489.9499414000006,490.45178910000004,,,,,,,,,,,,,,,,227,2022-05-31_14h00.48.128,FishGame,2022.1.1,60.01439145105137,
,5,넌 쩨쩨해,5,Orange,A,2.375,2.133333333333333,ScrollDown,ScrollUp,Orange.png,4,Negative,Incongruent,0,0,0,0,,,,,,,,,,,,,,,,,,,,,,,,,0,4,4,4,,,,,,,,,,,,,,,,,,,,,,,,,,,,,,,,,,,,,,,,,,,,,,,,,,,,,,,,,,,,,,,,,,,,,,,,,1,1.304778499999884,491.1128641,None,ScrollDown,정답입니다,491.1128641,None,491.1128641,None,491.1128641,None,491.1128641,None,492.27630780000027,None,492.27630780000027,492.7848202,,,,,,,,,,,,,,,,227,2022-05-31_14h00.48.128,FishGame,2022.1.1,60.01439145105137,
,6,나를 데려가줘,6,Green,B,0,0,ScrollDown,ScrollUp,Green.png,4,NonTarget,NonTarget,0,0,0,0,,,,,,,,,,,,,,,,,,,,,,,,,0,5,5,5,,,,,,,,,,,,,,,,,,,,,,,,,,,,,,,,,,,,,,,,,,,,,,,,,,,,,,,,,,,,,,,,,,,,,,,,,1,1.5837726999998267,493.4313255000002,None,ScrollDown,정답입니다,493.4313255000002,None,493.4313255000002,None,493.4313255000002,None,493.4313255000002,None,494.8893632000004,None,494.8893632000004,495.40123840000024,,,,,,,,,,,,,,,,227,2022-05-31_14h00.48.128,FishGame,2022.1.1,60.01439145105137,
,7,넌 고집불통이야,5,Green,B,2.875,2,ScrollUp,ScrollDown,Green.png,4,Negative,Congruent,0,0,0,0,,,,,,,,,,,,,,,,,,,,,,,,,0,6,6,6,,,,,,,,,,,,,,,,,,,,,,,,,,,,,,,,,,,,,,,,,,,,,,,,,,,,,,,,,,,,,,,,,,,,,,,,,2,1.169974600000387,496.05637630000047,None,ScrollUp,정답입니다,496.05637630000047,None,496.05637630000047,None,496.05637630000047,None,496.05637630000047,None,497.09900160000007,None,497.09900160000007,497.60089430000016,,,,,,,,,,,,,,,,227,2022-05-31_14h00.48.128,FishGame,2022.1.1,60.01439145105137,
,8,넌 무심해,4,Orange,A,2.875,3.2,ScrollDown,ScrollUp,Orange.png,4,Negative,Incongruent,0,0,0,0,,,,,,,,,,,,,,,,,,,,,,,,,0,7,7,7,,,,,,,,,,,,,,,,,,,,,,,,,,,,,,,,,,,,,,,,,,,,,,,,,,,,,,,,,,,,,,,,,,,,,,,,,1,1.034156499999881,498.2540205,None,ScrollDown,정답입니다,498.2540205,None,498.2540205,None,498.2540205,None,498.2540205,None,499.1552746000002,None,499.1552746000002,499.6672789999998,,,,,,,,,,,,,,,,227,2022-05-31_14h00.48.128,FishGame,2022.1.1,60.01439145105137,
,9,넌 정겨워,1,Orange,A,5.791666666666667,5.666666666666667,ScrollDown,ScrollUp,Orange.png,4,Positive,Congruent,0,0,0,0,,,,,,,,,,,,,,,,,,,,,,,,,0,8,8,8,,,,,,,,,,,,,,,,,,,,,,,,,,,,,,,,,,,,,,,,,,,,,,,,,,,,,,,,,,,,,,,,,,,,,,,,,1,1.034016800000245,500.32387119999976,None,ScrollDown,정답입니다,500.32387119999976,None,500.32387119999976,None,500.32387119999976,None,500.32387119999976,None,501.2218975999999,None,501.2218975999999,501.73356079999985,,,,,,,,,,,,,,,,227,2022-05-31_14h00.48.128,FishGame,2022.1.1,60.01439145105137,
,10,나를 데려가줘,6,Green,B,0,0,ScrollDown,ScrollUp,Green.png,4,NonTarget,NonTarget,0,0,0,0,,,,,,,,,,,,,,,,,,,,,,,,,0,9,9,9,,,,,,,,,,,,,,,,,,,,,,,,,,,,,,,,,,,,,,,,,,,,,,,,,,,,,,,,,,,,,,,,,,,,,,,,,1,1.2838166999999885,502.3738106000005,None,ScrollDown,정답입니다,502.3738106000005,None,502.3738106000005,None,502.3738106000005,None,502.3738106000005,None,503.5381504000002,None,503.5381504000002,504.0501261000004,,,,,,,,,,,,,,,,227,2022-05-31_14h00.48.128,FishGame,2022.1.1,60.01439145105137,
,11,넌 체제순응적이야,4,Green,B,3,3.6,ScrollUp,ScrollDown,Green.png,4,Negative,Congruent,0,0,0,0,,,,,,,,,,,,,,,,,,,,,,,,,0,10,10,10,,,,,,,,,,,,,,,,,,,,,,,,,,,,,,,,,,,,,,,,,,,,,,,,,,,,,,,,,,,,,,,,,,,,,,,,,2,1.1791488999997455,504.71058760000005,None,ScrollUp,정답입니다,504.71058760000005,None,504.71058760000005,None,504.71058760000005,None,504.71058760000005,None,505.7498035000003,None,505.7498035000003,506.24979530000064,,,,,,,,,,,,,,,,227,2022-05-31_14h00.48.128,FishGame,2022.1.1,60.01439145105137,
,12,나를 보내줘,6,Orange,A,0,0,ScrollUp,ScrollDown,Orange.png,4,NonTarget,NonTarget,0,0,0,0,,,,,,,,,,,,,,,,,,,,,,,,,0,11,11,11,,,,,,,,,,,,,,,,,,,,,,,,,,,,,,,,,,,,,,,,,,,,,,,,,,,,,,,,,,,,,,,,,,,,,,,,,2,1.3641342999999324,506.90070590000005,None,ScrollUp,정답입니다,506.90070590000005,None,506.90070590000005,None,506.90070590000005,None,506.90070590000005,None,508.1345121999998,None,508.1345121999998,508.6494879000006,,,,,,,,,,,,,,,,227,2022-05-31_14h00.48.128,FishGame,2022.1.1,60.01439145105137,
,13,넌 박식해,2,Orange,A,5.625,3.933333333333333,ScrollDown,ScrollUp,Orange.png,4,Positive,Congruent,0,0,0,0,,,,,,,,,,,,,,,,,,,,,,,,,0,12,12,12,,,,,,,,,,,,,,,,,,,,,,,,,,,,,,,,,,,,,,,,,,,,,,,,,,,,,,,,,,,,,,,,,,,,,,,,,1,1.0198288000001412,509.3035868000002,None,ScrollDown,정답입니다,509.3035868000002,None,509.3035868000002,None,509.3035868000002,None,509.3035868000002,None,510.1884205000001,None,510.1884205000001,510.6991942999998,,,,,,,,,,,,,,,,227,2022-05-31_14h00.48.128,FishGame,2022.1.1,60.01439145105137,
,14,나를 보내줘,6,Orange,A,0,0,ScrollUp,ScrollDown,Orange.png,4,NonTarget,NonTarget,0,0,0,0,,,,,,,,,,,,,,,,,,,,,,,,,0,13,13,13,,,,,,,,,,,,,,,,,,,,,,,,,,,,,,,,,,,,,,,,,,,,,,,,,,,,,,,,,,,,,,,,,,,,,,,,,2,1.2439303999999538,511.35010850000026,None,ScrollUp,정답입니다,511.35010850000026,None,511.35010850000026,None,511.35010850000026,None,511.35010850000026,None,512.4656403000004,None,512.4656403000004,512.9656986000005,,,,,,,,,,,,,,,,227,2022-05-31_14h00.48.128,FishGame,2022.1.1,60.01439145105137,
,15,넌 침착해,1,Green,B,5.458333333333333,5.566666666666666,ScrollUp,ScrollDown,Green.png,4,Positive,Incongruent,0,0,0,0,,,,,,,,,,,,,,,,,,,,,,,,,0,14,14,14,,,,,,,,,,,,,,,,,,,,,,,,,,,,,,,,,,,,,,,,,,,,,,,,,,,,,,,,,,,,,,,,,,,,,,,,,2,1.1928729999999632,513.6127225000005,None,ScrollUp,정답입니다,513.6127225000005,None,513.6127225000005,None,513.6127225000005,None,513.6127225000005,None,514.6818775000006,None,514.6818775000006,515.1818220999999,,,,,,,,,,,,,,,,227,2022-05-31_14h00.48.128,FishGame,2022.1.1,60.01439145105137,
,16,나를 데려가줘,6,Green,B,0,0,ScrollDown,ScrollUp,Green.png,4,NonTarget,NonTarget,0,0,0,0,,,,,,,,,,,,,,,,,,,,,,,,,0,15,15,15,,,,,,,,,,,,,,,,,,,,,,,,,,,,,,,,,,,,,,,,,,,,,,,,,,,,,,,,,,,,,,,,,,,,,,,,,1,1.1150590999995984,515.8238018000006,None,ScrollDown,정답입니다,515.8238018000006,None,515.8238018000006,None,515.8238018000006,None,515.8238018000006,None,516.8191163000006,None,516.8191163000006,517.3315664000006,,,,,,,,,,,,,,,,227,2022-05-31_14h00.48.128,FishGame,2022.1.1,60.01439145105137,
,17,넌 행복해,1,Orange,A,6.416666666666666,6.166666666666667,ScrollDown,ScrollUp,Orange.png,4,Positive,Congruent,0,0,0,0,,,,,,,,,,,,,,,,,,,,,,,,,0,16,16,16,,,,,,,,,,,,,,,,,,,,,,,,,,,,,,,,,,,,,,,,,,,,,,,,,,,,,,,,,,,,,,,,,,,,,,,,,1,1.0842732000000979,517.9912567000006,None,ScrollDown,정답입니다,517.9912567000006,None,517.9912567000006,None,517.9912567000006,None,517.9912567000006,None,518.9361817000004,None,518.9361817000004,519.4479307000006,,,,,,,,,,,,,,,,227,2022-05-31_14h00.48.128,FishGame,2022.1.1,60.01439145105137,
,18,넌 겸손해,2,Green,B,5.791666666666667,4.766666666666667,ScrollUp,ScrollDown,Green.png,4,Positive,Incongruent,0,0,0,0,,,,,,,,,,,,,,,,,,,,,,,,,0,17,17,17,,,,,,,,,,,,,,,,,,,,,,,,,,,,,,,,,,,,,,,,,,,,,,,,,,,,,,,,,,,,,,,,,,,,,,,,,2,1.1343163999999888,520.1011389,None,ScrollUp,정답입니다,520.1011389,None,520.1011389,None,520.1011389,None,520.1011389,None,521.1028318000003,None,521.1028318000003,521.6144380000001,,,,,,,,,,,,,,,,227,2022-05-31_14h00.48.128,FishGame,2022.1.1,60.01439145105137,
,19,나를 보내줘,6,Orange,A,0,0,ScrollUp,ScrollDown,Orange.png,4,NonTarget,NonTarget,0,0,0,0,,,,,,,,,,,,,,,,,,,,,,,,,0,18,18,18,,,,,,,,,,,,,,,,,,,,,,,,,,,,,,,,,,,,,,,,,,,,,,,,,,,,,,,,,,,,,,,,,,,,,,,,,2,1.0691405000006853,522.2590515000006,None,ScrollUp,정답입니다,522.2590515000006,None,522.2590515000006,None,522.2590515000006,None,522.2590515000006,None,523.2123805000006,None,523.2123805000006,523.7142122,,,,,,,,,,,,,,,,227,2022-05-31_14h00.48.128,FishGame,2022.1.1,60.01439145105137,
,20,넌 의심없어,3,Orange,A,4.166666666666667,4.6,ScrollDown,ScrollUp,Orange.png,4,Neutral,Neutral,0,0,0,0,,,,,,,,,,,,,,,,,,,,,,,,,0,19,19,19,,,,,,,,,,,,,,,,,,,,,,,,,,,,,,,,,,,,,,,,,,,,,,,,,,,,,,,,,,,,,,,,,,,,,,,,,1,1.0368198999995002,524.3649510999999,None,ScrollDown,정답입니다,524.3649510999999,None,524.3649510999999,None,524.3649510999999,None,524.3649510999999,None,525.2701996000001,None,525.2701996000001,525.7805552000004,,,,,,,,,,,,,,,,227,2022-05-31_14h00.48.128,FishGame,2022.1.1,60.01439145105137,
,21,넌 시시해,4,Orange,A,2.666666666666667,2.966666666666667,ScrollDown,ScrollUp,Orange.png,4,Negative,Incongruent,0,0,0,0,,,,,,,,,,,,,,,,,,,,,,,,,0,20,20,20,,,,,,,,,,,,,,,,,,,,,,,,,,,,,,,,,,,,,,,,,,,,,,,,,,,,,,,,,,,,,,,,,,,,,,,,,1,1.0008268999999927,526.4253547000003,None,ScrollDown,정답입니다,526.4253547000003,None,526.4253547000003,None,526.4253547000003,None,526.4253547000003,None,527.3020259,None,527.3020259,527.8136764000005,,,,,,,,,,,,,,,,227,2022-05-31_14h00.48.128,FishGame,2022.1.1,60.01439145105137,
,22,나를 데려가줘,6,Green,B,0,0,ScrollDown,ScrollUp,Green.png,4,NonTarget,NonTarget,0,0,0,0,,,,,,,,,,,,,,,,,,,,,,,,,0,21,21,21,,,,,,,,,,,,,,,,,,,,,,,,,,,,,,,,,,,,,,,,,,,,,,,,,,,,,,,,,,,,,,,,,,,,,,,,,1,1.2509611000004952,528.4580900000005,None,ScrollDown,정답입니다,528.4580900000005,None,528.4580900000005,None,528.4580900000005,None,528.4580900000005,None,529.5849362000004,None,529.5849362000004,530.0966960999999,,,,,,,,,,,,,,,,227,2022-05-31_14h00.48.128,FishGame,2022.1.1,60.01439145105137,
,23,넌 무정해,5,Orange,A,2.5,2.2,ScrollDown,ScrollUp,Orange.png,4,Negative,Incongruent,0,0,0,0,,,,,,,,,,,,,,,,,,,,,,,,,0,22,22,22,,,,,,,,,,,,,,,,,,,,,,,,,,,,,,,,,,,,,,,,,,,,,,,,,,,,,,,,,,,,,,,,,,,,,,,,,1,1.212152099999912,530.7438420000003,None,ScrollDown,정답입니다,530.7438420000003,None,530.7438420000003,None,530.7438420000003,None,530.7438420000003,None,531.8295764999998,None,531.8295764999998,532.3296663000006,,,,,,,,,,,,,,,,227,2022-05-31_14h00.48.128,FishGame,2022.1.1,60.01439145105137,
,24,넌 긍정적이야,1,Green,B,6.041666666666667,6.066666666666666,ScrollUp,ScrollDown,Green.png,4,Positive,Incongruent,0,0,0,0,,,,,,,,,,,,,,,,,,,,,,,,,0,23,23,23,,,,,,,,,,,,,,,,,,,,,,,,,,,,,,,,,,,,,,,,,,,,,,,,,,,,,,,,,,,,,,,,,,,,,,,,,2,1.5692001999996137,532.9806627000003,None,ScrollUp,정답입니다,532.9806627000003,None,532.9806627000003,None,532.9806627000003,None,532.9806627000003,None,534.4177381000004,None,534.4177381000004,534.9291875000004,,,,,,,,,,,,,,,,227,2022-05-31_14h00.48.128,FishGame,2022.1.1,60.01439145105137,
,25,나를 보내줘,6,Orange,A,0,0,ScrollUp,ScrollDown,Orange.png,4,NonTarget,NonTarget,0,0,0,0,,,,,,,,,,,,,,,,,,,,,,,,,0,24,24,24,,,,,,,,,,,,,,,,,,,,,,,,,,,,,,,,,,,,,,,,,,,,,,,,,,,,,,,,,,,,,,,,,,,,,,,,,2,1.4885540999994191,535.5797624000002,None,ScrollUp,정답입니다,535.5797624000002,None,535.5797624000002,None,535.5797624000002,None,535.5797624000002,None,536.9439174000004,None,536.9439174000004,537.4458890999999,,,,,,,,,,,,,,,,227,2022-05-31_14h00.48.128,FishGame,2022.1.1,60.01439145105137,
,26,넌 시기심이 많아,5,Green,B,2.458333333333333,2.233333333333333,ScrollUp,ScrollDown,Green.png,4,Negative,Congruent,0,0,0,0,,,,,,,,,,,,,,,,,,,,,,,,,0,25,25,25,,,,,,,,,,,,,,,,,,,,,,,,,,,,,,,,,,,,,,,,,,,,,,,,,,,,,,,,,,,,,,,,,,,,,,,,,2,1.4574184000002788,538.0939424000003,None,ScrollUp,정답입니다,538.0939424000003,None,538.0939424000003,None,538.0939424000003,None,538.0939424000003,None,539.4268864000001,None,539.4268864000001,539.9286415000001,,,,,,,,,,,,,,,,227,2022-05-31_14h00.48.128,FishGame,2022.1.1,60.01439145105137,
,27,넌 탁월해,2,Orange,A,5.708333333333334,4.5,ScrollDown,ScrollUp,Orange.png,4,Positive,Congruent,0,0,0,0,,,,,,,,,,,,,,,,,,,,,,,,,0,26,26,26,,,,,,,,,,,,,,,,,,,,,,,,,,,,,,,,,,,,,,,,,,,,,,,,,,,,,,,,,,,,,,,,,,,,,,,,,1,1.0546125999999276,540.5899073000005,None,ScrollDown,정답입니다,540.5899073000005,None,540.5899073000005,None,540.5899073000005,None,540.5899073000005,None,541.5028806000005,None,541.5028806000005,542.0117043000005,,,,,,,,,,,,,,,,227,2022-05-31_14h00.48.128,FishGame,2022.1.1,60.01439145105137,
,28,나를 데려가줘,6,Green,B,0,0,ScrollDown,ScrollUp,Green.png,4,NonTarget,NonTarget,0,0,0,0,,,,,,,,,,,,,,,,,,,,,,,,,0,27,27,27,,,,,,,,,,,,,,,,,,,,,,,,,,,,,,,,,,,,,,,,,,,,,,,,,,,,,,,,,,,,,,,,,,,,,,,,,1,1.1723149999997986,542.6638453999999,None,ScrollDown,정답입니다,542.6638453999999,None,542.6638453999999,None,542.6638453999999,None,542.6638453999999,None,543.7044117999999,None,543.7044117999999,544.2116644000002,,,,,,,,,,,,,,,,227,2022-05-31_14h00.48.128,FishGame,2022.1.1,60.01439145105137,
,29,넌 조용해,3,Green,B,4.333333333333333,4.166666666666667,ScrollUp,ScrollDown,Green.png,4,Neutral,Neutral,0,0,0,0,,,,,,,,,,,,,,,,,,,,,,,,,0,28,28,28,,,,,,,,,,,,,,,,,,,,,,,,,,,,,,,,,,,,,,,,,,,,,,,,,,,,,,,,,,,,,,,,,,,,,,,,,2,1.416744699999981,544.8586288000001,None,ScrollUp,정답입니다,544.8586288000001,None,544.8586288000001,None,544.8586288000001,None,544.8586288000001,None,546.1495870000003,None,546.1495870000003,546.6611026000005,,,,,,,,,,,,,,,,227,2022-05-31_14h00.48.128,FishGame,2022.1.1,60.01439145105137,
,30,넌 다정해,1,Orange,A,5.833333333333334,5.7,ScrollDown,ScrollUp,Orange.png,4,Positive,Congruent,0,0,0,0,,,,,,,,,,,,,,,,,,,,,,,,,0,29,29,29,,,,,,,,,,,,,,,,,,,,,,,,,,,,,,,,,,,,,,,,,,,,,,,,,,,,,,,,,,,,,,,,,,,,,,,,,1,1.054561000000831,547.3127948000006,None,ScrollDown,정답입니다,547.3127948000006,None,547.3127948000006,None,547.3127948000006,None,547.3127948000006,None,548.2356352000002,None,548.2356352000002,548.7442836000005,,,,,,,,,,,,,,,,227,2022-05-31_14h00.48.128,FishGame,2022.1.1,60.01439145105137,
,31,넌 능력있어,2,Green,B,6.166666666666666,4.6,ScrollUp,ScrollDown,Green.png,4,Positive,Incongruent,0,0,0,0,,,,,,,,,,,,,,,,,,,,,,,,,0,30,30,30,,,,,,,,,,,,,,,,,,,,,,,,,,,,,,,,,,,,,,,,,,,,,,,,,,,,,,,,,,,,,,,,,,,,,,,,,2,1.0947971000005055,549.3906286000006,None,ScrollUp,정답입니다,549.3906286000006,None,549.3906286000006,None,549.3906286000006,None,549.3906286000006,None,550.3605876000006,None,550.3605876000006,550.8605333,,,,,,,,,,,,,,,,227,2022-05-31_14h00.48.128,FishGame,2022.1.1,60.01439145105137,
,32,넌 불쾌해,5,Orange,A,2.125,1.933333333333333,ScrollDown,ScrollUp,Orange.png,4,Negative,Incongruent,0,0,0,0,,,,,,,,,,,,,,,,,,,,,,,,,0,31,31,31,,,,,,,,,,,,,,,,,,,,,,,,,,,,,,,,,,,,,,,,,,,,,,,,,,,,,,,,,,,,,,,,,,,,,,,,,1,1.111282900000333,551.5063188999998,None,ScrollDown,정답입니다,551.5063188999998,None,551.5063188999998,None,551.5063188999998,None,551.5063188999998,None,552.4935408000006,None,552.4935408000006,552.9937768000004,,,,,,,,,,,,,,,,227,2022-05-31_14h00.48.128,FishGame,2022.1.1,60.01439145105137,
,33,나를 데려가줘,6,Green,B,0,0,ScrollDown,ScrollUp,Green.png,4,NonTarget,NonTarget,0,0,0,0,,,,,,,,,,,,,,,,,,,,,,,,,0,32,32,32,,,,,,,,,,,,,,,,,,,,,,,,,,,,,,,,,,,,,,,,,,,,,,,,,,,,,,,,,,,,,,,,,,,,,,,,,1,1.3095683999999892,553.6386588,None,ScrollDown,정답입니다,553.6386588,None,553.6386588,None,553.6386588,None,553.6386588,None,554.8268707000002,None,554.8268707000002,555.3266552,,,,,,,,,,,,,,,,227,2022-05-31_14h00.48.128,FishGame,2022.1.1,60.01439145105137,
,34,넌 유순해,3,Orange,A,4.458333333333333,5,ScrollDown,ScrollUp,Orange.png,4,Neutral,Neutral,0,0,0,0,,,,,,,,,,,,,,,,,,,,,,,,,0,33,33,33,,,,,,,,,,,,,,,,,,,,,,,,,,,,,,,,,,,,,,,,,,,,,,,,,,,,,,,,,,,,,,,,,,,,,,,,,1,1.078439700000672,555.9715735000004,None,ScrollDown,정답입니다,555.9715735000004,None,555.9715735000004,None,555.9715735000004,None,555.9715735000004,None,556.9264669999998,None,556.9264669999998,557.4264408000004,,,,,,,,,,,,,,,,227,2022-05-31_14h00.48.128,FishGame,2022.1.1,60.01439145105137,
,35,넌 근심스러워,4,Green,B,2.708333333333333,3.133333333333333,ScrollUp,ScrollDown,Green.png,4,Negative,Congruent,0,0,0,0,,,,,,,,,,,,,,,,,,,,,,,,,0,34,34,34,,,,,,,,,,,,,,,,,,,,,,,,,,,,,,,,,,,,,,,,,,,,,,,,,,,,,,,,,,,,,,,,,,,,,,,,,2,1.1045063999999911,558.0780914000002,None,ScrollUp,정답입니다,558.0780914000002,None,558.0780914000002,None,558.0780914000002,None,558.0780914000002,None,559.0507394000001,None,559.0507394000001,559.5595772000001,,,,,,,,,,,,,,,,227,2022-05-31_14h00.48.128,FishGame,2022.1.1,60.01439145105137,
,36,넌 세련되었어,2,Orange,A,5.5,4.6,ScrollDown,ScrollUp,Orange.png,4,Positive,Congruent,0,0,0,0,,,,,,,,,,,,,,,,,,,,,,,,,0,35,35,35,,,,,,,,,,,,,,,,,,,,,,,,,,,,,,,,,,,,,,,,,,,,,,,,,,,,,,,,,,,,,,,,,,,,,,,,,1,1.1383082000002105,560.2264845000004,None,ScrollDown,정답입니다,560.2264845000004,None,560.2264845000004,None,560.2264845000004,None,560.2264845000004,None,561.2184966,None,561.2184966,561.7259337999999,,,,,,,,,,,,,,,,227,2022-05-31_14h00.48.128,FishGame,2022.1.1,60.01439145105137,
,37,나를 보내줘,6,Orange,A,0,0,ScrollUp,ScrollDown,Orange.png,4,NonTarget,NonTarget,0,0,0,0,,,,,,,,,,,,,,,,,,,,,,,,,0,36,36,36,,,,,,,,,,,,,,,,,,,,,,,,,,,,,,,,,,,,,,,,,,,,,,,,,,,,,,,,,,,,,,,,,,,,,,,,,2,1.411542300000292,562.3746522000006,None,ScrollUp,정답입니다,562.3746522000006,None,562.3746522000006,None,562.3746522000006,None,562.3746522000006,None,563.6590155999997,None,563.6590155999997,564.1588318999998,,,,,,,,,,,,,,,,227,2022-05-31_14h00.48.128,FishGame,2022.1.1,60.01439145105137,
,38,넌 확고해,3,Green,B,4.708333333333334,4.566666666666666,ScrollUp,ScrollDown,Green.png,4,Neutral,Neutral,0,0,0,0,,,,,,,,,,,,,,,,,,,,,,,,,0,37,37,37,,,,,,,,,,,,,,,,,,,,,,,,,,,,,,,,,,,,,,,,,,,,,,,,,,,,,,,,,,,,,,,,,,,,,,,,,2,1.042549400000098,564.804635,None,ScrollUp,정답입니다,564.804635,None,564.804635,None,564.804635,None,564.804635,None,565.7255079000001,None,565.7255079000001,566.2254048,,,,,,,,,,,,,,,,227,2022-05-31_14h00.48.128,FishGame,2022.1.1,60.01439145105137,
,39,넌 이해심이 많아,1,Green,B,6.041666666666668,5.533333333333333,ScrollUp,ScrollDown,Green.png,4,Positive,Incongruent,0,0,0,0,,,,,,,,,,,,,,,,,,,,,,,,,0,38,38,38,,,,,,,,,,,,,,,,,,,,,,,,,,,,,,,,,,,,,,,,,,,,,,,,,,,,,,,,,,,,,,,,,,,,,,,,,1.9984568059444427,1.1556642999994438,566.8701949000001,None,ScrollUp,정답입니다,566.8701949000001,None,566.8701949000001,None,566.8701949000001,None,566.8701949000001,None,567.9063768999999,None,567.9063768999999,568.4084514000001,,,,,,,,,,,,,,,,227,2022-05-31_14h00.48.128,FishGame,2022.1.1,60.01439145105137,
,40,나를 보내줘,6,Orange,A,0,0,ScrollUp,ScrollDown,Orange.png,4,NonTarget,NonTarget,0,0,0,0,,,,,,,,,,,,,,,,,,,,,,,,,0,39,39,39,,,,,,,,,,,,,,,,,,,,,,,,,,,,,,,,,,,,,,,,,,,,,,,,,,,,,,,,,,,,,,,,,,,,,,,,,1.8425925970077515,1.0321614999993471,569.0536683000005,None,ScrollUp,정답입니다,569.0536683000005,None,569.0536683000005,None,569.0536683000005,None,569.0536683000005,None,569.9622812000002,None,569.9622812000002,570.4747146000004,,,,,,,,,,,,,,,,227,2022-05-31_14h00.48.128,FishGame,2022.1.1,60.01439145105137,
,41,넌 거칠어,4,Orange,A,2.625,3.033333333333333,ScrollDown,ScrollUp,Orange.png,4,Negative,Incongruent,0,0,0,0,,,,,,,,,,,,,,,,,,,,,,,,,0,40,40,40,,,,,,,,,,,,,,,,,,,,,,,,,,,,,,,,,,,,,,,,,,,,,,,,,,,,,,,,,,,,,,,,,,,,,,,,,1.233024686574936,0.8296669999999722,571.1294399000003,None,ScrollDown,정답입니다,571.1294399000003,None,571.1294399000003,None,571.1294399000003,None,571.1294399000003,None,571.8212906000003,None,571.8212906000003,572.3245669000003,,,,,,,,,,,,,,,,227,2022-05-31_14h00.48.128,FishGame,2022.1.1,60.01439145105137,
,42,넌 변덕맞아,5,Green,B,2.75,2.166666666666667,ScrollUp,ScrollDown,Green.png,4,Negative,Congruent,0,0,0,0,,,,,,,,,,,,,,,,,,,,,,,,,0,41,41,41,,,,,,,,,,,,,,,,,,,,,,,,,,,,,,,,,,,,,,,,,,,,,,,,,,,,,,,,,,,,,,,,,,,,,,,,,1.8657407313585281,1.0658539000005476,572.9827847000001,None,ScrollUp,정답입니다,572.9827847000001,None,572.9827847000001,None,572.9827847000001,None,572.9827847000001,None,573.9125162000005,None,573.9125162000005,574.4242586000005,,,,,,,,,,,,,,,,227,2022-05-31_14h00.48.128,FishGame,2022.1.1,60.01439145105137,
,43,나를 데려가줘,6,Green,B,0,0,ScrollDown,ScrollUp,Green.png,4,NonTarget,NonTarget,0,0,0,0,,,,,,,,,,,,,,,,,,,,,,,,,0,42,42,42,,,,,,,,,,,,,,,,,,,,,,,,,,,,,,,,,,,,,,,,,,,,,,,,,,,,,,,,,,,,,,,,,,,,,,,,,1,1.7550930999996126,575.0641212000005,None,ScrollDown,정답입니다,575.0641212000005,None,575.0641212000005,None,575.0641212000005,None,575.0641212000005,None,576.6989697000004,None,576.6989697000004,577.2072885000002,,,,,,,,,,,,,,,,227,2022-05-31_14h00.48.128,FishGame,2022.1.1,60.01439145105137,
,44,넌 외로워,4,Green,B,2.833333333333333,3.3,ScrollUp,ScrollDown,Green.png,4,Negative,Congruent,0,0,0,0,,,,,,,,,,,,,,,,,,,,,,,,,0,43,43,43,,,,,,,,,,,,,,,,,,,,,,,,,,,,,,,,,,,,,,,,,,,,,,,,,,,,,,,,,,,,,,,,,,,,,,,,,1.6759259278575578,1.014729299999999,577.8566198000003,None,ScrollUp,정답입니다,577.8566198000003,None,577.8566198000003,None,577.8566198000003,None,577.8566198000003,None,578.7438508999999,None,578.7438508999999,579.2568958000006,,,,,,,,,,,,,,,,227,2022-05-31_14h00.48.128,FishGame,2022.1.1,60.01439145105137,
,1,넌 불평스러워,5,Orange,A,2.25,2.066666666666667,ScrollDown,ScrollUp,Orange.png,5,Negative,Incongruent,0,0,0,0,,,,,,,,,,,,,,,,,,,,,,,,,,,,,0,0,0,0,,,,,,,,,,,,,,,,,,,,,,,,,,,,611.3194804,612.8194736,612.8526877999998,613.8024448000001,613.8526291000003,614.8023026000005,614.8023026000005,None,,,,,,,,,,,,,,,,,,,,,,,,,,,,,,,,,,1.0972222338120143,1.2141381000001275,615.9829101999999,None,ScrollDown,정답입니다,615.9829101999999,None,615.9829101999999,None,615.9829101999999,None,615.9829101999999,None,617.0234953000004,None,617.0234953000004,617.5355400000003,579.7569788000005,None,579.7569788000005,None,0.25925925,-0.09351852,1,0,0,0.01621969000007084,None,609.7531250000006,None,,,227,2022-05-31_14h00.48.128,FishGame,2022.1.1,60.01439145105137,
,2,나를 보내줘,6,Orange,A,0,0,ScrollUp,ScrollDown,Orange.png,5,NonTarget,NonTarget,0,0,0,0,,,,,,,,,,,,,,,,,,,,,,,,,,,,,0,1,1,1,,,,,,,,,,,,,,,,,,,,,,,,,,,,,,,,,,,,,,,,,,,,,,,,,,,,,,,,,,,,,,,,,,,,,2,1.206830600000103,618.1817907,None,ScrollUp,정답입니다,618.1817907,None,618.1817907,None,618.1817907,None,618.1817907,None,619.2664282999999,None,619.2664282999999,619.7683706000003,,,,,,,,,,,,,,,,227,2022-05-31_14h00.48.128,FishGame,2022.1.1,60.01439145105137,
,3,넌 다재다능해,2,Green,B,6.208333333333333,4.5,ScrollUp,ScrollDown,Green.png,5,Positive,Incongruent,0,0,0,0,,,,,,,,,,,,,,,,,,,,,,,,,,,,,0,2,2,2,,,,,,,,,,,,,,,,,,,,,,,,,,,,,,,,,,,,,,,,,,,,,,,,,,,,,,,,,,,,,,,,,,,,,2,1.1864698999997927,620.4162020999997,None,ScrollUp,정답입니다,620.4162020999997,None,620.4162020999997,None,620.4162020999997,None,620.4162020999997,None,621.4829650000006,None,621.4829650000006,621.9848238,,,,,,,,,,,,,,,,227,2022-05-31_14h00.48.128,FishGame,2022.1.1,60.01439145105137,
,4,넌 과감해,3,Orange,A,4.833333333333334,4.6,ScrollDown,ScrollUp,Orange.png,5,Neutral,Neutral,0,0,0,0,,,,,,,,,,,,,,,,,,,,,,,,,,,,,0,3,3,3,,,,,,,,,,,,,,,,,,,,,,,,,,,,,,,,,,,,,,,,,,,,,,,,,,,,,,,,,,,,,,,,,,,,,1,1.0467389000004914,622.6294711000005,None,ScrollDown,정답입니다,622.6294711000005,None,622.6294711000005,None,622.6294711000005,None,622.6294711000005,None,623.5523269,None,623.5523269,624.0679046999999,,,,,,,,,,,,,,,,227,2022-05-31_14h00.48.128,FishGame,2022.1.1,60.01439145105137,
,5,넌 고분고분해,3,Green,B,3.75,4.033333333333333,ScrollUp,ScrollDown,Green.png,5,Neutral,Neutral,0,0,0,0,,,,,,,,,,,,,,,,,,,,,,,,,,,,,0,4,4,4,,,,,,,,,,,,,,,,,,,,,,,,,,,,,,,,,,,,,,,,,,,,,,,,,,,,,,,,,,,,,,,,,,,,,2,2.0708441000006133,624.7156367000002,None,ScrollUp,정답입니다,624.7156367000002,None,624.7156367000002,None,624.7156367000002,None,624.7156367000002,None,626.6656568000003,None,626.6656568000003,627.1673344000005,,,,,,,,,,,,,,,,227,2022-05-31_14h00.48.128,FishGame,2022.1.1,60.01439145105137,
,6,나를 보내줘,6,Orange,A,0,0,ScrollUp,ScrollDown,Orange.png,5,NonTarget,NonTarget,0,0,0,0,,,,,,,,,,,,,,,,,,,,,,,,,,,,,0,5,5,5,,,,,,,,,,,,,,,,,,,,,,,,,,,,,,,,,,,,,,,,,,,,,,,,,,,,,,,,,,,,,,,,,,,,,2,1.304066800000328,627.8171078999999,None,ScrollUp,정답입니다,627.8171078999999,None,627.8171078999999,None,627.8171078999999,None,627.8171078999999,None,628.9985612000005,None,628.9985612000005,629.5004395000001,,,,,,,,,,,,,,,,227,2022-05-31_14h00.48.128,FishGame,2022.1.1,60.01439145105137,
,7,넌 잘 잊어,4,Orange,A,3,3.7,ScrollDown,ScrollUp,Orange.png,5,Negative,Incongruent,0,0,0,0,,,,,,,,,,,,,,,,,,,,,,,,,,,,,0,6,6,6,,,,,,,,,,,,,,,,,,,,,,,,,,,,,,,,,,,,,,,,,,,,,,,,,,,,,,,,,,,,,,,,,,,,,1,1.1285749999997279,630.1529703000001,None,ScrollDown,정답입니다,630.1529703000001,None,630.1529703000001,None,630.1529703000001,None,630.1529703000001,None,631.1472761,None,631.1472761,631.6502286,,,,,,,,,,,,,,,,227,2022-05-31_14h00.48.128,FishGame,2022.1.1,60.01439145105137,
,8,넌 탐구심이없어,4,Green,B,2.833333333333333,3.066666666666667,ScrollUp,ScrollDown,Green.png,5,Negative,Congruent,0,0,0,0,,,,,,,,,,,,,,,,,,,,,,,,,,,,,0,7,7,7,,,,,,,,,,,,,,,,,,,,,,,,,,,,,,,,,,,,,,,,,,,,,,,,,,,,,,,,,,,,,,,,,,,,,2,1.2834828999993988,632.2984489000005,None,ScrollUp,정답입니다,632.2984489000005,None,632.2984489000005,None,632.2984489000005,None,632.2984489000005,None,633.4540802000006,None,633.4540802000006,633.9665859000002,,,,,,,,,,,,,,,,227,2022-05-31_14h00.48.128,FishGame,2022.1.1,60.01439145105137,
,9,나를 데려가줘,6,Green,B,0,0,ScrollDown,ScrollUp,Green.png,5,NonTarget,NonTarget,0,0,0,0,,,,,,,,,,,,,,,,,,,,,,,,,,,,,0,8,8,8,,,,,,,,,,,,,,,,,,,,,,,,,,,,,,,,,,,,,,,,,,,,,,,,,,,,,,,,,,,,,,,,,,,,,1,1.5558150999995632,634.6125028000001,None,ScrollDown,정답입니다,634.6125028000001,None,634.6125028000001,None,634.6125028000001,None,634.6125028000001,None,636.0421707,None,636.0421707,636.5496039000004,,,,,,,,,,,,,,,,227,2022-05-31_14h00.48.128,FishGame,2022.1.1,60.01439145105137,
,10,넌 참되어,2,Orange,A,6.041666666666664,4.733333333333333,ScrollDown,ScrollUp,Orange.png,5,Positive,Congruent,0,0,0,0,,,,,,,,,,,,,,,,,,,,,,,,,,,,,0,9,9,9,,,,,,,,,,,,,,,,,,,,,,,,,,,,,,,,,,,,,,,,,,,,,,,,,,,,,,,,,,,,,,,,,,,,,1,1.0377011999999013,637.2013794,None,ScrollDown,정답입니다,637.2013794,None,637.2013794,None,637.2013794,None,637.2013794,None,638.1072739000006,None,638.1072739000006,638.6159407,,,,,,,,,,,,,,,,227,2022-05-31_14h00.48.128,FishGame,2022.1.1,60.01439145105137,
,11,넌 생기있어,1,Green,B,5.875,5.633333333333334,ScrollUp,ScrollDown,Green.png,5,Positive,Incongruent,0,0,0,0,,,,,,,,,,,,,,,,,,,,,,,,,,,,,0,10,10,10,,,,,,,,,,,,,,,,,,,,,,,,,,,,,,,,,,,,,,,,,,,,,,,,,,,,,,,,,,,,,,,,,,,,,2,1.220808300000499,639.2626596000005,None,ScrollUp,정답입니다,639.2626596000005,None,639.2626596000005,None,639.2626596000005,None,639.2626596000005,None,640.3638491000006,None,640.3638491000006,640.865714,,,,,,,,,,,,,,,,227,2022-05-31_14h00.48.128,FishGame,2022.1.1,60.01439145105137,
,12,넌 비사교적이야,4,Green,B,2.875,2.9,ScrollUp,ScrollDown,Green.png,5,Negative,Congruent,0,0,0,0,,,,,,,,,,,,,,,,,,,,,,,,,,,,,0,11,11,11,,,,,,,,,,,,,,,,,,,,,,,,,,,,,,,,,,,,,,,,,,,,,,,,,,,,,,,,,,,,,,,,,,,,,2,1.2367237999997087,641.5131041999998,None,ScrollUp,정답입니다,641.5131041999998,None,641.5131041999998,None,641.5131041999998,None,641.5131041999998,None,642.6217505,None,642.6217505,643.1321972000001,,,,,,,,,,,,,,,,227,2022-05-31_14h00.48.128,FishGame,2022.1.1,60.01439145105137,
,13,나를 데려가줘,6,Green,B,0,0,ScrollDown,ScrollUp,Green.png,5,NonTarget,NonTarget,0,0,0,0,,,,,,,,,,,,,,,,,,,,,,,,,,,,,0,12,12,12,,,,,,,,,,,,,,,,,,,,,,,,,,,,,,,,,,,,,,,,,,,,,,,,,,,,,,,,,,,,,,,,,,,,,1,1.3676392000006672,643.7760779000005,None,ScrollDown,정답입니다,643.7760779000005,None,643.7760779000005,None,643.7760779000005,None,643.7760779000005,None,645.0201811000002,None,645.0201811000002,645.5318201000005,,,,,,,,,,,,,,,,227,2022-05-31_14h00.48.128,FishGame,2022.1.1,60.01439145105137,
,14,넌 고독해,4,Orange,A,2.916666666666667,3.233333333333333,ScrollDown,ScrollUp,Orange.png,5,Negative,Incongruent,0,0,0,0,,,,,,,,,,,,,,,,,,,,,,,,,,,,,0,13,13,13,,,,,,,,,,,,,,,,,,,,,,,,,,,,,,,,,,,,,,,,,,,,,,,,,,,,,,,,,,,,,,,,,,,,,1,1.000873799999681,646.1790795000002,None,ScrollDown,정답입니다,646.1790795000002,None,646.1790795000002,None,646.1790795000002,None,646.1790795000002,None,647.0530657000004,None,647.0530657000004,647.5649562000003,,,,,,,,,,,,,,,,227,2022-05-31_14h00.48.128,FishGame,2022.1.1,60.01439145105137,
,15,넌 신경질적이야,5,Green,B,2.375,2.233333333333333,ScrollUp,ScrollDown,Green.png,5,Negative,Congruent,0,0,0,0,,,,,,,,,,,,,,,,,,,,,,,,,,,,,0,14,14,14,,,,,,,,,,,,,,,,,,,,,,,,,,,,,,,,,,,,,,,,,,,,,,,,,,,,,,,,,,,,,,,,,,,,,1.9490740597248077,1.079367700000148,648.2086536000002,None,ScrollUp,정답입니다,648.2086536000002,None,648.2086536000002,None,648.2086536000002,None,648.2086536000002,None,649.1644904,None,649.1644904,649.6645505000001,,,,,,,,,,,,,,,,227,2022-05-31_14h00.48.128,FishGame,2022.1.1,60.01439145105137,
,16,넌 똑똑해,2,Green,B,5.666666666666667,3.966666666666667,ScrollUp,ScrollDown,Green.png,5,Positive,Incongruent,0,0,0,0,,,,,,,,,,,,,,,,,,,,,,,,,,,,,0,15,15,15,,,,,,,,,,,,,,,,,,,,,,,,,,,,,,,,,,,,,,,,,,,,,,,,,,,,,,,,,,,,,,,,,,,,,2,1.3986965000003693,650.3077969999999,None,ScrollUp,정답입니다,650.3077969999999,None,650.3077969999999,None,650.3077969999999,None,650.3077969999999,None,651.5841888,None,651.5841888,652.0975659999999,,,,,,,,,,,,,,,,227,2022-05-31_14h00.48.128,FishGame,2022.1.1,60.01439145105137,
,17,나를 보내줘,6,Orange,A,0,0,ScrollUp,ScrollDown,Orange.png,5,NonTarget,NonTarget,0,0,0,0,,,,,,,,,,,,,,,,,,,,,,,,,,,,,0,16,16,16,,,,,,,,,,,,,,,,,,,,,,,,,,,,,,,,,,,,,,,,,,,,,,,,,,,,,,,,,,,,,,,,,,,,,2,1.3817380999998932,652.7460348999998,None,ScrollUp,정답입니다,652.7460348999998,None,652.7460348999998,None,652.7460348999998,None,652.7460348999998,None,653.9999731000003,None,653.9999731000003,654.5138474,,,,,,,,,,,,,,,,227,2022-05-31_14h00.48.128,FishGame,2022.1.1,60.01439145105137,
,18,넌 협조적이야,1,Orange,A,5.625,5.666666666666667,ScrollDown,ScrollUp,Orange.png,5,Positive,Congruent,0,0,0,0,,,,,,,,,,,,,,,,,,,,,,,,,,,,,0,17,17,17,,,,,,,,,,,,,,,,,,,,,,,,,,,,,,,,,,,,,,,,,,,,,,,,,,,,,,,,,,,,,,,,,,,,,1,1.1349472000001697,655.1571220999999,None,ScrollDown,정답입니다,655.1571220999999,None,655.1571220999999,None,655.1571220999999,None,655.1571220999999,None,656.1690176000006,None,656.1690176000006,656.6802576000005,,,,,,,,,,,,,,,,227,2022-05-31_14h00.48.128,FishGame,2022.1.1,60.01439145105137,
,19,나를 데려가줘,6,Green,B,0,0,ScrollDown,ScrollUp,Green.png,5,NonTarget,NonTarget,0,0,0,0,,,,,,,,,,,,,,,,,,,,,,,,,,,,,0,18,18,18,,,,,,,,,,,,,,,,,,,,,,,,,,,,,,,,,,,,,,,,,,,,,,,,,,,,,,,,,,,,,,,,,,,,,1,1.234424699999181,657.3311084000002,None,ScrollDown,정답입니다,657.3311084000002,None,657.3311084000002,None,657.3311084000002,None,657.3311084000002,None,658.4348789000001,None,658.4348789000001,658.9466186000004,,,,,,,,,,,,,,,,227,2022-05-31_14h00.48.128,FishGame,2022.1.1,60.01439145105137,
,20,넌 몰인정해,5,Green,B,2.541666666666667,2.066666666666667,ScrollUp,ScrollDown,Green.png,5,Negative,Congruent,0,0,0,0,,,,,,,,,,,,,,,,,,,,,,,,,,,,,0,19,19,19,,,,,,,,,,,,,,,,,,,,,,,,,,,,,,,,,,,,,,,,,,,,,,,,,,,,,,,,,,,,,,,,,,,,,1.9783950746059418,1.11618929999986,659.5953255,None,ScrollUp,정답입니다,659.5953255,None,659.5953255,None,659.5953255,None,659.5953255,None,660.5828689000004,None,660.5828689000004,661.0963258000006,,,,,,,,,,,,,,,,227,2022-05-31_14h00.48.128,FishGame,2022.1.1,60.01439145105137,
,21,나를 데려가줘,6,Green,B,0,0,ScrollDown,ScrollUp,Green.png,5,NonTarget,NonTarget,0,0,0,0,,,,,,,,,,,,,,,,,,,,,,,,,,,,,0,20,20,20,,,,,,,,,,,,,,,,,,,,,,,,,,,,,,,,,,,,,,,,,,,,,,,,,,,,,,,,,,,,,,,,,,,,,1,1.805334500000754,661.7333111000003,None,ScrollDown,정답입니다,661.7333111000003,None,661.7333111000003,None,661.7333111000003,None,661.7333111000003,None,663.4218581,None,663.4218581,663.9295375000006,,,,,,,,,,,,,,,,227,2022-05-31_14h00.48.128,FishGame,2022.1.1,60.01439145105137,
,22,넌 순진해,3,Green,B,4.125,4.166666666666667,ScrollUp,ScrollDown,Green.png,5,Neutral,Neutral,0,0,0,0,,,,,,,,,,,,,,,,,,,,,,,,,,,,,0,21,21,21,,,,,,,,,,,,,,,,,,,,,,,,,,,,,,,,,,,,,,,,,,,,,,,,,,,,,,,,,,,,,,,,,,,,,2,1.4368365000000267,664.5680574000003,None,ScrollUp,정답입니다,664.5680574000003,None,664.5680574000003,None,664.5680574000003,None,664.5680574000003,None,665.8938186,None,665.8938186,666.3956991999999,,,,,,,,,,,,,,,,227,2022-05-31_14h00.48.128,FishGame,2022.1.1,60.01439145105137,
,23,넌 신뢰할만해,1,Orange,A,6.625,5.533333333333333,ScrollDown,ScrollUp,Orange.png,5,Positive,Congruent,0,0,0,0,,,,,,,,,,,,,,,,,,,,,,,,,,,,,0,22,22,22,,,,,,,,,,,,,,,,,,,,,,,,,,,,,,,,,,,,,,,,,,,,,,,,,,,,,,,,,,,,,,,,,,,,,1,1.0131602999999814,667.0535138,None,ScrollDown,정답입니다,667.0535138,None,667.0535138,None,667.0535138,None,667.0535138,None,667.9287644000001,None,667.9287644000001,668.4286627000006,,,,,,,,,,,,,,,,227,2022-05-31_14h00.48.128,FishGame,2022.1.1,60.01439145105137,
,24,나를 보내줘,6,Orange,A,0,0,ScrollUp,ScrollDown,Orange.png,5,NonTarget,NonTarget,0,0,0,0,,,,,,,,,,,,,,,,,,,,,,,,,,,,,0,23,23,23,,,,,,,,,,,,,,,,,,,,,,,,,,,,,,,,,,,,,,,,,,,,,,,,,,,,,,,,,,,,,,,,,,,,,2,1.2547283000003517,669.0726937000004,None,ScrollUp,정답입니다,669.0726937000004,None,669.0726937000004,None,669.0726937000004,None,669.0726937000004,None,670.2100913999998,None,670.2100913999998,670.7118817000005,,,,,,,,,,,,,,,,227,2022-05-31_14h00.48.128,FishGame,2022.1.1,60.01439145105137,
,25,넌 인색해,5,Orange,A,2.625,2.233333333333333,ScrollDown,ScrollUp,Orange.png,5,Negative,Incongruent,0,0,0,0,,,,,,,,,,,,,,,,,,,,,,,,,,,,,0,24,24,24,,,,,,,,,,,,,,,,,,,,,,,,,,,,,,,,,,,,,,,,,,,,,,,,,,,,,,,,,,,,,,,,,,,,,1,1.0116843000005247,671.3651478000006,None,ScrollDown,정답입니다,671.3651478000006,None,671.3651478000006,None,671.3651478000006,None,671.3651478000006,None,672.2409072000005,None,672.2409072000005,672.7449665999998,,,,,,,,,,,,,,,,227,2022-05-31_14h00.48.128,FishGame,2022.1.1,60.01439145105137,
,26,넌 유쾌해,1,Green,B,5.833333333333333,5.766666666666667,ScrollUp,ScrollDown,Green.png,5,Positive,Incongruent,0,0,0,0,,,,,,,,,,,,,,,,,,,,,,,,,,,,,0,25,25,25,,,,,,,,,,,,,,,,,,,,,,,,,,,,,,,,,,,,,,,,,,,,,,,,,,,,,,,,,,,,,,,,,,,,,1.9753086467583973,1.2436199999992823,673.3826523000002,None,ScrollUp,정답입니다,673.3826523000002,None,673.3826523000002,None,673.3826523000002,None,673.3826523000002,None,674.5114530000005,None,674.5114530000005,675.0112537,,,,,,,,,,,,,,,,227,2022-05-31_14h00.48.128,FishGame,2022.1.1,60.01439145105137,
,27,나를 보내줘,6,Orange,A,0,0,ScrollUp,ScrollDown,Orange.png,5,NonTarget,NonTarget,0,0,0,0,,,,,,,,,,,,,,,,,,,,,,,,,,,,,0,26,26,26,,,,,,,,,,,,,,,,,,,,,,,,,,,,,,,,,,,,,,,,,,,,,,,,,,,,,,,,,,,,,,,,,,,,,1.8225308656692505,1.2013569999999163,675.6537176000006,None,ScrollUp,정답입니다,675.6537176000006,None,675.6537176000006,None,675.6537176000006,None,675.6537176000006,None,676.7325829000006,None,676.7325829000006,677.2445097000004,,,,,,,,,,,,,,,,227,2022-05-31_14h00.48.128,FishGame,2022.1.1,60.01439145105137,
