name,TrialNum,Word,WordCategory,FishType,WordList,WordValence,WordReputation,CorrectResp,IncorrectResp,FishTypeFile,Round,WordType,Condition,LoopforOrange.thisRepN,LoopforOrange.thisTrialN,LoopforOrange.thisN,LoopforOrange.thisIndex,LoopForGreen.thisRepN,LoopForGreen.thisTrialN,LoopForGreen.thisN,LoopForGreen.thisIndex,GreenInstLoop.thisRepN,GreenInstLoop.thisTrialN,GreenInstLoop.thisN,GreenInstLoop.thisIndex,GreenPrac.thisRepN,GreenPrac.thisTrialN,GreenPrac.thisN,GreenPrac.thisIndex,trials_2.thisRepN,trials_2.thisTrialN,trials_2.thisN,trials_2.thisIndex,GreenRound1.thisRepN,GreenRound1.thisTrialN,GreenRound1.thisN,GreenRound1.thisIndex,GreenRound2.thisRepN,GreenRound2.thisTrialN,GreenRound2.thisN,GreenRound2.thisIndex,GreenRound3.thisRepN,GreenRound3.thisTrialN,GreenRound3.thisN,GreenRound3.thisIndex,GreenRound4.thisRepN,GreenRound4.thisTrialN,GreenRound4.thisN,GreenRound4.thisIndex,GreenRound5.thisRepN,GreenRound5.thisTrialN,GreenRound5.thisN,GreenRound5.thisIndex,text_2.started,text_2.stopped,text_3.started,text_3.stopped,key_resp.keys,key_resp.rt,key_resp.started,key_resp.stopped,PassI.started,PassI.stopped,PassInst.keys,PassInst.rt,PassInst.started,PassInst.stopped,mouse_2.x,mouse_2.y,mouse_2.leftButton,mouse_2.midButton,mouse_2.rightButton,mouse_2.started,mouse_2.stopped,image.started,image.stopped,text_5.started,text_5.stopped,text_6.started,text_6.stopped,text_7.started,text_7.stopped,text_8.started,text_8.stopped,slider_3.response,slider_3.rt,slider_3.started,slider_3.stopped,Response_3,Feedback_3,BackGround_3.started,BackGround_3.stopped,Fish_3.started,Fish_3.stopped,WordBox_3.started,WordBox_3.stopped,Words_3.started,Words_3.stopped,BackGround_Feedback_3.started,BackGround_Feedback_3.stopped,Feedbacks_3.started,Feedbacks_3.stopped,Continue_or_not_2.keys,Continue_or_not_2.rt,Continue_or_not_2.started,Continue_or_not_2.stopped,image_4.started,image_4.stopped,mouse_3.x,mouse_3.y,mouse_3.leftButton,mouse_3.midButton,mouse_3.rightButton,mouse_3.started,mouse_3.stopped,startmain.started,startmain.stopped,slider_4.response,slider_4.rt,slider_4.started,slider_4.stopped,Response_4,Feedback_4,BackGround_4.started,BackGround_4.stopped,Fish_4.started,Fish_4.stopped,WordBox_4.started,WordBox_4.stopped,Words_4.started,Words_4.stopped,BackGround_Feedback_4.started,BackGround_Feedback_4.stopped,Feedbacks_4.started,Feedbacks_4.stopped,text.started,text.stopped,break_interval.started,break_interval.stopped,mouse.x,mouse.y,mouse.leftButton,mouse.midButton,mouse.rightButton,mouse.started,mouse.stopped,stratnextround.started,stratnextround.stopped,endgame.started,endgame.stopped,participant,date,expName,psychopyVersion,frameRate,
,,,,,,,,,,,,,,,,,,,,,,,,,,,,,,,,,,,,,,,,,,,,,,,,,,,,,,21.750285200000235,None,21.750285200000235,None,space,3.899327899999662,22.230934499999876,None,,,,,,,,,,,,,,,,,,,,,,,,,,,,,,,,,,,,,,,,,,,,,,,,,,,,,,,,,,,,,,,,,,,,,,,,,,,,,,,,,,,,,,,,,,228,2022-06-03_14h19.18.976,FishGame,2022.1.1,60.0233610921081,
물고기과제_instruction(참가자용)GreenVersion.mp4,,,,,,,,,,,,,,,,,,0,0,0,0,0,0,0,0,,,,,,,,,,,,,,,,,,,,,,,,,,,,,,,,,,,,,93.41112350000003,None,n,4.400372000000061,93.41112350000003,None,,,,,,,,,,,,,,,,,,,,,,,,,,,,,,,,,,,,,,,,,,,,,,,,,,,,,,,,,,,,,,,,,,,,,,,,,,,,,,,,,,,,228,2022-06-03_14h19.18.976,FishGame,2022.1.1,60.0233610921081,
,1,넌 교활해,5,Orange,B,2.333333333333333,2.133333333333333,ScrollUp,ScrollDown,Orange.png,practice,,,,,,,0,0,0,0,,,,,0,0,0,0,0,0,0,0,,,,,,,,,,,,,,,,,,,,,,,,,,,,,,,,,,,0.097222224,-0.24166666,1,0,0,0.5133185099998627,None,97.83779030000005,None,105.13707849999992,106.63666980000016,106.66994079999995,107.61994850000019,107.66990750000014,108.61984050000001,108.61984050000001,None,1.6682098706563315,1.693684100000155,109.82908020000013,None,ScrollUp,정답입니다,109.82908020000013,None,109.82908020000013,None,109.82908020000013,None,109.82908020000013,None,111.32521640000004,None,111.32521640000004,111.83589729999994,,,,,,,,,,,,,,,,,,,,,,,,,,,,,,,,,,,,,,,,,,,,,,,,,228,2022-06-03_14h19.18.976,FishGame,2022.1.1,60.0233610921081,
,2,넌 슬기로워,2,Green,A,6.166666666666667,4.1,ScrollDown,ScrollUp,Green.png,practice,,,,,,,0,0,0,0,,,,,0,0,0,0,0,1,1,1,,,,,,,,,,,,,,,,,,,,,,,,,,,,,,,,,,,,,,,,,,,,,,,,,,,,1.0617283880710602,1.112014900000304,112.50001180000027,None,ScrollDown,정답입니다,112.50001180000027,None,112.50001180000027,None,112.50001180000027,None,112.50001180000027,None,113.46876079999993,None,113.46876079999993,113.9689698000002,,,,,,,,,,,,,,,,,,,,,,,,,,,,,,,,,,,,,,,,,,,,,,,,,228,2022-06-03_14h19.18.976,FishGame,2022.1.1,60.0233610921081,
,3,나를 보내줘,6,Green,A,0,0,ScrollUp,ScrollDown,Green.png,practice,,,,,,,0,0,0,0,,,,,0,0,0,0,0,2,2,2,,,,,,,,,,,,,,,,,,,,,,,,,,,,,,,,,,,,,,,,,,,,,,,,,,,,1.733024681607882,1.2911145000002762,114.62274090000028,None,ScrollUp,정답입니다,114.62274090000028,None,114.62274090000028,None,114.62274090000028,None,114.62274090000028,None,115.7857813999999,None,115.7857813999999,116.28530730000011,,,,,,,,,,,,,,,,,,,,,,,,,,,,,,,,,,,,,,,,,,,,,,,,,228,2022-06-03_14h19.18.976,FishGame,2022.1.1,60.0233610921081,
,4,나를 데려가줘,6,Orange,B,0,0,ScrollDown,ScrollUp,Orange.png,practice,,,,,,,0,0,0,0,,,,,0,0,0,0,0,3,3,3,,,,,,,,,,,,,,,,,,,,,,,,,,,,,,,,,,,,,,,,,,,,,,,,,,,,1.2623456766208014,1.407669100000021,116.94107179999992,None,ScrollDown,정답입니다,116.94107179999992,None,116.94107179999992,None,116.94107179999992,None,116.94107179999992,None,118.21572259999994,None,118.21572259999994,118.71833319999996,,,,,,,,,,,,,,,,,,,,,,,,,,,,,,,,,,,,,,,,,,,,,,,,,228,2022-06-03_14h19.18.976,FishGame,2022.1.1,60.0233610921081,
,1,넌 교활해,5,Orange,B,2.333333333333333,2.133333333333333,ScrollUp,ScrollDown,Orange.png,practice,,,,,,,0,0,0,0,,,,,0,0,0,0,,,,,,,,,,,,,,,,,,,,,,,,,,,,,,,,,,,,,,,,,,,,,,,,,,,,,,,,,,,,,,,,,,,,,,,,,,n,12.456252500000119,119.21844030000011,None,119.21844030000011,None,,,,,,,,,,,,,,,,,,,,,,,,,,,,,,,,,,,,,,,,,,,228,2022-06-03_14h19.18.976,FishGame,2022.1.1,60.0233610921081,
,1,넌 따뜻해,1,Orange,B,6.083333333333333,5.6,ScrollUp,ScrollDown,Orange.png,1,Positive,Incongruent,,,,,0,0,0,0,,,,,,,,,,,,,0,0,0,0,,,,,,,,,,,,,,,,,,,,,,,,,,,,,,,,,,,,,,,,133.19999989999997,134.69972180000013,134.73307890000024,135.68301770000016,135.73301880000008,136.6828198000003,136.6828198000003,None,,,,,,,,,,,,,,,,,,,,,,,,,0.028703704,-0.1037037,1,0,0,0.31364301000030537,None,131.70013730000028,None,1.6064814875523248,1.4315891000001102,137.8867838000001,None,ScrollUp,정답입니다,137.8867838000001,None,137.8867838000001,None,137.8867838000001,None,137.8867838000001,None,139.13442750000013,None,139.13442750000013,139.64928610000015,,,,,,,,,,,,,,,,228,2022-06-03_14h19.18.976,FishGame,2022.1.1,60.0233610921081,
,2,넌 기품있어,2,Orange,B,5.791666666666668,4.5,ScrollUp,ScrollDown,Orange.png,1,Positive,Incongruent,,,,,0,0,0,0,,,,,,,,,,,,,0,1,1,1,,,,,,,,,,,,,,,,,,,,,,,,,,,,,,,,,,,,,,,,,,,,,,,,,,,,,,,,,,,,,,,,,,,,,,,,,,,,,,,,,1.8719135870536168,1.2107581999998729,140.2992481000001,None,ScrollUp,정답입니다,140.2992481000001,None,140.2992481000001,None,140.2992481000001,None,140.2992481000001,None,141.3658507,None,141.3658507,141.8653273,,,,,,,,,,,,,,,,228,2022-06-03_14h19.18.976,FishGame,2022.1.1,60.0233610921081,
,3,나를 보내줘,6,Green,A,0,0,ScrollUp,ScrollDown,Green.png,1,NonTarget,NonTarget,,,,,0,0,0,0,,,,,,,,,,,,,0,2,2,2,,,,,,,,,,,,,,,,,,,,,,,,,,,,,,,,,,,,,,,,,,,,,,,,,,,,,,,,,,,,,,,,,,,,,,,,,,,,,,,,,1.5432098750025034,1.1646170999997594,142.5308339000003,None,NoResponse,무응답입니다,142.5308339000003,None,142.5308339000003,None,142.5308339000003,None,142.5308339000003,None,143.55875480000032,None,143.55875480000032,144.06514939999988,,,,,,,,,,,,,,,,228,2022-06-03_14h19.18.976,FishGame,2022.1.1,60.0233610921081,
,4,넌 수동적이야,4,Green,A,2.833333333333333,2.933333333333333,ScrollDown,ScrollUp,Green.png,1,Negative,Incongruent,,,,,0,0,0,0,,,,,,,,,,,,,0,3,3,3,,,,,,,,,,,,,,,,,,,,,,,,,,,,,,,,,,,,,,,,,,,,,,,,,,,,,,,,,,,,,,,,,,,,,,,,,,,,,,,,,1.016975333293279,1.9550965000003089,144.7401302000003,None,ScrollDown,정답입니다,144.7401302000003,None,144.7401302000003,None,144.7401302000003,None,144.7401302000003,None,146.54297420000012,None,146.54297420000012,147.04814570000008,,,,,,,,,,,,,,,,228,2022-06-03_14h19.18.976,FishGame,2022.1.1,60.0233610921081,
,5,넌 사심이 없어,3,Orange,B,4.916666666666666,4.333333333333333,ScrollUp,ScrollDown,Orange.png,1,Neutral,Neutral,,,,,0,0,0,0,,,,,,,,,,,,,0,4,4,4,,,,,,,,,,,,,,,,,,,,,,,,,,,,,,,,,,,,,,,,,,,,,,,,,,,,,,,,,,,,,,,,,,,,,,,,,,,,,,,,,1.6728395000100136,1.3142969000000448,147.7146015000003,None,ScrollUp,정답입니다,147.7146015000003,None,147.7146015000003,None,147.7146015000003,None,147.7146015000003,None,148.88581290000002,None,148.88581290000002,149.39784640000016,,,,,,,,,,,,,,,,228,2022-06-03_14h19.18.976,FishGame,2022.1.1,60.0233610921081,
,6,넌 헤퍼,5,Green,A,2.458333333333334,2.233333333333333,ScrollDown,ScrollUp,Green.png,1,Negative,Incongruent,,,,,0,0,0,0,,,,,,,,,,,,,0,5,5,5,,,,,,,,,,,,,,,,,,,,,,,,,,,,,,,,,,,,,,,,,,,,,,,,,,,,,,,,,,,,,,,,,,,,,,,,,,,,,,,,,1.2592592487732568,1.3697403000001032,150.0539678,None,ScrollDown,정답입니다,150.0539678,None,150.0539678,None,150.0539678,None,150.0539678,None,151.29006230000005,None,151.29006230000005,151.7975306000003,,,,,,,,,,,,,,,,228,2022-06-03_14h19.18.976,FishGame,2022.1.1,60.0233610921081,
,7,넌 말쑥해,3,Green,A,4.833333333333334,4.333333333333333,ScrollDown,ScrollUp,Green.png,1,Neutral,Neutral,,,,,0,0,0,0,,,,,,,,,,,,,0,6,6,6,,,,,,,,,,,,,,,,,,,,,,,,,,,,,,,,,,,,,,,,,,,,,,,,,,,,,,,,,,,,,,,,,,,,,,,,,,,,,,,,,1.1697530895471573,1.117974399999639,152.469877,None,ScrollDown,정답입니다,152.469877,None,152.469877,None,152.469877,None,152.469877,None,153.43704590000016,None,153.43704590000016,153.9472166999999,,,,,,,,,,,,,,,,228,2022-06-03_14h19.18.976,FishGame,2022.1.1,60.0233610921081,
,8,넌 투덜거려,5,Orange,B,2.541666666666667,2.266666666666667,ScrollUp,ScrollDown,Orange.png,1,Negative,Congruent,,,,,0,0,0,0,,,,,,,,,,,,,0,7,7,7,,,,,,,,,,,,,,,,,,,,,,,,,,,,,,,,,,,,,,,,,,,,,,,,,,,,,,,,,,,,,,,,,,,,,,,,,,,,,,,,,1.7932098756233852,1.0724522999998953,154.61784190000026,None,ScrollUp,정답입니다,154.61784190000026,None,154.61784190000026,None,154.61784190000026,None,154.61784190000026,None,155.54687890000014,None,155.54687890000014,156.04682880000018,,,,,,,,,,,,,,,,228,2022-06-03_14h19.18.976,FishGame,2022.1.1,60.0233610921081,
,9,넌 적극적이야,1,Green,A,5.708333333333333,5.533333333333333,ScrollDown,ScrollUp,Green.png,1,Positive,Congruent,,,,,0,0,0,0,,,,,,,,,,,,,0,8,8,8,,,,,,,,,,,,,,,,,,,,,,,,,,,,,,,,,,,,,,,,,,,,,,,,,,,,,,,,,,,,,,,,,,,,,,,,,,,,,,,,,1.253086417913437,1.2617549999999937,156.70385960000021,None,ScrollDown,정답입니다,156.70385960000021,None,156.70385960000021,None,156.70385960000021,None,156.70385960000021,None,157.8323849000003,None,157.8323849000003,158.3466395999999,,,,,,,,,,,,,,,,228,2022-06-03_14h19.18.976,FishGame,2022.1.1,60.0233610921081,
,10,넌 재미없어,4,Orange,B,2.625,2.966666666666667,ScrollUp,ScrollDown,Orange.png,1,Negative,Congruent,,,,,0,0,0,0,,,,,,,,,,,,,0,9,9,9,,,,,,,,,,,,,,,,,,,,,,,,,,,,,,,,,,,,,,,,,,,,,,,,,,,,,,,,,,,,,,,,,,,,,,,,,,,,,,,,,1.7793209999799728,1.1188019000001077,159.00906250000025,None,ScrollUp,정답입니다,159.00906250000025,None,159.00906250000025,None,159.00906250000025,None,159.00906250000025,None,159.98666860000003,None,159.98666860000003,160.49636959999998,,,,,,,,,,,,,,,,228,2022-06-03_14h19.18.976,FishGame,2022.1.1,60.0233610921081,
,11,넌 명석해,2,Green,A,5.875,4.033333333333333,ScrollDown,ScrollUp,Green.png,1,Positive,Congruent,,,,,0,0,0,0,,,,,,,,,,,,,0,10,10,10,,,,,,,,,,,,,,,,,,,,,,,,,,,,,,,,,,,,,,,,,,,,,,,,,,,,,,,,,,,,,,,,,,,,,,,,,,,,,,,,,1.2731481492519379,1.1997019999998884,161.15134579999994,None,ScrollDown,정답입니다,161.15134579999994,None,161.15134579999994,None,161.15134579999994,None,161.15134579999994,None,162.21805330000007,None,162.21805330000007,162.7295669,,,,,,,,,,,,,,,,228,2022-06-03_14h19.18.976,FishGame,2022.1.1,60.0233610921081,
,12,나를 데려가줘,6,Orange,B,0,0,ScrollDown,ScrollUp,Orange.png,1,NonTarget,NonTarget,,,,,0,0,0,0,,,,,,,,,,,,,0,11,11,11,,,,,,,,,,,,,,,,,,,,,,,,,,,,,,,,,,,,,,,,,,,,,,,,,,,,,,,,,,,,,,,,,,,,,,,,,,,,,,,,,1.0879629751046498,1.288169200000084,163.3854607000003,None,ScrollDown,정답입니다,163.3854607000003,None,163.3854607000003,None,163.3854607000003,None,163.3854607000003,None,164.53927250000015,None,164.53927250000015,165.0458719000003,,,,,,,,,,,,,,,,228,2022-06-03_14h19.18.976,FishGame,2022.1.1,60.0233610921081,
,13,넌 소심해,4,Green,A,3,3.1,ScrollDown,ScrollUp,Green.png,1,Negative,Incongruent,,,,,0,0,0,0,,,,,,,,,,,,,0,12,12,12,,,,,,,,,,,,,,,,,,,,,,,,,,,,,,,,,,,,,,,,,,,,,,,,,,,,,,,,,,,,,,,,,,,,,,,,,,,,,,,,,1.1327160547176998,1.1848331999999573,165.7017562000001,None,ScrollDown,정답입니다,165.7017562000001,None,165.7017562000001,None,165.7017562000001,None,165.7017562000001,None,166.75319230000014,None,166.75319230000014,167.26215989999992,,,,,,,,,,,,,,,,228,2022-06-03_14h19.18.976,FishGame,2022.1.1,60.0233610921081,
,14,넌 합리적이야,2,Green,A,5.583333333333333,4.733333333333333,ScrollDown,ScrollUp,Green.png,1,Positive,Congruent,,,,,0,0,0,0,,,,,,,,,,,,,0,13,13,13,,,,,,,,,,,,,,,,,,,,,,,,,,,,,,,,,,,,,,,,,,,,,,,,,,,,,,,,,,,,,,,,,,,,,,,,,,,,,,,,,1.248456800977389,1.0511184000001776,167.92344790000016,None,ScrollDown,정답입니다,167.92344790000016,None,167.92344790000016,None,167.92344790000016,None,167.92344790000016,None,168.83562239999992,None,168.83562239999992,169.34513909999987,,,,,,,,,,,,,,,,228,2022-06-03_14h19.18.976,FishGame,2022.1.1,60.0233610921081,
,15,넌 무자비해,5,Orange,B,2.333333333333333,2.1,ScrollUp,ScrollDown,Orange.png,1,Negative,Congruent,,,,,0,0,0,0,,,,,,,,,,,,,0,14,14,14,,,,,,,,,,,,,,,,,,,,,,,,,,,,,,,,,,,,,,,,,,,,,,,,,,,,,,,,,,,,,,,,,,,,,,,,,,,,,,,,,1.7422839403152466,1.17887410000003,170.0092437000003,None,ScrollUp,정답입니다,170.0092437000003,None,170.0092437000003,None,170.0092437000003,None,170.0092437000003,None,171.04450570000017,None,171.04450570000017,171.54503550000027,,,,,,,,,,,,,,,,228,2022-06-03_14h19.18.976,FishGame,2022.1.1,60.0233610921081,
,16,나를 보내줘,6,Green,A,0,0,ScrollUp,ScrollDown,Green.png,1,NonTarget,NonTarget,,,,,0,0,0,0,,,,,,,,,,,,,0,15,15,15,,,,,,,,,,,,,,,,,,,,,,,,,,,,,,,,,,,,,,,,,,,,,,,,,,,,,,,,,,,,,,,,,,,,,,,,,,,,,,,,,1.7685185273488362,1.2815221999999267,172.19584140000006,None,ScrollUp,정답입니다,172.19584140000006,None,172.19584140000006,None,172.19584140000006,None,172.19584140000006,None,173.34991910000008,None,173.34991910000008,173.86134840000022,,,,,,,,,,,,,,,,228,2022-06-03_14h19.18.976,FishGame,2022.1.1,60.0233610921081,
,17,넌 현실적이야,3,Orange,B,4.608695652173913,4.766666666666667,ScrollUp,ScrollDown,Orange.png,1,Neutral,Neutral,,,,,0,0,0,0,,,,,,,,,,,,,0,16,16,16,,,,,,,,,,,,,,,,,,,,,,,,,,,,,,,,,,,,,,,,,,,,,,,,,,,,,,,,,,,,,,,,,,,,,,,,,,,,,,,,,1.8626543283462524,1.4378827000000456,174.53438080000024,None,ScrollUp,정답입니다,174.53438080000024,None,174.53438080000024,None,174.53438080000024,None,174.53438080000024,None,175.8281505,None,175.8281505,176.32778210000015,,,,,,,,,,,,,,,,228,2022-06-03_14h19.18.976,FishGame,2022.1.1,60.0233610921081,
,18,넌 의리있어,1,Orange,B,5.833333333333334,5.633333333333334,ScrollUp,ScrollDown,Orange.png,1,Positive,Incongruent,,,,,0,0,0,0,,,,,,,,,,,,,0,17,17,17,,,,,,,,,,,,,,,,,,,,,,,,,,,,,,,,,,,,,,,,,,,,,,,,,,,,,,,,,,,,,,,,,,,,,,,,,,,,,,,,,1.9290123283863068,1.2645072000000255,176.9985157000001,None,ScrollUp,정답입니다,176.9985157000001,None,176.9985157000001,None,176.9985157000001,None,176.9985157000001,None,178.11468270000023,None,178.11468270000023,178.62745429999995,,,,,,,,,,,,,,,,228,2022-06-03_14h19.18.976,FishGame,2022.1.1,60.0233610921081,
,19,넌 신경과민이야,5,Green,A,2.541666666666667,2.166666666666667,ScrollDown,ScrollUp,Green.png,1,Negative,Incongruent,,,,,0,0,0,0,,,,,,,,,,,,,0,18,18,18,,,,,,,,,,,,,,,,,,,,,,,,,,,,,,,,,,,,,,,,,,,,,,,,,,,,,,,,,,,,,,,,,,,,,,,,,,,,,,,,,1.2206790000200272,1.0986719000002267,179.29146949999995,None,ScrollDown,정답입니다,179.29146949999995,None,179.29146949999995,None,179.29146949999995,None,179.29146949999995,None,180.24887590000026,None,180.24887590000026,180.76044790000014,,,,,,,,,,,,,,,,228,2022-06-03_14h19.18.976,FishGame,2022.1.1,60.0233610921081,
,20,넌 편안해,1,Green,A,5.916666666666666,5.866666666666666,ScrollDown,ScrollUp,Green.png,1,Positive,Congruent,,,,,0,0,0,0,,,,,,,,,,,,,0,19,19,19,,,,,,,,,,,,,,,,,,,,,,,,,,,,,,,,,,,,,,,,,,,,,,,,,,,,,,,,,,,,,,,,,,,,,,,,,,,,,,,,,1.2824074079593024,1.0516461000001982,181.41911170000003,None,ScrollDown,정답입니다,181.41911170000003,None,181.41911170000003,None,181.41911170000003,None,181.41911170000003,None,182.33436419999998,None,182.33436419999998,182.8435545000002,,,,,,,,,,,,,,,,228,2022-06-03_14h19.18.976,FishGame,2022.1.1,60.0233610921081,
,21,넌 품위있어,2,Orange,B,5.291666666666666,4.466666666666667,ScrollUp,ScrollDown,Orange.png,1,Positive,Incongruent,,,,,0,0,0,0,,,,,,,,,,,,,0,20,20,20,,,,,,,,,,,,,,,,,,,,,,,,,,,,,,,,,,,,,,,,,,,,,,,,,,,,,,,,,,,,,,,,,,,,,,,,,,,,,,,,,1.878086417913437,1.0833647999997993,183.5054743999999,None,ScrollUp,정답입니다,183.5054743999999,None,183.5054743999999,None,183.5054743999999,None,183.5054743999999,None,184.44867329999988,None,184.44867329999988,184.96013960000028,,,,,,,,,,,,,,,,228,2022-06-03_14h19.18.976,FishGame,2022.1.1,60.0233610921081,
,22,넌 빈틈없어,3,Green,A,4.833333333333333,3.966666666666667,ScrollDown,ScrollUp,Green.png,1,Neutral,Neutral,,,,,0,0,0,0,,,,,,,,,,,,,0,21,21,21,,,,,,,,,,,,,,,,,,,,,,,,,,,,,,,,,,,,,,,,,,,,,,,,,,,,,,,,,,,,,,,,,,,,,,,,,,,,,,,,,1.2175925970077515,1.098989199999778,185.61285369999996,None,ScrollDown,정답입니다,185.61285369999996,None,185.61285369999996,None,185.61285369999996,None,185.61285369999996,None,186.58159060000025,None,186.58159060000025,187.09296660000018,,,,,,,,,,,,,,,,228,2022-06-03_14h19.18.976,FishGame,2022.1.1,60.0233610921081,
,23,넌 상상력없어,4,Orange,B,2.833333333333333,3.133333333333333,ScrollUp,ScrollDown,Orange.png,1,Negative,Congruent,,,,,0,0,0,0,,,,,,,,,,,,,0,22,22,22,,,,,,,,,,,,,,,,,,,,,,,,,,,,,,,,,,,,,,,,,,,,,,,,,,,,,,,,,,,,,,,,,,,,,,,,,,,,,,,,,1.9876543084780376,1.011701500000072,187.75829490000024,None,ScrollUp,정답입니다,187.75829490000024,None,187.75829490000024,None,187.75829490000024,None,187.75829490000024,None,188.62653080000018,None,188.62653080000018,189.1262740000002,,,,,,,,,,,,,,,,228,2022-06-03_14h19.18.976,FishGame,2022.1.1,60.0233610921081,
,24,넌 지혜로워,2,Orange,B,6.333333333333334,4.633333333333334,ScrollUp,ScrollDown,Orange.png,1,Positive,Incongruent,,,,,0,0,0,0,,,,,,,,,,,,,0,23,23,23,,,,,,,,,,,,,,,,,,,,,,,,,,,,,,,,,,,,,,,,,,,,,,,,,,,,,,,,,,,,,,,,,,,,,,,,,,,,,,,,,1.873456800977389,0.9686254000002918,189.78873620000013,None,ScrollUp,정답입니다,189.78873620000013,None,189.78873620000013,None,189.78873620000013,None,189.78873620000013,None,190.61631810000017,None,190.61631810000017,191.12587239999993,,,,,,,,,,,,,,,,228,2022-06-03_14h19.18.976,FishGame,2022.1.1,60.0233610921081,
,25,넌 시끄러워,4,Green,A,2.833333333333333,3.033333333333333,ScrollDown,ScrollUp,Green.png,1,Negative,Incongruent,,,,,0,0,0,0,,,,,,,,,,,,,0,24,24,24,,,,,,,,,,,,,,,,,,,,,,,,,,,,,,,,,,,,,,,,,,,,,,,,,,,,,,,,,,,,,,,,,,,,,,,,,,,,,,,,,1.3055555547277131,1.1460374000002957,191.79272609999998,None,ScrollDown,정답입니다,191.79272609999998,None,191.79272609999998,None,191.79272609999998,None,191.79272609999998,None,192.79534580000018,None,192.79534580000018,193.3088276000003,,,,,,,,,,,,,,,,228,2022-06-03_14h19.18.976,FishGame,2022.1.1,60.0233610921081,
,26,넌 만사태평이야,3,Orange,B,4,4.333333333333333,ScrollUp,ScrollDown,Orange.png,1,Neutral,Neutral,,,,,0,0,0,0,,,,,,,,,,,,,0,25,25,25,,,,,,,,,,,,,,,,,,,,,,,,,,,,,,,,,,,,,,,,,,,,,,,,,,,,,,,,,,,,,,,,,,,,,,,,,,,,,,,,,1.6882716019948325,0.969970000000103,193.97604200000023,None,ScrollUp,정답입니다,193.97604200000023,None,193.97604200000023,None,193.97604200000023,None,193.97604200000023,None,194.80185410000013,None,194.80185410000013,195.30872060000002,,,,,,,,,,,,,,,,228,2022-06-03_14h19.18.976,FishGame,2022.1.1,60.0233610921081,
,27,넌 붙임성있어,1,Green,A,5.708333333333333,5.633333333333334,ScrollDown,ScrollUp,Green.png,1,Positive,Congruent,,,,,0,0,0,0,,,,,,,,,,,,,0,26,26,26,,,,,,,,,,,,,,,,,,,,,,,,,,,,,,,,,,,,,,,,,,,,,,,,,,,,,,,,,,,,,,,,,,,,,,,,,,,,,,,,,1.1574074029922485,1.0225082000001748,195.96801559999994,None,ScrollDown,정답입니다,195.96801559999994,None,195.96801559999994,None,195.96801559999994,None,195.96801559999994,None,196.85859870000013,None,196.85859870000013,197.35842580000008,,,,,,,,,,,,,,,,228,2022-06-03_14h19.18.976,FishGame,2022.1.1,60.0233610921081,
,28,넌 영리해,2,Green,A,6,4.033333333333333,ScrollDown,ScrollUp,Green.png,1,Positive,Congruent,,,,,0,0,0,0,,,,,,,,,,,,,0,27,27,27,,,,,,,,,,,,,,,,,,,,,,,,,,,,,,,,,,,,,,,,,,,,,,,,,,,,,,,,,,,,,,,,,,,,,,,,,,,,,,,,,1.126543199022611,1.0170588000000862,198.01806140000008,None,ScrollDown,정답입니다,198.01806140000008,None,198.01806140000008,None,198.01806140000008,None,198.01806140000008,None,198.89920680000023,None,198.89920680000023,199.40813800000024,,,,,,,,,,,,,,,,228,2022-06-03_14h19.18.976,FishGame,2022.1.1,60.0233610921081,
,29,넌 열심이야,1,Orange,B,6.041666666666667,5.833333333333333,ScrollUp,ScrollDown,Orange.png,1,Positive,Incongruent,,,,,0,0,0,0,,,,,,,,,,,,,0,28,28,28,,,,,,,,,,,,,,,,,,,,,,,,,,,,,,,,,,,,,,,,,,,,,,,,,,,,,,,,,,,,,,,,,,,,,,,,,,,,,,,,,1.9120370248953502,1.0227196000000731,200.06261170000016,None,ScrollUp,정답입니다,200.06261170000016,None,200.06261170000016,None,200.06261170000016,None,200.06261170000016,None,200.9582462000003,None,200.9582462000003,201.4578888000001,,,,,,,,,,,,,,,,228,2022-06-03_14h19.18.976,FishGame,2022.1.1,60.0233610921081,
,30,넌 인기없어,4,Orange,B,3,3.3,ScrollUp,ScrollDown,Orange.png,1,Negative,Congruent,,,,,0,0,0,0,,,,,,,,,,,,,0,29,29,29,,,,,,,,,,,,,,,,,,,,,,,,,,,,,,,,,,,,,,,,,,,,,,,,,,,,,,,,,,,,,,,,,,,,,,,,,,,,,,,,,1.7978395173947017,0.985986000000139,202.11362809999991,None,ScrollUp,정답입니다,202.11362809999991,None,202.11362809999991,None,202.11362809999991,None,202.11362809999991,None,202.96689969999989,None,202.96689969999989,203.47427130000005,,,,,,,,,,,,,,,,228,2022-06-03_14h19.18.976,FishGame,2022.1.1,60.0233610921081,
,31,넌 익살스러워,3,Green,A,4.708333333333334,4.833333333333333,ScrollDown,ScrollUp,Green.png,1,Neutral,Neutral,,,,,0,0,0,0,,,,,,,,,,,,,0,30,30,30,,,,,,,,,,,,,,,,,,,,,,,,,,,,,,,,,,,,,,,,,,,,,,,,,,,,,,,,,,,,,,,,,,,,,,,,,,,,,,,,,1.0817901194095612,1.0361308999999892,204.13287059999993,None,ScrollDown,정답입니다,204.13287059999993,None,204.13287059999993,None,204.13287059999993,None,204.13287059999993,None,205.03252710000015,None,205.03252710000015,205.54064479999988,,,,,,,,,,,,,,,,228,2022-06-03_14h19.18.976,FishGame,2022.1.1,60.0233610921081,
,32,넌 이기적이야,5,Orange,B,2.291666666666667,2.333333333333333,ScrollUp,ScrollDown,Orange.png,1,Negative,Congruent,,,,,0,0,0,0,,,,,,,,,,,,,0,31,31,31,,,,,,,,,,,,,,,,,,,,,,,,,,,,,,,,,,,,,,,,,,,,,,,,,,,,,,,,,,,,,,,,,,,,,,,,,,,,,,,,,2,1.1049773999998251,206.19028310000022,None,ScrollUp,정답입니다,206.19028310000022,None,206.19028310000022,None,206.19028310000022,None,206.19028310000022,None,207.16697569999997,None,207.16697569999997,207.67375889999994,,,,,,,,,,,,,,,,228,2022-06-03_14h19.18.976,FishGame,2022.1.1,60.0233610921081,
,33,나를 데려가줘,6,Orange,B,0,0,ScrollDown,ScrollUp,Orange.png,1,NonTarget,NonTarget,,,,,0,0,0,0,,,,,,,,,,,,,0,32,32,32,,,,,,,,,,,,,,,,,,,,,,,,,,,,,,,,,,,,,,,,,,,,,,,,,,,,,,,,,,,,,,,,,,,,,,,,,,,,,,,,,1.1234567960103352,1.4520301999996263,208.3343516,None,ScrollDown,정답입니다,208.3343516,None,208.3343516,None,208.3343516,None,208.3343516,None,209.64861960000007,None,209.64861960000007,210.1567855000003,,,,,,,,,,,,,,,,228,2022-06-03_14h19.18.976,FishGame,2022.1.1,60.0233610921081,
,34,넌 기회주의자야,5,Green,A,2.875,2.133333333333333,ScrollDown,ScrollUp,Green.png,1,Negative,Incongruent,,,,,0,0,0,0,,,,,,,,,,,,,0,33,33,33,,,,,,,,,,,,,,,,,,,,,,,,,,,,,,,,,,,,,,,,,,,,,,,,,,,,,,,,,,,,,,,,,,,,,,,,,,,,,,,,,1.320987656712532,1.2153431000001547,210.81592499999988,None,ScrollDown,정답입니다,210.81592499999988,None,210.81592499999988,None,210.81592499999988,None,210.81592499999988,None,211.8949806999999,None,211.8949806999999,212.40642370000023,,,,,,,,,,,,,,,,228,2022-06-03_14h19.18.976,FishGame,2022.1.1,60.0233610921081,
,1,넌 미성숙해,4,Green,A,3,3.2,ScrollDown,ScrollUp,Green.png,2,Negative,Incongruent,,,,,0,0,0,0,,,,,,,,,,,,,,,,,0,0,0,0,,,,,,,,,,,,,,,,,,,,,,,,,,,,,,,,,,,,247.51885850000008,249.01854830000002,249.05183370000032,250.00178779999987,250.05178460000025,251.00163479999992,251.00163479999992,None,,,,,,,,,,,,,,,,,,,,,,,,,,,,,,,,,,1.0787036915620167,1.3048384999997324,252.19427140000016,None,ScrollDown,정답입니다,252.19427140000016,None,252.19427140000016,None,252.19427140000016,None,252.19427140000016,None,253.3179385000003,None,253.3179385000003,253.81791359999988,212.90635410000004,None,212.90635410000004,None,-0.022222223,-0.09907407,1,0,0,0.01608280999971612,None,242.90246320000006,None,,,228,2022-06-03_14h19.18.976,FishGame,2022.1.1,60.0233610921081,
,2,넌 반사회적이야,5,Orange,B,2.416666666666667,2.033333333333333,ScrollUp,ScrollDown,Orange.png,2,Negative,Congruent,,,,,0,0,0,0,,,,,,,,,,,,,,,,,0,1,1,1,,,,,,,,,,,,,,,,,,,,,,,,,,,,,,,,,,,,,,,,,,,,,,,,,,,,,,,,,,,,,,,,,,,,,,,,,,,,,1.8703703731298447,1.1425332999997408,254.47456390000025,None,ScrollUp,정답입니다,254.47456390000025,None,254.47456390000025,None,254.47456390000025,None,254.47456390000025,None,255.48444849999987,None,255.48444849999987,255.9844078000001,,,,,,,,,,,,,,,,228,2022-06-03_14h19.18.976,FishGame,2022.1.1,60.0233610921081,
,3,넌 유능해,2,Green,A,6.208333333333333,4.433333333333334,ScrollDown,ScrollUp,Green.png,2,Positive,Congruent,,,,,0,0,0,0,,,,,,,,,,,,,,,,,0,2,2,2,,,,,,,,,,,,,,,,,,,,,,,,,,,,,,,,,,,,,,,,,,,,,,,,,,,,,,,,,,,,,,,,,,,,,,,,,,,,,1,1.0589657999998963,256.6335389000001,None,ScrollDown,정답입니다,256.6335389000001,None,256.6335389000001,None,256.6335389000001,None,256.6335389000001,None,257.5674836000003,None,257.5674836000003,258.0672939000001,,,,,,,,,,,,,,,,228,2022-06-03_14h19.18.976,FishGame,2022.1.1,60.0233610921081,
,4,넌 능숙해,2,Orange,B,5.666666666666667,4.733333333333333,ScrollUp,ScrollDown,Orange.png,2,Positive,Incongruent,,,,,0,0,0,0,,,,,,,,,,,,,,,,,0,3,3,3,,,,,,,,,,,,,,,,,,,,,,,,,,,,,,,,,,,,,,,,,,,,,,,,,,,,,,,,,,,,,,,,,,,,,,,,,,,,,1.7808641890684764,1.081216200000199,258.72054449999996,None,ScrollUp,정답입니다,258.72054449999996,None,258.72054449999996,None,258.72054449999996,None,258.72054449999996,None,259.6716556000001,None,259.6716556000001,260.1838971000002,,,,,,,,,,,,,,,,228,2022-06-03_14h19.18.976,FishGame,2022.1.1,60.0233610921081,
,5,넌 진부해,4,Orange,B,2.458333333333333,3.166666666666667,ScrollUp,ScrollDown,Orange.png,2,Negative,Congruent,,,,,0,0,0,0,,,,,,,,,,,,,,,,,0,4,4,4,,,,,,,,,,,,,,,,,,,,,,,,,,,,,,,,,,,,,,,,,,,,,,,,,,,,,,,,,,,,,,,,,,,,,,,,,,,,,1.7083333333333335,1.1543651000001773,260.83777310000005,None,ScrollUp,정답입니다,260.83777310000005,None,260.83777310000005,None,260.83777310000005,None,260.83777310000005,None,261.8602955000001,None,261.8602955000001,262.3667688999999,,,,,,,,,,,,,,,,228,2022-06-03_14h19.18.976,FishGame,2022.1.1,60.0233610921081,
,6,나를 보내줘,6,Green,A,0,0,ScrollUp,ScrollDown,Green.png,2,NonTarget,NonTarget,,,,,0,0,0,0,,,,,,,,,,,,,,,,,0,5,5,5,,,,,,,,,,,,,,,,,,,,,,,,,,,,,,,,,,,,,,,,,,,,,,,,,,,,,,,,,,,,,,,,,,,,,,,,,,,,,1.634259263674418,1.1364560000001802,263.0171332,None,ScrollUp,정답입니다,263.0171332,None,263.0171332,None,263.0171332,None,263.0171332,None,264.02561300000025,None,264.02561300000025,264.5331543000002,,,,,,,,,,,,,,,,228,2022-06-03_14h19.18.976,FishGame,2022.1.1,60.0233610921081,
,7,넌 엄격해,3,Green,A,4.166666666666666,4.1,ScrollDown,ScrollUp,Green.png,2,Neutral,Neutral,,,,,0,0,0,0,,,,,,,,,,,,,,,,,0,6,6,6,,,,,,,,,,,,,,,,,,,,,,,,,,,,,,,,,,,,,,,,,,,,,,,,,,,,,,,,,,,,,,,,,,,,,,,,,,,,,1.2314814726511638,1.038443500000085,265.1875806000003,None,ScrollDown,정답입니다,265.1875806000003,None,265.1875806000003,None,265.1875806000003,None,265.1875806000003,None,266.0926654,None,266.0926654,266.5995904000001,,,,,,,,,,,,,,,,228,2022-06-03_14h19.18.976,FishGame,2022.1.1,60.0233610921081,
,8,나를 보내줘,6,Green,A,0,0,ScrollUp,ScrollDown,Green.png,2,NonTarget,NonTarget,,,,,0,0,0,0,,,,,,,,,,,,,,,,,0,7,7,7,,,,,,,,,,,,,,,,,,,,,,,,,,,,,,,,,,,,,,,,,,,,,,,,,,,,,,,,,,,,,,,,,,,,,,,,,,,,,1.7777777860562007,1.012887000000319,267.24075730000004,None,ScrollUp,정답입니다,267.24075730000004,None,267.24075730000004,None,267.24075730000004,None,267.24075730000004,None,268.13617350000004,None,268.13617350000004,268.64919009999994,,,,,,,,,,,,,,,,228,2022-06-03_14h19.18.976,FishGame,2022.1.1,60.0233610921081,
,9,넌 대담해,3,Orange,B,4.875,4.866666666666666,ScrollUp,ScrollDown,Orange.png,2,Neutral,Neutral,,,,,0,0,0,0,,,,,,,,,,,,,,,,,0,8,8,8,,,,,,,,,,,,,,,,,,,,,,,,,,,,,,,,,,,,,,,,,,,,,,,,,,,,,,,,,,,,,,,,,,,,,,,,,,,,,1.5725308619439602,2.010299400000349,269.3101615999999,None,ScrollUp,정답입니다,269.3101615999999,None,269.3101615999999,None,269.3101615999999,None,269.3101615999999,None,271.1841155000002,None,271.1841155000002,271.6990074999999,,,,,,,,,,,,,,,,228,2022-06-03_14h19.18.976,FishGame,2022.1.1,60.0233610921081,
,10,넌 꾸준해,1,Green,A,5.916666666666668,5.8,ScrollDown,ScrollUp,Green.png,2,Positive,Congruent,,,,,0,0,0,0,,,,,,,,,,,,,,,,,0,9,9,9,,,,,,,,,,,,,,,,,,,,,,,,,,,,,,,,,,,,,,,,,,,,,,,,,,,,,,,,,,,,,,,,,,,,,,,,,,,,,1.1666666616996129,1.1341034000001855,272.34916169999997,None,ScrollDown,정답입니다,272.34916169999997,None,272.34916169999997,None,272.34916169999997,None,272.34916169999997,None,273.3538959000002,None,273.3538959000002,273.8653340000001,,,,,,,,,,,,,,,,228,2022-06-03_14h19.18.976,FishGame,2022.1.1,60.0233610921081,
,11,나를 데려가줘,6,Orange,B,0,0,ScrollDown,ScrollUp,Orange.png,2,NonTarget,NonTarget,,,,,0,0,0,0,,,,,,,,,,,,,,,,,0,10,10,10,,,,,,,,,,,,,,,,,,,,,,,,,,,,,,,,,,,,,,,,,,,,,,,,,,,,,,,,,,,,,,,,,,,,,,,,,,,,,1.174382706483205,1.129174299999704,274.5181579,None,ScrollDown,정답입니다,274.5181579,None,274.5181579,None,274.5181579,None,274.5181579,None,275.5186698000002,None,275.5186698000002,276.0317110000001,,,,,,,,,,,,,,,,228,2022-06-03_14h19.18.976,FishGame,2022.1.1,60.0233610921081,
,12,넌 독선적이야,5,Green,A,2.458333333333333,1.933333333333333,ScrollDown,ScrollUp,Green.png,2,Negative,Incongruent,,,,,0,0,0,0,,,,,,,,,,,,,,,,,0,11,11,11,,,,,,,,,,,,,,,,,,,,,,,,,,,,,,,,,,,,,,,,,,,,,,,,,,,,,,,,,,,,,,,,,,,,,,,,,,,,,1.2993827114502587,1.0628097999997408,276.69004010000026,None,ScrollDown,정답입니다,276.69004010000026,None,276.69004010000026,None,276.69004010000026,None,276.69004010000026,None,277.61869290000004,None,277.61869290000004,278.13141829999995,,,,,,,,,,,,,,,,228,2022-06-03_14h19.18.976,FishGame,2022.1.1,60.0233610921081,
,13,나를 보내줘,6,Green,A,0,0,ScrollUp,ScrollDown,Green.png,2,NonTarget,NonTarget,,,,,0,0,0,0,,,,,,,,,,,,,,,,,0,12,12,12,,,,,,,,,,,,,,,,,,,,,,,,,,,,,,,,,,,,,,,,,,,,,,,,,,,,,,,,,,,,,,,,,,,,,,,,,,,,,1.8765432039896648,1.3841982000003554,278.7738883000002,None,ScrollUp,정답입니다,278.7738883000002,None,278.7738883000002,None,278.7738883000002,None,278.7738883000002,None,280.03702310000017,None,280.03702310000017,280.54779370000006,,,,,,,,,,,,,,,,228,2022-06-03_14h19.18.976,FishGame,2022.1.1,60.0233610921081,
,14,넌 책임감있어,1,Orange,B,6.347826086956522,6,ScrollUp,ScrollDown,Orange.png,2,Positive,Incongruent,,,,,0,0,0,0,,,,,,,,,,,,,,,,,0,13,13,13,,,,,,,,,,,,,,,,,,,,,,,,,,,,,,,,,,,,,,,,,,,,,,,,,,,,,,,,,,,,,,,,,,,,,,,,,,,,,1.6404320945342383,1.0921972000001006,281.209738,None,ScrollUp,정답입니다,281.209738,None,281.209738,None,281.209738,None,281.209738,None,282.16142059999993,None,282.16142059999993,282.6644391,,,,,,,,,,,,,,,,228,2022-06-03_14h19.18.976,FishGame,2022.1.1,60.0233610921081,
,15,넌 문학적이야,3,Green,A,4.708333333333334,4.333333333333333,ScrollDown,ScrollUp,Green.png,2,Neutral,Neutral,,,,,0,0,0,0,,,,,,,,,,,,,,,,,0,14,14,14,,,,,,,,,,,,,,,,,,,,,,,,,,,,,,,,,,,,,,,,,,,,,,,,,,,,,,,,,,,,,,,,,,,,,,,,,,,,,1.3040123408039412,0.9449061999998776,283.31956390000005,None,ScrollDown,정답입니다,283.31956390000005,None,283.31956390000005,None,283.31956390000005,None,283.31956390000005,None,284.1310258000003,None,284.1310258000003,284.6305431999999,,,,,,,,,,,,,,,,228,2022-06-03_14h19.18.976,FishGame,2022.1.1,60.0233610921081,
,16,넌 재미있어,1,Orange,B,5.875,5.7,ScrollUp,ScrollDown,Orange.png,2,Positive,Incongruent,,,,,0,0,0,0,,,,,,,,,,,,,,,,,0,15,15,15,,,,,,,,,,,,,,,,,,,,,,,,,,,,,,,,,,,,,,,,,,,,,,,,,,,,,,,,,,,,,,,,,,,,,,,,,,,,,1.6003086442748704,1.0785479999999552,285.2826685,None,ScrollUp,정답입니다,285.2826685,None,285.2826685,None,285.2826685,None,285.2826685,None,286.23273340000014,None,286.23273340000014,286.74701330000016,,,,,,,,,,,,,,,,228,2022-06-03_14h19.18.976,FishGame,2022.1.1,60.0233610921081,
,17,나를 데려가줘,6,Orange,B,0,0,ScrollDown,ScrollUp,Orange.png,2,NonTarget,NonTarget,,,,,0,0,0,0,,,,,,,,,,,,,,,,,0,16,16,16,,,,,,,,,,,,,,,,,,,,,,,,,,,,,,,,,,,,,,,,,,,,,,,,,,,,,,,,,,,,,,,,,,,,,,,,,,,,,1.2253086417913437,1.0283881999998812,287.40194120000024,None,ScrollDown,정답입니다,287.40194120000024,None,287.40194120000024,None,287.40194120000024,None,287.40194120000024,None,288.29953939999996,None,288.29953939999996,288.8134230999999,,,,,,,,,,,,,,,,228,2022-06-03_14h19.18.976,FishGame,2022.1.1,60.0233610921081,
,18,넌 협력적이야,1,Green,A,5.625,5.633333333333334,ScrollDown,ScrollUp,Green.png,2,Positive,Congruent,,,,,0,0,0,0,,,,,,,,,,,,,,,,,0,17,17,17,,,,,,,,,,,,,,,,,,,,,,,,,,,,,,,,,,,,,,,,,,,,,,,,,,,,,,,,,,,,,,,,,,,,,,,,,,,,,1.3132715995113053,1.6539457999997467,289.4713730000003,None,ScrollDown,정답입니다,289.4713730000003,None,289.4713730000003,None,289.4713730000003,None,289.4713730000003,None,290.98936950000007,None,290.98936950000007,291.4965545,,,,,,,,,,,,,,,,228,2022-06-03_14h19.18.976,FishGame,2022.1.1,60.0233610921081,
,19,넌 평범해,3,Orange,B,4.333333333333332,4.233333333333333,ScrollUp,ScrollDown,Orange.png,2,Neutral,Neutral,,,,,0,0,0,0,,,,,,,,,,,,,,,,,0,18,18,18,,,,,,,,,,,,,,,,,,,,,,,,,,,,,,,,,,,,,,,,,,,,,,,,,,,,,,,,,,,,,,,,,,,,,,,,,,,,,1.7314814925193787,1.0024179000001823,292.1471206000001,None,ScrollUp,정답입니다,292.1471206000001,None,292.1471206000001,None,292.1471206000001,None,292.1471206000001,None,293.021166,None,293.021166,293.5294805000003,,,,,,,,,,,,,,,,228,2022-06-03_14h19.18.976,FishGame,2022.1.1,60.0233610921081,
,20,넌 오만해,5,Green,A,2.333333333333333,2,ScrollDown,ScrollUp,Green.png,2,Negative,Incongruent,,,,,0,0,0,0,,,,,,,,,,,,,,,,,0,19,19,19,,,,,,,,,,,,,,,,,,,,,,,,,,,,,,,,,,,,,,,,,,,,,,,,,,,,,,,,,,,,,,,,,,,,,,,,,,,,,1.1327160547176998,0.9650348000000122,294.18846940000003,None,ScrollDown,정답입니다,294.18846940000003,None,294.18846940000003,None,294.18846940000003,None,294.18846940000003,None,295.01670120000017,None,295.01670120000017,295.5292182000003,,,,,,,,,,,,,,,,228,2022-06-03_14h19.18.976,FishGame,2022.1.1,60.0233610921081,
,21,넌 운이없어,4,Orange,B,3,3.466666666666667,ScrollUp,ScrollDown,Orange.png,2,Negative,Congruent,,,,,0,0,0,0,,,,,,,,,,,,,,,,,0,20,20,20,,,,,,,,,,,,,,,,,,,,,,,,,,,,,,,,,,,,,,,,,,,,,,,,,,,,,,,,,,,,,,,,,,,,,,,,,,,,,1.6419753084580102,1.0510042999999314,296.18445599999995,None,ScrollUp,정답입니다,296.18445599999995,None,296.18445599999995,None,296.18445599999995,None,296.18445599999995,None,297.10272970000005,None,297.10272970000005,297.6123012000003,,,,,,,,,,,,,,,,228,2022-06-03_14h19.18.976,FishGame,2022.1.1,60.0233610921081,
,22,넌 창조적이야,2,Orange,B,6.125,4.633333333333334,ScrollUp,ScrollDown,Orange.png,2,Positive,Incongruent,,,,,0,0,0,0,,,,,,,,,,,,,,,,,0,21,21,21,,,,,,,,,,,,,,,,,,,,,,,,,,,,,,,,,,,,,,,,,,,,,,,,,,,,,,,,,,,,,,,,,,,,,,,,,,,,,1.7592592686414719,1.0861809999996694,298.2721563,None,ScrollUp,정답입니다,298.2721563,None,298.2721563,None,298.2721563,None,298.2721563,None,299.2203649000003,None,299.2203649000003,299.7289370000003,,,,,,,,,,,,,,,,228,2022-06-03_14h19.18.976,FishGame,2022.1.1,60.0233610921081,
,23,나를 보내줘,6,Green,A,0,0,ScrollUp,ScrollDown,Green.png,2,NonTarget,NonTarget,,,,,0,0,0,0,,,,,,,,,,,,,,,,,0,22,22,22,,,,,,,,,,,,,,,,,,,,,,,,,,,,,,,,,,,,,,,,,,,,,,,,,,,,,,,,,,,,,,,,,,,,,,,,,,,,,1.6944444452722869,0.9557050000003073,300.37087539999993,None,ScrollUp,정답입니다,300.37087539999993,None,300.37087539999993,None,300.37087539999993,None,300.37087539999993,None,301.21183340000016,None,301.21183340000016,301.71185730000025,,,,,,,,,,,,,,,,228,2022-06-03_14h19.18.976,FishGame,2022.1.1,60.0233610921081,
,24,넌 통찰력있어,2,Green,A,6.5,4.8,ScrollDown,ScrollUp,Green.png,2,Positive,Congruent,,,,,0,0,0,0,,,,,,,,,,,,,,,,,0,23,23,23,,,,,,,,,,,,,,,,,,,,,,,,,,,,,,,,,,,,,,,,,,,,,,,,,,,,,,,,,,,,,,,,,,,,,,,,,,,,,1.2052469104528427,1.0494192000001021,302.3666381000003,None,ScrollDown,정답입니다,302.3666381000003,None,302.3666381000003,None,302.3666381000003,None,302.3666381000003,None,303.2841438999999,None,303.2841438999999,303.7947776000001,,,,,,,,,,,,,,,,228,2022-06-03_14h19.18.976,FishGame,2022.1.1,60.0233610921081,
,25,넌 경솔해,5,Orange,B,2.458333333333333,2.266666666666667,ScrollUp,ScrollDown,Orange.png,2,Negative,Congruent,,,,,0,0,0,0,,,,,,,,,,,,,,,,,0,24,24,24,,,,,,,,,,,,,,,,,,,,,,,,,,,,,,,,,,,,,,,,,,,,,,,,,,,,,,,,,,,,,,,,,,,,,,,,,,,,,1.7777777860562007,1.0385435999996844,304.44970999999987,None,ScrollUp,정답입니다,304.44970999999987,None,304.44970999999987,None,304.44970999999987,None,304.44970999999987,None,305.3613782000002,None,305.3613782000002,305.8612017999999,,,,,,,,,,,,,,,,228,2022-06-03_14h19.18.976,FishGame,2022.1.1,60.0233610921081,
,26,넌 초조해,4,Green,A,2.916666666666667,3.133333333333333,ScrollDown,ScrollUp,Green.png,2,Negative,Incongruent,,,,,0,0,0,0,,,,,,,,,,,,,,,,,0,25,25,25,,,,,,,,,,,,,,,,,,,,,,,,,,,,,,,,,,,,,,,,,,,,,,,,,,,,,,,,,,,,,,,,,,,,,,,,,,,,,1.1172839403152466,1.0503304999997454,306.5337579000002,None,ScrollDown,정답입니다,306.5337579000002,None,306.5337579000002,None,306.5337579000002,None,306.5337579000002,None,307.43436180000026,None,307.43436180000026,307.9443286999999,,,,,,,,,,,,,,,,228,2022-06-03_14h19.18.976,FishGame,2022.1.1,60.0233610921081,
,27,넌 무관심해,4,Orange,B,2.833333333333333,2.9,ScrollUp,ScrollDown,Orange.png,2,Negative,Congruent,,,,,0,0,0,0,,,,,,,,,,,,,,,,,0,26,26,26,,,,,,,,,,,,,,,,,,,,,,,,,,,,,,,,,,,,,,,,,,,,,,,,,,,,,,,,,,,,,,,,,,,,,,,,,,,,,1.9552469154198964,1.0026186999998572,308.6012122000002,None,ScrollUp,정답입니다,308.6012122000002,None,308.6012122000002,None,308.6012122000002,None,308.6012122000002,None,309.4679957000003,None,309.4679957000003,309.97742289999997,,,,,,,,,,,,,,,,228,2022-06-03_14h19.18.976,FishGame,2022.1.1,60.0233610921081,
,28,넌 감성적이야,3,Orange,B,4.125,4.166666666666667,ScrollUp,ScrollDown,Orange.png,2,Neutral,Neutral,,,,,0,0,0,0,,,,,,,,,,,,,,,,,0,27,27,27,,,,,,,,,,,,,,,,,,,,,,,,,,,,,,,,,,,,,,,,,,,,,,,,,,,,,,,,,,,,,,,,,,,,,,,,,,,,,1.7592592686414719,0.9524390000001404,310.6320804000002,None,ScrollUp,정답입니다,310.6320804000002,None,310.6320804000002,None,310.6320804000002,None,310.6320804000002,None,311.4511625,None,311.4511625,311.96045790000016,,,,,,,,,,,,,,,,228,2022-06-03_14h19.18.976,FishGame,2022.1.1,60.0233610921081,
,29,넌 배려심있어,1,Green,A,6.083333333333333,5.5,ScrollDown,ScrollUp,Green.png,2,Positive,Congruent,,,,,0,0,0,0,,,,,,,,,,,,,,,,,0,28,28,28,,,,,,,,,,,,,,,,,,,,,,,,,,,,,,,,,,,,,,,,,,,,,,,,,,,,,,,,,,,,,,,,,,,,,,,,,,,,,1.1080246816078823,1.139728500000274,312.6121655000002,None,ScrollDown,정답입니다,312.6121655000002,None,312.6121655000002,None,312.6121655000002,None,312.6121655000002,None,313.6271683,None,313.6271683,314.12689230000024,,,,,,,,,,,,,,,,228,2022-06-03_14h19.18.976,FishGame,2022.1.1,60.0233610921081,
,30,넌 숨김없어,3,Green,A,4.5,4.933333333333334,ScrollDown,ScrollUp,Green.png,2,Neutral,Neutral,,,,,0,0,0,0,,,,,,,,,,,,,,,,,0,29,29,29,,,,,,,,,,,,,,,,,,,,,,,,,,,,,,,,,,,,,,,,,,,,,,,,,,,,,,,,,,,,,,,,,,,,,,,,,,,,,1.09413580596447,0.9943916000001991,314.78782850000016,None,ScrollDown,정답입니다,314.78782850000016,None,314.78782850000016,None,314.78782850000016,None,314.78782850000016,None,315.6452268000003,None,315.6452268000003,316.15997530000004,,,,,,,,,,,,,,,,228,2022-06-03_14h19.18.976,FishGame,2022.1.1,60.0233610921081,
,31,넌 훌륭해,2,Orange,B,5.916666666666667,4.033333333333333,ScrollUp,ScrollDown,Orange.png,2,Positive,Incongruent,,,,,0,0,0,0,,,,,,,,,,,,,,,,,0,30,30,30,,,,,,,,,,,,,,,,,,,,,,,,,,,,,,,,,,,,,,,,,,,,,,,,,,,,,,,,,,,,,,,,,,,,,,,,,,,,,1.819444437821706,1.1970422999997936,316.8235909,None,ScrollUp,정답입니다,316.8235909,None,316.8235909,None,316.8235909,None,316.8235909,None,317.8800804000002,None,317.8800804000002,318.39286300000003,,,,,,,,,,,,,,,,228,2022-06-03_14h19.18.976,FishGame,2022.1.1,60.0233610921081,
,32,넌 슬기로워,2,Green,A,6.166666666666667,4.1,ScrollDown,ScrollUp,Green.png,2,Positive,Congruent,,,,,0,0,0,0,,,,,,,,,,,,,,,,,0,31,31,31,,,,,,,,,,,,,,,,,,,,,,,,,,,,,,,,,,,,,,,,,,,,,,,,,,,,,,,,,,,,,,,,,,,,,,,,,,,,,1.0231481393178303,1.0188821000001553,319.04196920000004,None,ScrollDown,정답입니다,319.04196920000004,None,319.04196920000004,None,319.04196920000004,None,319.04196920000004,None,319.933078,None,319.933078,320.44267850000006,,,,,,,,,,,,,,,,228,2022-06-03_14h19.18.976,FishGame,2022.1.1,60.0233610921081,
,33,넌 냉혹해,5,Green,A,2.583333333333333,2.1,ScrollDown,ScrollUp,Green.png,2,Negative,Incongruent,,,,,0,0,0,0,,,,,,,,,,,,,,,,,0,32,32,32,,,,,,,,,,,,,,,,,,,,,,,,,,,,,,,,,,,,,,,,,,,,,,,,,,,,,,,,,,,,,,,,,,,,,,,,,,,,,1.1342592686414719,1.0766323000002558,321.0959872000003,None,ScrollDown,정답입니다,321.0959872000003,None,321.0959872000003,None,321.0959872000003,None,321.0959872000003,None,322.0375878,None,322.0375878,322.5424605000003,,,,,,,,,,,,,,,,228,2022-06-03_14h19.18.976,FishGame,2022.1.1,60.0233610921081,
,34,나를 데려가줘,6,Orange,B,0,0,ScrollDown,ScrollUp,Orange.png,2,NonTarget,NonTarget,,,,,0,0,0,0,,,,,,,,,,,,,,,,,0,33,33,33,,,,,,,,,,,,,,,,,,,,,,,,,,,,,,,,,,,,,,,,,,,,,,,,,,,,,,,,,,,,,,,,,,,,,,,,,,,,,1.1296296268701553,1.094779500000186,323.1963036000002,None,ScrollDown,정답입니다,323.1963036000002,None,323.1963036000002,None,323.1963036000002,None,323.1963036000002,None,324.1555562000003,None,324.1555562000003,324.6588587000001,,,,,,,,,,,,,,,,228,2022-06-03_14h19.18.976,FishGame,2022.1.1,60.0233610921081,
,35,넌 편파적이야,5,Orange,B,2.125,2,ScrollUp,ScrollDown,Orange.png,2,Negative,Congruent,,,,,0,0,0,0,,,,,,,,,,,,,,,,,0,34,34,34,,,,,,,,,,,,,,,,,,,,,,,,,,,,,,,,,,,,,,,,,,,,,,,,,,,,,,,,,,,,,,,,,,,,,,,,,,,,,1.5216049375012517,1.029572299999927,325.3182995000002,None,NoResponse,무응답입니다,325.3182995000002,None,325.3182995000002,None,325.3182995000002,None,325.3182995000002,None,326.2137955000003,None,326.2137955000003,326.72523980000005,,,,,,,,,,,,,,,,228,2022-06-03_14h19.18.976,FishGame,2022.1.1,60.0233610921081,
,36,넌 슬퍼,4,Green,A,2.583333333333333,3.066666666666667,ScrollDown,ScrollUp,Green.png,2,Negative,Incongruent,,,,,0,0,0,0,,,,,,,,,,,,,,,,,0,35,35,35,,,,,,,,,,,,,,,,,,,,,,,,,,,,,,,,,,,,,,,,,,,,,,,,,,,,,,,,,,,,,,,,,,,,,,,,,,,,,1.2499999900658925,1.0578001000003496,327.37633860000005,None,ScrollDown,정답입니다,327.37633860000005,None,327.37633860000005,None,327.37633860000005,None,327.37633860000005,None,328.3100518000001,None,328.3100518000001,328.82497409999996,,,,,,,,,,,,,,,,228,2022-06-03_14h19.18.976,FishGame,2022.1.1,60.0233610921081,
,37,나를 데려가줘,6,Orange,B,0,0,ScrollDown,ScrollUp,Orange.png,2,NonTarget,NonTarget,,,,,0,0,0,0,,,,,,,,,,,,,,,,,0,36,36,36,,,,,,,,,,,,,,,,,,,,,,,,,,,,,,,,,,,,,,,,,,,,,,,,,,,,,,,,,,,,,,,,,,,,,,,,,,,,,1.1512345721324284,1.243440599999758,329.4808361999999,None,ScrollDown,정답입니다,329.4808361999999,None,329.4808361999999,None,329.4808361999999,None,329.4808361999999,None,330.5863926000002,None,330.5863926000002,331.0913187000001,,,,,,,,,,,,,,,,228,2022-06-03_14h19.18.976,FishGame,2022.1.1,60.0233610921081,
,38,넌 친절해,1,Orange,B,6.041666666666667,5.533333333333333,ScrollUp,ScrollDown,Orange.png,2,Positive,Incongruent,,,,,0,0,0,0,,,,,,,,,,,,,,,,,0,37,37,37,,,,,,,,,,,,,,,,,,,,,,,,,,,,,,,,,,,,,,,,,,,,,,,,,,,,,,,,,,,,,,,,,,,,,,,,,,,,,2,1.0440965999996479,331.75160270000015,None,ScrollUp,정답입니다,331.75160270000015,None,331.75160270000015,None,331.75160270000015,None,331.75160270000015,None,332.658144,None,332.658144,333.15780010000026,,,,,,,,,,,,,,,,228,2022-06-03_14h19.18.976,FishGame,2022.1.1,60.0233610921081,
,1,넌 엉성해,4,Green,A,3,3.3,ScrollDown,ScrollUp,Green.png,3,Negative,Incongruent,,,,,0,0,0,0,,,,,,,,,,,,,,,,,,,,,0,0,0,0,,,,,,,,,,,,,,,,,,,,,,,,,,,,,,,,365.9371117999999,367.43688550000024,367.47018190000017,368.4200165000002,368.4699754000003,369.41979790000005,369.41979790000005,None,,,,,,,,,,,,,,,,,,,,,,,,,,,,,,,,,,1,1.1306770999999571,370.61715360000017,None,ScrollDown,정답입니다,370.61715360000017,None,370.61715360000017,None,370.61715360000017,None,370.61715360000017,None,371.5634746999999,None,371.5634746999999,372.0694163000003,333.6576861000003,None,333.6576861000003,None,0.13240741,-0.072222225,1,0,0,0.016226210000240826,None,363.67050530000006,None,,,228,2022-06-03_14h19.18.976,FishGame,2022.1.1,60.0233610921081,
,2,나를 보내줘,6,Green,A,0,0,ScrollUp,ScrollDown,Green.png,3,NonTarget,NonTarget,,,,,0,0,0,0,,,,,,,,,,,,,,,,,,,,,0,1,1,1,,,,,,,,,,,,,,,,,,,,,,,,,,,,,,,,,,,,,,,,,,,,,,,,,,,,,,,,,,,,,,,,,,,,,,,,,2,1.0987495999997918,372.7185826,None,ScrollUp,정답입니다,372.7185826,None,372.7185826,None,372.7185826,None,372.7185826,None,373.6904407000002,None,373.6904407000002,374.2025051999999,,,,,,,,,,,,,,,,228,2022-06-03_14h19.18.976,FishGame,2022.1.1,60.0233610921081,
,3,넌 활발해,1,Orange,B,5.666666666666667,5.6,ScrollUp,ScrollDown,Orange.png,3,Positive,Incongruent,,,,,0,0,0,0,,,,,,,,,,,,,,,,,,,,,0,2,2,2,,,,,,,,,,,,,,,,,,,,,,,,,,,,,,,,,,,,,,,,,,,,,,,,,,,,,,,,,,,,,,,,,,,,,,,,,1.9475308458010356,0.9502846000000318,374.8628007000002,None,ScrollUp,정답입니다,374.8628007000002,None,374.8628007000002,None,374.8628007000002,None,374.8628007000002,None,375.6742414,None,375.6742414,376.1855823000001,,,,,,,,,,,,,,,,228,2022-06-03_14h19.18.976,FishGame,2022.1.1,60.0233610921081,
,4,넌 논리적이야,2,Green,A,5.666666666666666,4.633333333333334,ScrollDown,ScrollUp,Green.png,3,Positive,Congruent,,,,,0,0,0,0,,,,,,,,,,,,,,,,,,,,,0,3,3,3,,,,,,,,,,,,,,,,,,,,,,,,,,,,,,,,,,,,,,,,,,,,,,,,,,,,,,,,,,,,,,,,,,,,,,,,,1.0864197611808777,1.0987395000001925,376.8400131000003,None,ScrollDown,정답입니다,376.8400131000003,None,376.8400131000003,None,376.8400131000003,None,376.8400131000003,None,377.8074796000001,None,377.8074796000001,378.3186361000003,,,,,,,,,,,,,,,,228,2022-06-03_14h19.18.976,FishGame,2022.1.1,60.0233610921081,
,5,넌 과묵해,3,Green,A,3.875,4.4,ScrollDown,ScrollUp,Green.png,3,Neutral,Neutral,,,,,0,0,0,0,,,,,,,,,,,,,,,,,,,,,0,4,4,4,,,,,,,,,,,,,,,,,,,,,,,,,,,,,,,,,,,,,,,,,,,,,,,,,,,,,,,,,,,,,,,,,,,,,,,,,1.1728395173947017,0.9311316999996961,378.96934950000013,None,ScrollDown,정답입니다,378.96934950000013,None,378.96934950000013,None,378.96934950000013,None,378.96934950000013,None,379.77330230000007,None,379.77330230000007,380.28510800000004,,,,,,,,,,,,,,,,228,2022-06-03_14h19.18.976,FishGame,2022.1.1,60.0233610921081,
,6,나를 데려가줘,6,Orange,B,0,0,ScrollDown,ScrollUp,Orange.png,3,NonTarget,NonTarget,,,,,0,0,0,0,,,,,,,,,,,,,,,,,,,,,0,5,5,5,,,,,,,,,,,,,,,,,,,,,,,,,,,,,,,,,,,,,,,,,,,,,,,,,,,,,,,,,,,,,,,,,,,,,,,,,1.0694444576899211,1.1443718000000445,380.9368273,None,ScrollDown,정답입니다,380.9368273,None,380.9368273,None,380.9368273,None,380.9368273,None,381.9473643000001,None,381.9473643000001,382.4514979999999,,,,,,,,,,,,,,,,228,2022-06-03_14h19.18.976,FishGame,2022.1.1,60.0233610921081,
,7,넌 미숙해,4,Orange,B,3,3,ScrollUp,ScrollDown,Orange.png,3,Negative,Congruent,,,,,0,0,0,0,,,,,,,,,,,,,,,,,,,,,0,6,6,6,,,,,,,,,,,,,,,,,,,,,,,,,,,,,,,,,,,,,,,,,,,,,,,,,,,,,,,,,,,,,,,,,,,,,,,,,2,1.0329601999997067,383.1066934999999,None,ScrollUp,정답입니다,383.1066934999999,None,383.1066934999999,None,383.1066934999999,None,383.1066934999999,None,384.0070903999999,None,384.0070903999999,384.5179554000001,,,,,,,,,,,,,,,,228,2022-06-03_14h19.18.976,FishGame,2022.1.1,60.0233610921081,
,8,나를 보내줘,6,Green,A,0,0,ScrollUp,ScrollDown,Green.png,3,NonTarget,NonTarget,,,,,0,0,0,0,,,,,,,,,,,,,,,,,,,,,0,7,7,7,,,,,,,,,,,,,,,,,,,,,,,,,,,,,,,,,,,,,,,,,,,,,,,,,,,,,,,,,,,,,,,,,,,,,,,,,1.7700617164373398,1.0286614000001464,385.16290530000015,None,ScrollUp,정답입니다,385.16290530000015,None,385.16290530000015,None,385.16290530000015,None,385.16290530000015,None,386.0700211000003,None,386.0700211000003,386.5842378000002,,,,,,,,,,,,,,,,228,2022-06-03_14h19.18.976,FishGame,2022.1.1,60.0233610921081,
,9,넌 자신만만해,3,Orange,B,4.833333333333334,4.333333333333333,ScrollUp,ScrollDown,Orange.png,3,Neutral,Neutral,,,,,0,0,0,0,,,,,,,,,,,,,,,,,,,,,0,8,8,8,,,,,,,,,,,,,,,,,,,,,,,,,,,,,,,,,,,,,,,,,,,,,,,,,,,,,,,,,,,,,,,,,,,,,,,,,1.9429012537002563,1.0655706999996255,387.23753510000006,None,ScrollUp,정답입니다,387.23753510000006,None,387.23753510000006,None,387.23753510000006,None,387.23753510000006,None,388.17106300000023,None,388.17106300000023,388.68407049999996,,,,,,,,,,,,,,,,228,2022-06-03_14h19.18.976,FishGame,2022.1.1,60.0233610921081,
,10,넌 탐욕스러워,5,Green,A,2.25,2.1,ScrollDown,ScrollUp,Green.png,3,Negative,Incongruent,,,,,0,0,0,0,,,,,,,,,,,,,,,,,,,,,0,9,9,9,,,,,,,,,,,,,,,,,,,,,,,,,,,,,,,,,,,,,,,,,,,,,,,,,,,,,,,,,,,,,,,,,,,,,,,,,1.1959876517454784,0.9409104999999727,389.3473024,None,ScrollDown,정답입니다,389.3473024,None,389.3473024,None,389.3473024,None,389.3473024,None,390.1447597000001,None,390.1447597000001,390.6504067000001,,,,,,,,,,,,,,,,228,2022-06-03_14h19.18.976,FishGame,2022.1.1,60.0233610921081,
,11,넌 인기있어,2,Green,A,5.458333333333333,4.5,ScrollDown,ScrollUp,Green.png,3,Positive,Congruent,,,,,0,0,0,0,,,,,,,,,,,,,,,,,,,,,0,10,10,10,,,,,,,,,,,,,,,,,,,,,,,,,,,,,,,,,,,,,,,,,,,,,,,,,,,,,,,,,,,,,,,,,,,,,,,,,1.2746913631757102,0.9529183999998168,391.2968227000001,None,ScrollDown,정답입니다,391.2968227000001,None,391.2968227000001,None,391.2968227000001,None,391.2968227000001,None,392.1262756000001,None,392.1262756000001,392.6335081000002,,,,,,,,,,,,,,,,228,2022-06-03_14h19.18.976,FishGame,2022.1.1,60.0233610921081,
,12,나를 데려가줘,6,Orange,B,0,0,ScrollDown,ScrollUp,Orange.png,3,NonTarget,NonTarget,,,,,0,0,0,0,,,,,,,,,,,,,,,,,,,,,0,11,11,11,,,,,,,,,,,,,,,,,,,,,,,,,,,,,,,,,,,,,,,,,,,,,,,,,,,,,,,,,,,,,,,,,,,,,,,,,1.1790123482545216,1.1099145000002864,393.2878909000001,None,ScrollDown,정답입니다,393.2878909000001,None,393.2878909000001,None,393.2878909000001,None,393.2878909000001,None,394.26670409999997,None,394.26670409999997,394.7665850000003,,,,,,,,,,,,,,,,228,2022-06-03_14h19.18.976,FishGame,2022.1.1,60.0233610921081,
,13,넌 뛰어나,2,Orange,B,6.166666666666667,4,ScrollUp,ScrollDown,Orange.png,3,Positive,Incongruent,,,,,0,0,0,0,,,,,,,,,,,,,,,,,,,,,0,12,12,12,,,,,,,,,,,,,,,,,,,,,,,,,,,,,,,,,,,,,,,,,,,,,,,,,,,,,,,,,,,,,,,,,,,,,,,,,1.7762345721324284,1.1151245000000927,395.42295300000023,None,ScrollUp,정답입니다,395.42295300000023,None,395.42295300000023,None,395.42295300000023,None,395.42295300000023,None,396.4047157,None,396.4047157,396.9163072000001,,,,,,,,,,,,,,,,228,2022-06-03_14h19.18.976,FishGame,2022.1.1,60.0233610921081,
,14,넌 낙관적이야,1,Green,A,5.75,5.8,ScrollDown,ScrollUp,Green.png,3,Positive,Congruent,,,,,0,0,0,0,,,,,,,,,,,,,,,,,,,,,0,13,13,13,,,,,,,,,,,,,,,,,,,,,,,,,,,,,,,,,,,,,,,,,,,,,,,,,,,,,,,,,,,,,,,,,,,,,,,,,1.0679012437661488,0.975923800000146,397.5700522000002,None,ScrollDown,정답입니다,397.5700522000002,None,397.5700522000002,None,397.5700522000002,None,397.5700522000002,None,398.41607250000015,None,398.41607250000015,398.9160485000002,,,,,,,,,,,,,,,,228,2022-06-03_14h19.18.976,FishGame,2022.1.1,60.0233610921081,
,15,넌 산만해,4,Orange,B,2.695652173913043,3.033333333333333,ScrollUp,ScrollDown,Orange.png,3,Negative,Congruent,,,,,0,0,0,0,,,,,,,,,,,,,,,,,,,,,0,14,14,14,,,,,,,,,,,,,,,,,,,,,,,,,,,,,,,,,,,,,,,,,,,,,,,,,,,,,,,,,,,,,,,,,,,,,,,,,1.9845678806304932,1.110542400000213,399.57623120000017,None,ScrollUp,정답입니다,399.57623120000017,None,399.57623120000017,None,399.57623120000017,None,399.57623120000017,None,400.5496487999999,None,400.5496487999999,401.04913650000026,,,,,,,,,,,,,,,,228,2022-06-03_14h19.18.976,FishGame,2022.1.1,60.0233610921081,
,16,나를 보내줘,6,Green,A,0,0,ScrollUp,ScrollDown,Green.png,3,NonTarget,NonTarget,,,,,0,0,0,0,,,,,,,,,,,,,,,,,,,,,0,15,15,15,,,,,,,,,,,,,,,,,,,,,,,,,,,,,,,,,,,,,,,,,,,,,,,,,,,,,,,,,,,,,,,,,,,,,,,,,1.9135802388191223,1.0887849999999162,401.6938726000003,None,ScrollUp,정답입니다,401.6938726000003,None,401.6938726000003,None,401.6938726000003,None,401.6938726000003,None,402.6591767,None,402.6591767,403.1654824000002,,,,,,,,,,,,,,,,228,2022-06-03_14h19.18.976,FishGame,2022.1.1,60.0233610921081,
,17,넌 교활해,5,Orange,B,2.333333333333333,2.133333333333333,ScrollUp,ScrollDown,Orange.png,3,Negative,Congruent,,,,,0,0,0,0,,,,,,,,,,,,,,,,,,,,,0,16,16,16,,,,,,,,,,,,,,,,,,,,,,,,,,,,,,,,,,,,,,,,,,,,,,,,,,,,,,,,,,,,,,,,,,,,,,,,,1.9490740597248077,1.1171785999999884,403.8229070000002,None,ScrollUp,정답입니다,403.8229070000002,None,403.8229070000002,None,403.8229070000002,None,403.8229070000002,None,404.8045821999999,None,404.8045821999999,405.3153876000001,,,,,,,,,,,,,,,,228,2022-06-03_14h19.18.976,FishGame,2022.1.1,60.0233610921081,
,18,나를 보내줘,6,Green,A,0,0,ScrollUp,ScrollDown,Green.png,3,NonTarget,NonTarget,,,,,0,0,0,0,,,,,,,,,,,,,,,,,,,,,0,17,17,17,,,,,,,,,,,,,,,,,,,,,,,,,,,,,,,,,,,,,,,,,,,,,,,,,,,,,,,,,,,,,,,,,,,,,,,,,1.8441358109315236,0.9653688000003058,405.95610750000014,None,ScrollUp,정답입니다,405.95610750000014,None,405.95610750000014,None,405.95610750000014,None,405.95610750000014,None,406.8024518000002,None,406.8024518000002,407.3150499000003,,,,,,,,,,,,,,,,228,2022-06-03_14h19.18.976,FishGame,2022.1.1,60.0233610921081,
,19,넌 불친절해,5,Orange,B,2.208333333333333,2.033333333333333,ScrollUp,ScrollDown,Orange.png,3,Negative,Congruent,,,,,0,0,0,0,,,,,,,,,,,,,,,,,,,,,0,18,18,18,,,,,,,,,,,,,,,,,,,,,,,,,,,,,,,,,,,,,,,,,,,,,,,,,,,,,,,,,,,,,,,,,,,,,,,,,2,1.005786000000171,407.972342,None,ScrollUp,정답입니다,407.972342,None,407.972342,None,407.972342,None,407.972342,None,408.8410815000002,None,408.8410815000002,409.3481120000001,,,,,,,,,,,,,,,,228,2022-06-03_14h19.18.976,FishGame,2022.1.1,60.0233610921081,
,20,넌 지적이야,2,Orange,B,5.75,4.366666666666666,ScrollUp,ScrollDown,Orange.png,3,Positive,Incongruent,,,,,0,0,0,0,,,,,,,,,,,,,,,,,,,,,0,19,19,19,,,,,,,,,,,,,,,,,,,,,,,,,,,,,,,,,,,,,,,,,,,,,,,,,,,,,,,,,,,,,,,,,,,,,,,,,1.9336419701576233,0.9658441000001403,410.0031776999999,None,ScrollUp,정답입니다,410.0031776999999,None,410.0031776999999,None,410.0031776999999,None,410.0031776999999,None,410.8373799000001,None,410.8373799000001,411.34777010000016,,,,,,,,,,,,,,,,228,2022-06-03_14h19.18.976,FishGame,2022.1.1,60.0233610921081,
,21,넌 우유부단해,4,Green,A,2.666666666666667,3.166666666666667,ScrollDown,ScrollUp,Green.png,3,Negative,Incongruent,,,,,0,0,0,0,,,,,,,,,,,,,,,,,,,,,0,20,20,20,,,,,,,,,,,,,,,,,,,,,,,,,,,,,,,,,,,,,,,,,,,,,,,,,,,,,,,,,,,,,,,,,,,,,,,,,1,1.1996186999999736,412.00311280000005,None,ScrollDown,정답입니다,412.00311280000005,None,412.00311280000005,None,412.00311280000005,None,412.00311280000005,None,413.0699658000003,None,413.0699658000003,413.5808118,,,,,,,,,,,,,,,,228,2022-06-03_14h19.18.976,FishGame,2022.1.1,60.0233610921081,
,22,나를 데려가줘,6,Orange,B,0,0,ScrollDown,ScrollUp,Orange.png,3,NonTarget,NonTarget,,,,,0,0,0,0,,,,,,,,,,,,,,,,,,,,,0,21,21,21,,,,,,,,,,,,,,,,,,,,,,,,,,,,,,,,,,,,,,,,,,,,,,,,,,,,,,,,,,,,,,,,,,,,,,,,,1.276234577099482,0.9927966999998716,414.2338319999999,None,ScrollDown,정답입니다,414.2338319999999,None,414.2338319999999,None,414.2338319999999,None,414.2338319999999,None,415.0932425000001,None,415.0932425000001,415.5972799000001,,,,,,,,,,,,,,,,228,2022-06-03_14h19.18.976,FishGame,2022.1.1,60.0233610921081,
,23,넌 성실해,1,Orange,B,6.041666666666666,5.7,ScrollUp,ScrollDown,Orange.png,3,Positive,Incongruent,,,,,0,0,0,0,,,,,,,,,,,,,,,,,,,,,0,22,22,22,,,,,,,,,,,,,,,,,,,,,,,,,,,,,,,,,,,,,,,,,,,,,,,,,,,,,,,,,,,,,,,,,,,,,,,,,1.5293209869414568,0.9182766999997511,416.2519110000003,None,NoResponse,무응답입니다,416.2519110000003,None,416.2519110000003,None,416.2519110000003,None,416.2519110000003,None,417.04047360000004,None,417.04047360000004,417.54705749999994,,,,,,,,,,,,,,,,228,2022-06-03_14h19.18.976,FishGame,2022.1.1,60.0233610921081,
,24,넌 현실주의적이야,3,Green,A,4.625,4.4,ScrollDown,ScrollUp,Green.png,3,Neutral,Neutral,,,,,0,0,0,0,,,,,,,,,,,,,,,,,,,,,0,23,23,23,,,,,,,,,,,,,,,,,,,,,,,,,,,,,,,,,,,,,,,,,,,,,,,,,,,,,,,,,,,,,,,,,,,,,,,,,1,1.0883065000002716,418.19344980000005,None,ScrollDown,정답입니다,418.19344980000005,None,418.19344980000005,None,418.19344980000005,None,418.19344980000005,None,419.1596674000002,None,419.1596674000002,419.66338870000027,,,,,,,,,,,,,,,,228,2022-06-03_14h19.18.976,FishGame,2022.1.1,60.0233610921081,
,25,넌 진실돼,1,Green,A,6.625,5.566666666666666,ScrollDown,ScrollUp,Green.png,3,Positive,Congruent,,,,,0,0,0,0,,,,,,,,,,,,,,,,,,,,,0,24,24,24,,,,,,,,,,,,,,,,,,,,,,,,,,,,,,,,,,,,,,,,,,,,,,,,,,,,,,,,,,,,,,,,,,,,,,,,,1.0385802288850148,0.9670409000000291,420.31524070000023,None,ScrollDown,정답입니다,420.31524070000023,None,420.31524070000023,None,420.31524070000023,None,420.31524070000023,None,421.15275340000017,None,421.15275340000017,421.6631508999999,,,,,,,,,,,,,,,,228,2022-06-03_14h19.18.976,FishGame,2022.1.1,60.0233610921081,
,26,넌 천진난만해,3,Orange,B,4.958333333333334,4.833333333333333,ScrollUp,ScrollDown,Orange.png,3,Neutral,Neutral,,,,,0,0,0,0,,,,,,,,,,,,,,,,,,,,,0,25,25,25,,,,,,,,,,,,,,,,,,,,,,,,,,,,,,,,,,,,,,,,,,,,,,,,,,,,,,,,,,,,,,,,,,,,,,,,,2,0.9874273999998877,422.3239146000001,None,ScrollUp,정답입니다,422.3239146000001,None,422.3239146000001,None,422.3239146000001,None,422.3239146000001,None,423.17055260000006,None,423.17055260000006,423.679568,,,,,,,,,,,,,,,,228,2022-06-03_14h19.18.976,FishGame,2022.1.1,60.0233610921081,
,27,넌 교양없어,5,Green,A,2.416666666666667,2.2,ScrollDown,ScrollUp,Green.png,3,Negative,Incongruent,,,,,0,0,0,0,,,,,,,,,,,,,,,,,,,,,0,26,26,26,,,,,,,,,,,,,,,,,,,,,,,,,,,,,,,,,,,,,,,,,,,,,,,,,,,,,,,,,,,,,,,,,,,,,,,,,1,1.0815331999997397,424.33012959999996,None,ScrollDown,정답입니다,424.33012959999996,None,424.33012959999996,None,424.33012959999996,None,424.33012959999996,None,425.2842856000002,None,425.2842856000002,425.79595530000006,,,,,,,,,,,,,,,,228,2022-06-03_14h19.18.976,FishGame,2022.1.1,60.0233610921081,
,28,나를 보내줘,6,Green,A,0,0,ScrollUp,ScrollDown,Green.png,3,NonTarget,NonTarget,,,,,0,0,0,0,,,,,,,,,,,,,,,,,,,,,0,27,27,27,,,,,,,,,,,,,,,,,,,,,,,,,,,,,,,,,,,,,,,,,,,,,,,,,,,,,,,,,,,,,,,,,,,,,,,,,1.9336419701576233,0.9591497999999774,426.44364410000026,None,ScrollUp,정답입니다,426.44364410000026,None,426.44364410000026,None,426.44364410000026,None,426.44364410000026,None,427.27966430000015,None,427.27966430000015,427.77907600000026,,,,,,,,,,,,,,,,228,2022-06-03_14h19.18.976,FishGame,2022.1.1,60.0233610921081,
,29,넌 엉뚱스러워,3,Green,A,4.166666666666667,4.133333333333334,ScrollDown,ScrollUp,Green.png,3,Neutral,Neutral,,,,,0,0,0,0,,,,,,,,,,,,,,,,,,,,,0,28,28,28,,,,,,,,,,,,,,,,,,,,,,,,,,,,,,,,,,,,,,,,,,,,,,,,,,,,,,,,,,,,,,,,,,,,,,,,,1.0462962985038757,0.9517863999999463,428.4307134999999,None,ScrollDown,정답입니다,428.4307134999999,None,428.4307134999999,None,428.4307134999999,None,428.4307134999999,None,429.25258170000006,None,429.25258170000006,429.7622477,,,,,,,,,,,,,,,,228,2022-06-03_14h19.18.976,FishGame,2022.1.1,60.0233610921081,
,30,넌 무지해,4,Orange,B,2.541666666666667,3.066666666666667,ScrollUp,ScrollDown,Orange.png,3,Negative,Congruent,,,,,0,0,0,0,,,,,,,,,,,,,,,,,,,,,0,29,29,29,,,,,,,,,,,,,,,,,,,,,,,,,,,,,,,,,,,,,,,,,,,,,,,,,,,,,,,,,,,,,,,,,,,,,,,,,1.919753094514211,0.9548945999999887,430.4124816000003,None,ScrollUp,정답입니다,430.4124816000003,None,430.4124816000003,None,430.4124816000003,None,430.4124816000003,None,431.2376062000003,None,431.2376062000003,431.74526990000004,,,,,,,,,,,,,,,,228,2022-06-03_14h19.18.976,FishGame,2022.1.1,60.0233610921081,
,31,넌 음울해,5,Orange,B,2.25,2.233333333333333,ScrollUp,ScrollDown,Orange.png,3,Negative,Congruent,,,,,0,0,0,0,,,,,,,,,,,,,,,,,,,,,0,30,30,30,,,,,,,,,,,,,,,,,,,,,,,,,,,,,,,,,,,,,,,,,,,,,,,,,,,,,,,,,,,,,,,,,,,,,,,,,1.8611111144224803,1.0179309000000103,432.4127355999999,None,ScrollUp,정답입니다,432.4127355999999,None,432.4127355999999,None,432.4127355999999,None,432.4127355999999,None,433.2848133000002,None,433.2848133000002,433.79491450000023,,,,,,,,,,,,,,,,228,2022-06-03_14h19.18.976,FishGame,2022.1.1,60.0233610921081,
,32,넌 냉소적이야,5,Green,A,2.916666666666667,2.4,ScrollDown,ScrollUp,Green.png,3,Negative,Incongruent,,,,,0,0,0,0,,,,,,,,,,,,,,,,,,,,,0,31,31,31,,,,,,,,,,,,,,,,,,,,,,,,,,,,,,,,,,,,,,,,,,,,,,,,,,,,,,,,,,,,,,,,,,,,,,,,,1,1.0232005000002573,434.4378059999999,None,ScrollDown,정답입니다,434.4378059999999,None,434.4378059999999,None,434.4378059999999,None,434.4378059999999,None,435.3377187000001,None,435.3377187000001,435.84470009999995,,,,,,,,,,,,,,,,228,2022-06-03_14h19.18.976,FishGame,2022.1.1,60.0233610921081,
,33,나를 데려가줘,6,Orange,B,0,0,ScrollDown,ScrollUp,Orange.png,3,NonTarget,NonTarget,,,,,0,0,0,0,,,,,,,,,,,,,,,,,,,,,0,32,32,32,,,,,,,,,,,,,,,,,,,,,,,,,,,,,,,,,,,,,,,,,,,,,,,,,,,,,,,,,,,,,,,,,,,,,,,,,1,1.0029472000001078,436.4957717000002,None,ScrollDown,정답입니다,436.4957717000002,None,436.4957717000002,None,436.4957717000002,None,436.4957717000002,None,437.36998630000016,None,437.36998630000016,437.87778720000006,,,,,,,,,,,,,,,,228,2022-06-03_14h19.18.976,FishGame,2022.1.1,60.0233610921081,
,34,넌 쾌활해,1,Green,A,5.541666666666666,5.733333333333333,ScrollDown,ScrollUp,Green.png,3,Positive,Congruent,,,,,0,0,0,0,,,,,,,,,,,,,,,,,,,,,0,33,33,33,,,,,,,,,,,,,,,,,,,,,,,,,,,,,,,,,,,,,,,,,,,,,,,,,,,,,,,,,,,,,,,,,,,,,,,,,1,1.4017981000001782,438.53926520000005,None,ScrollDown,정답입니다,438.53926520000005,None,438.53926520000005,None,438.53926520000005,None,438.53926520000005,None,439.80013180000014,None,439.80013180000014,440.31093950000013,,,,,,,,,,,,,,,,228,2022-06-03_14h19.18.976,FishGame,2022.1.1,60.0233610921081,
,35,나를 보내줘,6,Green,A,0,0,ScrollUp,ScrollDown,Green.png,3,NonTarget,NonTarget,,,,,0,0,0,0,,,,,,,,,,,,,,,,,,,,,0,34,34,34,,,,,,,,,,,,,,,,,,,,,,,,,,,,,,,,,,,,,,,,,,,,,,,,,,,,,,,,,,,,,,,,,,,,,,,,,2,1.1237555999996403,440.9512039000001,None,ScrollUp,정답입니다,440.9512039000001,None,440.9512039000001,None,440.9512039000001,None,440.9512039000001,None,441.9607635000002,None,441.9607635000002,442.4605799000001,,,,,,,,,,,,,,,,228,2022-06-03_14h19.18.976,FishGame,2022.1.1,60.0233610921081,
,36,넌 명랑해,1,Orange,B,5.739130434782609,5.666666666666667,ScrollUp,ScrollDown,Orange.png,3,Positive,Incongruent,,,,,0,0,0,0,,,,,,,,,,,,,,,,,,,,,0,35,35,35,,,,,,,,,,,,,,,,,,,,,,,,,,,,,,,,,,,,,,,,,,,,,,,,,,,,,,,,,,,,,,,,,,,,,,,,,2,1.1100937999999587,443.12080779999997,None,ScrollUp,정답입니다,443.12080779999997,None,443.12080779999997,None,443.12080779999997,None,443.12080779999997,None,444.09373540000024,None,444.09373540000024,444.5935862000001,,,,,,,,,,,,,,,,228,2022-06-03_14h19.18.976,FishGame,2022.1.1,60.0233610921081,
,37,넌 멍해,4,Green,A,2.833333333333333,3.4,ScrollDown,ScrollUp,Green.png,3,Negative,Incongruent,,,,,0,0,0,0,,,,,,,,,,,,,,,,,,,,,0,36,36,36,,,,,,,,,,,,,,,,,,,,,,,,,,,,,,,,,,,,,,,,,,,,,,,,,,,,,,,,,,,,,,,,,,,,,,,,,1,1.0974820000001273,445.24188570000024,None,ScrollDown,정답입니다,445.24188570000024,None,445.24188570000024,None,445.24188570000024,None,445.24188570000024,None,446.21402850000004,None,446.21402850000004,446.72662360000004,,,,,,,,,,,,,,,,228,2022-06-03_14h19.18.976,FishGame,2022.1.1,60.0233610921081,
,38,나를 데려가줘,6,Orange,B,0,0,ScrollDown,ScrollUp,Orange.png,3,NonTarget,NonTarget,,,,,0,0,0,0,,,,,,,,,,,,,,,,,,,,,0,37,37,37,,,,,,,,,,,,,,,,,,,,,,,,,,,,,,,,,,,,,,,,,,,,,,,,,,,,,,,,,,,,,,,,,,,,,,,,,1,1.1930742999998074,447.3807142999999,None,ScrollDown,정답입니다,447.3807142999999,None,447.3807142999999,None,447.3807142999999,None,447.3807142999999,None,448.4432700000002,None,448.4432700000002,448.9429087000003,,,,,,,,,,,,,,,,228,2022-06-03_14h19.18.976,FishGame,2022.1.1,60.0233610921081,
,39,넌 현명해,2,Green,A,6.541666666666666,4.533333333333333,ScrollDown,ScrollUp,Green.png,3,Positive,Congruent,,,,,0,0,0,0,,,,,,,,,,,,,,,,,,,,,0,38,38,38,,,,,,,,,,,,,,,,,,,,,,,,,,,,,,,,,,,,,,,,,,,,,,,,,,,,,,,,,,,,,,,,,,,,,,,,,1,1.054538599999887,449.5924892000003,None,ScrollDown,정답입니다,449.5924892000003,None,449.5924892000003,None,449.5924892000003,None,449.5924892000003,None,450.51938640000026,None,450.51938640000026,451.02608980000014,,,,,,,,,,,,,,,,228,2022-06-03_14h19.18.976,FishGame,2022.1.1,60.0233610921081,
,40,넌 수줍어,3,Orange,B,3.541666666666666,4.366666666666666,ScrollUp,ScrollDown,Orange.png,3,Neutral,Neutral,,,,,0,0,0,0,,,,,,,,,,,,,,,,,,,,,0,39,39,39,,,,,,,,,,,,,,,,,,,,,,,,,,,,,,,,,,,,,,,,,,,,,,,,,,,,,,,,,,,,,,,,,,,,,,,,,2,0.9976880000003803,451.6829835000003,None,ScrollUp,정답입니다,451.6829835000003,None,451.6829835000003,None,451.6829835000003,None,451.6829835000003,None,452.5459289999999,None,452.5459289999999,453.05924460000006,,,,,,,,,,,,,,,,228,2022-06-03_14h19.18.976,FishGame,2022.1.1,60.0233610921081,
,41,나를 데려가줘,6,Orange,B,0,0,ScrollDown,ScrollUp,Orange.png,3,NonTarget,NonTarget,,,,,0,0,0,0,,,,,,,,,,,,,,,,,,,,,0,40,40,40,,,,,,,,,,,,,,,,,,,,,,,,,,,,,,,,,,,,,,,,,,,,,,,,,,,,,,,,,,,,,,,,,,,,,,,,,1,1.1213003999996545,453.7040922000001,None,ScrollDown,정답입니다,453.7040922000001,None,453.7040922000001,None,453.7040922000001,None,453.7040922000001,None,454.70119569999997,None,454.70119569999997,455.20889380000017,,,,,,,,,,,,,,,,228,2022-06-03_14h19.18.976,FishGame,2022.1.1,60.0233610921081,
,42,넌 성숙해,2,Orange,B,5.833333333333333,4.533333333333333,ScrollUp,ScrollDown,Orange.png,3,Positive,Incongruent,,,,,0,0,0,0,,,,,,,,,,,,,,,,,,,,,0,41,41,41,,,,,,,,,,,,,,,,,,,,,,,,,,,,,,,,,,,,,,,,,,,,,,,,,,,,,,,,,,,,,,,,,,,,,,,,,2,1.322182999999768,455.86229589999994,None,ScrollUp,정답입니다,455.86229589999994,None,455.86229589999994,None,455.86229589999994,None,455.86229589999994,None,457.0519551000002,None,457.0519551000002,457.5586939,,,,,,,,,,,,,,,,228,2022-06-03_14h19.18.976,FishGame,2022.1.1,60.0233610921081,
,1,넌 매력적이야,2,Orange,B,6.125,4.666666666666667,ScrollUp,ScrollDown,Orange.png,4,Positive,Incongruent,,,,,0,0,0,0,,,,,,,,,,,,,,,,,,,,,,,,,0,0,0,0,,,,,,,,,,,,,,,,,,,,,,,,,,,,489.3880978000002,490.8878737,490.9210562000003,491.8709852000002,491.92097360000025,492.87081880000005,492.87081880000005,None,,,,,,,,,,,,,,,,,,,,,,,,,,,,,,,,,,1.7422839403152466,1.358178499999667,494.07291209999994,None,ScrollUp,정답입니다,494.07291209999994,None,494.07291209999994,None,494.07291209999994,None,494.07291209999994,None,495.2436805000002,None,495.2436805000002,495.7537261000002,458.05854050000016,None,458.05854050000016,None,0.15185185,-0.083333336,1,0,0,0.016226710000410094,None,488.0713968,None,,,228,2022-06-03_14h19.18.976,FishGame,2022.1.1,60.0233610921081,
,2,나를 보내줘,6,Green,A,0,0,ScrollUp,ScrollDown,Green.png,4,NonTarget,NonTarget,,,,,0,0,0,0,,,,,,,,,,,,,,,,,,,,,,,,,0,1,1,1,,,,,,,,,,,,,,,,,,,,,,,,,,,,,,,,,,,,,,,,,,,,,,,,,,,,,,,,,,,,,,,,,,,,,1.8225308656692505,1.0013041000001976,496.40087040000026,None,ScrollUp,정답입니다,496.40087040000026,None,496.40087040000026,None,496.40087040000026,None,496.40087040000026,None,497.27747880000015,None,497.27747880000015,497.78678850000006,,,,,,,,,,,,,,,,228,2022-06-03_14h19.18.976,FishGame,2022.1.1,60.0233610921081,
,3,넌 조심스러워,3,Green,A,4.791666666666666,4.666666666666667,ScrollDown,ScrollUp,Green.png,4,Neutral,Neutral,,,,,0,0,0,0,,,,,,,,,,,,,,,,,,,,,,,,,0,2,2,2,,,,,,,,,,,,,,,,,,,,,,,,,,,,,,,,,,,,,,,,,,,,,,,,,,,,,,,,,,,,,,,,,,,,,1.1311728407939274,1.0350248999998257,498.43807259999994,None,ScrollDown,정답입니다,498.43807259999994,None,498.43807259999994,None,498.43807259999994,None,498.43807259999994,None,499.343707,None,499.343707,499.85318830000006,,,,,,,,,,,,,,,,228,2022-06-03_14h19.18.976,FishGame,2022.1.1,60.0233610921081,
,4,넌 철학적이야,3,Orange,B,4.5,4.266666666666667,ScrollUp,ScrollDown,Orange.png,4,Neutral,Neutral,,,,,0,0,0,0,,,,,,,,,,,,,,,,,,,,,,,,,0,3,3,3,,,,,,,,,,,,,,,,,,,,,,,,,,,,,,,,,,,,,,,,,,,,,,,,,,,,,,,,,,,,,,,,,,,,,1.837962955236435,1.0996855999997024,500.5132481999999,None,ScrollUp,정답입니다,500.5132481999999,None,500.5132481999999,None,500.5132481999999,None,500.5132481999999,None,501.47476340000003,None,501.47476340000003,501.9862398,,,,,,,,,,,,,,,,228,2022-06-03_14h19.18.976,FishGame,2022.1.1,60.0233610921081,
,5,넌 쩨쩨해,5,Green,A,2.375,2.133333333333333,ScrollDown,ScrollUp,Green.png,4,Negative,Incongruent,,,,,0,0,0,0,,,,,,,,,,,,,,,,,,,,,,,,,0,4,4,4,,,,,,,,,,,,,,,,,,,,,,,,,,,,,,,,,,,,,,,,,,,,,,,,,,,,,,,,,,,,,,,,,,,,,1,1.132806999999957,502.63942799999995,None,ScrollDown,정답입니다,502.63942799999995,None,502.63942799999995,None,502.63942799999995,None,502.63942799999995,None,503.64119230000006,None,503.64119230000006,504.1526775000002,,,,,,,,,,,,,,,,228,2022-06-03_14h19.18.976,FishGame,2022.1.1,60.0233610921081,
,6,나를 데려가줘,6,Orange,B,0,0,ScrollDown,ScrollUp,Orange.png,4,NonTarget,NonTarget,,,,,0,0,0,0,,,,,,,,,,,,,,,,,,,,,,,,,0,5,5,5,,,,,,,,,,,,,,,,,,,,,,,,,,,,,,,,,,,,,,,,,,,,,,,,,,,,,,,,,,,,,,,,,,,,,1,1.0682707000000846,504.8034649000001,None,ScrollDown,정답입니다,504.8034649000001,None,504.8034649000001,None,504.8034649000001,None,504.8034649000001,None,505.74218310000015,None,505.74218310000015,506.25253810000004,,,,,,,,,,,,,,,,228,2022-06-03_14h19.18.976,FishGame,2022.1.1,60.0233610921081,
,7,넌 고집불통이야,5,Orange,B,2.875,2,ScrollUp,ScrollDown,Orange.png,4,Negative,Congruent,,,,,0,0,0,0,,,,,,,,,,,,,,,,,,,,,,,,,0,6,6,6,,,,,,,,,,,,,,,,,,,,,,,,,,,,,,,,,,,,,,,,,,,,,,,,,,,,,,,,,,,,,,,,,,,,,2,1.0604040999996869,506.90844300000026,None,ScrollUp,정답입니다,506.90844300000026,None,506.90844300000026,None,506.90844300000026,None,506.90844300000026,None,507.8354792,None,507.8354792,508.3354583,,,,,,,,,,,,,,,,228,2022-06-03_14h19.18.976,FishGame,2022.1.1,60.0233610921081,
,8,넌 무심해,4,Green,A,2.875,3.2,ScrollDown,ScrollUp,Green.png,4,Negative,Incongruent,,,,,0,0,0,0,,,,,,,,,,,,,,,,,,,,,,,,,0,7,7,7,,,,,,,,,,,,,,,,,,,,,,,,,,,,,,,,,,,,,,,,,,,,,,,,,,,,,,,,,,,,,,,,,,,,,1,0.9685571999998501,508.98269260000006,None,ScrollDown,정답입니다,508.98269260000006,None,508.98269260000006,None,508.98269260000006,None,508.98269260000006,None,509.8251482999999,None,509.8251482999999,510.3351921000003,,,,,,,,,,,,,,,,228,2022-06-03_14h19.18.976,FishGame,2022.1.1,60.0233610921081,
,9,넌 정겨워,1,Green,A,5.791666666666667,5.666666666666667,ScrollDown,ScrollUp,Green.png,4,Positive,Congruent,,,,,0,0,0,0,,,,,,,,,,,,,,,,,,,,,,,,,0,8,8,8,,,,,,,,,,,,,,,,,,,,,,,,,,,,,,,,,,,,,,,,,,,,,,,,,,,,,,,,,,,,,,,,,,,,,1.0524691541989644,0.9988326999996389,510.9894409000003,None,ScrollDown,정답입니다,510.9894409000003,None,510.9894409000003,None,510.9894409000003,None,510.9894409000003,None,511.8573712000002,None,511.8573712000002,512.3685387,,,,,,,,,,,,,,,,228,2022-06-03_14h19.18.976,FishGame,2022.1.1,60.0233610921081,
,10,나를 데려가줘,6,Orange,B,0,0,ScrollDown,ScrollUp,Orange.png,4,NonTarget,NonTarget,,,,,0,0,0,0,,,,,,,,,,,,,,,,,,,,,,,,,0,9,9,9,,,,,,,,,,,,,,,,,,,,,,,,,,,,,,,,,,,,,,,,,,,,,,,,,,,,,,,,,,,,,,,,,,,,,1.0910493781169255,1.167080299999725,513.01847,None,ScrollDown,정답입니다,513.01847,None,513.01847,None,513.01847,None,513.01847,None,514.0580503000001,None,514.0580503000001,514.5681027,,,,,,,,,,,,,,,,228,2022-06-03_14h19.18.976,FishGame,2022.1.1,60.0233610921081,
,11,넌 체제순응적이야,4,Orange,B,3,3.6,ScrollUp,ScrollDown,Orange.png,4,Negative,Congruent,,,,,0,0,0,0,,,,,,,,,,,,,,,,,,,,,,,,,0,10,10,10,,,,,,,,,,,,,,,,,,,,,,,,,,,,,,,,,,,,,,,,,,,,,,,,,,,,,,,,,,,,,,,,,,,,,1.9166666666666667,1.2161925999998857,515.2384852,None,ScrollUp,정답입니다,515.2384852,None,515.2384852,None,515.2384852,None,515.2384852,None,516.3062958999999,None,516.3062958999999,516.8176162,,,,,,,,,,,,,,,,228,2022-06-03_14h19.18.976,FishGame,2022.1.1,60.0233610921081,
,12,나를 보내줘,6,Green,A,0,0,ScrollUp,ScrollDown,Green.png,4,NonTarget,NonTarget,,,,,0,0,0,0,,,,,,,,,,,,,,,,,,,,,,,,,0,11,11,11,,,,,,,,,,,,,,,,,,,,,,,,,,,,,,,,,,,,,,,,,,,,,,,,,,,,,,,,,,,,,,,,,,,,,1.9506172736485798,1.1526331999998547,517.4635146999999,None,ScrollUp,정답입니다,517.4635146999999,None,517.4635146999999,None,517.4635146999999,None,517.4635146999999,None,518.4914696000001,None,518.4914696000001,519.0008404,,,,,,,,,,,,,,,,228,2022-06-03_14h19.18.976,FishGame,2022.1.1,60.0233610921081,
,13,넌 박식해,2,Green,A,5.625,3.933333333333333,ScrollDown,ScrollUp,Green.png,4,Positive,Congruent,,,,,0,0,0,0,,,,,,,,,,,,,,,,,,,,,,,,,0,12,12,12,,,,,,,,,,,,,,,,,,,,,,,,,,,,,,,,,,,,,,,,,,,,,,,,,,,,,,,,,,,,,,,,,,,,,1,0.9826547999996365,519.6586179000001,None,ScrollDown,정답입니다,519.6586179000001,None,519.6586179000001,None,519.6586179000001,None,519.6586179000001,None,520.5054208000001,None,520.5054208000001,521.0171500000001,,,,,,,,,,,,,,,,228,2022-06-03_14h19.18.976,FishGame,2022.1.1,60.0233610921081,
,14,나를 보내줘,6,Green,A,0,0,ScrollUp,ScrollDown,Green.png,4,NonTarget,NonTarget,,,,,0,0,0,0,,,,,,,,,,,,,,,,,,,,,,,,,0,13,13,13,,,,,,,,,,,,,,,,,,,,,,,,,,,,,,,,,,,,,,,,,,,,,,,,,,,,,,,,,,,,,,,,,,,,,1.9814815024534862,1.03813719999971,521.6658425999999,None,ScrollUp,정답입니다,521.6658425999999,None,521.6658425999999,None,521.6658425999999,None,521.6658425999999,None,522.5752517000001,None,522.5752517000001,523.0835406000001,,,,,,,,,,,,,,,,228,2022-06-03_14h19.18.976,FishGame,2022.1.1,60.0233610921081,
,15,넌 침착해,1,Orange,B,5.458333333333333,5.566666666666666,ScrollUp,ScrollDown,Orange.png,4,Positive,Incongruent,,,,,0,0,0,0,,,,,,,,,,,,,,,,,,,,,,,,,0,14,14,14,,,,,,,,,,,,,,,,,,,,,,,,,,,,,,,,,,,,,,,,,,,,,,,,,,,,,,,,,,,,,,,,,,,,,2,1.205059099999744,523.7438919000001,None,ScrollUp,정답입니다,523.7438919000001,None,523.7438919000001,None,523.7438919000001,None,523.7438919000001,None,524.8095444999999,None,524.8095444999999,525.3165669,,,,,,,,,,,,,,,,228,2022-06-03_14h19.18.976,FishGame,2022.1.1,60.0233610921081,
,16,나를 데려가줘,6,Orange,B,0,0,ScrollDown,ScrollUp,Orange.png,4,NonTarget,NonTarget,,,,,0,0,0,0,,,,,,,,,,,,,,,,,,,,,,,,,0,15,15,15,,,,,,,,,,,,,,,,,,,,,,,,,,,,,,,,,,,,,,,,,,,,,,,,,,,,,,,,,,,,,,,,,,,,,1.0509259402751923,0.9978485999999975,525.9717688999999,None,ScrollDown,정답입니다,525.9717688999999,None,525.9717688999999,None,525.9717688999999,None,525.9717688999999,None,526.8372150999999,None,526.8372150999999,527.3496763000003,,,,,,,,,,,,,,,,228,2022-06-03_14h19.18.976,FishGame,2022.1.1,60.0233610921081,
,17,넌 행복해,1,Green,A,6.416666666666666,6.166666666666667,ScrollDown,ScrollUp,Green.png,4,Positive,Congruent,,,,,0,0,0,0,,,,,,,,,,,,,,,,,,,,,,,,,0,16,16,16,,,,,,,,,,,,,,,,,,,,,,,,,,,,,,,,,,,,,,,,,,,,,,,,,,,,,,,,,,,,,,,,,,,,,1,1.0173963000002004,528.0023793,None,ScrollDown,정답입니다,528.0023793,None,528.0023793,None,528.0023793,None,528.0023793,None,528.8898930999999,None,528.8898930999999,529.399527,,,,,,,,,,,,,,,,228,2022-06-03_14h19.18.976,FishGame,2022.1.1,60.0233610921081,
,18,넌 겸손해,2,Orange,B,5.791666666666667,4.766666666666667,ScrollUp,ScrollDown,Orange.png,4,Positive,Incongruent,,,,,0,0,0,0,,,,,,,,,,,,,,,,,,,,,,,,,0,17,17,17,,,,,,,,,,,,,,,,,,,,,,,,,,,,,,,,,,,,,,,,,,,,,,,,,,,,,,,,,,,,,,,,,,,,,1.9583333432674408,0.97574270000041,530.0595953000002,None,ScrollUp,정답입니다,530.0595953000002,None,530.0595953000002,None,530.0595953000002,None,530.0595953000002,None,530.8995144999999,None,530.8995144999999,531.3992923999999,,,,,,,,,,,,,,,,228,2022-06-03_14h19.18.976,FishGame,2022.1.1,60.0233610921081,
,19,나를 보내줘,6,Green,A,0,0,ScrollUp,ScrollDown,Green.png,4,NonTarget,NonTarget,,,,,0,0,0,0,,,,,,,,,,,,,,,,,,,,,,,,,0,18,18,18,,,,,,,,,,,,,,,,,,,,,,,,,,,,,,,,,,,,,,,,,,,,,,,,,,,,,,,,,,,,,,,,,,,,,1.8719135870536168,1.042457900000045,532.0511356000002,None,ScrollUp,정답입니다,532.0511356000002,None,532.0511356000002,None,532.0511356000002,None,532.0511356000002,None,532.9657659,None,532.9657659,533.4655599000002,,,,,,,,,,,,,,,,228,2022-06-03_14h19.18.976,FishGame,2022.1.1,60.0233610921081,
,20,넌 의심없어,3,Green,A,4.166666666666667,4.6,ScrollDown,ScrollUp,Green.png,4,Neutral,Neutral,,,,,0,0,0,0,,,,,,,,,,,,,,,,,,,,,,,,,0,19,19,19,,,,,,,,,,,,,,,,,,,,,,,,,,,,,,,,,,,,,,,,,,,,,,,,,,,,,,,,,,,,,,,,,,,,,1.1018518507480621,1.0834384999998292,534.1116368000003,None,ScrollDown,정답입니다,534.1116368000003,None,534.1116368000003,None,534.1116368000003,None,534.1116368000003,None,535.0717331000001,None,535.0717331000001,535.581956,,,,,,,,,,,,,,,,228,2022-06-03_14h19.18.976,FishGame,2022.1.1,60.0233610921081,
,21,넌 시시해,4,Green,A,2.666666666666667,2.966666666666667,ScrollDown,ScrollUp,Green.png,4,Negative,Incongruent,,,,,0,0,0,0,,,,,,,,,,,,,,,,,,,,,,,,,0,20,20,20,,,,,,,,,,,,,,,,,,,,,,,,,,,,,,,,,,,,,,,,,,,,,,,,,,,,,,,,,,,,,,,,,,,,,1,0.9189408000002004,536.2276012000002,None,ScrollDown,정답입니다,536.2276012000002,None,536.2276012000002,None,536.2276012000002,None,536.2276012000002,None,537.0242216000001,None,537.0242216000001,537.5317505000003,,,,,,,,,,,,,,,,228,2022-06-03_14h19.18.976,FishGame,2022.1.1,60.0233610921081,
,22,나를 데려가줘,6,Orange,B,0,0,ScrollDown,ScrollUp,Orange.png,4,NonTarget,NonTarget,,,,,0,0,0,0,,,,,,,,,,,,,,,,,,,,,,,,,0,21,21,21,,,,,,,,,,,,,,,,,,,,,,,,,,,,,,,,,,,,,,,,,,,,,,,,,,,,,,,,,,,,,,,,,,,,,1,1.0146252999998069,538.1853974999999,None,ScrollDown,정답입니다,538.1853974999999,None,538.1853974999999,None,538.1853974999999,None,538.1853974999999,None,539.0696997,None,539.0696997,539.5814811999999,,,,,,,,,,,,,,,,228,2022-06-03_14h19.18.976,FishGame,2022.1.1,60.0233610921081,
,23,넌 무정해,5,Green,A,2.5,2.2,ScrollDown,ScrollUp,Green.png,4,Negative,Incongruent,,,,,0,0,0,0,,,,,,,,,,,,,,,,,,,,,,,,,0,22,22,22,,,,,,,,,,,,,,,,,,,,,,,,,,,,,,,,,,,,,,,,,,,,,,,,,,,,,,,,,,,,,,,,,,,,,1,1.0069456000001082,540.2265726999999,None,ScrollDown,정답입니다,540.2265726999999,None,540.2265726999999,None,540.2265726999999,None,540.2265726999999,None,541.1146462000002,None,541.1146462000002,541.6145118,,,,,,,,,,,,,,,,228,2022-06-03_14h19.18.976,FishGame,2022.1.1,60.0233610921081,
,24,넌 긍정적이야,1,Orange,B,6.041666666666667,6.066666666666666,ScrollUp,ScrollDown,Orange.png,4,Positive,Incongruent,,,,,0,0,0,0,,,,,,,,,,,,,,,,,,,,,,,,,0,23,23,23,,,,,,,,,,,,,,,,,,,,,,,,,,,,,,,,,,,,,,,,,,,,,,,,,,,,,,,,,,,,,,,,,,,,,1.9938271641731262,1.0353797000002487,542.3033390999999,None,ScrollUp,정답입니다,542.3033390999999,None,542.3033390999999,None,542.3033390999999,None,542.3033390999999,None,543.1709193000002,None,543.1709193000002,543.6809641,,,,,,,,,,,,,,,,228,2022-06-03_14h19.18.976,FishGame,2022.1.1,60.0233610921081,
,25,나를 보내줘,6,Green,A,0,0,ScrollUp,ScrollDown,Green.png,4,NonTarget,NonTarget,,,,,0,0,0,0,,,,,,,,,,,,,,,,,,,,,,,,,0,24,24,24,,,,,,,,,,,,,,,,,,,,,,,,,,,,,,,,,,,,,,,,,,,,,,,,,,,,,,,,,,,,,,,,,,,,,2,1.0604753000002347,544.3257185000002,None,ScrollUp,정답입니다,544.3257185000002,None,544.3257185000002,None,544.3257185000002,None,544.3257185000002,None,545.2643938000001,None,545.2643938000001,545.7640188,,,,,,,,,,,,,,,,228,2022-06-03_14h19.18.976,FishGame,2022.1.1,60.0233610921081,
,26,넌 시기심이 많아,5,Orange,B,2.458333333333333,2.233333333333333,ScrollUp,ScrollDown,Orange.png,4,Negative,Congruent,,,,,0,0,0,0,,,,,,,,,,,,,,,,,,,,,,,,,0,25,25,25,,,,,,,,,,,,,,,,,,,,,,,,,,,,,,,,,,,,,,,,,,,,,,,,,,,,,,,,,,,,,,,,,,,,,2,1.07662449999998,546.4246567999999,None,ScrollUp,정답입니다,546.4246567999999,None,546.4246567999999,None,546.4246567999999,None,546.4246567999999,None,547.3641999000001,None,547.3641999000001,547.8636764000003,,,,,,,,,,,,,,,,228,2022-06-03_14h19.18.976,FishGame,2022.1.1,60.0233610921081,
,27,넌 탁월해,2,Green,A,5.708333333333334,4.5,ScrollDown,ScrollUp,Green.png,4,Positive,Congruent,,,,,0,0,0,0,,,,,,,,,,,,,,,,,,,,,,,,,0,26,26,26,,,,,,,,,,,,,,,,,,,,,,,,,,,,,,,,,,,,,,,,,,,,,,,,,,,,,,,,,,,,,,,,,,,,,1,1.0552959999999985,548.5279558000002,None,ScrollDown,정답입니다,548.5279558000002,None,548.5279558000002,None,548.5279558000002,None,548.5279558000002,None,549.4469899999999,None,549.4469899999999,549.9468628,,,,,,,,,,,,,,,,228,2022-06-03_14h19.18.976,FishGame,2022.1.1,60.0233610921081,
,28,나를 데려가줘,6,Orange,B,0,0,ScrollDown,ScrollUp,Orange.png,4,NonTarget,NonTarget,,,,,0,0,0,0,,,,,,,,,,,,,,,,,,,,,,,,,0,27,27,27,,,,,,,,,,,,,,,,,,,,,,,,,,,,,,,,,,,,,,,,,,,,,,,,,,,,,,,,,,,,,,,,,,,,,1,1.0734706999996888,550.5988508999999,None,ScrollDown,정답입니다,550.5988508999999,None,550.5988508999999,None,550.5988508999999,None,550.5988508999999,None,551.5470095000001,None,551.5470095000001,552.0465257000001,,,,,,,,,,,,,,,,228,2022-06-03_14h19.18.976,FishGame,2022.1.1,60.0233610921081,
,29,넌 조용해,3,Orange,B,4.333333333333333,4.166666666666667,ScrollUp,ScrollDown,Orange.png,4,Neutral,Neutral,,,,,0,0,0,0,,,,,,,,,,,,,,,,,,,,,,,,,0,28,28,28,,,,,,,,,,,,,,,,,,,,,,,,,,,,,,,,,,,,,,,,,,,,,,,,,,,,,,,,,,,,,,,,,,,,,1.9074074079593022,1.076774199999818,552.7084852000003,None,ScrollUp,정답입니다,552.7084852000003,None,552.7084852000003,None,552.7084852000003,None,552.7084852000003,None,553.6466463000002,None,553.6466463000002,554.1463414,,,,,,,,,,,,,,,,228,2022-06-03_14h19.18.976,FishGame,2022.1.1,60.0233610921081,
,30,넌 다정해,1,Green,A,5.833333333333334,5.7,ScrollDown,ScrollUp,Green.png,4,Positive,Congruent,,,,,0,0,0,0,,,,,,,,,,,,,,,,,,,,,,,,,0,29,29,29,,,,,,,,,,,,,,,,,,,,,,,,,,,,,,,,,,,,,,,,,,,,,,,,,,,,,,,,,,,,,,,,,,,,,1,1.0842812999999296,554.7997516999999,None,ScrollDown,정답입니다,554.7997516999999,None,554.7997516999999,None,554.7997516999999,None,554.7997516999999,None,555.7520013000003,None,555.7520013000003,556.2626500000001,,,,,,,,,,,,,,,,228,2022-06-03_14h19.18.976,FishGame,2022.1.1,60.0233610921081,
,31,넌 능력있어,2,Orange,B,6.166666666666666,4.6,ScrollUp,ScrollDown,Orange.png,4,Positive,Incongruent,,,,,0,0,0,0,,,,,,,,,,,,,,,,,,,,,,,,,0,30,30,30,,,,,,,,,,,,,,,,,,,,,,,,,,,,,,,,,,,,,,,,,,,,,,,,,,,,,,,,,,,,,,,,,,,,,1.9537037014961243,1.0654607999999826,556.9141804999999,None,ScrollUp,정답입니다,556.9141804999999,None,556.9141804999999,None,556.9141804999999,None,556.9141804999999,None,557.8496909,None,557.8496909,558.3624691,,,,,,,,,,,,,,,,228,2022-06-03_14h19.18.976,FishGame,2022.1.1,60.0233610921081,
,32,넌 불쾌해,5,Green,A,2.125,1.933333333333333,ScrollDown,ScrollUp,Green.png,4,Negative,Incongruent,,,,,0,0,0,0,,,,,,,,,,,,,,,,,,,,,,,,,0,31,31,31,,,,,,,,,,,,,,,,,,,,,,,,,,,,,,,,,,,,,,,,,,,,,,,,,,,,,,,,,,,,,,,,,,,,,1,1.0664544000001115,559.0093885000001,None,ScrollDown,정답입니다,559.0093885000001,None,559.0093885000001,None,559.0093885000001,None,559.0093885000001,None,559.9502032,None,559.9502032,560.4621574000003,,,,,,,,,,,,,,,,228,2022-06-03_14h19.18.976,FishGame,2022.1.1,60.0233610921081,
,33,나를 데려가줘,6,Orange,B,0,0,ScrollDown,ScrollUp,Orange.png,4,NonTarget,NonTarget,,,,,0,0,0,0,,,,,,,,,,,,,,,,,,,,,,,,,0,32,32,32,,,,,,,,,,,,,,,,,,,,,,,,,,,,,,,,,,,,,,,,,,,,,,,,,,,,,,,,,,,,,,,,,,,,,1,1.0193280000003142,561.1132333,None,ScrollDown,정답입니다,561.1132333,None,561.1132333,None,561.1132333,None,561.1132333,None,562.0030053,None,562.0030053,562.5118757,,,,,,,,,,,,,,,,228,2022-06-03_14h19.18.976,FishGame,2022.1.1,60.0233610921081,
,34,넌 유순해,3,Green,A,4.458333333333333,5,ScrollDown,ScrollUp,Green.png,4,Neutral,Neutral,,,,,0,0,0,0,,,,,,,,,,,,,,,,,,,,,,,,,0,33,33,33,,,,,,,,,,,,,,,,,,,,,,,,,,,,,,,,,,,,,,,,,,,,,,,,,,,,,,,,,,,,,,,,,,,,,1.0030864079793294,1.002063900000394,563.15769,None,ScrollDown,정답입니다,563.15769,None,563.15769,None,563.15769,None,563.15769,None,564.0366647999999,None,564.0366647999999,564.5449533999999,,,,,,,,,,,,,,,,228,2022-06-03_14h19.18.976,FishGame,2022.1.1,60.0233610921081,
,35,넌 근심스러워,4,Orange,B,2.708333333333333,3.133333333333333,ScrollUp,ScrollDown,Orange.png,4,Negative,Congruent,,,,,0,0,0,0,,,,,,,,,,,,,,,,,,,,,,,,,0,34,34,34,,,,,,,,,,,,,,,,,,,,,,,,,,,,,,,,,,,,,,,,,,,,,,,,,,,,,,,,,,,,,,,,,,,,,1.9953703780968983,0.9580270999999811,565.2057617,None,ScrollUp,정답입니다,565.2057617,None,565.2057617,None,565.2057617,None,565.2057617,None,566.0282599000002,None,566.0282599000002,566.5280029,,,,,,,,,,,,,,,,228,2022-06-03_14h19.18.976,FishGame,2022.1.1,60.0233610921081,
,36,넌 세련되었어,2,Green,A,5.5,4.6,ScrollDown,ScrollUp,Green.png,4,Positive,Congruent,,,,,0,0,0,0,,,,,,,,,,,,,,,,,,,,,,,,,0,35,35,35,,,,,,,,,,,,,,,,,,,,,,,,,,,,,,,,,,,,,,,,,,,,,,,,,,,,,,,,,,,,,,,,,,,,,1,1.0990606000000298,567.1997070000002,None,ScrollDown,정답입니다,567.1997070000002,None,567.1997070000002,None,567.1997070000002,None,567.1997070000002,None,568.149238,None,568.149238,568.6611112,,,,,,,,,,,,,,,,228,2022-06-03_14h19.18.976,FishGame,2022.1.1,60.0233610921081,
,37,나를 보내줘,6,Green,A,0,0,ScrollUp,ScrollDown,Green.png,4,NonTarget,NonTarget,,,,,0,0,0,0,,,,,,,,,,,,,,,,,,,,,,,,,0,36,36,36,,,,,,,,,,,,,,,,,,,,,,,,,,,,,,,,,,,,,,,,,,,,,,,,,,,,,,,,,,,,,,,,,,,,,2,1.0952569999999469,569.3103615,None,ScrollUp,정답입니다,569.3103615,None,569.3103615,None,569.3103615,None,569.3103615,None,570.2778619999999,None,570.2778619999999,570.7775056999999,,,,,,,,,,,,,,,,228,2022-06-03_14h19.18.976,FishGame,2022.1.1,60.0233610921081,
,38,넌 확고해,3,Orange,B,4.708333333333334,4.566666666666666,ScrollUp,ScrollDown,Orange.png,4,Neutral,Neutral,,,,,0,0,0,0,,,,,,,,,,,,,,,,,,,,,,,,,0,37,37,37,,,,,,,,,,,,,,,,,,,,,,,,,,,,,,,,,,,,,,,,,,,,,,,,,,,,,,,,,,,,,,,,,,,,,2,1.0029295000003913,571.4392797,None,ScrollUp,정답입니다,571.4392797,None,571.4392797,None,571.4392797,None,571.4392797,None,572.3027482000002,None,572.3027482000002,572.8105622000003,,,,,,,,,,,,,,,,228,2022-06-03_14h19.18.976,FishGame,2022.1.1,60.0233610921081,
,39,넌 이해심이 많아,1,Orange,B,6.041666666666668,5.533333333333333,ScrollUp,ScrollDown,Orange.png,4,Positive,Incongruent,,,,,0,0,0,0,,,,,,,,,,,,,,,,,,,,,,,,,0,38,38,38,,,,,,,,,,,,,,,,,,,,,,,,,,,,,,,,,,,,,,,,,,,,,,,,,,,,,,,,,,,,,,,,,,,,,2,1.131288399999903,573.4631423000001,None,ScrollUp,정답입니다,573.4631423000001,None,573.4631423000001,None,573.4631423000001,None,573.4631423000001,None,574.4642764,None,574.4642764,574.9768669,,,,,,,,,,,,,,,,228,2022-06-03_14h19.18.976,FishGame,2022.1.1,60.0233610921081,
,40,나를 보내줘,6,Green,A,0,0,ScrollUp,ScrollDown,Green.png,4,NonTarget,NonTarget,,,,,0,0,0,0,,,,,,,,,,,,,,,,,,,,,,,,,0,39,39,39,,,,,,,,,,,,,,,,,,,,,,,,,,,,,,,,,,,,,,,,,,,,,,,,,,,,,,,,,,,,,,,,,,,,,2,0.9834840000003169,575.6268848,None,ScrollUp,정답입니다,575.6268848,None,575.6268848,None,575.6268848,None,575.6268848,None,576.4819034000002,None,576.4819034000002,576.9933776000003,,,,,,,,,,,,,,,,228,2022-06-03_14h19.18.976,FishGame,2022.1.1,60.0233610921081,
,41,넌 거칠어,4,Green,A,2.625,3.033333333333333,ScrollDown,ScrollUp,Green.png,4,Negative,Incongruent,,,,,0,0,0,0,,,,,,,,,,,,,,,,,,,,,,,,,0,40,40,40,,,,,,,,,,,,,,,,,,,,,,,,,,,,,,,,,,,,,,,,,,,,,,,,,,,,,,,,,,,,,,,,,,,,,1,0.9755850999999893,577.643106,None,ScrollDown,정답입니다,577.643106,None,577.643106,None,577.643106,None,577.643106,None,578.4934321000001,None,578.4934321000001,578.9931687000003,,,,,,,,,,,,,,,,228,2022-06-03_14h19.18.976,FishGame,2022.1.1,60.0233610921081,
,42,넌 변덕맞아,5,Orange,B,2.75,2.166666666666667,ScrollUp,ScrollDown,Orange.png,4,Negative,Congruent,,,,,0,0,0,0,,,,,,,,,,,,,,,,,,,,,,,,,0,41,41,41,,,,,,,,,,,,,,,,,,,,,,,,,,,,,,,,,,,,,,,,,,,,,,,,,,,,,,,,,,,,,,,,,,,,,2,1.017949900000076,579.6583628000003,None,ScrollUp,정답입니다,579.6583628000003,None,579.6583628000003,None,579.6583628000003,None,579.6583628000003,None,580.5410738,None,580.5410738,581.0428901,,,,,,,,,,,,,,,,228,2022-06-03_14h19.18.976,FishGame,2022.1.1,60.0233610921081,
,43,나를 데려가줘,6,Orange,B,0,0,ScrollDown,ScrollUp,Orange.png,4,NonTarget,NonTarget,,,,,0,0,0,0,,,,,,,,,,,,,,,,,,,,,,,,,0,42,42,42,,,,,,,,,,,,,,,,,,,,,,,,,,,,,,,,,,,,,,,,,,,,,,,,,,,,,,,,,,,,,,,,,,,,,1.0555555323759716,1.2488556000002973,581.6973080000002,None,ScrollDown,정답입니다,581.6973080000002,None,581.6973080000002,None,581.6973080000002,None,581.6973080000002,None,582.8135308000001,None,582.8135308000001,583.3261094,,,,,,,,,,,,,,,,228,2022-06-03_14h19.18.976,FishGame,2022.1.1,60.0233610921081,
,44,넌 외로워,4,Orange,B,2.833333333333333,3.3,ScrollUp,ScrollDown,Orange.png,4,Negative,Congruent,,,,,0,0,0,0,,,,,,,,,,,,,,,,,,,,,,,,,0,43,43,43,,,,,,,,,,,,,,,,,,,,,,,,,,,,,,,,,,,,,,,,,,,,,,,,,,,,,,,,,,,,,,,,,,,,,2,1.0508472999999867,583.9779935000001,None,ScrollUp,정답입니다,583.9779935000001,None,583.9779935000001,None,583.9779935000001,None,583.9779935000001,None,584.8985117000002,None,584.8985117000002,585.4090396000001,,,,,,,,,,,,,,,,228,2022-06-03_14h19.18.976,FishGame,2022.1.1,60.0233610921081,
,1,넌 불평스러워,5,Green,A,2.25,2.066666666666667,ScrollDown,ScrollUp,Green.png,5,Negative,Incongruent,,,,,0,0,0,0,,,,,,,,,,,,,,,,,,,,,,,,,,,,,0,0,0,0,,,,,,,,,,,,,,,,,,,,,,,,619.8046578000003,621.3044100000002,621.3378704000002,622.2877755,622.3377457000001,623.2876061000002,623.2876061000002,None,,,,,,,,,,,,,,,,,,,,,,,,,,,,,,,,,,1.0339506367842357,1.531623099999706,624.4872009000001,None,ScrollDown,정답입니다,624.4872009000001,None,624.4872009000001,None,624.4872009000001,None,624.4872009000001,None,625.8326373,None,625.8326373,626.3371775999999,585.9089266000001,None,585.9089266000001,None,0.16296296,-0.096296296,1,0,0,0.01622730999997657,None,615.9050958000003,None,,,228,2022-06-03_14h19.18.976,FishGame,2022.1.1,60.0233610921081,
,2,나를 보내줘,6,Green,A,0,0,ScrollUp,ScrollDown,Green.png,5,NonTarget,NonTarget,,,,,0,0,0,0,,,,,,,,,,,,,,,,,,,,,,,,,,,,,0,1,1,1,,,,,,,,,,,,,,,,,,,,,,,,,,,,,,,,,,,,,,,,,,,,,,,,,,,,,,,,,,,,,,,,,2,1.0165438999997605,626.9873081999999,None,ScrollUp,정답입니다,626.9873081999999,None,626.9873081999999,None,626.9873081999999,None,626.9873081999999,None,627.8756886000001,None,627.8756886000001,628.3867866999999,,,,,,,,,,,,,,,,228,2022-06-03_14h19.18.976,FishGame,2022.1.1,60.0233610921081,
,3,넌 다재다능해,2,Orange,B,6.208333333333333,4.5,ScrollUp,ScrollDown,Orange.png,5,Positive,Incongruent,,,,,0,0,0,0,,,,,,,,,,,,,,,,,,,,,,,,,,,,,0,2,2,2,,,,,,,,,,,,,,,,,,,,,,,,,,,,,,,,,,,,,,,,,,,,,,,,,,,,,,,,,,,,,,,,,2,0.9172300000000178,629.0380764000001,None,ScrollUp,정답입니다,629.0380764000001,None,629.0380764000001,None,629.0380764000001,None,629.0380764000001,None,629.8255932000002,None,629.8255932000002,630.3365769000002,,,,,,,,,,,,,,,,228,2022-06-03_14h19.18.976,FishGame,2022.1.1,60.0233610921081,
,4,넌 과감해,3,Green,A,4.833333333333334,4.6,ScrollDown,ScrollUp,Green.png,5,Neutral,Neutral,,,,,0,0,0,0,,,,,,,,,,,,,,,,,,,,,,,,,,,,,0,3,3,3,,,,,,,,,,,,,,,,,,,,,,,,,,,,,,,,,,,,,,,,,,,,,,,,,,,,,,,,,,,,,,,,,1,0.9931424999999763,630.9906224000001,None,ScrollDown,정답입니다,630.9906224000001,None,630.9906224000001,None,630.9906224000001,None,630.9906224000001,None,631.8532654,None,631.8532654,632.3529808000003,,,,,,,,,,,,,,,,228,2022-06-03_14h19.18.976,FishGame,2022.1.1,60.0233610921081,
,5,넌 고분고분해,3,Orange,B,3.75,4.033333333333333,ScrollUp,ScrollDown,Orange.png,5,Neutral,Neutral,,,,,0,0,0,0,,,,,,,,,,,,,,,,,,,,,,,,,,,,,0,4,4,4,,,,,,,,,,,,,,,,,,,,,,,,,,,,,,,,,,,,,,,,,,,,,,,,,,,,,,,,,,,,,,,,,2,0.9903835000000072,633.0156086000002,None,ScrollUp,정답입니다,633.0156086000002,None,633.0156086000002,None,633.0156086000002,None,633.0156086000002,None,633.8694623000001,None,633.8694623000001,634.3694639,,,,,,,,,,,,,,,,228,2022-06-03_14h19.18.976,FishGame,2022.1.1,60.0233610921081,
,6,나를 보내줘,6,Green,A,0,0,ScrollUp,ScrollDown,Green.png,5,NonTarget,NonTarget,,,,,0,0,0,0,,,,,,,,,,,,,,,,,,,,,,,,,,,,,0,5,5,5,,,,,,,,,,,,,,,,,,,,,,,,,,,,,,,,,,,,,,,,,,,,,,,,,,,,,,,,,,,,,,,,,1.9645061492919922,0.9499054999996588,635.0129552000003,None,ScrollUp,정답입니다,635.0129552000003,None,635.0129552000003,None,635.0129552000003,None,635.0129552000003,None,635.8410451,None,635.8410451,636.3524855999999,,,,,,,,,,,,,,,,228,2022-06-03_14h19.18.976,FishGame,2022.1.1,60.0233610921081,
,7,넌 잘 잊어,4,Green,A,3,3.7,ScrollDown,ScrollUp,Green.png,5,Negative,Incongruent,,,,,0,0,0,0,,,,,,,,,,,,,,,,,,,,,,,,,,,,,0,6,6,6,,,,,,,,,,,,,,,,,,,,,,,,,,,,,,,,,,,,,,,,,,,,,,,,,,,,,,,,,,,,,,,,,1.1373456716537476,0.9995294000000285,637.0103478999999,None,ScrollDown,정답입니다,637.0103478999999,None,637.0103478999999,None,637.0103478999999,None,637.0103478999999,None,637.8740726999999,None,637.8740726999999,638.3856418999999,,,,,,,,,,,,,,,,228,2022-06-03_14h19.18.976,FishGame,2022.1.1,60.0233610921081,
,8,넌 탐구심이없어,4,Orange,B,2.833333333333333,3.066666666666667,ScrollUp,ScrollDown,Orange.png,5,Negative,Congruent,,,,,0,0,0,0,,,,,,,,,,,,,,,,,,,,,,,,,,,,,0,7,7,7,,,,,,,,,,,,,,,,,,,,,,,,,,,,,,,,,,,,,,,,,,,,,,,,,,,,,,,,,,,,,,,,,2,0.8984100999996372,639.0524943,None,ScrollUp,정답입니다,639.0524943,None,639.0524943,None,639.0524943,None,639.0524943,None,639.8057795,None,639.8057795,640.3188805,,,,,,,,,,,,,,,,228,2022-06-03_14h19.18.976,FishGame,2022.1.1,60.0233610921081,
,9,나를 데려가줘,6,Orange,B,0,0,ScrollDown,ScrollUp,Orange.png,5,NonTarget,NonTarget,,,,,0,0,0,0,,,,,,,,,,,,,,,,,,,,,,,,,,,,,0,8,8,8,,,,,,,,,,,,,,,,,,,,,,,,,,,,,,,,,,,,,,,,,,,,,,,,,,,,,,,,,,,,,,,,,1,0.9992916999999579,640.9643996,None,ScrollDown,정답입니다,640.9643996,None,640.9643996,None,640.9643996,None,640.9643996,None,641.8406401000002,None,641.8406401000002,642.3517274000001,,,,,,,,,,,,,,,,228,2022-06-03_14h19.18.976,FishGame,2022.1.1,60.0233610921081,
,10,넌 참되어,2,Green,A,6.041666666666664,4.733333333333333,ScrollDown,ScrollUp,Green.png,5,Positive,Congruent,,,,,0,0,0,0,,,,,,,,,,,,,,,,,,,,,,,,,,,,,0,9,9,9,,,,,,,,,,,,,,,,,,,,,,,,,,,,,,,,,,,,,,,,,,,,,,,,,,,,,,,,,,,,,,,,,1.0030864079793294,0.9625850000002174,643.0072586000001,None,ScrollDown,정답입니다,643.0072586000001,None,643.0072586000001,None,643.0072586000001,None,643.0072586000001,None,643.8366407000003,None,643.8366407000003,644.3514157,,,,,,,,,,,,,,,,228,2022-06-03_14h19.18.976,FishGame,2022.1.1,60.0233610921081,
,11,넌 생기있어,1,Orange,B,5.875,5.633333333333334,ScrollUp,ScrollDown,Orange.png,5,Positive,Incongruent,,,,,0,0,0,0,,,,,,,,,,,,,,,,,,,,,,,,,,,,,0,10,10,10,,,,,,,,,,,,,,,,,,,,,,,,,,,,,,,,,,,,,,,,,,,,,,,,,,,,,,,,,,,,,,,,,2,0.8553366999999525,645.0074748000002,None,ScrollUp,정답입니다,645.0074748000002,None,645.0074748000002,None,645.0074748000002,None,645.0074748000002,None,645.7284244000002,None,645.7284244000002,646.2346009000003,,,,,,,,,,,,,,,,228,2022-06-03_14h19.18.976,FishGame,2022.1.1,60.0233610921081,
,12,넌 비사교적이야,4,Orange,B,2.875,2.9,ScrollUp,ScrollDown,Orange.png,5,Negative,Congruent,,,,,0,0,0,0,,,,,,,,,,,,,,,,,,,,,,,,,,,,,0,11,11,11,,,,,,,,,,,,,,,,,,,,,,,,,,,,,,,,,,,,,,,,,,,,,,,,,,,,,,,,,,,,,,,,,2,1.0485518000000411,646.8869875,None,ScrollUp,정답입니다,646.8869875,None,646.8869875,None,646.8869875,None,646.8869875,None,647.8067391,None,647.8067391,648.3176582000001,,,,,,,,,,,,,,,,228,2022-06-03_14h19.18.976,FishGame,2022.1.1,60.0233610921081,
,13,나를 데려가줘,6,Orange,B,0,0,ScrollDown,ScrollUp,Orange.png,5,NonTarget,NonTarget,,,,,0,0,0,0,,,,,,,,,,,,,,,,,,,,,,,,,,,,,0,12,12,12,,,,,,,,,,,,,,,,,,,,,,,,,,,,,,,,,,,,,,,,,,,,,,,,,,,,,,,,,,,,,,,,,1,1.010663300000033,648.9715262,None,ScrollDown,정답입니다,648.9715262,None,648.9715262,None,648.9715262,None,648.9715262,None,649.8465607000003,None,649.8465607000003,650.3507146000002,,,,,,,,,,,,,,,,228,2022-06-03_14h19.18.976,FishGame,2022.1.1,60.0233610921081,
,14,넌 고독해,4,Green,A,2.916666666666667,3.233333333333333,ScrollDown,ScrollUp,Green.png,5,Negative,Incongruent,,,,,0,0,0,0,,,,,,,,,,,,,,,,,,,,,,,,,,,,,0,13,13,13,,,,,,,,,,,,,,,,,,,,,,,,,,,,,,,,,,,,,,,,,,,,,,,,,,,,,,,,,,,,,,,,,1.0478395124276478,0.9973930000001019,650.9953463000002,None,ScrollDown,정답입니다,650.9953463000002,None,650.9953463000002,None,650.9953463000002,None,650.9953463000002,None,651.8707850000001,None,651.8707850000001,652.3837757000001,,,,,,,,,,,,,,,,228,2022-06-03_14h19.18.976,FishGame,2022.1.1,60.0233610921081,
,15,넌 신경질적이야,5,Orange,B,2.375,2.233333333333333,ScrollUp,ScrollDown,Orange.png,5,Negative,Congruent,,,,,0,0,0,0,,,,,,,,,,,,,,,,,,,,,,,,,,,,,0,14,14,14,,,,,,,,,,,,,,,,,,,,,,,,,,,,,,,,,,,,,,,,,,,,,,,,,,,,,,,,,,,,,,,,,2,0.9614313000001857,653.0467330000001,None,ScrollUp,정답입니다,653.0467330000001,None,653.0467330000001,None,653.0467330000001,None,653.0467330000001,None,653.8668733,None,653.8668733,654.3669014000002,,,,,,,,,,,,,,,,228,2022-06-03_14h19.18.976,FishGame,2022.1.1,60.0233610921081,
,16,넌 똑똑해,2,Orange,B,5.666666666666667,3.966666666666667,ScrollUp,ScrollDown,Orange.png,5,Positive,Incongruent,,,,,0,0,0,0,,,,,,,,,,,,,,,,,,,,,,,,,,,,,0,15,15,15,,,,,,,,,,,,,,,,,,,,,,,,,,,,,,,,,,,,,,,,,,,,,,,,,,,,,,,,,,,,,,,,,2,0.9668711999997868,655.0275455000001,None,ScrollUp,정답입니다,655.0275455000001,None,655.0275455000001,None,655.0275455000001,None,655.0275455000001,None,655.8555191,None,655.8555191,656.3665934999999,,,,,,,,,,,,,,,,228,2022-06-03_14h19.18.976,FishGame,2022.1.1,60.0233610921081,
,17,나를 보내줘,6,Green,A,0,0,ScrollUp,ScrollDown,Green.png,5,NonTarget,NonTarget,,,,,0,0,0,0,,,,,,,,,,,,,,,,,,,,,,,,,,,,,0,16,16,16,,,,,,,,,,,,,,,,,,,,,,,,,,,,,,,,,,,,,,,,,,,,,,,,,,,,,,,,,,,,,,,,,1.9891975224018097,1.0393687999999202,657.0118623000003,None,ScrollUp,정답입니다,657.0118623000003,None,657.0118623000003,None,657.0118623000003,None,657.0118623000003,None,657.9267708000002,None,657.9267708000002,658.4332020000002,,,,,,,,,,,,,,,,228,2022-06-03_14h19.18.976,FishGame,2022.1.1,60.0233610921081,
,18,넌 협조적이야,1,Green,A,5.625,5.666666666666667,ScrollDown,ScrollUp,Green.png,5,Positive,Congruent,,,,,0,0,0,0,,,,,,,,,,,,,,,,,,,,,,,,,,,,,0,17,17,17,,,,,,,,,,,,,,,,,,,,,,,,,,,,,,,,,,,,,,,,,,,,,,,,,,,,,,,,,,,,,,,,,1.040123442808787,0.9811012000000119,659.0768171,None,ScrollDown,정답입니다,659.0768171,None,659.0768171,None,659.0768171,None,659.0768171,None,659.9377534,None,659.9377534,660.4496214000001,,,,,,,,,,,,,,,,228,2022-06-03_14h19.18.976,FishGame,2022.1.1,60.0233610921081,
,19,나를 데려가줘,6,Orange,B,0,0,ScrollDown,ScrollUp,Orange.png,5,NonTarget,NonTarget,,,,,0,0,0,0,,,,,,,,,,,,,,,,,,,,,,,,,,,,,0,18,18,18,,,,,,,,,,,,,,,,,,,,,,,,,,,,,,,,,,,,,,,,,,,,,,,,,,,,,,,,,,,,,,,,,1.0787036915620167,0.9513366000001042,661.0938173,None,ScrollDown,정답입니다,661.0938173,None,661.0938173,None,661.0938173,None,661.0938173,None,661.9222912,None,661.9222912,662.4325315000001,,,,,,,,,,,,,,,,228,2022-06-03_14h19.18.976,FishGame,2022.1.1,60.0233610921081,
,20,넌 몰인정해,5,Orange,B,2.541666666666667,2.066666666666667,ScrollUp,ScrollDown,Orange.png,5,Negative,Congruent,,,,,0,0,0,0,,,,,,,,,,,,,,,,,,,,,,,,,,,,,0,19,19,19,,,,,,,,,,,,,,,,,,,,,,,,,,,,,,,,,,,,,,,,,,,,,,,,,,,,,,,,,,,,,,,,,2,0.9653791999999157,663.0896557000001,None,ScrollUp,정답입니다,663.0896557000001,None,663.0896557000001,None,663.0896557000001,None,663.0896557000001,None,663.9195276999999,None,663.9195276999999,664.4324111999999,,,,,,,,,,,,,,,,228,2022-06-03_14h19.18.976,FishGame,2022.1.1,60.0233610921081,
,21,나를 데려가줘,6,Orange,B,0,0,ScrollDown,ScrollUp,Orange.png,5,NonTarget,NonTarget,,,,,0,0,0,0,,,,,,,,,,,,,,,,,,,,,,,,,,,,,0,20,20,20,,,,,,,,,,,,,,,,,,,,,,,,,,,,,,,,,,,,,,,,,,,,,,,,,,,,,,,,,,,,,,,,,1,1.0345149999998284,665.0875388,None,ScrollDown,정답입니다,665.0875388,None,665.0875388,None,665.0875388,None,665.0875388,None,665.9875366000001,None,665.9875366000001,666.4987553999999,,,,,,,,,,,,,,,,228,2022-06-03_14h19.18.976,FishGame,2022.1.1,60.0233610921081,
,22,넌 순진해,3,Orange,B,4.125,4.166666666666667,ScrollUp,ScrollDown,Orange.png,5,Neutral,Neutral,,,,,0,0,0,0,,,,,,,,,,,,,,,,,,,,,,,,,,,,,0,21,21,21,,,,,,,,,,,,,,,,,,,,,,,,,,,,,,,,,,,,,,,,,,,,,,,,,,,,,,,,,,,,,,,,,1.9783950746059418,0.865921900000103,667.1540648,None,ScrollUp,정답입니다,667.1540648,None,667.1540648,None,667.1540648,None,667.1540648,None,667.8865765999999,None,667.8865765999999,668.3985035000001,,,,,,,,,,,,,,,,228,2022-06-03_14h19.18.976,FishGame,2022.1.1,60.0233610921081,
,23,넌 신뢰할만해,1,Green,A,6.625,5.533333333333333,ScrollDown,ScrollUp,Green.png,5,Positive,Congruent,,,,,0,0,0,0,,,,,,,,,,,,,,,,,,,,,,,,,,,,,0,22,22,22,,,,,,,,,,,,,,,,,,,,,,,,,,,,,,,,,,,,,,,,,,,,,,,,,,,,,,,,,,,,,,,,,1,1.0133981999997559,669.0581413,None,ScrollDown,정답입니다,669.0581413,None,669.0581413,None,669.0581413,None,669.0581413,None,669.9335865000003,None,669.9335865000003,670.4482118999999,,,,,,,,,,,,,,,,228,2022-06-03_14h19.18.976,FishGame,2022.1.1,60.0233610921081,
,24,나를 보내줘,6,Green,A,0,0,ScrollUp,ScrollDown,Green.png,5,NonTarget,NonTarget,,,,,0,0,0,0,,,,,,,,,,,,,,,,,,,,,,,,,,,,,0,23,23,23,,,,,,,,,,,,,,,,,,,,,,,,,,,,,,,,,,,,,,,,,,,,,,,,,,,,,,,,,,,,,,,,,2,1.0011324000001878,671.0931192000003,None,ScrollUp,정답입니다,671.0931192000003,None,671.0931192000003,None,671.0931192000003,None,671.0931192000003,None,671.9703865000001,None,671.9703865000001,672.4812531000002,,,,,,,,,,,,,,,,228,2022-06-03_14h19.18.976,FishGame,2022.1.1,60.0233610921081,
,25,넌 인색해,5,Green,A,2.625,2.233333333333333,ScrollDown,ScrollUp,Green.png,5,Negative,Incongruent,,,,,0,0,0,0,,,,,,,,,,,,,,,,,,,,,,,,,,,,,0,24,24,24,,,,,,,,,,,,,,,,,,,,,,,,,,,,,,,,,,,,,,,,,,,,,,,,,,,,,,,,,,,,,,,,,1,1.0710730999999214,673.1339590000002,None,ScrollDown,정답입니다,673.1339590000002,None,673.1339590000002,None,673.1339590000002,None,673.1339590000002,None,674.0736274000001,None,674.0736274000001,674.5810213,,,,,,,,,,,,,,,,228,2022-06-03_14h19.18.976,FishGame,2022.1.1,60.0233610921081,
,26,넌 유쾌해,1,Orange,B,5.833333333333333,5.766666666666667,ScrollUp,ScrollDown,Orange.png,5,Positive,Incongruent,,,,,0,0,0,0,,,,,,,,,,,,,,,,,,,,,,,,,,,,,0,25,25,25,,,,,,,,,,,,,,,,,,,,,,,,,,,,,,,,,,,,,,,,,,,,,,,,,,,,,,,,,,,,,,,,,2,0.9303148000003603,675.2339615999999,None,ScrollUp,정답입니다,675.2339615999999,None,675.2339615999999,None,675.2339615999999,None,675.2339615999999,None,676.0339872,None,676.0339872,676.5474396,,,,,,,,,,,,,,,,228,2022-06-03_14h19.18.976,FishGame,2022.1.1,60.0233610921081,
