name,TrialNum,Word,WordCategory,FishType,WordList,WordValence,WordReputation,CorrectResp,IncorrectResp,FishTypeFile,Round,WordType,Condition,LoopforOrange.thisRepN,LoopforOrange.thisTrialN,LoopforOrange.thisN,LoopforOrange.thisIndex,OrangeInstLoop.thisRepN,OrangeInstLoop.thisTrialN,OrangeInstLoop.thisN,OrangeInstLoop.thisIndex,OrangePrac.thisRepN,OrangePrac.thisTrialN,OrangePrac.thisN,OrangePrac.thisIndex,temp1.thisRepN,temp1.thisTrialN,temp1.thisN,temp1.thisIndex,OrangeRound1.thisRepN,OrangeRound1.thisTrialN,OrangeRound1.thisN,OrangeRound1.thisIndex,OrangeRound2.thisRepN,OrangeRound2.thisTrialN,OrangeRound2.thisN,OrangeRound2.thisIndex,OrangeRound3.thisRepN,OrangeRound3.thisTrialN,OrangeRound3.thisN,OrangeRound3.thisIndex,OrangeRound4.thisRepN,OrangeRound4.thisTrialN,OrangeRound4.thisN,OrangeRound4.thisIndex,OrangeRound5.thisRepN,OrangeRound5.thisTrialN,OrangeRound5.thisN,OrangeRound5.thisIndex,LoopForGreen.thisRepN,LoopForGreen.thisTrialN,LoopForGreen.thisN,LoopForGreen.thisIndex,text_2.started,text_2.stopped,text_3.started,text_3.stopped,key_resp.keys,key_resp.rt,key_resp.started,key_resp.stopped,PassI_2.started,PassI_2.stopped,PassInst_2.keys,PassInst_2.rt,PassInst_2.started,PassInst_2.stopped,mouse_2.x,mouse_2.y,mouse_2.leftButton,mouse_2.midButton,mouse_2.rightButton,mouse_2.started,mouse_2.stopped,image.started,image.stopped,text_5.started,text_5.stopped,text_6.started,text_6.stopped,text_7.started,text_7.stopped,text_8.started,text_8.stopped,slider_2.response,slider_2.rt,slider_2.started,slider_2.stopped,Response_2,Feedback_2,BackGround_2.started,BackGround_2.stopped,Fish_2.started,Fish_2.stopped,WordBox_2.started,WordBox_2.stopped,Words_2.started,Words_2.stopped,BackGround_Feedback_2.started,BackGround_Feedback_2.stopped,Feedbacks_2.started,Feedbacks_2.stopped,Continue_or_not.keys,Continue_or_not.rt,Continue_or_not.started,Continue_or_not.stopped,image_3.started,image_3.stopped,mouse_3.x,mouse_3.y,mouse_3.leftButton,mouse_3.midButton,mouse_3.rightButton,mouse_3.started,mouse_3.stopped,startmain.started,startmain.stopped,slider.response,slider.rt,slider.started,slider.stopped,Response,Feedback,BackGround.started,BackGround.stopped,Fish.started,Fish.stopped,WordBox.started,WordBox.stopped,Words.started,Words.stopped,BackGround_Feedback.started,BackGround_Feedback.stopped,Feedbacks.started,Feedbacks.stopped,text.started,text.stopped,break_interval.started,break_interval.stopped,mouse.x,mouse.y,mouse.leftButton,mouse.midButton,mouse.rightButton,mouse.started,mouse.stopped,stratnextround.started,stratnextround.stopped,endgame.started,endgame.stopped,participant,date,expName,psychopyVersion,frameRate,
,,,,,,,,,,,,,,,,,,,,,,,,,,,,,,,,,,,,,,,,,,,,,,,,,,,,,,32.991965300000174,None,32.991965300000174,None,space,5.676477399999385,33.471386800000346,None,,,,,,,,,,,,,,,,,,,,,,,,,,,,,,,,,,,,,,,,,,,,,,,,,,,,,,,,,,,,,,,,,,,,,,,,,,,,,,,,,,,,,,,,,,229,2022-06-03_14h08.37.896,FishGame,2022.1.1,59.84587293873421,
물고기과제_instruction(참가자용)OrangeVersion.mp4,,,,,,,,,,,,,,0,0,0,0,0,0,0,0,,,,,,,,,,,,,,,,,,,,,,,,,,,,,,,,,,,,,,,,,106.43772690000014,None,n,5.455397799999446,106.43772690000014,None,,,,,,,,,,,,,,,,,,,,,,,,,,,,,,,,,,,,,,,,,,,,,,,,,,,,,,,,,,,,,,,,,,,,,,,,,,,,,,,,,,,,229,2022-06-03_14h08.37.896,FishGame,2022.1.1,59.84587293873421,
,1,넌 교활해,5,Green,B,2.333333333333333,2.133333333333333,ScrollUp,ScrollDown,Green.png,practice,,,0,0,0,0,,,,,0,0,0,0,0,0,0,0,,,,,,,,,,,,,,,,,,,,,,,,,,,,,,,,,,,,,,,0.0129629625,-0.21851853,1,0,0,0.5130206600001657,None,111.91881869999997,None,114.98418530000026,116.48341100000016,116.51684330000035,117.46652300000005,117.51612810000006,118.46619740000006,118.46619740000006,None,1.6620370397965112,2.584062299999914,119.74403230000007,None,ScrollUp,정답입니다,119.74403230000007,None,119.74403230000007,None,119.74403230000007,None,119.74403230000007,None,122.06201710000005,None,122.06201710000005,122.56385660000024,,,,,,,,,,,,,,,,,,,,,,,,,,,,,,,,,,,,,,,,,,,,,,,,,229,2022-06-03_14h08.37.896,FishGame,2022.1.1,59.84587293873421,
,2,넌 슬기로워,2,Orange,A,6.166666666666667,4.1,ScrollDown,ScrollUp,Orange.png,practice,,,0,0,0,0,,,,,0,0,0,0,0,1,1,1,,,,,,,,,,,,,,,,,,,,,,,,,,,,,,,,,,,,,,,,,,,,,,,,,,,,,,,,1.7839506169160206,1.1342541999997593,123.23375970000006,None,ScrollUp,오답입니다,123.23375970000006,None,123.23375970000006,None,123.23375970000006,None,123.23375970000006,None,124.22918870000012,None,124.22918870000012,124.72977880000008,,,,,,,,,,,,,,,,,,,,,,,,,,,,,,,,,,,,,,,,,,,,,,,,,229,2022-06-03_14h08.37.896,FishGame,2022.1.1,59.84587293873421,
,3,나를 보내줘,6,Orange,A,0,0,ScrollUp,ScrollDown,Orange.png,practice,,,0,0,0,0,,,,,0,0,0,0,0,2,2,2,,,,,,,,,,,,,,,,,,,,,,,,,,,,,,,,,,,,,,,,,,,,,,,,,,,,,,,,1.733024681607882,1.468786800000089,125.39350030000014,None,ScrollUp,정답입니다,125.39350030000014,None,125.39350030000014,None,125.39350030000014,None,125.39350030000014,None,126.72298560000036,None,126.72298560000036,127.22857180000028,,,,,,,,,,,,,,,,,,,,,,,,,,,,,,,,,,,,,,,,,,,,,,,,,229,2022-06-03_14h08.37.896,FishGame,2022.1.1,59.84587293873421,
,4,나를 데려가줘,6,Green,B,0,0,ScrollDown,ScrollUp,Green.png,practice,,,0,0,0,0,,,,,0,0,0,0,0,3,3,3,,,,,,,,,,,,,,,,,,,,,,,,,,,,,,,,,,,,,,,,,,,,,,,,,,,,,,,,1.2037036965290706,1.393773499999952,127.88224430000037,None,ScrollDown,정답입니다,127.88224430000037,None,127.88224430000037,None,127.88224430000037,None,127.88224430000037,None,129.1444265,None,129.1444265,129.64397850000023,,,,,,,,,,,,,,,,,,,,,,,,,,,,,,,,,,,,,,,,,,,,,,,,,229,2022-06-03_14h08.37.896,FishGame,2022.1.1,59.84587293873421,
,1,넌 교활해,5,Green,B,2.333333333333333,2.133333333333333,ScrollUp,ScrollDown,Green.png,practice,,,0,0,0,0,,,,,0,0,0,0,,,,,,,,,,,,,,,,,,,,,,,,,,,,,,,,,,,,,,,,,,,,,,,,,,,,,,,,,,,,,,,,,,,,,,,,,,,,,,y,6.548716700000114,130.144178,None,130.144178,None,,,,,,,,,,,,,,,,,,,,,,,,,,,,,,,,,,,,,,,,,,,229,2022-06-03_14h08.37.896,FishGame,2022.1.1,59.84587293873421,
,1,넌 교활해,5,Green,B,2.333333333333333,2.133333333333333,ScrollUp,ScrollDown,Green.png,practice,,,0,0,0,0,,,,,0,1,1,1,0,0,0,0,,,,,,,,,,,,,,,,,,,,,,,,,,,,,,,,,,,,,,,,,,,,,,,,,,,,,,,,1.4722222207734983,1.425761599999987,136.90610920000017,None,NoResponse,무응답입니다,136.90610920000017,None,136.90610920000017,None,136.90610920000017,None,136.90610920000017,None,138.2016878000004,None,138.2016878000004,138.70652840000002,,,,,,,,,,,,,,,,,,,,,,,,,,,,,,,,,,,,,,,,,,,,,,,,,229,2022-06-03_14h08.37.896,FishGame,2022.1.1,59.84587293873421,
,2,넌 슬기로워,2,Orange,A,6.166666666666667,4.1,ScrollDown,ScrollUp,Orange.png,practice,,,0,0,0,0,,,,,0,1,1,1,0,1,1,1,,,,,,,,,,,,,,,,,,,,,,,,,,,,,,,,,,,,,,,,,,,,,,,,,,,,,,,,1,1.5438467000003584,139.3718076,None,ScrollDown,정답입니다,139.3718076,None,139.3718076,None,139.3718076,None,139.3718076,None,140.77695810000023,None,140.77695810000023,141.28869290000011,,,,,,,,,,,,,,,,,,,,,,,,,,,,,,,,,,,,,,,,,,,,,,,,,229,2022-06-03_14h08.37.896,FishGame,2022.1.1,59.84587293873421,
,3,나를 보내줘,6,Orange,A,0,0,ScrollUp,ScrollDown,Orange.png,practice,,,0,0,0,0,,,,,0,1,1,1,0,2,2,2,,,,,,,,,,,,,,,,,,,,,,,,,,,,,,,,,,,,,,,,,,,,,,,,,,,,,,,,1.9537037014961243,1.3393998000001375,141.9587373000004,None,ScrollUp,정답입니다,141.9587373000004,None,141.9587373000004,None,141.9587373000004,None,141.9587373000004,None,143.15718749999996,None,143.15718749999996,143.67100230000005,,,,,,,,,,,,,,,,,,,,,,,,,,,,,,,,,,,,,,,,,,,,,,,,,229,2022-06-03_14h08.37.896,FishGame,2022.1.1,59.84587293873421,
,4,나를 데려가줘,6,Green,B,0,0,ScrollDown,ScrollUp,Green.png,practice,,,0,0,0,0,,,,,0,1,1,1,0,3,3,3,,,,,,,,,,,,,,,,,,,,,,,,,,,,,,,,,,,,,,,,,,,,,,,,,,,,,,,,1.0061728358268738,1.3040063999997074,144.33422450000035,None,ScrollDown,정답입니다,144.33422450000035,None,144.33422450000035,None,144.33422450000035,None,144.33422450000035,None,145.49817650000023,None,145.49817650000023,146.0032981000004,,,,,,,,,,,,,,,,,,,,,,,,,,,,,,,,,,,,,,,,,,,,,,,,,229,2022-06-03_14h08.37.896,FishGame,2022.1.1,59.84587293873421,
,2,넌 슬기로워,2,Orange,A,6.166666666666667,4.1,ScrollDown,ScrollUp,Orange.png,practice,,,0,0,0,0,,,,,0,1,1,1,,,,,,,,,,,,,,,,,,,,,,,,,,,,,,,,,,,,,,,,,,,,,,,,,,,,,,,,,,,,,,,,,,,,,,,,,,,,,,y,3.4618547999998555,146.5037043000002,None,146.5037043000002,None,,,,,,,,,,,,,,,,,,,,,,,,,,,,,,,,,,,,,,,,,,,229,2022-06-03_14h08.37.896,FishGame,2022.1.1,59.84587293873421,
,1,넌 교활해,5,Green,B,2.333333333333333,2.133333333333333,ScrollUp,ScrollDown,Green.png,practice,,,0,0,0,0,,,,,0,2,2,2,0,0,0,0,,,,,,,,,,,,,,,,,,,,,,,,,,,,,,,,,,,,,,,,,,,,,,,,,,,,,,,,1.9768518606821697,1.6906933999998728,150.1614741000003,None,ScrollUp,정답입니다,150.1614741000003,None,150.1614741000003,None,150.1614741000003,None,150.1614741000003,None,151.71296610000036,None,151.71296610000036,152.2171153000004,,,,,,,,,,,,,,,,,,,,,,,,,,,,,,,,,,,,,,,,,,,,,,,,,229,2022-06-03_14h08.37.896,FishGame,2022.1.1,59.84587293873421,
,2,넌 슬기로워,2,Orange,A,6.166666666666667,4.1,ScrollDown,ScrollUp,Orange.png,practice,,,0,0,0,0,,,,,0,2,2,2,0,1,1,1,,,,,,,,,,,,,,,,,,,,,,,,,,,,,,,,,,,,,,,,,,,,,,,,,,,,,,,,1,0.993971700000202,152.88141270000006,None,ScrollDown,정답입니다,152.88141270000006,None,152.88141270000006,None,152.88141270000006,None,152.88141270000006,None,153.73444830000017,None,153.73444830000017,154.2332282000002,,,,,,,,,,,,,,,,,,,,,,,,,,,,,,,,,,,,,,,,,,,,,,,,,229,2022-06-03_14h08.37.896,FishGame,2022.1.1,59.84587293873421,
,3,나를 보내줘,6,Orange,A,0,0,ScrollUp,ScrollDown,Orange.png,practice,,,0,0,0,0,,,,,0,2,2,2,0,2,2,2,,,,,,,,,,,,,,,,,,,,,,,,,,,,,,,,,,,,,,,,,,,,,,,,,,,,,,,,1.9274691144625347,1.0443476999998893,154.92280670000036,None,ScrollUp,정답입니다,154.92280670000036,None,154.92280670000036,None,154.92280670000036,None,154.92280670000036,None,155.82018310000012,None,155.82018310000012,156.33229210000036,,,,,,,,,,,,,,,,,,,,,,,,,,,,,,,,,,,,,,,,,,,,,,,,,229,2022-06-03_14h08.37.896,FishGame,2022.1.1,59.84587293873421,
,4,나를 데려가줘,6,Green,B,0,0,ScrollDown,ScrollUp,Green.png,practice,,,0,0,0,0,,,,,0,2,2,2,0,3,3,3,,,,,,,,,,,,,,,,,,,,,,,,,,,,,,,,,,,,,,,,,,,,,,,,,,,,,,,,1,1.138514700000087,156.98940420000008,None,ScrollDown,정답입니다,156.98940420000008,None,156.98940420000008,None,156.98940420000008,None,156.98940420000008,None,157.9926620000001,None,157.9926620000001,158.4976313000002,,,,,,,,,,,,,,,,,,,,,,,,,,,,,,,,,,,,,,,,,,,,,,,,,229,2022-06-03_14h08.37.896,FishGame,2022.1.1,59.84587293873421,
,3,나를 보내줘,6,Orange,A,0,0,ScrollUp,ScrollDown,Orange.png,practice,,,0,0,0,0,,,,,0,2,2,2,,,,,,,,,,,,,,,,,,,,,,,,,,,,,,,,,,,,,,,,,,,,,,,,,,,,,,,,,,,,,,,,,,,,,,,,,,,,,,n,2.729196499999489,158.99732010000025,None,158.99732010000025,None,,,,,,,,,,,,,,,,,,,,,,,,,,,,,,,,,,,,,,,,,,,229,2022-06-03_14h08.37.896,FishGame,2022.1.1,59.84587293873421,
,1,넌 따뜻해,1,Green,B,6.083333333333333,5.6,ScrollUp,ScrollDown,Green.png,1,Positive,Incongruent,0,0,0,0,,,,,,,,,,,,,0,0,0,0,,,,,,,,,,,,,,,,,,,,,,,,,,,,,,,,,,,,,,,,,,,,171.0921561,172.60771250000016,172.6243467000004,173.57445890000008,173.6240810000004,174.573672,174.573672,None,,,,,,,,,,,,,,,,,,,,,,,,,0.050925925,-0.14814815,1,0,0,0.31355456000028425,None,161.74596710000014,None,1.7006172885497413,1.351934799999981,175.88985279999997,None,ScrollUp,정답입니다,175.88985279999997,None,175.88985279999997,None,175.88985279999997,None,175.88985279999997,None,176.94280610000033,None,176.94280610000033,177.4558576000004,,,,,,,,,,,,,,,,229,2022-06-03_14h08.37.896,FishGame,2022.1.1,59.84587293873421,
,2,넌 기품있어,2,Green,B,5.791666666666668,4.5,ScrollUp,ScrollDown,Green.png,1,Positive,Incongruent,0,0,0,0,,,,,,,,,,,,,0,1,1,1,,,,,,,,,,,,,,,,,,,,,,,,,,,,,,,,,,,,,,,,,,,,,,,,,,,,,,,,,,,,,,,,,,,,,,,,,,,,,,,,,,,,,1.8148148208856583,1.072290399999929,178.11575540000013,None,ScrollUp,정답입니다,178.11575540000013,None,178.11575540000013,None,178.11575540000013,None,178.11575540000013,None,179.03411170000027,None,179.03411170000027,179.53789730000017,,,,,,,,,,,,,,,,229,2022-06-03_14h08.37.896,FishGame,2022.1.1,59.84587293873421,
,3,나를 보내줘,6,Orange,A,0,0,ScrollUp,ScrollDown,Orange.png,1,NonTarget,NonTarget,0,0,0,0,,,,,,,,,,,,,0,2,2,2,,,,,,,,,,,,,,,,,,,,,,,,,,,,,,,,,,,,,,,,,,,,,,,,,,,,,,,,,,,,,,,,,,,,,,,,,,,,,,,,,,,,,1.8858024626970291,1.199953899999855,180.2219842000004,None,ScrollUp,정답입니다,180.2219842000004,None,180.2219842000004,None,180.2219842000004,None,180.2219842000004,None,181.26079690000006,None,181.26079690000006,181.77041540000027,,,,,,,,,,,,,,,,229,2022-06-03_14h08.37.896,FishGame,2022.1.1,59.84587293873421,
,4,넌 수동적이야,4,Orange,A,2.833333333333333,2.933333333333333,ScrollDown,ScrollUp,Orange.png,1,Negative,Incongruent,0,0,0,0,,,,,,,,,,,,,0,3,3,3,,,,,,,,,,,,,,,,,,,,,,,,,,,,,,,,,,,,,,,,,,,,,,,,,,,,,,,,,,,,,,,,,,,,,,,,,,,,,,,,,,,,,1.2206790000200272,1.2105047999998533,182.45703290000029,None,ScrollDown,정답입니다,182.45703290000029,None,182.45703290000029,None,182.45703290000029,None,182.45703290000029,None,183.50483350000013,None,183.50483350000013,184.01921260000017,,,,,,,,,,,,,,,,229,2022-06-03_14h08.37.896,FishGame,2022.1.1,59.84587293873421,
,5,넌 사심이 없어,3,Green,B,4.916666666666666,4.333333333333333,ScrollUp,ScrollDown,Green.png,1,Neutral,Neutral,0,0,0,0,,,,,,,,,,,,,0,4,4,4,,,,,,,,,,,,,,,,,,,,,,,,,,,,,,,,,,,,,,,,,,,,,,,,,,,,,,,,,,,,,,,,,,,,,,,,,,,,,,,,,,,,,1.4876543212061126,1.103794199999811,184.69431729999997,None,NoResponse,무응답입니다,184.69431729999997,None,184.69431729999997,None,184.69431729999997,None,184.69431729999997,None,185.6551913000003,None,185.6551913000003,186.1683564,,,,,,,,,,,,,,,,229,2022-06-03_14h08.37.896,FishGame,2022.1.1,59.84587293873421,
,6,넌 헤퍼,5,Orange,A,2.458333333333334,2.233333333333333,ScrollDown,ScrollUp,Orange.png,1,Negative,Incongruent,0,0,0,0,,,,,,,,,,,,,0,5,5,5,,,,,,,,,,,,,,,,,,,,,,,,,,,,,,,,,,,,,,,,,,,,,,,,,,,,,,,,,,,,,,,,,,,,,,,,,,,,,,,,,,,,,1,1.2182987000001049,186.85350940000035,None,ScrollDown,정답입니다,186.85350940000035,None,186.85350940000035,None,186.85350940000035,None,186.85350940000035,None,187.91241910000008,None,187.91241910000008,188.41730780000034,,,,,,,,,,,,,,,,229,2022-06-03_14h08.37.896,FishGame,2022.1.1,59.84587293873421,
,7,넌 말쑥해,3,Orange,A,4.833333333333334,4.333333333333333,ScrollDown,ScrollUp,Orange.png,1,Neutral,Neutral,0,0,0,0,,,,,,,,,,,,,0,6,6,6,,,,,,,,,,,,,,,,,,,,,,,,,,,,,,,,,,,,,,,,,,,,,,,,,,,,,,,,,,,,,,,,,,,,,,,,,,,,,,,,,,,,,1,1.0046932000000197,189.09893660000034,None,ScrollDown,정답입니다,189.09893660000034,None,189.09893660000034,None,189.09893660000034,None,189.09893660000034,None,189.94411310000032,None,189.94411310000032,190.4495968000001,,,,,,,,,,,,,,,,229,2022-06-03_14h08.37.896,FishGame,2022.1.1,59.84587293873421,
,8,넌 투덜거려,5,Green,B,2.541666666666667,2.266666666666667,ScrollUp,ScrollDown,Green.png,1,Negative,Congruent,0,0,0,0,,,,,,,,,,,,,0,7,7,7,,,,,,,,,,,,,,,,,,,,,,,,,,,,,,,,,,,,,,,,,,,,,,,,,,,,,,,,,,,,,,,,,,,,,,,,,,,,,,,,,,,,,1.8935185074806213,1.3388417999999547,191.1301599000003,None,ScrollUp,정답입니다,191.1301599000003,None,191.1301599000003,None,191.1301599000003,None,191.1301599000003,None,192.31087340000022,None,192.31087340000022,192.81515820000004,,,,,,,,,,,,,,,,229,2022-06-03_14h08.37.896,FishGame,2022.1.1,59.84587293873421,
,9,넌 적극적이야,1,Orange,A,5.708333333333333,5.533333333333333,ScrollDown,ScrollUp,Orange.png,1,Positive,Congruent,0,0,0,0,,,,,,,,,,,,,0,8,8,8,,,,,,,,,,,,,,,,,,,,,,,,,,,,,,,,,,,,,,,,,,,,,,,,,,,,,,,,,,,,,,,,,,,,,,,,,,,,,,,,,,,,,1.2515432039896646,0.9380858999998054,193.4926101000001,None,ScrollDown,정답입니다,193.4926101000001,None,193.4926101000001,None,193.4926101000001,None,193.4926101000001,None,194.27672600000005,None,194.27672600000005,194.78097350000007,,,,,,,,,,,,,,,,229,2022-06-03_14h08.37.896,FishGame,2022.1.1,59.84587293873421,
,10,넌 재미없어,4,Green,B,2.625,2.966666666666667,ScrollUp,ScrollDown,Green.png,1,Negative,Congruent,0,0,0,0,,,,,,,,,,,,,0,9,9,9,,,,,,,,,,,,,,,,,,,,,,,,,,,,,,,,,,,,,,,,,,,,,,,,,,,,,,,,,,,,,,,,,,,,,,,,,,,,,,,,,,,,,1.6280864203969636,0.9588125000000218,195.45769420000033,None,ScrollUp,정답입니다,195.45769420000033,None,195.45769420000033,None,195.45769420000033,None,195.45769420000033,None,196.26394200000004,None,196.26394200000004,196.76349930000015,,,,,,,,,,,,,,,,229,2022-06-03_14h08.37.896,FishGame,2022.1.1,59.84587293873421,
,11,넌 명석해,2,Orange,A,5.875,4.033333333333333,ScrollDown,ScrollUp,Orange.png,1,Positive,Congruent,0,0,0,0,,,,,,,,,,,,,0,10,10,10,,,,,,,,,,,,,,,,,,,,,,,,,,,,,,,,,,,,,,,,,,,,,,,,,,,,,,,,,,,,,,,,,,,,,,,,,,,,,,,,,,,,,1,1.209468200000174,197.43604460000006,None,ScrollDown,정답입니다,197.43604460000006,None,197.43604460000006,None,197.43604460000006,None,197.43604460000006,None,198.49792460000026,None,198.49792460000026,199.01245870000002,,,,,,,,,,,,,,,,229,2022-06-03_14h08.37.896,FishGame,2022.1.1,59.84587293873421,
,12,나를 데려가줘,6,Green,B,0,0,ScrollDown,ScrollUp,Green.png,1,NonTarget,NonTarget,0,0,0,0,,,,,,,,,,,,,0,11,11,11,,,,,,,,,,,,,,,,,,,,,,,,,,,,,,,,,,,,,,,,,,,,,,,,,,,,,,,,,,,,,,,,,,,,,,,,,,,,,,,,,,,,,1,1.0627273999998579,199.70014149999997,None,ScrollDown,정답입니다,199.70014149999997,None,199.70014149999997,None,199.70014149999997,None,199.70014149999997,None,200.5970182000001,None,200.5970182000001,201.11155300000019,,,,,,,,,,,,,,,,229,2022-06-03_14h08.37.896,FishGame,2022.1.1,59.84587293873421,
,13,넌 소심해,4,Orange,A,3,3.1,ScrollDown,ScrollUp,Orange.png,1,Negative,Incongruent,0,0,0,0,,,,,,,,,,,,,0,12,12,12,,,,,,,,,,,,,,,,,,,,,,,,,,,,,,,,,,,,,,,,,,,,,,,,,,,,,,,,,,,,,,,,,,,,,,,,,,,,,,,,,,,,,1,1.031818899999962,201.7924076000004,None,ScrollDown,정답입니다,201.7924076000004,None,201.7924076000004,None,201.7924076000004,None,201.7924076000004,None,202.6688481000001,None,202.6688481000001,203.17712830000028,,,,,,,,,,,,,,,,229,2022-06-03_14h08.37.896,FishGame,2022.1.1,59.84587293873421,
,14,넌 합리적이야,2,Orange,A,5.583333333333333,4.733333333333333,ScrollDown,ScrollUp,Orange.png,1,Positive,Congruent,0,0,0,0,,,,,,,,,,,,,0,13,13,13,,,,,,,,,,,,,,,,,,,,,,,,,,,,,,,,,,,,,,,,,,,,,,,,,,,,,,,,,,,,,,,,,,,,,,,,,,,,,,,,,,,,,1.0462962985038757,0.9624567999999272,203.85344320000013,None,ScrollDown,정답입니다,203.85344320000013,None,203.85344320000013,None,203.85344320000013,None,203.85344320000013,None,204.6634898000002,None,204.6634898000002,205.17621980000013,,,,,,,,,,,,,,,,229,2022-06-03_14h08.37.896,FishGame,2022.1.1,59.84587293873421,
,15,넌 무자비해,5,Green,B,2.333333333333333,2.1,ScrollUp,ScrollDown,Green.png,1,Negative,Congruent,0,0,0,0,,,,,,,,,,,,,0,14,14,14,,,,,,,,,,,,,,,,,,,,,,,,,,,,,,,,,,,,,,,,,,,,,,,,,,,,,,,,,,,,,,,,,,,,,,,,,,,,,,,,,,,,,1.8672839452823002,0.9610507999996116,205.85045050000008,None,ScrollUp,정답입니다,205.85045050000008,None,205.85045050000008,None,205.85045050000008,None,205.85045050000008,None,206.6603169,None,206.6603169,207.1752534000002,,,,,,,,,,,,,,,,229,2022-06-03_14h08.37.896,FishGame,2022.1.1,59.84587293873421,
,16,나를 보내줘,6,Orange,A,0,0,ScrollUp,ScrollDown,Orange.png,1,NonTarget,NonTarget,0,0,0,0,,,,,,,,,,,,,0,15,15,15,,,,,,,,,,,,,,,,,,,,,,,,,,,,,,,,,,,,,,,,,,,,,,,,,,,,,,,,,,,,,,,,,,,,,,,,,,,,,,,,,,,,,1.9166666666666667,1.215264400000251,207.84900749999997,None,ScrollUp,정답입니다,207.84900749999997,None,207.84900749999997,None,207.84900749999997,None,207.84900749999997,None,208.91736590000028,None,208.91736590000028,209.42432830000007,,,,,,,,,,,,,,,,229,2022-06-03_14h08.37.896,FishGame,2022.1.1,59.84587293873421,
,17,넌 현실적이야,3,Green,B,4.608695652173913,4.766666666666667,ScrollUp,ScrollDown,Green.png,1,Neutral,Neutral,0,0,0,0,,,,,,,,,,,,,0,16,16,16,,,,,,,,,,,,,,,,,,,,,,,,,,,,,,,,,,,,,,,,,,,,,,,,,,,,,,,,,,,,,,,,,,,,,,,,,,,,,,,,,,,,,1.9537037014961243,2.143682500000068,210.09408140000005,None,ScrollUp,정답입니다,210.09408140000005,None,210.09408140000005,None,210.09408140000005,None,210.09408140000005,None,212.0920103000003,None,212.0920103000003,212.60640020000028,,,,,,,,,,,,,,,,229,2022-06-03_14h08.37.896,FishGame,2022.1.1,59.84587293873421,
,18,넌 의리있어,1,Green,B,5.833333333333334,5.633333333333334,ScrollUp,ScrollDown,Green.png,1,Positive,Incongruent,0,0,0,0,,,,,,,,,,,,,0,17,17,17,,,,,,,,,,,,,,,,,,,,,,,,,,,,,,,,,,,,,,,,,,,,,,,,,,,,,,,,,,,,,,,,,,,,,,,,,,,,,,,,,,,,,1.9243827362855275,1.0341223000000355,213.27203670000017,None,ScrollUp,정답입니다,213.27203670000017,None,213.27203670000017,None,213.27203670000017,None,213.27203670000017,None,214.16789610000023,None,214.16789610000023,214.67203550000022,,,,,,,,,,,,,,,,229,2022-06-03_14h08.37.896,FishGame,2022.1.1,59.84587293873421,
,19,넌 신경과민이야,5,Orange,A,2.541666666666667,2.166666666666667,ScrollDown,ScrollUp,Orange.png,1,Negative,Incongruent,0,0,0,0,,,,,,,,,,,,,0,18,18,18,,,,,,,,,,,,,,,,,,,,,,,,,,,,,,,,,,,,,,,,,,,,,,,,,,,,,,,,,,,,,,,,,,,,,,,,,,,,,,,,,,,,,1,1.0276292000003195,215.3510325000002,None,ScrollDown,정답입니다,215.3510325000002,None,215.3510325000002,None,215.3510325000002,None,215.3510325000002,None,216.2236372000002,None,216.2236372000002,216.73802980000028,,,,,,,,,,,,,,,,229,2022-06-03_14h08.37.896,FishGame,2022.1.1,59.84587293873421,
,20,넌 편안해,1,Orange,A,5.916666666666666,5.866666666666666,ScrollDown,ScrollUp,Orange.png,1,Positive,Congruent,0,0,0,0,,,,,,,,,,,,,0,19,19,19,,,,,,,,,,,,,,,,,,,,,,,,,,,,,,,,,,,,,,,,,,,,,,,,,,,,,,,,,,,,,,,,,,,,,,,,,,,,,,,,,,,,,1,0.950083000000177,217.4188154000003,None,ScrollDown,정답입니다,217.4188154000003,None,217.4188154000003,None,217.4188154000003,None,217.4188154000003,None,218.2137571000003,None,218.2137571000003,218.72009460000027,,,,,,,,,,,,,,,,229,2022-06-03_14h08.37.896,FishGame,2022.1.1,59.84587293873421,
,21,넌 품위있어,2,Green,B,5.291666666666666,4.466666666666667,ScrollUp,ScrollDown,Green.png,1,Positive,Incongruent,0,0,0,0,,,,,,,,,,,,,0,20,20,20,,,,,,,,,,,,,,,,,,,,,,,,,,,,,,,,,,,,,,,,,,,,,,,,,,,,,,,,,,,,,,,,,,,,,,,,,,,,,,,,,,,,,2,1.0189862000001995,219.39628500000026,None,ScrollUp,정답입니다,219.39628500000026,None,219.39628500000026,None,219.39628500000026,None,219.39628500000026,None,220.26270270000032,None,220.26270270000032,220.76906290000034,,,,,,,,,,,,,,,,229,2022-06-03_14h08.37.896,FishGame,2022.1.1,59.84587293873421,
,22,넌 빈틈없어,3,Orange,A,4.833333333333333,3.966666666666667,ScrollDown,ScrollUp,Orange.png,1,Neutral,Neutral,0,0,0,0,,,,,,,,,,,,,0,21,21,21,,,,,,,,,,,,,,,,,,,,,,,,,,,,,,,,,,,,,,,,,,,,,,,,,,,,,,,,,,,,,,,,,,,,,,,,,,,,,,,,,,,,,1,0.9002413000002889,221.44677900000033,None,ScrollDown,정답입니다,221.44677900000033,None,221.44677900000033,None,221.44677900000033,None,221.44677900000033,None,222.1958178,None,222.1958178,222.70175450000033,,,,,,,,,,,,,,,,229,2022-06-03_14h08.37.896,FishGame,2022.1.1,59.84587293873421,
,23,넌 상상력없어,4,Green,B,2.833333333333333,3.133333333333333,ScrollUp,ScrollDown,Green.png,1,Negative,Congruent,0,0,0,0,,,,,,,,,,,,,0,22,22,22,,,,,,,,,,,,,,,,,,,,,,,,,,,,,,,,,,,,,,,,,,,,,,,,,,,,,,,,,,,,,,,,,,,,,,,,,,,,,,,,,,,,,1.9459876318772633,1.0771797000002152,223.37162680000029,None,ScrollUp,정답입니다,223.37162680000029,None,223.37162680000029,None,223.37162680000029,None,223.37162680000029,None,224.3067758000002,None,224.3067758000002,224.81728520000024,,,,,,,,,,,,,,,,229,2022-06-03_14h08.37.896,FishGame,2022.1.1,59.84587293873421,
,24,넌 지혜로워,2,Green,B,6.333333333333334,4.633333333333334,ScrollUp,ScrollDown,Green.png,1,Positive,Incongruent,0,0,0,0,,,,,,,,,,,,,0,23,23,23,,,,,,,,,,,,,,,,,,,,,,,,,,,,,,,,,,,,,,,,,,,,,,,,,,,,,,,,,,,,,,,,,,,,,,,,,,,,,,,,,,,,,1.9768518606821697,1.056485000000066,225.49349370000027,None,ScrollUp,정답입니다,225.49349370000027,None,225.49349370000027,None,225.49349370000027,None,225.49349370000027,None,226.39998690000039,None,226.39998690000039,226.89955370000007,,,,,,,,,,,,,,,,229,2022-06-03_14h08.37.896,FishGame,2022.1.1,59.84587293873421,
,25,넌 시끄러워,4,Orange,A,2.833333333333333,3.033333333333333,ScrollDown,ScrollUp,Orange.png,1,Negative,Incongruent,0,0,0,0,,,,,,,,,,,,,0,24,24,24,,,,,,,,,,,,,,,,,,,,,,,,,,,,,,,,,,,,,,,,,,,,,,,,,,,,,,,,,,,,,,,,,,,,,,,,,,,,,,,,,,,,,1,0.9346632000001591,227.57760940000026,None,ScrollDown,정답입니다,227.57760940000026,None,227.57760940000026,None,227.57760940000026,None,227.57760940000026,None,228.3576280000002,None,228.3576280000002,228.8654335000001,,,,,,,,,,,,,,,,229,2022-06-03_14h08.37.896,FishGame,2022.1.1,59.84587293873421,
,26,넌 만사태평이야,3,Green,B,4,4.333333333333333,ScrollUp,ScrollDown,Green.png,1,Neutral,Neutral,0,0,0,0,,,,,,,,,,,,,0,25,25,25,,,,,,,,,,,,,,,,,,,,,,,,,,,,,,,,,,,,,,,,,,,,,,,,,,,,,,,,,,,,,,,,,,,,,,,,,,,,,,,,,,,,,1.9969135920206706,0.9689595999998346,229.53794070000004,None,ScrollUp,정답입니다,229.53794070000004,None,229.53794070000004,None,229.53794070000004,None,229.53794070000004,None,230.3572049000004,None,230.3572049000004,230.86445920000006,,,,,,,,,,,,,,,,229,2022-06-03_14h08.37.896,FishGame,2022.1.1,59.84587293873421,
,27,넌 붙임성있어,1,Orange,A,5.708333333333333,5.633333333333334,ScrollDown,ScrollUp,Orange.png,1,Positive,Congruent,0,0,0,0,,,,,,,,,,,,,0,26,26,26,,,,,,,,,,,,,,,,,,,,,,,,,,,,,,,,,,,,,,,,,,,,,,,,,,,,,,,,,,,,,,,,,,,,,,,,,,,,,,,,,,,,,1,1.0081191999997827,231.55429080000022,None,ScrollDown,정답입니다,231.55429080000022,None,231.55429080000022,None,231.55429080000022,None,231.55429080000022,None,232.39676110000028,None,232.39676110000028,232.89698590000035,,,,,,,,,,,,,,,,229,2022-06-03_14h08.37.896,FishGame,2022.1.1,59.84587293873421,
,28,넌 영리해,2,Orange,A,6,4.033333333333333,ScrollDown,ScrollUp,Orange.png,1,Positive,Congruent,0,0,0,0,,,,,,,,,,,,,0,27,27,27,,,,,,,,,,,,,,,,,,,,,,,,,,,,,,,,,,,,,,,,,,,,,,,,,,,,,,,,,,,,,,,,,,,,,,,,,,,,,,,,,,,,,1.0540123681227367,0.9010315000000446,233.5686582000003,None,ScrollDown,정답입니다,233.5686582000003,None,233.5686582000003,None,233.5686582000003,None,233.5686582000003,None,234.32052000000022,None,234.32052000000022,234.82957920000035,,,,,,,,,,,,,,,,229,2022-06-03_14h08.37.896,FishGame,2022.1.1,59.84587293873421,
,29,넌 열심이야,1,Green,B,6.041666666666667,5.833333333333333,ScrollUp,ScrollDown,Green.png,1,Positive,Incongruent,0,0,0,0,,,,,,,,,,,,,0,28,28,28,,,,,,,,,,,,,,,,,,,,,,,,,,,,,,,,,,,,,,,,,,,,,,,,,,,,,,,,,,,,,,,,,,,,,,,,,,,,,,,,,,,,,1.9691357910633087,0.9942229999996925,235.4924621,None,ScrollUp,정답입니다,235.4924621,None,235.4924621,None,235.4924621,None,235.4924621,None,236.34574350000003,None,236.34574350000003,236.84530630000017,,,,,,,,,,,,,,,,229,2022-06-03_14h08.37.896,FishGame,2022.1.1,59.84587293873421,
,30,넌 인기없어,4,Green,B,3,3.3,ScrollUp,ScrollDown,Green.png,1,Negative,Congruent,0,0,0,0,,,,,,,,,,,,,0,29,29,29,,,,,,,,,,,,,,,,,,,,,,,,,,,,,,,,,,,,,,,,,,,,,,,,,,,,,,,,,,,,,,,,,,,,,,,,,,,,,,,,,,,,,1.9506172736485798,0.9933565999999701,237.5092394000003,None,ScrollUp,정답입니다,237.5092394000003,None,237.5092394000003,None,237.5092394000003,None,237.5092394000003,None,238.36116300000003,None,238.36116300000003,238.86093879999999,,,,,,,,,,,,,,,,229,2022-06-03_14h08.37.896,FishGame,2022.1.1,59.84587293873421,
,31,넌 익살스러워,3,Orange,A,4.708333333333334,4.833333333333333,ScrollDown,ScrollUp,Orange.png,1,Neutral,Neutral,0,0,0,0,,,,,,,,,,,,,0,30,30,30,,,,,,,,,,,,,,,,,,,,,,,,,,,,,,,,,,,,,,,,,,,,,,,,,,,,,,,,,,,,,,,,,,,,,,,,,,,,,,,,,,,,,1,0.9767424000001483,239.53587640000023,None,ScrollDown,정답입니다,239.53587640000023,None,239.53587640000023,None,239.53587640000023,None,239.53587640000023,None,240.36297170000034,None,240.36297170000034,240.8767452000002,,,,,,,,,,,,,,,,229,2022-06-03_14h08.37.896,FishGame,2022.1.1,59.84587293873421,
,32,넌 이기적이야,5,Green,B,2.291666666666667,2.333333333333333,ScrollUp,ScrollDown,Green.png,1,Negative,Congruent,0,0,0,0,,,,,,,,,,,,,0,31,31,31,,,,,,,,,,,,,,,,,,,,,,,,,,,,,,,,,,,,,,,,,,,,,,,,,,,,,,,,,,,,,,,,,,,,,,,,,,,,,,,,,,,,,1.859567900498708,0.9529485000002751,241.54827820000037,None,ScrollUp,정답입니다,241.54827820000037,None,241.54827820000037,None,241.54827820000037,None,241.54827820000037,None,242.35287850000032,None,242.35287850000032,242.85911170000008,,,,,,,,,,,,,,,,229,2022-06-03_14h08.37.896,FishGame,2022.1.1,59.84587293873421,
,33,나를 데려가줘,6,Green,B,0,0,ScrollDown,ScrollUp,Green.png,1,NonTarget,NonTarget,0,0,0,0,,,,,,,,,,,,,0,32,32,32,,,,,,,,,,,,,,,,,,,,,,,,,,,,,,,,,,,,,,,,,,,,,,,,,,,,,,,,,,,,,,,,,,,,,,,,,,,,,,,,,,,,,1.1358024577299755,1.052259900000081,243.52447800000027,None,ScrollDown,정답입니다,243.52447800000027,None,243.52447800000027,None,243.52447800000027,None,243.52447800000027,None,244.43722640000033,None,244.43722640000033,244.94150450000006,,,,,,,,,,,,,,,,229,2022-06-03_14h08.37.896,FishGame,2022.1.1,59.84587293873421,
,34,넌 기회주의자야,5,Orange,A,2.875,2.133333333333333,ScrollDown,ScrollUp,Orange.png,1,Negative,Incongruent,0,0,0,0,,,,,,,,,,,,,0,33,33,33,,,,,,,,,,,,,,,,,,,,,,,,,,,,,,,,,,,,,,,,,,,,,,,,,,,,,,,,,,,,,,,,,,,,,,,,,,,,,,,,,,,,,1.140432099501292,0.951991000000362,245.62468510000008,None,ScrollDown,정답입니다,245.62468510000008,None,245.62468510000008,None,245.62468510000008,None,245.62468510000008,None,246.41882060000034,None,246.41882060000034,246.92385540000032,,,,,,,,,,,,,,,,229,2022-06-03_14h08.37.896,FishGame,2022.1.1,59.84587293873421,
,1,넌 미성숙해,4,Orange,A,3,3.2,ScrollDown,ScrollUp,Orange.png,2,Negative,Incongruent,0,0,0,0,,,,,,,,,,,,,,,,,0,0,0,0,,,,,,,,,,,,,,,,,,,,,,,,,,,,,,,,,,,,,,,,281.6753544000003,283.19082830000025,283.2076098000002,284.1570114000001,284.2068690000001,285.1567653000002,285.1567653000002,None,,,,,,,,,,,,,,,,,,,,,,,,,,,,,,,,,,1.0509259402751923,1.0859765000000152,286.345957,None,ScrollDown,정답입니다,286.345957,None,286.345957,None,286.345957,None,286.345957,None,287.2460894000001,None,287.2460894000001,287.75566630000003,247.4237535000002,None,247.4237535000002,None,0.06944445,-0.098148145,1,0,0,0.016072760000042763,None,277.4266716000002,None,,,229,2022-06-03_14h08.37.896,FishGame,2022.1.1,59.84587293873421,
,2,넌 반사회적이야,5,Green,B,2.416666666666667,2.033333333333333,ScrollUp,ScrollDown,Green.png,2,Negative,Congruent,0,0,0,0,,,,,,,,,,,,,,,,,0,1,1,1,,,,,,,,,,,,,,,,,,,,,,,,,,,,,,,,,,,,,,,,,,,,,,,,,,,,,,,,,,,,,,,,,,,,,,,,,,,,,,,,,1.7283950646718345,0.9458951999999954,288.4171698,None,ScrollUp,정답입니다,288.4171698,None,288.4171698,None,288.4171698,None,288.4171698,None,289.22463160000007,None,289.22463160000007,289.73771750000014,,,,,,,,,,,,,,,,229,2022-06-03_14h08.37.896,FishGame,2022.1.1,59.84587293873421,
,3,넌 유능해,2,Orange,A,6.208333333333333,4.433333333333334,ScrollDown,ScrollUp,Orange.png,2,Positive,Congruent,0,0,0,0,,,,,,,,,,,,,,,,,0,2,2,2,,,,,,,,,,,,,,,,,,,,,,,,,,,,,,,,,,,,,,,,,,,,,,,,,,,,,,,,,,,,,,,,,,,,,,,,,,,,,,,,,1.0524691541989644,0.9596298999999817,290.40803940000023,None,ScrollDown,정답입니다,290.40803940000023,None,290.40803940000023,None,290.40803940000023,None,290.40803940000023,None,291.22066010000026,None,291.22066010000026,291.72046309999996,,,,,,,,,,,,,,,,229,2022-06-03_14h08.37.896,FishGame,2022.1.1,59.84587293873421,
,4,넌 능숙해,2,Green,B,5.666666666666667,4.733333333333333,ScrollUp,ScrollDown,Green.png,2,Positive,Incongruent,0,0,0,0,,,,,,,,,,,,,,,,,0,3,3,3,,,,,,,,,,,,,,,,,,,,,,,,,,,,,,,,,,,,,,,,,,,,,,,,,,,,,,,,,,,,,,,,,,,,,,,,,,,,,,,,,1.6466049378116927,0.9690208000001803,292.3807299,None,ScrollUp,정답입니다,292.3807299,None,292.3807299,None,292.3807299,None,292.3807299,None,293.21335620000036,None,293.21335620000036,293.7191194000002,,,,,,,,,,,,,,,,229,2022-06-03_14h08.37.896,FishGame,2022.1.1,59.84587293873421,
,5,넌 진부해,4,Green,B,2.458333333333333,3.166666666666667,ScrollUp,ScrollDown,Green.png,2,Negative,Congruent,0,0,0,0,,,,,,,,,,,,,,,,,0,4,4,4,,,,,,,,,,,,,,,,,,,,,,,,,,,,,,,,,,,,,,,,,,,,,,,,,,,,,,,,,,,,,,,,,,,,,,,,,,,,,,,,,1.9012345770994823,0.9495895000000019,294.3912970000001,None,ScrollUp,정답입니다,294.3912970000001,None,294.3912970000001,None,294.3912970000001,None,294.3912970000001,None,295.1971016000002,None,295.1971016000002,295.70162740000023,,,,,,,,,,,,,,,,229,2022-06-03_14h08.37.896,FishGame,2022.1.1,59.84587293873421,
,6,나를 보내줘,6,Orange,A,0,0,ScrollUp,ScrollDown,Orange.png,2,NonTarget,NonTarget,0,0,0,0,,,,,,,,,,,,,,,,,0,5,5,5,,,,,,,,,,,,,,,,,,,,,,,,,,,,,,,,,,,,,,,,,,,,,,,,,,,,,,,,,,,,,,,,,,,,,,,,,,,,,,,,,1.9675925771395366,1.0302748999997675,296.3678103000002,None,ScrollUp,정답입니다,296.3678103000002,None,296.3678103000002,None,296.3678103000002,None,296.3678103000002,None,297.2587947000002,None,297.2587947000002,297.76751250000007,,,,,,,,,,,,,,,,229,2022-06-03_14h08.37.896,FishGame,2022.1.1,59.84587293873421,
,7,넌 엄격해,3,Orange,A,4.166666666666666,4.1,ScrollDown,ScrollUp,Orange.png,2,Neutral,Neutral,0,0,0,0,,,,,,,,,,,,,,,,,0,6,6,6,,,,,,,,,,,,,,,,,,,,,,,,,,,,,,,,,,,,,,,,,,,,,,,,,,,,,,,,,,,,,,,,,,,,,,,,,,,,,,,,,1,0.9964405999999144,298.48060120000036,None,ScrollDown,정답입니다,298.48060120000036,None,298.48060120000036,None,298.48060120000036,None,298.48060120000036,None,299.2916540000001,None,299.2916540000001,299.8000769,,,,,,,,,,,,,,,,229,2022-06-03_14h08.37.896,FishGame,2022.1.1,59.84587293873421,
,8,나를 보내줘,6,Orange,A,0,0,ScrollUp,ScrollDown,Orange.png,2,NonTarget,NonTarget,0,0,0,0,,,,,,,,,,,,,,,,,0,7,7,7,,,,,,,,,,,,,,,,,,,,,,,,,,,,,,,,,,,,,,,,,,,,,,,,,,,,,,,,,,,,,,,,,,,,,,,,,,,,,,,,,1.9660493632157643,1.209811499999887,300.5022441000001,None,ScrollUp,정답입니다,300.5022441000001,None,300.5022441000001,None,300.5022441000001,None,300.5022441000001,None,301.5442130000001,None,301.5442130000001,302.04893820000007,,,,,,,,,,,,,,,,229,2022-06-03_14h08.37.896,FishGame,2022.1.1,59.84587293873421,
,9,넌 대담해,3,Green,B,4.875,4.866666666666666,ScrollUp,ScrollDown,Green.png,2,Neutral,Neutral,0,0,0,0,,,,,,,,,,,,,,,,,0,8,8,8,,,,,,,,,,,,,,,,,,,,,,,,,,,,,,,,,,,,,,,,,,,,,,,,,,,,,,,,,,,,,,,,,,,,,,,,,,,,,,,,,1.68364197264115,1.0616360999997596,302.7842448000001,None,ScrollUp,정답입니다,302.7842448000001,None,302.7842448000001,None,302.7842448000001,None,302.7842448000001,None,303.6518656000003,None,303.6518656000003,304.1649818000001,,,,,,,,,,,,,,,,229,2022-06-03_14h08.37.896,FishGame,2022.1.1,59.84587293873421,
,10,넌 꾸준해,1,Orange,A,5.916666666666668,5.8,ScrollDown,ScrollUp,Orange.png,2,Positive,Congruent,0,0,0,0,,,,,,,,,,,,,,,,,0,9,9,9,,,,,,,,,,,,,,,,,,,,,,,,,,,,,,,,,,,,,,,,,,,,,,,,,,,,,,,,,,,,,,,,,,,,,,,,,,,,,,,,,1,1.1107216999998855,304.9091747000002,None,ScrollDown,정답입니다,304.9091747000002,None,304.9091747000002,None,304.9091747000002,None,304.9091747000002,None,305.81931220000024,None,305.81931220000024,306.3302401000001,,,,,,,,,,,,,,,,229,2022-06-03_14h08.37.896,FishGame,2022.1.1,59.84587293873421,
,11,나를 데려가줘,6,Green,B,0,0,ScrollDown,ScrollUp,Green.png,2,NonTarget,NonTarget,0,0,0,0,,,,,,,,,,,,,,,,,0,10,10,10,,,,,,,,,,,,,,,,,,,,,,,,,,,,,,,,,,,,,,,,,,,,,,,,,,,,,,,,,,,,,,,,,,,,,,,,,,,,,,,,,1.0987654229005177,0.9761522000003424,307.0239593000001,None,ScrollDown,정답입니다,307.0239593000001,None,307.0239593000001,None,307.0239593000001,None,307.0239593000001,None,307.8372416000002,None,307.8372416000002,308.34616440000036,,,,,,,,,,,,,,,,229,2022-06-03_14h08.37.896,FishGame,2022.1.1,59.84587293873421,
,12,넌 독선적이야,5,Orange,A,2.458333333333333,1.933333333333333,ScrollDown,ScrollUp,Orange.png,2,Negative,Incongruent,0,0,0,0,,,,,,,,,,,,,,,,,0,11,11,11,,,,,,,,,,,,,,,,,,,,,,,,,,,,,,,,,,,,,,,,,,,,,,,,,,,,,,,,,,,,,,,,,,,,,,,,,,,,,,,,,1.0108024775981903,1.0029570000001513,309.04190800000015,None,ScrollDown,정답입니다,309.04190800000015,None,309.04190800000015,None,309.04190800000015,None,309.04190800000015,None,309.8739571000001,None,309.8739571000001,310.37865039999997,,,,,,,,,,,,,,,,229,2022-06-03_14h08.37.896,FishGame,2022.1.1,59.84587293873421,
,13,나를 보내줘,6,Orange,A,0,0,ScrollUp,ScrollDown,Orange.png,2,NonTarget,NonTarget,0,0,0,0,,,,,,,,,,,,,,,,,0,12,12,12,,,,,,,,,,,,,,,,,,,,,,,,,,,,,,,,,,,,,,,,,,,,,,,,,,,,,,,,,,,,,,,,,,,,,,,,,,,,,,,,,1.9783950746059418,1.0482758999996804,311.0876930000004,None,ScrollUp,정답입니다,311.0876930000004,None,311.0876930000004,None,311.0876930000004,None,311.0876930000004,None,311.95112259999996,None,311.95112259999996,312.4607539000003,,,,,,,,,,,,,,,,229,2022-06-03_14h08.37.896,FishGame,2022.1.1,59.84587293873421,
,14,넌 책임감있어,1,Green,B,6.347826086956522,6,ScrollUp,ScrollDown,Green.png,2,Positive,Incongruent,0,0,0,0,,,,,,,,,,,,,,,,,0,13,13,13,,,,,,,,,,,,,,,,,,,,,,,,,,,,,,,,,,,,,,,,,,,,,,,,,,,,,,,,,,,,,,,,,,,,,,,,,,,,,,,,,1.6975308607021966,1.104460200000176,313.1476584000002,None,ScrollUp,정답입니다,313.1476584000002,None,313.1476584000002,None,313.1476584000002,None,313.1476584000002,None,314.08923540000023,None,314.08923540000023,314.5930760000001,,,,,,,,,,,,,,,,229,2022-06-03_14h08.37.896,FishGame,2022.1.1,59.84587293873421,
,15,넌 문학적이야,3,Orange,A,4.708333333333334,4.333333333333333,ScrollDown,ScrollUp,Orange.png,2,Neutral,Neutral,0,0,0,0,,,,,,,,,,,,,,,,,0,14,14,14,,,,,,,,,,,,,,,,,,,,,,,,,,,,,,,,,,,,,,,,,,,,,,,,,,,,,,,,,,,,,,,,,,,,,,,,,,,,,,,,,1,0.950173199999881,315.2672315,None,ScrollDown,정답입니다,315.2672315,None,315.2672315,None,315.2672315,None,315.2672315,None,316.06555300000036,None,316.06555300000036,316.57528390000016,,,,,,,,,,,,,,,,229,2022-06-03_14h08.37.896,FishGame,2022.1.1,59.84587293873421,
,16,넌 재미있어,1,Green,B,5.875,5.7,ScrollUp,ScrollDown,Green.png,2,Positive,Incongruent,0,0,0,0,,,,,,,,,,,,,,,,,0,15,15,15,,,,,,,,,,,,,,,,,,,,,,,,,,,,,,,,,,,,,,,,,,,,,,,,,,,,,,,,,,,,,,,,,,,,,,,,,,,,,,,,,1.7762345721324284,1.0096022999996421,317.2426025,None,ScrollUp,정답입니다,317.2426025,None,317.2426025,None,317.2426025,None,317.2426025,None,318.1085852000001,None,318.1085852000001,318.60780250000016,,,,,,,,,,,,,,,,229,2022-06-03_14h08.37.896,FishGame,2022.1.1,59.84587293873421,
,17,나를 데려가줘,6,Green,B,0,0,ScrollDown,ScrollUp,Green.png,2,NonTarget,NonTarget,0,0,0,0,,,,,,,,,,,,,,,,,0,16,16,16,,,,,,,,,,,,,,,,,,,,,,,,,,,,,,,,,,,,,,,,,,,,,,,,,,,,,,,,,,,,,,,,,,,,,,,,,,,,,,,,,1,0.9253178000003572,319.2741218000001,None,ScrollDown,정답입니다,319.2741218000001,None,319.2741218000001,None,319.2741218000001,None,319.2741218000001,None,320.05800990000034,None,320.05800990000034,320.5573453000002,,,,,,,,,,,,,,,,229,2022-06-03_14h08.37.896,FishGame,2022.1.1,59.84587293873421,
,18,넌 협력적이야,1,Orange,A,5.625,5.633333333333334,ScrollDown,ScrollUp,Orange.png,2,Positive,Congruent,0,0,0,0,,,,,,,,,,,,,,,,,0,17,17,17,,,,,,,,,,,,,,,,,,,,,,,,,,,,,,,,,,,,,,,,,,,,,,,,,,,,,,,,,,,,,,,,,,,,,,,,,,,,,,,,,1,0.9803910999999061,321.2423146000001,None,ScrollDown,정답입니다,321.2423146000001,None,321.2423146000001,None,321.2423146000001,None,321.2423146000001,None,322.0781670000001,None,322.0781670000001,322.5895845,,,,,,,,,,,,,,,,229,2022-06-03_14h08.37.896,FishGame,2022.1.1,59.84587293873421,
,19,넌 평범해,3,Green,B,4.333333333333332,4.233333333333333,ScrollUp,ScrollDown,Green.png,2,Neutral,Neutral,0,0,0,0,,,,,,,,,,,,,,,,,0,18,18,18,,,,,,,,,,,,,,,,,,,,,,,,,,,,,,,,,,,,,,,,,,,,,,,,,,,,,,,,,,,,,,,,,,,,,,,,,,,,,,,,,2,1.0760049999998955,323.24837290000005,None,ScrollUp,정답입니다,323.24837290000005,None,323.24837290000005,None,323.24837290000005,None,323.24837290000005,None,324.189292,None,324.189292,324.68836469999997,,,,,,,,,,,,,,,,229,2022-06-03_14h08.37.896,FishGame,2022.1.1,59.84587293873421,
,20,넌 오만해,5,Orange,A,2.333333333333333,2,ScrollDown,ScrollUp,Orange.png,2,Negative,Incongruent,0,0,0,0,,,,,,,,,,,,,,,,,0,19,19,19,,,,,,,,,,,,,,,,,,,,,,,,,,,,,,,,,,,,,,,,,,,,,,,,,,,,,,,,,,,,,,,,,,,,,,,,,,,,,,,,,1,0.9818138000000545,325.386653,None,ScrollDown,정답입니다,325.386653,None,325.386653,None,325.386653,None,325.386653,None,326.21153470000036,None,326.21153470000036,326.72088250000024,,,,,,,,,,,,,,,,229,2022-06-03_14h08.37.896,FishGame,2022.1.1,59.84587293873421,
,21,넌 운이없어,4,Green,B,3,3.466666666666667,ScrollUp,ScrollDown,Green.png,2,Negative,Congruent,0,0,0,0,,,,,,,,,,,,,,,,,0,20,20,20,,,,,,,,,,,,,,,,,,,,,,,,,,,,,,,,,,,,,,,,,,,,,,,,,,,,,,,,,,,,,,,,,,,,,,,,,,,,,,,,,1.9259259502092998,1.2018199999997705,327.3848009000003,None,ScrollUp,정답입니다,327.3848009000003,None,327.3848009000003,None,327.3848009000003,None,327.3848009000003,None,328.4448110000003,None,328.4448110000003,328.95314540000027,,,,,,,,,,,,,,,,229,2022-06-03_14h08.37.896,FishGame,2022.1.1,59.84587293873421,
,22,넌 창조적이야,2,Green,B,6.125,4.633333333333334,ScrollUp,ScrollDown,Green.png,2,Positive,Incongruent,0,0,0,0,,,,,,,,,,,,,,,,,0,21,21,21,,,,,,,,,,,,,,,,,,,,,,,,,,,,,,,,,,,,,,,,,,,,,,,,,,,,,,,,,,,,,,,,,,,,,,,,,,,,,,,,,1.9675925771395366,0.9757736999999906,329.6204262000001,None,ScrollUp,정답입니다,329.6204262000001,None,329.6204262000001,None,329.6204262000001,None,329.6204262000001,None,330.4526589000002,None,330.4526589000002,330.9523346000001,,,,,,,,,,,,,,,,229,2022-06-03_14h08.37.896,FishGame,2022.1.1,59.84587293873421,
,23,나를 보내줘,6,Orange,A,0,0,ScrollUp,ScrollDown,Orange.png,2,NonTarget,NonTarget,0,0,0,0,,,,,,,,,,,,,,,,,0,22,22,22,,,,,,,,,,,,,,,,,,,,,,,,,,,,,,,,,,,,,,,,,,,,,,,,,,,,,,,,,,,,,,,,,,,,,,,,,,,,,,,,,2,1.0143943000002764,331.6265758000004,None,ScrollUp,정답입니다,331.6265758000004,None,331.6265758000004,None,331.6265758000004,None,331.6265758000004,None,332.4901748000002,None,332.4901748000002,333.0012819000003,,,,,,,,,,,,,,,,229,2022-06-03_14h08.37.896,FishGame,2022.1.1,59.84587293873421,
,24,넌 통찰력있어,2,Orange,A,6.5,4.8,ScrollDown,ScrollUp,Orange.png,2,Positive,Congruent,0,0,0,0,,,,,,,,,,,,,,,,,0,23,23,23,,,,,,,,,,,,,,,,,,,,,,,,,,,,,,,,,,,,,,,,,,,,,,,,,,,,,,,,,,,,,,,,,,,,,,,,,,,,,,,,,1,0.9621833000001061,333.6750326000001,None,ScrollDown,정답입니다,333.6750326000001,None,333.6750326000001,None,333.6750326000001,None,333.6750326000001,None,334.4848287,None,334.4848287,335.0003439000002,,,,,,,,,,,,,,,,229,2022-06-03_14h08.37.896,FishGame,2022.1.1,59.84587293873421,
,25,넌 경솔해,5,Green,B,2.458333333333333,2.266666666666667,ScrollUp,ScrollDown,Green.png,2,Negative,Congruent,0,0,0,0,,,,,,,,,,,,,,,,,0,24,24,24,,,,,,,,,,,,,,,,,,,,,,,,,,,,,,,,,,,,,,,,,,,,,,,,,,,,,,,,,,,,,,,,,,,,,,,,,,,,,,,,,1.9475308458010356,0.9199630000002799,335.66102920000003,None,ScrollUp,정답입니다,335.66102920000003,None,335.66102920000003,None,335.66102920000003,None,335.66102920000003,None,336.4437852000001,None,336.4437852000001,336.94945740000003,,,,,,,,,,,,,,,,229,2022-06-03_14h08.37.896,FishGame,2022.1.1,59.84587293873421,
,26,넌 초조해,4,Orange,A,2.916666666666667,3.133333333333333,ScrollDown,ScrollUp,Orange.png,2,Negative,Incongruent,0,0,0,0,,,,,,,,,,,,,,,,,0,25,25,25,,,,,,,,,,,,,,,,,,,,,,,,,,,,,,,,,,,,,,,,,,,,,,,,,,,,,,,,,,,,,,,,,,,,,,,,,,,,,,,,,1.0524691541989644,0.8944851000001108,337.6263120000003,None,ScrollDown,정답입니다,337.6263120000003,None,337.6263120000003,None,337.6263120000003,None,337.6263120000003,None,338.3665814000001,None,338.3665814000001,338.8821895000001,,,,,,,,,,,,,,,,229,2022-06-03_14h08.37.896,FishGame,2022.1.1,59.84587293873421,
,27,넌 무관심해,4,Green,B,2.833333333333333,2.9,ScrollUp,ScrollDown,Green.png,2,Negative,Congruent,0,0,0,0,,,,,,,,,,,,,,,,,0,26,26,26,,,,,,,,,,,,,,,,,,,,,,,,,,,,,,,,,,,,,,,,,,,,,,,,,,,,,,,,,,,,,,,,,,,,,,,,,,,,,,,,,2,0.9923957000000883,339.5353491000001,None,ScrollUp,정답입니다,339.5353491000001,None,339.5353491000001,None,339.5353491000001,None,339.5353491000001,None,340.3863765000001,None,340.3863765000001,340.8976668,,,,,,,,,,,,,,,,229,2022-06-03_14h08.37.896,FishGame,2022.1.1,59.84587293873421,
,28,넌 감성적이야,3,Green,B,4.125,4.166666666666667,ScrollUp,ScrollDown,Green.png,2,Neutral,Neutral,0,0,0,0,,,,,,,,,,,,,,,,,0,27,27,27,,,,,,,,,,,,,,,,,,,,,,,,,,,,,,,,,,,,,,,,,,,,,,,,,,,,,,,,,,,,,,,,,,,,,,,,,,,,,,,,,2,1.0484838000002128,341.5608874000004,None,ScrollUp,정답입니다,341.5608874000004,None,341.5608874000004,None,341.5608874000004,None,341.5608874000004,None,342.47082990000035,None,342.47082990000035,342.9801069,,,,,,,,,,,,,,,,229,2022-06-03_14h08.37.896,FishGame,2022.1.1,59.84587293873421,
,29,넌 배려심있어,1,Orange,A,6.083333333333333,5.5,ScrollDown,ScrollUp,Orange.png,2,Positive,Congruent,0,0,0,0,,,,,,,,,,,,,,,,,0,28,28,28,,,,,,,,,,,,,,,,,,,,,,,,,,,,,,,,,,,,,,,,,,,,,,,,,,,,,,,,,,,,,,,,,,,,,,,,,,,,,,,,,1,1.0042069000000993,343.6519069000001,None,ScrollDown,정답입니다,343.6519069000001,None,343.6519069000001,None,343.6519069000001,None,343.6519069000001,None,344.5063765,None,344.5063765,345.01239650000025,,,,,,,,,,,,,,,,229,2022-06-03_14h08.37.896,FishGame,2022.1.1,59.84587293873421,
,30,넌 숨김없어,3,Orange,A,4.5,4.933333333333334,ScrollDown,ScrollUp,Orange.png,2,Neutral,Neutral,0,0,0,0,,,,,,,,,,,,,,,,,0,29,29,29,,,,,,,,,,,,,,,,,,,,,,,,,,,,,,,,,,,,,,,,,,,,,,,,,,,,,,,,,,,,,,,,,,,,,,,,,,,,,,,,,1,0.9250428000000284,345.6901935000001,None,ScrollDown,정답입니다,345.6901935000001,None,345.6901935000001,None,345.6901935000001,None,345.6901935000001,None,346.4613316,None,346.4613316,346.96161740000025,,,,,,,,,,,,,,,,229,2022-06-03_14h08.37.896,FishGame,2022.1.1,59.84587293873421,
,31,넌 훌륭해,2,Green,B,5.916666666666667,4.033333333333333,ScrollUp,ScrollDown,Green.png,2,Positive,Incongruent,0,0,0,0,,,,,,,,,,,,,,,,,0,30,30,30,,,,,,,,,,,,,,,,,,,,,,,,,,,,,,,,,,,,,,,,,,,,,,,,,,,,,,,,,,,,,,,,,,,,,,,,,,,,,,,,,2,0.9947839000001295,347.6270479,None,ScrollUp,정답입니다,347.6270479,None,347.6270479,None,347.6270479,None,347.6270479,None,348.4816361000003,None,348.4816361000003,348.9939559000004,,,,,,,,,,,,,,,,229,2022-06-03_14h08.37.896,FishGame,2022.1.1,59.84587293873421,
,32,넌 슬기로워,2,Orange,A,6.166666666666667,4.1,ScrollDown,ScrollUp,Orange.png,2,Positive,Congruent,0,0,0,0,,,,,,,,,,,,,,,,,0,31,31,31,,,,,,,,,,,,,,,,,,,,,,,,,,,,,,,,,,,,,,,,,,,,,,,,,,,,,,,,,,,,,,,,,,,,,,,,,,,,,,,,,1,0.99416999999994,349.6625597000002,None,ScrollDown,정답입니다,349.6625597000002,None,349.6625597000002,None,349.6625597000002,None,349.6625597000002,None,350.5110901000003,None,350.5110901000003,351.02635480000026,,,,,,,,,,,,,,,,229,2022-06-03_14h08.37.896,FishGame,2022.1.1,59.84587293873421,
,33,넌 냉혹해,5,Orange,A,2.583333333333333,2.1,ScrollDown,ScrollUp,Orange.png,2,Negative,Incongruent,0,0,0,0,,,,,,,,,,,,,,,,,0,32,32,32,,,,,,,,,,,,,,,,,,,,,,,,,,,,,,,,,,,,,,,,,,,,,,,,,,,,,,,,,,,,,,,,,,,,,,,,,,,,,,,,,1.0061728358268738,0.8399904999996579,351.7061969000001,None,ScrollDown,정답입니다,351.7061969000001,None,351.7061969000001,None,351.7061969000001,None,351.7061969000001,None,352.3870548,None,352.3870548,352.89228440000034,,,,,,,,,,,,,,,,229,2022-06-03_14h08.37.896,FishGame,2022.1.1,59.84587293873421,
,34,나를 데려가줘,6,Green,B,0,0,ScrollDown,ScrollUp,Green.png,2,NonTarget,NonTarget,0,0,0,0,,,,,,,,,,,,,,,,,0,33,33,33,,,,,,,,,,,,,,,,,,,,,,,,,,,,,,,,,,,,,,,,,,,,,,,,,,,,,,,,,,,,,,,,,,,,,,,,,,,,,,,,,1.0493827263514202,0.8841296000000511,353.55159170000024,None,ScrollDown,정답입니다,353.55159170000024,None,353.55159170000024,None,353.55159170000024,None,353.55159170000024,None,354.3010306000001,None,354.3010306000001,354.80802250000033,,,,,,,,,,,,,,,,229,2022-06-03_14h08.37.896,FishGame,2022.1.1,59.84587293873421,
,35,넌 편파적이야,5,Green,B,2.125,2,ScrollUp,ScrollDown,Green.png,2,Negative,Congruent,0,0,0,0,,,,,,,,,,,,,,,,,0,34,34,34,,,,,,,,,,,,,,,,,,,,,,,,,,,,,,,,,,,,,,,,,,,,,,,,,,,,,,,,,,,,,,,,,,,,,,,,,,,,,,,,,2,1.0428138999996008,355.47433580000006,None,ScrollUp,정답입니다,355.47433580000006,None,355.47433580000006,None,355.47433580000006,None,355.47433580000006,None,356.37074210000037,None,356.37074210000037,356.8736955000004,,,,,,,,,,,,,,,,229,2022-06-03_14h08.37.896,FishGame,2022.1.1,59.84587293873421,
,36,넌 슬퍼,4,Orange,A,2.583333333333333,3.066666666666667,ScrollDown,ScrollUp,Orange.png,2,Negative,Incongruent,0,0,0,0,,,,,,,,,,,,,,,,,0,35,35,35,,,,,,,,,,,,,,,,,,,,,,,,,,,,,,,,,,,,,,,,,,,,,,,,,,,,,,,,,,,,,,,,,,,,,,,,,,,,,,,,,1,0.9156950000001416,357.53626440000016,None,ScrollDown,정답입니다,357.53626440000016,None,357.53626440000016,None,357.53626440000016,None,357.53626440000016,None,358.3130997000003,None,358.3130997000003,358.82283000000007,,,,,,,,,,,,,,,,229,2022-06-03_14h08.37.896,FishGame,2022.1.1,59.84587293873421,
,37,나를 데려가줘,6,Green,B,0,0,ScrollDown,ScrollUp,Green.png,2,NonTarget,NonTarget,0,0,0,0,,,,,,,,,,,,,,,,,0,36,36,36,,,,,,,,,,,,,,,,,,,,,,,,,,,,,,,,,,,,,,,,,,,,,,,,,,,,,,,,,,,,,,,,,,,,,,,,,,,,,,,,,1,1.0001569999999447,359.4841983000001,None,ScrollDown,정답입니다,359.4841983000001,None,359.4841983000001,None,359.4841983000001,None,359.4841983000001,None,360.3455019000003,None,360.3455019000003,360.8552485,,,,,,,,,,,,,,,,229,2022-06-03_14h08.37.896,FishGame,2022.1.1,59.84587293873421,
,38,넌 친절해,1,Green,B,6.041666666666667,5.533333333333333,ScrollUp,ScrollDown,Green.png,2,Positive,Incongruent,0,0,0,0,,,,,,,,,,,,,,,,,0,37,37,37,,,,,,,,,,,,,,,,,,,,,,,,,,,,,,,,,,,,,,,,,,,,,,,,,,,,,,,,,,,,,,,,,,,,,,,,,,,,,,,,,2,0.9617220999998608,361.5277027000002,None,ScrollUp,정답입니다,361.5277027000002,None,361.5277027000002,None,361.5277027000002,None,361.5277027000002,None,362.34370560000025,None,362.34370560000025,362.85496330000024,,,,,,,,,,,,,,,,229,2022-06-03_14h08.37.896,FishGame,2022.1.1,59.84587293873421,
,1,넌 엉성해,4,Orange,A,3,3.3,ScrollDown,ScrollUp,Orange.png,3,Negative,Incongruent,0,0,0,0,,,,,,,,,,,,,,,,,,,,,0,0,0,0,,,,,,,,,,,,,,,,,,,,,,,,,,,,,,,,,,,,396.32269840000026,397.8218557,397.85497620000024,398.8045747000001,398.8546296000004,399.8041280000002,399.8041280000002,None,,,,,,,,,,,,,,,,,,,,,,,,,,,,,,,,,,1.060185174147288,1.1407588000001851,401.0273655000001,None,ScrollDown,정답입니다,401.0273655000001,None,401.0273655000001,None,401.0273655000001,None,401.0273655000001,None,401.9531557,None,401.9531557,402.4529773000004,363.35410580000007,None,363.35410580000007,None,0.08981481,-0.08981481,1,0,0,0.016181860000415327,None,393.35716850000017,None,,,229,2022-06-03_14h08.37.896,FishGame,2022.1.1,59.84587293873421,
,2,나를 보내줘,6,Orange,A,0,0,ScrollUp,ScrollDown,Orange.png,3,NonTarget,NonTarget,0,0,0,0,,,,,,,,,,,,,,,,,,,,,0,1,1,1,,,,,,,,,,,,,,,,,,,,,,,,,,,,,,,,,,,,,,,,,,,,,,,,,,,,,,,,,,,,,,,,,,,,,,,,,,,,,2,0.9509100999998736,403.11867900000016,None,ScrollUp,정답입니다,403.11867900000016,None,403.11867900000016,None,403.11867900000016,None,403.11867900000016,None,403.9251819000001,None,403.9251819000001,404.4354094,,,,,,,,,,,,,,,,229,2022-06-03_14h08.37.896,FishGame,2022.1.1,59.84587293873421,
,3,넌 활발해,1,Green,B,5.666666666666667,5.6,ScrollUp,ScrollDown,Green.png,3,Positive,Incongruent,0,0,0,0,,,,,,,,,,,,,,,,,,,,,0,2,2,2,,,,,,,,,,,,,,,,,,,,,,,,,,,,,,,,,,,,,,,,,,,,,,,,,,,,,,,,,,,,,,,,,,,,,,,,,,,,,1.9506172736485798,0.9516241999999693,405.1038311000002,None,ScrollUp,정답입니다,405.1038311000002,None,405.1038311000002,None,405.1038311000002,None,405.1038311000002,None,405.91148920000023,None,405.91148920000023,406.4179551000002,,,,,,,,,,,,,,,,229,2022-06-03_14h08.37.896,FishGame,2022.1.1,59.84587293873421,
,4,넌 논리적이야,2,Orange,A,5.666666666666666,4.633333333333334,ScrollDown,ScrollUp,Orange.png,3,Positive,Congruent,0,0,0,0,,,,,,,,,,,,,,,,,,,,,0,3,3,3,,,,,,,,,,,,,,,,,,,,,,,,,,,,,,,,,,,,,,,,,,,,,,,,,,,,,,,,,,,,,,,,,,,,,,,,,,,,,1.1311728407939274,0.9025587999999516,407.0939169000003,None,ScrollDown,정답입니다,407.0939169000003,None,407.0939169000003,None,407.0939169000003,None,407.0939169000003,None,407.8446393000004,None,407.8446393000004,408.35029520000035,,,,,,,,,,,,,,,,229,2022-06-03_14h08.37.896,FishGame,2022.1.1,59.84587293873421,
,5,넌 과묵해,3,Orange,A,3.875,4.4,ScrollDown,ScrollUp,Orange.png,3,Neutral,Neutral,0,0,0,0,,,,,,,,,,,,,,,,,,,,,0,4,4,4,,,,,,,,,,,,,,,,,,,,,,,,,,,,,,,,,,,,,,,,,,,,,,,,,,,,,,,,,,,,,,,,,,,,,,,,,,,,,1.1172839403152466,0.8861700000002202,409.01924580000014,None,ScrollDown,정답입니다,409.01924580000014,None,409.01924580000014,None,409.01924580000014,None,409.01924580000014,None,409.75960520000035,None,409.75960520000035,410.26600099999996,,,,,,,,,,,,,,,,229,2022-06-03_14h08.37.896,FishGame,2022.1.1,59.84587293873421,
,6,나를 데려가줘,6,Green,B,0,0,ScrollDown,ScrollUp,Green.png,3,NonTarget,NonTarget,0,0,0,0,,,,,,,,,,,,,,,,,,,,,0,5,5,5,,,,,,,,,,,,,,,,,,,,,,,,,,,,,,,,,,,,,,,,,,,,,,,,,,,,,,,,,,,,,,,,,,,,,,,,,,,,,1.0200617114702861,0.9600660000000971,410.92820370000027,None,ScrollDown,정답입니다,410.92820370000027,None,410.92820370000027,None,410.92820370000027,None,410.92820370000027,None,411.7508952000003,None,411.7508952000003,412.26514940000015,,,,,,,,,,,,,,,,229,2022-06-03_14h08.37.896,FishGame,2022.1.1,59.84587293873421,
,7,넌 미숙해,4,Green,B,3,3,ScrollUp,ScrollDown,Green.png,3,Negative,Congruent,0,0,0,0,,,,,,,,,,,,,,,,,,,,,0,6,6,6,,,,,,,,,,,,,,,,,,,,,,,,,,,,,,,,,,,,,,,,,,,,,,,,,,,,,,,,,,,,,,,,,,,,,,,,,,,,,1.9799382885297139,1.0738462999997864,412.9327695000002,None,ScrollUp,정답입니다,412.9327695000002,None,412.9327695000002,None,412.9327695000002,None,412.9327695000002,None,413.86436930000036,None,413.86436930000036,414.3640964000001,,,,,,,,,,,,,,,,229,2022-06-03_14h08.37.896,FishGame,2022.1.1,59.84587293873421,
,8,나를 보내줘,6,Orange,A,0,0,ScrollUp,ScrollDown,Orange.png,3,NonTarget,NonTarget,0,0,0,0,,,,,,,,,,,,,,,,,,,,,0,7,7,7,,,,,,,,,,,,,,,,,,,,,,,,,,,,,,,,,,,,,,,,,,,,,,,,,,,,,,,,,,,,,,,,,,,,,,,,,,,,,1.9290123283863068,1.0161447999998927,415.0290646000003,None,ScrollUp,정답입니다,415.0290646000003,None,415.0290646000003,None,415.0290646000003,None,415.0290646000003,None,415.90535150000005,None,415.90535150000005,416.4131704000001,,,,,,,,,,,,,,,,229,2022-06-03_14h08.37.896,FishGame,2022.1.1,59.84587293873421,
,9,넌 자신만만해,3,Green,B,4.833333333333334,4.333333333333333,ScrollUp,ScrollDown,Green.png,3,Neutral,Neutral,0,0,0,0,,,,,,,,,,,,,,,,,,,,,0,8,8,8,,,,,,,,,,,,,,,,,,,,,,,,,,,,,,,,,,,,,,,,,,,,,,,,,,,,,,,,,,,,,,,,,,,,,,,,,,,,,1.9212963084379833,1.0356682000001456,417.07782670000006,None,ScrollUp,정답입니다,417.07782670000006,None,417.07782670000006,None,417.07782670000006,None,417.07782670000006,None,417.9718697000003,None,417.9718697000003,418.47906520000015,,,,,,,,,,,,,,,,229,2022-06-03_14h08.37.896,FishGame,2022.1.1,59.84587293873421,
,10,넌 탐욕스러워,5,Orange,A,2.25,2.1,ScrollDown,ScrollUp,Orange.png,3,Negative,Incongruent,0,0,0,0,,,,,,,,,,,,,,,,,,,,,0,9,9,9,,,,,,,,,,,,,,,,,,,,,,,,,,,,,,,,,,,,,,,,,,,,,,,,,,,,,,,,,,,,,,,,,,,,,,,,,,,,,1,1.0031251000000339,419.17187200000035,None,ScrollDown,정답입니다,419.17187200000035,None,419.17187200000035,None,419.17187200000035,None,419.17187200000035,None,420.0041634000004,None,420.0041634000004,420.5114205,,,,,,,,,,,,,,,,229,2022-06-03_14h08.37.896,FishGame,2022.1.1,59.84587293873421,
,11,넌 인기있어,2,Orange,A,5.458333333333333,4.5,ScrollDown,ScrollUp,Orange.png,3,Positive,Congruent,0,0,0,0,,,,,,,,,,,,,,,,,,,,,0,10,10,10,,,,,,,,,,,,,,,,,,,,,,,,,,,,,,,,,,,,,,,,,,,,,,,,,,,,,,,,,,,,,,,,,,,,,,,,,,,,,1,0.9212018999996872,421.17739310000024,None,ScrollDown,정답입니다,421.17739310000024,None,421.17739310000024,None,421.17739310000024,None,421.17739310000024,None,421.95357460000014,None,421.95357460000014,422.4604741000003,,,,,,,,,,,,,,,,229,2022-06-03_14h08.37.896,FishGame,2022.1.1,59.84587293873421,
,12,나를 데려가줘,6,Green,B,0,0,ScrollDown,ScrollUp,Green.png,3,NonTarget,NonTarget,0,0,0,0,,,,,,,,,,,,,,,,,,,,,0,11,11,11,,,,,,,,,,,,,,,,,,,,,,,,,,,,,,,,,,,,,,,,,,,,,,,,,,,,,,,,,,,,,,,,,,,,,,,,,,,,,1,0.8666669999997794,423.1222054,None,ScrollDown,정답입니다,423.1222054,None,423.1222054,None,423.1222054,None,423.1222054,None,423.84958370000004,None,423.84958370000004,424.3596257000004,,,,,,,,,,,,,,,,229,2022-06-03_14h08.37.896,FishGame,2022.1.1,59.84587293873421,
,13,넌 뛰어나,2,Green,B,6.166666666666667,4,ScrollUp,ScrollDown,Green.png,3,Positive,Incongruent,0,0,0,0,,,,,,,,,,,,,,,,,,,,,0,12,12,12,,,,,,,,,,,,,,,,,,,,,,,,,,,,,,,,,,,,,,,,,,,,,,,,,,,,,,,,,,,,,,,,,,,,,,,,,,,,,2,0.9895729999998366,425.0246277000001,None,ScrollUp,정답입니다,425.0246277000001,None,425.0246277000001,None,425.0246277000001,None,425.0246277000001,None,425.8760145000001,None,425.8760145000001,426.37524680000024,,,,,,,,,,,,,,,,229,2022-06-03_14h08.37.896,FishGame,2022.1.1,59.84587293873421,
,14,넌 낙관적이야,1,Orange,A,5.75,5.8,ScrollDown,ScrollUp,Orange.png,3,Positive,Congruent,0,0,0,0,,,,,,,,,,,,,,,,,,,,,0,13,13,13,,,,,,,,,,,,,,,,,,,,,,,,,,,,,,,,,,,,,,,,,,,,,,,,,,,,,,,,,,,,,,,,,,,,,,,,,,,,,1,0.9395562999998219,427.0470213000003,None,ScrollDown,정답입니다,427.0470213000003,None,427.0470213000003,None,427.0470213000003,None,427.0470213000003,None,427.83645490000026,None,427.83645490000026,428.34126970000034,,,,,,,,,,,,,,,,229,2022-06-03_14h08.37.896,FishGame,2022.1.1,59.84587293873421,
,15,넌 산만해,4,Green,B,2.695652173913043,3.033333333333333,ScrollUp,ScrollDown,Green.png,3,Negative,Congruent,0,0,0,0,,,,,,,,,,,,,,,,,,,,,0,14,14,14,,,,,,,,,,,,,,,,,,,,,,,,,,,,,,,,,,,,,,,,,,,,,,,,,,,,,,,,,,,,,,,,,,,,,,,,,,,,,2,1.0465477000002466,429.0090844000001,None,ScrollUp,정답입니다,429.0090844000001,None,429.0090844000001,None,429.0090844000001,None,429.0090844000001,None,429.9108124000004,None,429.9108124000004,430.4234809000004,,,,,,,,,,,,,,,,229,2022-06-03_14h08.37.896,FishGame,2022.1.1,59.84587293873421,
,16,나를 보내줘,6,Orange,A,0,0,ScrollUp,ScrollDown,Orange.png,3,NonTarget,NonTarget,0,0,0,0,,,,,,,,,,,,,,,,,,,,,0,15,15,15,,,,,,,,,,,,,,,,,,,,,,,,,,,,,,,,,,,,,,,,,,,,,,,,,,,,,,,,,,,,,,,,,,,,,,,,,,,,,2,1.105674700000236,431.08676270000024,None,ScrollUp,정답입니다,431.08676270000024,None,431.08676270000024,None,431.08676270000024,None,431.08676270000024,None,432.05615620000026,None,432.05615620000026,432.5558642000001,,,,,,,,,,,,,,,,229,2022-06-03_14h08.37.896,FishGame,2022.1.1,59.84587293873421,
,17,넌 교활해,5,Green,B,2.333333333333333,2.133333333333333,ScrollUp,ScrollDown,Green.png,3,Negative,Congruent,0,0,0,0,,,,,,,,,,,,,,,,,,,,,0,16,16,16,,,,,,,,,,,,,,,,,,,,,,,,,,,,,,,,,,,,,,,,,,,,,,,,,,,,,,,,,,,,,,,,,,,,,,,,,,,,,2,0.998090300000058,433.22400830000015,None,ScrollUp,정답입니다,433.22400830000015,None,433.22400830000015,None,433.22400830000015,None,433.22400830000015,None,434.0770693000004,None,434.0770693000004,434.5882289000001,,,,,,,,,,,,,,,,229,2022-06-03_14h08.37.896,FishGame,2022.1.1,59.84587293873421,
,18,나를 보내줘,6,Orange,A,0,0,ScrollUp,ScrollDown,Orange.png,3,NonTarget,NonTarget,0,0,0,0,,,,,,,,,,,,,,,,,,,,,0,17,17,17,,,,,,,,,,,,,,,,,,,,,,,,,,,,,,,,,,,,,,,,,,,,,,,,,,,,,,,,,,,,,,,,,,,,,,,,,,,,,2,0.9456850999999915,435.2575426000003,None,ScrollUp,정답입니다,435.2575426000003,None,435.2575426000003,None,435.2575426000003,None,435.2575426000003,None,436.05922069999997,None,436.05922069999997,436.5708012,,,,,,,,,,,,,,,,229,2022-06-03_14h08.37.896,FishGame,2022.1.1,59.84587293873421,
,19,넌 불친절해,5,Green,B,2.208333333333333,2.033333333333333,ScrollUp,ScrollDown,Green.png,3,Negative,Congruent,0,0,0,0,,,,,,,,,,,,,,,,,,,,,0,18,18,18,,,,,,,,,,,,,,,,,,,,,,,,,,,,,,,,,,,,,,,,,,,,,,,,,,,,,,,,,,,,,,,,,,,,,,,,,,,,,1.8672839452823002,0.9041892999998709,437.2359037000001,None,ScrollUp,정답입니다,437.2359037000001,None,437.2359037000001,None,437.2359037000001,None,437.2359037000001,None,437.99862570000005,None,437.99862570000005,438.50323670000034,,,,,,,,,,,,,,,,229,2022-06-03_14h08.37.896,FishGame,2022.1.1,59.84587293873421,
,20,넌 지적이야,2,Green,B,5.75,4.366666666666666,ScrollUp,ScrollDown,Green.png,3,Positive,Incongruent,0,0,0,0,,,,,,,,,,,,,,,,,,,,,0,19,19,19,,,,,,,,,,,,,,,,,,,,,,,,,,,,,,,,,,,,,,,,,,,,,,,,,,,,,,,,,,,,,,,,,,,,,,,,,,,,,2,1.0209042999999838,439.17417950000026,None,ScrollUp,정답입니다,439.17417950000026,None,439.17417950000026,None,439.17417950000026,None,439.17417950000026,None,440.05302370000027,None,440.05302370000027,440.55222470000035,,,,,,,,,,,,,,,,229,2022-06-03_14h08.37.896,FishGame,2022.1.1,59.84587293873421,
,21,넌 우유부단해,4,Orange,A,2.666666666666667,3.166666666666667,ScrollDown,ScrollUp,Orange.png,3,Negative,Incongruent,0,0,0,0,,,,,,,,,,,,,,,,,,,,,0,20,20,20,,,,,,,,,,,,,,,,,,,,,,,,,,,,,,,,,,,,,,,,,,,,,,,,,,,,,,,,,,,,,,,,,,,,,,,,,,,,,1,0.9805501999999251,441.2293251000001,None,ScrollDown,정답입니다,441.2293251000001,None,441.2293251000001,None,441.2293251000001,None,441.2293251000001,None,442.0569094000002,None,442.0569094000002,442.56851159999997,,,,,,,,,,,,,,,,229,2022-06-03_14h08.37.896,FishGame,2022.1.1,59.84587293873421,
,22,나를 데려가줘,6,Green,B,0,0,ScrollDown,ScrollUp,Green.png,3,NonTarget,NonTarget,0,0,0,0,,,,,,,,,,,,,,,,,,,,,0,21,21,21,,,,,,,,,,,,,,,,,,,,,,,,,,,,,,,,,,,,,,,,,,,,,,,,,,,,,,,,,,,,,,,,,,,,,,,,,,,,,1,0.9834382000003643,443.23624960000006,None,ScrollDown,정답입니다,443.23624960000006,None,443.23624960000006,None,443.23624960000006,None,443.23624960000006,None,444.0738663000002,None,444.0738663000002,444.58362910000005,,,,,,,,,,,,,,,,229,2022-06-03_14h08.37.896,FishGame,2022.1.1,59.84587293873421,
,23,넌 성실해,1,Green,B,6.041666666666666,5.7,ScrollUp,ScrollDown,Green.png,3,Positive,Incongruent,0,0,0,0,,,,,,,,,,,,,,,,,,,,,0,22,22,22,,,,,,,,,,,,,,,,,,,,,,,,,,,,,,,,,,,,,,,,,,,,,,,,,,,,,,,,,,,,,,,,,,,,,,,,,,,,,2,0.9734017999999196,445.24576060000027,None,ScrollUp,정답입니다,445.24576060000027,None,445.24576060000027,None,445.24576060000027,None,445.24576060000027,None,446.0830744,None,446.0830744,446.5830092000001,,,,,,,,,,,,,,,,229,2022-06-03_14h08.37.896,FishGame,2022.1.1,59.84587293873421,
,24,넌 현실주의적이야,3,Orange,A,4.625,4.4,ScrollDown,ScrollUp,Orange.png,3,Neutral,Neutral,0,0,0,0,,,,,,,,,,,,,,,,,,,,,0,23,23,23,,,,,,,,,,,,,,,,,,,,,,,,,,,,,,,,,,,,,,,,,,,,,,,,,,,,,,,,,,,,,,,,,,,,,,,,,,,,,1,0.887169200000244,447.2540705000001,None,ScrollDown,정답입니다,447.2540705000001,None,447.2540705000001,None,447.2540705000001,None,447.2540705000001,None,447.99174790000006,None,447.99174790000006,448.4986564000001,,,,,,,,,,,,,,,,229,2022-06-03_14h08.37.896,FishGame,2022.1.1,59.84587293873421,
,25,넌 진실돼,1,Orange,A,6.625,5.566666666666666,ScrollDown,ScrollUp,Orange.png,3,Positive,Congruent,0,0,0,0,,,,,,,,,,,,,,,,,,,,,0,24,24,24,,,,,,,,,,,,,,,,,,,,,,,,,,,,,,,,,,,,,,,,,,,,,,,,,,,,,,,,,,,,,,,,,,,,,,,,,,,,,1.0524691541989644,0.9487659000001258,449.1689421000001,None,ScrollDown,정답입니다,449.1689421000001,None,449.1689421000001,None,449.1689421000001,None,449.1689421000001,None,449.9719073000001,None,449.9719073000001,450.48150090000036,,,,,,,,,,,,,,,,229,2022-06-03_14h08.37.896,FishGame,2022.1.1,59.84587293873421,
,26,넌 천진난만해,3,Green,B,4.958333333333334,4.833333333333333,ScrollUp,ScrollDown,Green.png,3,Neutral,Neutral,0,0,0,0,,,,,,,,,,,,,,,,,,,,,0,25,25,25,,,,,,,,,,,,,,,,,,,,,,,,,,,,,,,,,,,,,,,,,,,,,,,,,,,,,,,,,,,,,,,,,,,,,,,,,,,,,2,1.019835300000068,451.16427790000034,None,ScrollUp,정답입니다,451.16427790000034,None,451.16427790000034,None,451.16427790000034,None,451.16427790000034,None,452.03048230000013,None,452.03048230000013,452.5306373000003,,,,,,,,,,,,,,,,229,2022-06-03_14h08.37.896,FishGame,2022.1.1,59.84587293873421,
,27,넌 교양없어,5,Orange,A,2.416666666666667,2.2,ScrollDown,ScrollUp,Orange.png,3,Negative,Incongruent,0,0,0,0,,,,,,,,,,,,,,,,,,,,,0,26,26,26,,,,,,,,,,,,,,,,,,,,,,,,,,,,,,,,,,,,,,,,,,,,,,,,,,,,,,,,,,,,,,,,,,,,,,,,,,,,,1,0.9062593999997262,453.20474300000024,None,ScrollDown,정답입니다,453.20474300000024,None,453.20474300000024,None,453.20474300000024,None,453.20474300000024,None,453.9579193000004,None,453.9579193000004,454.4627727000002,,,,,,,,,,,,,,,,229,2022-06-03_14h08.37.896,FishGame,2022.1.1,59.84587293873421,
,28,나를 보내줘,6,Orange,A,0,0,ScrollUp,ScrollDown,Orange.png,3,NonTarget,NonTarget,0,0,0,0,,,,,,,,,,,,,,,,,,,,,0,27,27,27,,,,,,,,,,,,,,,,,,,,,,,,,,,,,,,,,,,,,,,,,,,,,,,,,,,,,,,,,,,,,,,,,,,,,,,,,,,,,1.9814815024534862,0.9670881000001827,455.1379930000003,None,ScrollUp,정답입니다,455.1379930000003,None,455.1379930000003,None,455.1379930000003,None,455.1379930000003,None,455.95226630000025,None,455.95226630000025,456.4617535000002,,,,,,,,,,,,,,,,229,2022-06-03_14h08.37.896,FishGame,2022.1.1,59.84587293873421,
,29,넌 엉뚱스러워,3,Orange,A,4.166666666666667,4.133333333333334,ScrollDown,ScrollUp,Orange.png,3,Neutral,Neutral,0,0,0,0,,,,,,,,,,,,,,,,,,,,,0,28,28,28,,,,,,,,,,,,,,,,,,,,,,,,,,,,,,,,,,,,,,,,,,,,,,,,,,,,,,,,,,,,,,,,,,,,,,,,,,,,,1.0138889054457347,0.8597514000002775,457.1393561,None,ScrollDown,정답입니다,457.1393561,None,457.1393561,None,457.1393561,None,457.1393561,None,457.8472918000002,None,457.8472918000002,458.360811,,,,,,,,,,,,,,,,229,2022-06-03_14h08.37.896,FishGame,2022.1.1,59.84587293873421,
,30,넌 무지해,4,Green,B,2.541666666666667,3.066666666666667,ScrollUp,ScrollDown,Green.png,3,Negative,Congruent,0,0,0,0,,,,,,,,,,,,,,,,,,,,,0,29,29,29,,,,,,,,,,,,,,,,,,,,,,,,,,,,,,,,,,,,,,,,,,,,,,,,,,,,,,,,,,,,,,,,,,,,,,,,,,,,,1.9984568059444427,0.9198735999998462,459.0186784000002,None,ScrollUp,정답입니다,459.0186784000002,None,459.0186784000002,None,459.0186784000002,None,459.0186784000002,None,459.8027248000003,None,459.8027248000003,460.3102891000003,,,,,,,,,,,,,,,,229,2022-06-03_14h08.37.896,FishGame,2022.1.1,59.84587293873421,
,31,넌 음울해,5,Green,B,2.25,2.233333333333333,ScrollUp,ScrollDown,Green.png,3,Negative,Congruent,0,0,0,0,,,,,,,,,,,,,,,,,,,,,0,30,30,30,,,,,,,,,,,,,,,,,,,,,,,,,,,,,,,,,,,,,,,,,,,,,,,,,,,,,,,,,,,,,,,,,,,,,,,,,,,,,2,0.9609452000004239,460.9854059000004,None,ScrollUp,정답입니다,460.9854059000004,None,460.9854059000004,None,460.9854059000004,None,460.9854059000004,None,461.7953332000002,None,461.7953332000002,462.3091413000002,,,,,,,,,,,,,,,,229,2022-06-03_14h08.37.896,FishGame,2022.1.1,59.84587293873421,
,32,넌 냉소적이야,5,Orange,A,2.916666666666667,2.4,ScrollDown,ScrollUp,Orange.png,3,Negative,Incongruent,0,0,0,0,,,,,,,,,,,,,,,,,,,,,0,31,31,31,,,,,,,,,,,,,,,,,,,,,,,,,,,,,,,,,,,,,,,,,,,,,,,,,,,,,,,,,,,,,,,,,,,,,,,,,,,,,1.1018518507480621,0.837076899999829,462.98515720000023,None,ScrollDown,정답입니다,462.98515720000023,None,462.98515720000023,None,462.98515720000023,None,462.98515720000023,None,463.6682128000002,None,463.6682128000002,464.1750763,,,,,,,,,,,,,,,,229,2022-06-03_14h08.37.896,FishGame,2022.1.1,59.84587293873421,
,33,나를 데려가줘,6,Green,B,0,0,ScrollDown,ScrollUp,Green.png,3,NonTarget,NonTarget,0,0,0,0,,,,,,,,,,,,,,,,,,,,,0,32,32,32,,,,,,,,,,,,,,,,,,,,,,,,,,,,,,,,,,,,,,,,,,,,,,,,,,,,,,,,,,,,,,,,,,,,,,,,,,,,,1.3055555547277131,0.8216235999998389,464.8326414000003,None,ScrollDown,정답입니다,464.8326414000003,None,464.8326414000003,None,464.8326414000003,None,464.8326414000003,None,465.51920900000005,None,465.51920900000005,466.0241105,,,,,,,,,,,,,,,,229,2022-06-03_14h08.37.896,FishGame,2022.1.1,59.84587293873421,
,34,넌 쾌활해,1,Orange,A,5.541666666666666,5.733333333333333,ScrollDown,ScrollUp,Orange.png,3,Positive,Congruent,0,0,0,0,,,,,,,,,,,,,,,,,,,,,0,33,33,33,,,,,,,,,,,,,,,,,,,,,,,,,,,,,,,,,,,,,,,,,,,,,,,,,,,,,,,,,,,,,,,,,,,,,,,,,,,,,1.837962955236435,0.8687987000002977,466.69551309999997,None,ScrollUp,오답입니다,466.69551309999997,None,466.69551309999997,None,466.69551309999997,None,466.69551309999997,None,467.4201656,None,467.4201656,467.92320510000036,,,,,,,,,,,,,,,,229,2022-06-03_14h08.37.896,FishGame,2022.1.1,59.84587293873421,
,35,나를 보내줘,6,Orange,A,0,0,ScrollUp,ScrollDown,Orange.png,3,NonTarget,NonTarget,0,0,0,0,,,,,,,,,,,,,,,,,,,,,0,34,34,34,,,,,,,,,,,,,,,,,,,,,,,,,,,,,,,,,,,,,,,,,,,,,,,,,,,,,,,,,,,,,,,,,,,,,,,,,,,,,1.8626543283462524,1.1760549000000537,468.5893651000001,None,ScrollUp,정답입니다,468.5893651000001,None,468.5893651000001,None,468.5893651000001,None,468.5893651000001,None,469.62578150000036,None,469.62578150000036,470.1388530000004,,,,,,,,,,,,,,,,229,2022-06-03_14h08.37.896,FishGame,2022.1.1,59.84587293873421,
,36,넌 명랑해,1,Green,B,5.739130434782609,5.666666666666667,ScrollUp,ScrollDown,Green.png,3,Positive,Incongruent,0,0,0,0,,,,,,,,,,,,,,,,,,,,,0,35,35,35,,,,,,,,,,,,,,,,,,,,,,,,,,,,,,,,,,,,,,,,,,,,,,,,,,,,,,,,,,,,,,,,,,,,,,,,,,,,,1.604938273628553,0.9962055000000873,470.80488110000033,None,ScrollUp,정답입니다,470.80488110000033,None,470.80488110000033,None,470.80488110000033,None,470.80488110000033,None,471.6598186000001,None,471.6598186000001,472.1714662000004,,,,,,,,,,,,,,,,229,2022-06-03_14h08.37.896,FishGame,2022.1.1,59.84587293873421,
,37,넌 멍해,4,Orange,A,2.833333333333333,3.4,ScrollDown,ScrollUp,Orange.png,3,Negative,Incongruent,0,0,0,0,,,,,,,,,,,,,,,,,,,,,0,36,36,36,,,,,,,,,,,,,,,,,,,,,,,,,,,,,,,,,,,,,,,,,,,,,,,,,,,,,,,,,,,,,,,,,,,,,,,,,,,,,1.0200617114702861,0.9833705000000919,472.84219170000006,None,ScrollDown,정답입니다,472.84219170000006,None,472.84219170000006,None,472.84219170000006,None,472.84219170000006,None,473.6773588000001,None,473.6773588000001,474.1869151000001,,,,,,,,,,,,,,,,229,2022-06-03_14h08.37.896,FishGame,2022.1.1,59.84587293873421,
,38,나를 데려가줘,6,Green,B,0,0,ScrollDown,ScrollUp,Green.png,3,NonTarget,NonTarget,0,0,0,0,,,,,,,,,,,,,,,,,,,,,0,37,37,37,,,,,,,,,,,,,,,,,,,,,,,,,,,,,,,,,,,,,,,,,,,,,,,,,,,,,,,,,,,,,,,,,,,,,,,,,,,,,1.0231481393178303,0.8896709000000556,474.8444565,None,ScrollDown,정답입니다,474.8444565,None,474.8444565,None,474.8444565,None,474.8444565,None,475.60009690000015,None,475.60009690000015,476.10284040000033,,,,,,,,,,,,,,,,229,2022-06-03_14h08.37.896,FishGame,2022.1.1,59.84587293873421,
,39,넌 현명해,2,Orange,A,6.541666666666666,4.533333333333333,ScrollDown,ScrollUp,Orange.png,3,Positive,Congruent,0,0,0,0,,,,,,,,,,,,,,,,,,,,,0,38,38,38,,,,,,,,,,,,,,,,,,,,,,,,,,,,,,,,,,,,,,,,,,,,,,,,,,,,,,,,,,,,,,,,,,,,,,,,,,,,,1.1589506169160206,1.2424642000000858,476.7845886,None,ScrollDown,정답입니다,476.7845886,None,476.7845886,None,476.7845886,None,476.7845886,None,477.8679709000003,None,477.8679709000003,478.3682815000002,,,,,,,,,,,,,,,,229,2022-06-03_14h08.37.896,FishGame,2022.1.1,59.84587293873421,
,40,넌 수줍어,3,Green,B,3.541666666666666,4.366666666666666,ScrollUp,ScrollDown,Green.png,3,Neutral,Neutral,0,0,0,0,,,,,,,,,,,,,,,,,,,,,0,39,39,39,,,,,,,,,,,,,,,,,,,,,,,,,,,,,,,,,,,,,,,,,,,,,,,,,,,,,,,,,,,,,,,,,,,,,,,,,,,,,2,1.0205876999998509,479.03463090000014,None,ScrollUp,정답입니다,479.03463090000014,None,479.03463090000014,None,479.03463090000014,None,479.03463090000014,None,479.91044150000016,None,479.91044150000016,480.4175472000002,,,,,,,,,,,,,,,,229,2022-06-03_14h08.37.896,FishGame,2022.1.1,59.84587293873421,
,41,나를 데려가줘,6,Green,B,0,0,ScrollDown,ScrollUp,Green.png,3,NonTarget,NonTarget,0,0,0,0,,,,,,,,,,,,,,,,,,,,,0,40,40,40,,,,,,,,,,,,,,,,,,,,,,,,,,,,,,,,,,,,,,,,,,,,,,,,,,,,,,,,,,,,,,,,,,,,,,,,,,,,,1,0.9549818999998934,481.07508240000016,None,ScrollDown,정답입니다,481.07508240000016,None,481.07508240000016,None,481.07508240000016,None,481.07508240000016,None,481.8964748000003,None,481.8964748000003,482.3998335000001,,,,,,,,,,,,,,,,229,2022-06-03_14h08.37.896,FishGame,2022.1.1,59.84587293873421,
,42,넌 성숙해,2,Green,B,5.833333333333333,4.533333333333333,ScrollUp,ScrollDown,Green.png,3,Positive,Incongruent,0,0,0,0,,,,,,,,,,,,,,,,,,,,,0,41,41,41,,,,,,,,,,,,,,,,,,,,,,,,,,,,,,,,,,,,,,,,,,,,,,,,,,,,,,,,,,,,,,,,,,,,,,,,,,,,,2,1.0367857999999615,483.0656863000004,None,ScrollUp,정답입니다,483.0656863000004,None,483.0656863000004,None,483.0656863000004,None,483.0656863000004,None,483.96252440000035,None,483.96252440000035,484.4655789000003,,,,,,,,,,,,,,,,229,2022-06-03_14h08.37.896,FishGame,2022.1.1,59.84587293873421,
,1,넌 매력적이야,2,Green,B,6.125,4.666666666666667,ScrollUp,ScrollDown,Green.png,4,Positive,Incongruent,0,0,0,0,,,,,,,,,,,,,,,,,,,,,,,,,0,0,0,0,,,,,,,,,,,,,,,,,,,,,,,,,,,,,,,,520.3994453,521.8985618000002,521.9320685000002,522.8817603000002,522.9314183000001,523.8812967000003,523.8812967000003,None,,,,,,,,,,,,,,,,,,,,,,,,,,,,,,,,,,2,1.074551700000029,525.0881076000001,None,ScrollUp,정답입니다,525.0881076000001,None,525.0881076000001,None,525.0881076000001,None,525.0881076000001,None,525.9650526,None,525.9650526,526.4798673,484.96523920000027,None,484.96523920000027,None,0.09074074,-0.08240741,1,0,0,0.01574986000014178,None,514.9684476000002,None,,,229,2022-06-03_14h08.37.896,FishGame,2022.1.1,59.84587293873421,
,2,나를 보내줘,6,Orange,A,0,0,ScrollUp,ScrollDown,Orange.png,4,NonTarget,NonTarget,0,0,0,0,,,,,,,,,,,,,,,,,,,,,,,,,0,1,1,1,,,,,,,,,,,,,,,,,,,,,,,,,,,,,,,,,,,,,,,,,,,,,,,,,,,,,,,,,,,,,,,,,,,,,,,,,1.9969135920206706,1.0496826000003239,527.1719986000003,None,ScrollUp,정답입니다,527.1719986000003,None,527.1719986000003,None,527.1719986000003,None,527.1719986000003,None,528.0525437000001,None,528.0525437000001,528.5621312000003,,,,,,,,,,,,,,,,229,2022-06-03_14h08.37.896,FishGame,2022.1.1,59.84587293873421,
,3,넌 조심스러워,3,Orange,A,4.791666666666666,4.666666666666667,ScrollDown,ScrollUp,Orange.png,4,Neutral,Neutral,0,0,0,0,,,,,,,,,,,,,,,,,,,,,,,,,0,2,2,2,,,,,,,,,,,,,,,,,,,,,,,,,,,,,,,,,,,,,,,,,,,,,,,,,,,,,,,,,,,,,,,,,,,,,,,,,1,0.9872371000001294,529.2357703000002,None,ScrollDown,정답입니다,529.2357703000002,None,529.2357703000002,None,529.2357703000002,None,529.2357703000002,None,530.0707308000001,None,530.0707308000001,530.5781469000003,,,,,,,,,,,,,,,,229,2022-06-03_14h08.37.896,FishGame,2022.1.1,59.84587293873421,
,4,넌 철학적이야,3,Green,B,4.5,4.266666666666667,ScrollUp,ScrollDown,Green.png,4,Neutral,Neutral,0,0,0,0,,,,,,,,,,,,,,,,,,,,,,,,,0,3,3,3,,,,,,,,,,,,,,,,,,,,,,,,,,,,,,,,,,,,,,,,,,,,,,,,,,,,,,,,,,,,,,,,,,,,,,,,,2,1.0062260999998216,531.2546230000003,None,ScrollUp,정답입니다,531.2546230000003,None,531.2546230000003,None,531.2546230000003,None,531.2546230000003,None,532.1106556,None,532.1106556,532.6104387,,,,,,,,,,,,,,,,229,2022-06-03_14h08.37.896,FishGame,2022.1.1,59.84587293873421,
,5,넌 쩨쩨해,5,Orange,A,2.375,2.133333333333333,ScrollDown,ScrollUp,Orange.png,4,Negative,Incongruent,0,0,0,0,,,,,,,,,,,,,,,,,,,,,,,,,0,4,4,4,,,,,,,,,,,,,,,,,,,,,,,,,,,,,,,,,,,,,,,,,,,,,,,,,,,,,,,,,,,,,,,,,,,,,,,,,1.016975333293279,1.0156371000002764,533.3034139000001,None,ScrollDown,정답입니다,533.3034139000001,None,533.3034139000001,None,533.3034139000001,None,533.3034139000001,None,534.1537079,None,534.1537079,534.6595053000001,,,,,,,,,,,,,,,,229,2022-06-03_14h08.37.896,FishGame,2022.1.1,59.84587293873421,
,6,나를 데려가줘,6,Green,B,0,0,ScrollDown,ScrollUp,Green.png,4,NonTarget,NonTarget,0,0,0,0,,,,,,,,,,,,,,,,,,,,,,,,,0,5,5,5,,,,,,,,,,,,,,,,,,,,,,,,,,,,,,,,,,,,,,,,,,,,,,,,,,,,,,,,,,,,,,,,,,,,,,,,,1,1.01646269999992,535.3339894000001,None,ScrollDown,정답입니다,535.3339894000001,None,535.3339894000001,None,535.3339894000001,None,535.3339894000001,None,536.1980119,None,536.1980119,536.7084998,,,,,,,,,,,,,,,,229,2022-06-03_14h08.37.896,FishGame,2022.1.1,59.84587293873421,
,7,넌 고집불통이야,5,Green,B,2.875,2,ScrollUp,ScrollDown,Green.png,4,Negative,Congruent,0,0,0,0,,,,,,,,,,,,,,,,,,,,,,,,,0,6,6,6,,,,,,,,,,,,,,,,,,,,,,,,,,,,,,,,,,,,,,,,,,,,,,,,,,,,,,,,,,,,,,,,,,,,,,,,,2,0.9436562999999296,537.3912776000002,None,ScrollUp,정답입니다,537.3912776000002,None,537.3912776000002,None,537.3912776000002,None,537.3912776000002,None,538.1760039000001,None,538.1760039000001,538.6909078000003,,,,,,,,,,,,,,,,229,2022-06-03_14h08.37.896,FishGame,2022.1.1,59.84587293873421,
,8,넌 무심해,4,Orange,A,2.875,3.2,ScrollDown,ScrollUp,Orange.png,4,Negative,Incongruent,0,0,0,0,,,,,,,,,,,,,,,,,,,,,,,,,0,7,7,7,,,,,,,,,,,,,,,,,,,,,,,,,,,,,,,,,,,,,,,,,,,,,,,,,,,,,,,,,,,,,,,,,,,,,,,,,1,1.0832553999998709,539.3699638000003,None,ScrollDown,정답입니다,539.3699638000003,None,539.3699638000003,None,539.3699638000003,None,539.3699638000003,None,540.2966631000004,None,540.2966631000004,540.8066408,,,,,,,,,,,,,,,,229,2022-06-03_14h08.37.896,FishGame,2022.1.1,59.84587293873421,
,9,넌 정겨워,1,Orange,A,5.791666666666667,5.666666666666667,ScrollDown,ScrollUp,Orange.png,4,Positive,Congruent,0,0,0,0,,,,,,,,,,,,,,,,,,,,,,,,,0,8,8,8,,,,,,,,,,,,,,,,,,,,,,,,,,,,,,,,,,,,,,,,,,,,,,,,,,,,,,,,,,,,,,,,,,,,,,,,,1.0077160497506459,0.9884804999996959,541.4894432000001,None,ScrollDown,정답입니다,541.4894432000001,None,541.4894432000001,None,541.4894432000001,None,541.4894432000001,None,542.3184853000002,None,542.3184853000002,542.8224409000004,,,,,,,,,,,,,,,,229,2022-06-03_14h08.37.896,FishGame,2022.1.1,59.84587293873421,
,10,나를 데려가줘,6,Green,B,0,0,ScrollDown,ScrollUp,Green.png,4,NonTarget,NonTarget,0,0,0,0,,,,,,,,,,,,,,,,,,,,,,,,,0,9,9,9,,,,,,,,,,,,,,,,,,,,,,,,,,,,,,,,,,,,,,,,,,,,,,,,,,,,,,,,,,,,,,,,,,,,,,,,,1.0308642089366913,0.9523764000000483,543.4922261000002,None,ScrollDown,정답입니다,543.4922261000002,None,543.4922261000002,None,543.4922261000002,None,543.4922261000002,None,544.2985251,None,544.2985251,544.8047926000004,,,,,,,,,,,,,,,,229,2022-06-03_14h08.37.896,FishGame,2022.1.1,59.84587293873421,
,11,넌 체제순응적이야,4,Green,B,3,3.6,ScrollUp,ScrollDown,Green.png,4,Negative,Congruent,0,0,0,0,,,,,,,,,,,,,,,,,,,,,,,,,0,10,10,10,,,,,,,,,,,,,,,,,,,,,,,,,,,,,,,,,,,,,,,,,,,,,,,,,,,,,,,,,,,,,,,,,,,,,,,,,2,0.989485699999932,545.4917653000002,None,ScrollUp,정답입니다,545.4917653000002,None,545.4917653000002,None,545.4917653000002,None,545.4917653000002,None,546.3234643000001,None,546.3234643000001,546.8372484000001,,,,,,,,,,,,,,,,229,2022-06-03_14h08.37.896,FishGame,2022.1.1,59.84587293873421,
,12,나를 보내줘,6,Orange,A,0,0,ScrollUp,ScrollDown,Orange.png,4,NonTarget,NonTarget,0,0,0,0,,,,,,,,,,,,,,,,,,,,,,,,,0,11,11,11,,,,,,,,,,,,,,,,,,,,,,,,,,,,,,,,,,,,,,,,,,,,,,,,,,,,,,,,,,,,,,,,,,,,,,,,,2,0.998917899999924,547.5215374000004,None,ScrollUp,정답입니다,547.5215374000004,None,547.5215374000004,None,547.5215374000004,None,547.5215374000004,None,548.3597675000001,None,548.3597675000001,548.8697392000004,,,,,,,,,,,,,,,,229,2022-06-03_14h08.37.896,FishGame,2022.1.1,59.84587293873421,
,13,넌 박식해,2,Orange,A,5.625,3.933333333333333,ScrollDown,ScrollUp,Orange.png,4,Positive,Congruent,0,0,0,0,,,,,,,,,,,,,,,,,,,,,,,,,0,12,12,12,,,,,,,,,,,,,,,,,,,,,,,,,,,,,,,,,,,,,,,,,,,,,,,,,,,,,,,,,,,,,,,,,,,,,,,,,1,1.003887300000315,549.5603045000003,None,ScrollDown,정답입니다,549.5603045000003,None,549.5603045000003,None,549.5603045000003,None,549.5603045000003,None,550.3960691000002,None,550.3960691000002,550.9020917000003,,,,,,,,,,,,,,,,229,2022-06-03_14h08.37.896,FishGame,2022.1.1,59.84587293873421,
,14,나를 보내줘,6,Orange,A,0,0,ScrollUp,ScrollDown,Orange.png,4,NonTarget,NonTarget,0,0,0,0,,,,,,,,,,,,,,,,,,,,,,,,,0,13,13,13,,,,,,,,,,,,,,,,,,,,,,,,,,,,,,,,,,,,,,,,,,,,,,,,,,,,,,,,,,,,,,,,,,,,,,,,,2,0.9456832000000759,551.5912087000002,None,ScrollUp,정답입니다,551.5912087000002,None,551.5912087000002,None,551.5912087000002,None,551.5912087000002,None,552.3745985,None,552.3745985,552.8846060000001,,,,,,,,,,,,,,,,229,2022-06-03_14h08.37.896,FishGame,2022.1.1,59.84587293873421,
,15,넌 침착해,1,Green,B,5.458333333333333,5.566666666666666,ScrollUp,ScrollDown,Green.png,4,Positive,Incongruent,0,0,0,0,,,,,,,,,,,,,,,,,,,,,,,,,0,14,14,14,,,,,,,,,,,,,,,,,,,,,,,,,,,,,,,,,,,,,,,,,,,,,,,,,,,,,,,,,,,,,,,,,,,,,,,,,2,0.9280224999997699,553.5572142000001,None,ScrollUp,정답입니다,553.5572142000001,None,553.5572142000001,None,553.5572142000001,None,553.5572142000001,None,554.3355458000001,None,554.3355458000001,554.8504935000001,,,,,,,,,,,,,,,,229,2022-06-03_14h08.37.896,FishGame,2022.1.1,59.84587293873421,
,16,나를 데려가줘,6,Green,B,0,0,ScrollDown,ScrollUp,Green.png,4,NonTarget,NonTarget,0,0,0,0,,,,,,,,,,,,,,,,,,,,,,,,,0,15,15,15,,,,,,,,,,,,,,,,,,,,,,,,,,,,,,,,,,,,,,,,,,,,,,,,,,,,,,,,,,,,,,,,,,,,,,,,,1,0.930894100000387,555.5100406000001,None,ScrollDown,정답입니다,555.5100406000001,None,555.5100406000001,None,555.5100406000001,None,555.5100406000001,None,556.3041974000002,None,556.3041974000002,556.8162095000002,,,,,,,,,,,,,,,,229,2022-06-03_14h08.37.896,FishGame,2022.1.1,59.84587293873421,
,17,넌 행복해,1,Orange,A,6.416666666666666,6.166666666666667,ScrollDown,ScrollUp,Orange.png,4,Positive,Congruent,0,0,0,0,,,,,,,,,,,,,,,,,,,,,,,,,0,16,16,16,,,,,,,,,,,,,,,,,,,,,,,,,,,,,,,,,,,,,,,,,,,,,,,,,,,,,,,,,,,,,,,,,,,,,,,,,1.0231481393178303,0.9538656999998238,557.4957624000003,None,ScrollDown,정답입니다,557.4957624000003,None,557.4957624000003,None,557.4957624000003,None,557.4957624000003,None,558.2918794000002,None,558.2918794000002,558.7984496000004,,,,,,,,,,,,,,,,229,2022-06-03_14h08.37.896,FishGame,2022.1.1,59.84587293873421,
,18,넌 겸손해,2,Green,B,5.791666666666667,4.766666666666667,ScrollUp,ScrollDown,Green.png,4,Positive,Incongruent,0,0,0,0,,,,,,,,,,,,,,,,,,,,,,,,,0,17,17,17,,,,,,,,,,,,,,,,,,,,,,,,,,,,,,,,,,,,,,,,,,,,,,,,,,,,,,,,,,,,,,,,,,,,,,,,,2,0.9186436999998477,559.4662855000001,None,ScrollUp,정답입니다,559.4662855000001,None,559.4662855000001,None,559.4662855000001,None,559.4662855000001,None,560.2403274000003,None,560.2403274000003,560.7482990000003,,,,,,,,,,,,,,,,229,2022-06-03_14h08.37.896,FishGame,2022.1.1,59.84587293873421,
,19,나를 보내줘,6,Orange,A,0,0,ScrollUp,ScrollDown,Orange.png,4,NonTarget,NonTarget,0,0,0,0,,,,,,,,,,,,,,,,,,,,,,,,,0,18,18,18,,,,,,,,,,,,,,,,,,,,,,,,,,,,,,,,,,,,,,,,,,,,,,,,,,,,,,,,,,,,,,,,,,,,,,,,,2,1.0068944999998166,561.4531152000004,None,ScrollUp,정답입니다,561.4531152000004,None,561.4531152000004,None,561.4531152000004,None,561.4531152000004,None,562.2802011000003,None,562.2802011000003,562.7798967000003,,,,,,,,,,,,,,,,229,2022-06-03_14h08.37.896,FishGame,2022.1.1,59.84587293873421,
,20,넌 의심없어,3,Orange,A,4.166666666666667,4.6,ScrollDown,ScrollUp,Orange.png,4,Neutral,Neutral,0,0,0,0,,,,,,,,,,,,,,,,,,,,,,,,,0,19,19,19,,,,,,,,,,,,,,,,,,,,,,,,,,,,,,,,,,,,,,,,,,,,,,,,,,,,,,,,,,,,,,,,,,,,,,,,,1,0.9722882000000936,563.4750722000003,None,ScrollDown,정답입니다,563.4750722000003,None,563.4750722000003,None,563.4750722000003,None,563.4750722000003,None,564.2760249000003,None,564.2760249000003,564.7790286000004,,,,,,,,,,,,,,,,229,2022-06-03_14h08.37.896,FishGame,2022.1.1,59.84587293873421,
,21,넌 시시해,4,Orange,A,2.666666666666667,2.966666666666667,ScrollDown,ScrollUp,Orange.png,4,Negative,Incongruent,0,0,0,0,,,,,,,,,,,,,,,,,,,,,,,,,0,20,20,20,,,,,,,,,,,,,,,,,,,,,,,,,,,,,,,,,,,,,,,,,,,,,,,,,,,,,,,,,,,,,,,,,,,,,,,,,1.0293209950129192,0.9173573999996734,565.4459116000003,None,ScrollDown,정답입니다,565.4459116000003,None,565.4459116000003,None,565.4459116000003,None,565.4459116000003,None,566.2187608000004,None,566.2187608000004,566.7283474000001,,,,,,,,,,,,,,,,229,2022-06-03_14h08.37.896,FishGame,2022.1.1,59.84587293873421,
,22,나를 데려가줘,6,Green,B,0,0,ScrollDown,ScrollUp,Green.png,4,NonTarget,NonTarget,0,0,0,0,,,,,,,,,,,,,,,,,,,,,,,,,0,21,21,21,,,,,,,,,,,,,,,,,,,,,,,,,,,,,,,,,,,,,,,,,,,,,,,,,,,,,,,,,,,,,,,,,,,,,,,,,1,1.0230427000001328,567.4078024,None,ScrollDown,정답입니다,567.4078024,None,567.4078024,None,567.4078024,None,567.4078024,None,568.2728614000002,None,568.2728614000002,568.7775061000002,,,,,,,,,,,,,,,,229,2022-06-03_14h08.37.896,FishGame,2022.1.1,59.84587293873421,
,23,넌 무정해,5,Orange,A,2.5,2.2,ScrollDown,ScrollUp,Orange.png,4,Negative,Incongruent,0,0,0,0,,,,,,,,,,,,,,,,,,,,,,,,,0,22,22,22,,,,,,,,,,,,,,,,,,,,,,,,,,,,,,,,,,,,,,,,,,,,,,,,,,,,,,,,,,,,,,,,,,,,,,,,,1.0339506367842357,0.9092094000002362,569.4498417,None,ScrollDown,정답입니다,569.4498417,None,569.4498417,None,569.4498417,None,569.4498417,None,570.2100707,None,570.2100707,570.7095663,,,,,,,,,,,,,,,,229,2022-06-03_14h08.37.896,FishGame,2022.1.1,59.84587293873421,
,24,넌 긍정적이야,1,Green,B,6.041666666666667,6.066666666666666,ScrollUp,ScrollDown,Green.png,4,Positive,Incongruent,0,0,0,0,,,,,,,,,,,,,,,,,,,,,,,,,0,23,23,23,,,,,,,,,,,,,,,,,,,,,,,,,,,,,,,,,,,,,,,,,,,,,,,,,,,,,,,,,,,,,,,,,,,,,,,,,1.9737654328346252,0.9417510000002949,571.3876625000003,None,ScrollUp,정답입니다,571.3876625000003,None,571.3876625000003,None,571.3876625000003,None,571.3876625000003,None,572.1783009000001,None,572.1783009000001,572.6923829000002,,,,,,,,,,,,,,,,229,2022-06-03_14h08.37.896,FishGame,2022.1.1,59.84587293873421,
,25,나를 보내줘,6,Orange,A,0,0,ScrollUp,ScrollDown,Orange.png,4,NonTarget,NonTarget,0,0,0,0,,,,,,,,,,,,,,,,,,,,,,,,,0,24,24,24,,,,,,,,,,,,,,,,,,,,,,,,,,,,,,,,,,,,,,,,,,,,,,,,,,,,,,,,,,,,,,,,,,,,,,,,,1.9305555423100789,0.9846127999999226,573.3746462000004,None,ScrollUp,정답입니다,573.3746462000004,None,573.3746462000004,None,573.3746462000004,None,573.3746462000004,None,574.2012149000002,None,574.2012149000002,574.7077563000003,,,,,,,,,,,,,,,,229,2022-06-03_14h08.37.896,FishGame,2022.1.1,59.84587293873421,
,26,넌 시기심이 많아,5,Green,B,2.458333333333333,2.233333333333333,ScrollUp,ScrollDown,Green.png,4,Negative,Congruent,0,0,0,0,,,,,,,,,,,,,,,,,,,,,,,,,0,25,25,25,,,,,,,,,,,,,,,,,,,,,,,,,,,,,,,,,,,,,,,,,,,,,,,,,,,,,,,,,,,,,,,,,,,,,,,,,2,0.9940831999997499,575.3895858000001,None,ScrollUp,정답입니다,575.3895858000001,None,575.3895858000001,None,575.3895858000001,None,575.3895858000001,None,576.2287309000003,None,576.2287309000003,576.7402761000003,,,,,,,,,,,,,,,,229,2022-06-03_14h08.37.896,FishGame,2022.1.1,59.84587293873421,
,27,넌 탁월해,2,Orange,A,5.708333333333334,4.5,ScrollDown,ScrollUp,Orange.png,4,Positive,Congruent,0,0,0,0,,,,,,,,,,,,,,,,,,,,,,,,,0,26,26,26,,,,,,,,,,,,,,,,,,,,,,,,,,,,,,,,,,,,,,,,,,,,,,,,,,,,,,,,,,,,,,,,,,,,,,,,,1,0.9771771000000626,577.4243430000001,None,ScrollDown,정답입니다,577.4243430000001,None,577.4243430000001,None,577.4243430000001,None,577.4243430000001,None,578.2414515,None,578.2414515,578.7560129000003,,,,,,,,,,,,,,,,229,2022-06-03_14h08.37.896,FishGame,2022.1.1,59.84587293873421,
,28,나를 데려가줘,6,Green,B,0,0,ScrollDown,ScrollUp,Green.png,4,NonTarget,NonTarget,0,0,0,0,,,,,,,,,,,,,,,,,,,,,,,,,0,27,27,27,,,,,,,,,,,,,,,,,,,,,,,,,,,,,,,,,,,,,,,,,,,,,,,,,,,,,,,,,,,,,,,,,,,,,,,,,1,1.0355752000000393,579.4245682000001,None,ScrollDown,정답입니다,579.4245682000001,None,579.4245682000001,None,579.4245682000001,None,579.4245682000001,None,580.3168084000004,None,580.3168084000004,580.8219785000001,,,,,,,,,,,,,,,,229,2022-06-03_14h08.37.896,FishGame,2022.1.1,59.84587293873421,
,29,넌 조용해,3,Green,B,4.333333333333333,4.166666666666667,ScrollUp,ScrollDown,Green.png,4,Neutral,Neutral,0,0,0,0,,,,,,,,,,,,,,,,,,,,,,,,,0,28,28,28,,,,,,,,,,,,,,,,,,,,,,,,,,,,,,,,,,,,,,,,,,,,,,,,,,,,,,,,,,,,,,,,,,,,,,,,,2,1.0502378999999564,581.5012556000001,None,ScrollUp,정답입니다,581.5012556000001,None,581.5012556000001,None,581.5012556000001,None,581.5012556000001,None,582.3993043,None,582.3993043,582.9041567000004,,,,,,,,,,,,,,,,229,2022-06-03_14h08.37.896,FishGame,2022.1.1,59.84587293873421,
,30,넌 다정해,1,Orange,A,5.833333333333334,5.7,ScrollDown,ScrollUp,Orange.png,4,Positive,Congruent,0,0,0,0,,,,,,,,,,,,,,,,,,,,,,,,,0,29,29,29,,,,,,,,,,,,,,,,,,,,,,,,,,,,,,,,,,,,,,,,,,,,,,,,,,,,,,,,,,,,,,,,,,,,,,,,,1.0416666567325592,0.934436900000037,583.5917572000003,None,ScrollDown,정답입니다,583.5917572000003,None,583.5917572000003,None,583.5917572000003,None,583.5917572000003,None,584.3619456000001,None,584.3619456000001,584.8699608000002,,,,,,,,,,,,,,,,229,2022-06-03_14h08.37.896,FishGame,2022.1.1,59.84587293873421,
,31,넌 능력있어,2,Green,B,6.166666666666666,4.6,ScrollUp,ScrollDown,Green.png,4,Positive,Incongruent,0,0,0,0,,,,,,,,,,,,,,,,,,,,,,,,,0,30,30,30,,,,,,,,,,,,,,,,,,,,,,,,,,,,,,,,,,,,,,,,,,,,,,,,,,,,,,,,,,,,,,,,,,,,,,,,,2,0.8936601999998857,585.5460844000004,None,ScrollUp,정답입니다,585.5460844000004,None,585.5460844000004,None,585.5460844000004,None,585.5460844000004,None,586.2854108000001,None,586.2854108000001,586.7856394,,,,,,,,,,,,,,,,229,2022-06-03_14h08.37.896,FishGame,2022.1.1,59.84587293873421,
,32,넌 불쾌해,5,Orange,A,2.125,1.933333333333333,ScrollDown,ScrollUp,Orange.png,4,Negative,Incongruent,0,0,0,0,,,,,,,,,,,,,,,,,,,,,,,,,0,31,31,31,,,,,,,,,,,,,,,,,,,,,,,,,,,,,,,,,,,,,,,,,,,,,,,,,,,,,,,,,,,,,,,,,,,,,,,,,1.0308642089366913,1.0023448000001736,587.4616283,None,ScrollDown,정답입니다,587.4616283,None,587.4616283,None,587.4616283,None,587.4616283,None,588.3137638000003,None,588.3137638000003,588.8180874,,,,,,,,,,,,,,,,229,2022-06-03_14h08.37.896,FishGame,2022.1.1,59.84587293873421,
,33,나를 데려가줘,6,Green,B,0,0,ScrollDown,ScrollUp,Green.png,4,NonTarget,NonTarget,0,0,0,0,,,,,,,,,,,,,,,,,,,,,,,,,0,32,32,32,,,,,,,,,,,,,,,,,,,,,,,,,,,,,,,,,,,,,,,,,,,,,,,,,,,,,,,,,,,,,,,,,,,,,,,,,1.0308642089366913,0.9619693999998162,589.4926370000003,None,ScrollDown,정답입니다,589.4926370000003,None,589.4926370000003,None,589.4926370000003,None,589.4926370000003,None,590.3051572000004,None,590.3051572000004,590.8174697000004,,,,,,,,,,,,,,,,229,2022-06-03_14h08.37.896,FishGame,2022.1.1,59.84587293873421,
,34,넌 유순해,3,Orange,A,4.458333333333333,5,ScrollDown,ScrollUp,Orange.png,4,Neutral,Neutral,0,0,0,0,,,,,,,,,,,,,,,,,,,,,,,,,0,33,33,33,,,,,,,,,,,,,,,,,,,,,,,,,,,,,,,,,,,,,,,,,,,,,,,,,,,,,,,,,,,,,,,,,,,,,,,,,1.1188271542390187,0.921035700000175,591.5048100000004,None,ScrollDown,정답입니다,591.5048100000004,None,591.5048100000004,None,591.5048100000004,None,591.5048100000004,None,592.2627262000001,None,592.2627262000001,592.7663359000003,,,,,,,,,,,,,,,,229,2022-06-03_14h08.37.896,FishGame,2022.1.1,59.84587293873421,
,35,넌 근심스러워,4,Green,B,2.708333333333333,3.133333333333333,ScrollUp,ScrollDown,Green.png,4,Negative,Congruent,0,0,0,0,,,,,,,,,,,,,,,,,,,,,,,,,0,34,34,34,,,,,,,,,,,,,,,,,,,,,,,,,,,,,,,,,,,,,,,,,,,,,,,,,,,,,,,,,,,,,,,,,,,,,,,,,2,0.943196799999896,593.4492452000004,None,ScrollUp,정답입니다,593.4492452000004,None,593.4492452000004,None,593.4492452000004,None,593.4492452000004,None,594.2327014000002,None,594.2327014000002,594.7323276000002,,,,,,,,,,,,,,,,229,2022-06-03_14h08.37.896,FishGame,2022.1.1,59.84587293873421,
,36,넌 세련되었어,2,Orange,A,5.5,4.6,ScrollDown,ScrollUp,Orange.png,4,Positive,Congruent,0,0,0,0,,,,,,,,,,,,,,,,,,,,,,,,,0,35,35,35,,,,,,,,,,,,,,,,,,,,,,,,,,,,,,,,,,,,,,,,,,,,,,,,,,,,,,,,,,,,,,,,,,,,,,,,,1.1358024577299755,0.9709170999999515,595.4369814000001,None,ScrollDown,정답입니다,595.4369814000001,None,595.4369814000001,None,595.4369814000001,None,595.4369814000001,None,596.2309829000001,None,596.2309829000001,596.7312034000001,,,,,,,,,,,,,,,,229,2022-06-03_14h08.37.896,FishGame,2022.1.1,59.84587293873421,
,37,나를 보내줘,6,Orange,A,0,0,ScrollUp,ScrollDown,Orange.png,4,NonTarget,NonTarget,0,0,0,0,,,,,,,,,,,,,,,,,,,,,,,,,0,36,36,36,,,,,,,,,,,,,,,,,,,,,,,,,,,,,,,,,,,,,,,,,,,,,,,,,,,,,,,,,,,,,,,,,,,,,,,,,1.9891975224018097,0.9365864999999758,597.4016245000003,None,ScrollUp,정답입니다,597.4016245000003,None,597.4016245000003,None,597.4016245000003,None,597.4016245000003,None,598.1923717,None,598.1923717,598.6974922000004,,,,,,,,,,,,,,,,229,2022-06-03_14h08.37.896,FishGame,2022.1.1,59.84587293873421,
,38,넌 확고해,3,Green,B,4.708333333333334,4.566666666666666,ScrollUp,ScrollDown,Green.png,4,Neutral,Neutral,0,0,0,0,,,,,,,,,,,,,,,,,,,,,,,,,0,37,37,37,,,,,,,,,,,,,,,,,,,,,,,,,,,,,,,,,,,,,,,,,,,,,,,,,,,,,,,,,,,,,,,,,,,,,,,,,2,0.9507194000002528,599.3631006,None,ScrollUp,정답입니다,599.3631006,None,599.3631006,None,599.3631006,None,599.3631006,None,600.1722896000001,None,600.1722896000001,600.6795144000002,,,,,,,,,,,,,,,,229,2022-06-03_14h08.37.896,FishGame,2022.1.1,59.84587293873421,
,39,넌 이해심이 많아,1,Green,B,6.041666666666668,5.533333333333333,ScrollUp,ScrollDown,Green.png,4,Positive,Incongruent,0,0,0,0,,,,,,,,,,,,,,,,,,,,,,,,,0,38,38,38,,,,,,,,,,,,,,,,,,,,,,,,,,,,,,,,,,,,,,,,,,,,,,,,,,,,,,,,,,,,,,,,,,,,,,,,,2,0.9349368999996841,601.3490201,None,ScrollUp,정답입니다,601.3490201,None,601.3490201,None,601.3490201,None,601.3490201,None,602.1380413000002,None,602.1380413000002,602.6450965000004,,,,,,,,,,,,,,,,229,2022-06-03_14h08.37.896,FishGame,2022.1.1,59.84587293873421,
,40,나를 보내줘,6,Orange,A,0,0,ScrollUp,ScrollDown,Orange.png,4,NonTarget,NonTarget,0,0,0,0,,,,,,,,,,,,,,,,,,,,,,,,,0,39,39,39,,,,,,,,,,,,,,,,,,,,,,,,,,,,,,,,,,,,,,,,,,,,,,,,,,,,,,,,,,,,,,,,,,,,,,,,,2,0.9640681000000768,603.3112899000002,None,ScrollUp,정답입니다,603.3112899000002,None,603.3112899000002,None,603.3112899000002,None,603.3112899000002,None,604.1336881000002,None,604.1336881000002,604.6442781000001,,,,,,,,,,,,,,,,229,2022-06-03_14h08.37.896,FishGame,2022.1.1,59.84587293873421,
,41,넌 거칠어,4,Orange,A,2.625,3.033333333333333,ScrollDown,ScrollUp,Orange.png,4,Negative,Incongruent,0,0,0,0,,,,,,,,,,,,,,,,,,,,,,,,,0,40,40,40,,,,,,,,,,,,,,,,,,,,,,,,,,,,,,,,,,,,,,,,,,,,,,,,,,,,,,,,,,,,,,,,,,,,,,,,,1.1574074029922485,0.9596990000000005,605.3126746000003,None,ScrollDown,정답입니다,605.3126746000003,None,605.3126746000003,None,605.3126746000003,None,605.3126746000003,None,606.1260369000001,None,606.1260369000001,606.6268300000002,,,,,,,,,,,,,,,,229,2022-06-03_14h08.37.896,FishGame,2022.1.1,59.84587293873421,
,42,넌 변덕맞아,5,Green,B,2.75,2.166666666666667,ScrollUp,ScrollDown,Green.png,4,Negative,Congruent,0,0,0,0,,,,,,,,,,,,,,,,,,,,,,,,,0,41,41,41,,,,,,,,,,,,,,,,,,,,,,,,,,,,,,,,,,,,,,,,,,,,,,,,,,,,,,,,,,,,,,,,,,,,,,,,,1.9182098805904388,1.0529308999998648,607.3071051000002,None,ScrollUp,정답입니다,607.3071051000002,None,607.3071051000002,None,607.3071051000002,None,607.3071051000002,None,608.2051972000004,None,608.2051972000004,608.7091327000003,,,,,,,,,,,,,,,,229,2022-06-03_14h08.37.896,FishGame,2022.1.1,59.84587293873421,
,43,나를 데려가줘,6,Green,B,0,0,ScrollDown,ScrollUp,Green.png,4,NonTarget,NonTarget,0,0,0,0,,,,,,,,,,,,,,,,,,,,,,,,,0,42,42,42,,,,,,,,,,,,,,,,,,,,,,,,,,,,,,,,,,,,,,,,,,,,,,,,,,,,,,,,,,,,,,,,,,,,,,,,,1.016975333293279,1.0023764000002302,609.3673415000003,None,ScrollDown,정답입니다,609.3673415000003,None,609.3673415000003,None,609.3673415000003,None,609.3673415000003,None,610.2335625000001,None,610.2335625000001,610.7415129000001,,,,,,,,,,,,,,,,229,2022-06-03_14h08.37.896,FishGame,2022.1.1,59.84587293873421,
,44,넌 외로워,4,Green,B,2.833333333333333,3.3,ScrollUp,ScrollDown,Green.png,4,Negative,Congruent,0,0,0,0,,,,,,,,,,,,,,,,,,,,,,,,,0,43,43,43,,,,,,,,,,,,,,,,,,,,,,,,,,,,,,,,,,,,,,,,,,,,,,,,,,,,,,,,,,,,,,,,,,,,,,,,,2,0.9541555999999218,611.4071088000001,None,ScrollUp,정답입니다,611.4071088000001,None,611.4071088000001,None,611.4071088000001,None,611.4071088000001,None,612.2242516000001,None,612.2242516000001,612.7242565000001,,,,,,,,,,,,,,,,229,2022-06-03_14h08.37.896,FishGame,2022.1.1,59.84587293873421,
,1,넌 불평스러워,5,Orange,A,2.25,2.066666666666667,ScrollDown,ScrollUp,Orange.png,5,Negative,Incongruent,0,0,0,0,,,,,,,,,,,,,,,,,,,,,,,,,,,,,0,0,0,0,,,,,,,,,,,,,,,,,,,,,,,,,,,,644.9927640000001,646.4918282000003,646.5249783000004,647.4755954000002,647.5250221000001,648.474749,648.474749,None,,,,,,,,,,,,,,,,,,,,,,,,,,,,,,,,,,1.0756172637144725,1.0559226000000308,649.6752259,None,ScrollDown,정답입니다,649.6752259,None,649.6752259,None,649.6752259,None,649.6752259,None,650.5340745000003,None,650.5340745000003,651.0400507000004,613.2241184000004,None,613.2241184000004,None,0.025,-0.08611111,1,0,0,0.015786660000230768,None,643.2266809000002,None,,,229,2022-06-03_14h08.37.896,FishGame,2022.1.1,59.84587293873421,
,2,나를 보내줘,6,Orange,A,0,0,ScrollUp,ScrollDown,Orange.png,5,NonTarget,NonTarget,0,0,0,0,,,,,,,,,,,,,,,,,,,,,,,,,,,,,0,1,1,1,,,,,,,,,,,,,,,,,,,,,,,,,,,,,,,,,,,,,,,,,,,,,,,,,,,,,,,,,,,,,,,,,,,,,2,0.9759902000000693,651.7233308,None,ScrollUp,정답입니다,651.7233308,None,651.7233308,None,651.7233308,None,651.7233308,None,652.5388489000002,None,652.5388489000002,653.0386798000004,,,,,,,,,,,,,,,,229,2022-06-03_14h08.37.896,FishGame,2022.1.1,59.84587293873421,
,3,넌 다재다능해,2,Green,B,6.208333333333333,4.5,ScrollUp,ScrollDown,Green.png,5,Positive,Incongruent,0,0,0,0,,,,,,,,,,,,,,,,,,,,,,,,,,,,,0,2,2,2,,,,,,,,,,,,,,,,,,,,,,,,,,,,,,,,,,,,,,,,,,,,,,,,,,,,,,,,,,,,,,,,,,,,,1.8117283930381138,0.8760638999997354,653.6901695000001,None,ScrollUp,정답입니다,653.6901695000001,None,653.6901695000001,None,653.6901695000001,None,653.6901695000001,None,654.4380295000001,None,654.4380295000001,654.9377928000004,,,,,,,,,,,,,,,,229,2022-06-03_14h08.37.896,FishGame,2022.1.1,59.84587293873421,
,4,넌 과감해,3,Orange,A,4.833333333333334,4.6,ScrollDown,ScrollUp,Orange.png,5,Neutral,Neutral,0,0,0,0,,,,,,,,,,,,,,,,,,,,,,,,,,,,,0,3,3,3,,,,,,,,,,,,,,,,,,,,,,,,,,,,,,,,,,,,,,,,,,,,,,,,,,,,,,,,,,,,,,,,,,,,,1,1.0156452999999601,655.5941567,None,ScrollDown,정답입니다,655.5941567,None,655.5941567,None,655.5941567,None,655.5941567,None,656.4778305,None,656.4778305,656.9869575000002,,,,,,,,,,,,,,,,229,2022-06-03_14h08.37.896,FishGame,2022.1.1,59.84587293873421,
,5,넌 고분고분해,3,Green,B,3.75,4.033333333333333,ScrollUp,ScrollDown,Green.png,5,Neutral,Neutral,0,0,0,0,,,,,,,,,,,,,,,,,,,,,,,,,,,,,0,4,4,4,,,,,,,,,,,,,,,,,,,,,,,,,,,,,,,,,,,,,,,,,,,,,,,,,,,,,,,,,,,,,,,,,,,,,2,1.012094100000013,657.6736885,None,ScrollUp,정답입니다,657.6736885,None,657.6736885,None,657.6736885,None,657.6736885,None,658.5243327000003,None,658.5243327000003,659.0363467000002,,,,,,,,,,,,,,,,229,2022-06-03_14h08.37.896,FishGame,2022.1.1,59.84587293873421,
,6,나를 보내줘,6,Orange,A,0,0,ScrollUp,ScrollDown,Orange.png,5,NonTarget,NonTarget,0,0,0,0,,,,,,,,,,,,,,,,,,,,,,,,,,,,,0,5,5,5,,,,,,,,,,,,,,,,,,,,,,,,,,,,,,,,,,,,,,,,,,,,,,,,,,,,,,,,,,,,,,,,,,,,,1.9938271641731262,0.8928458000000319,659.7335993000002,None,ScrollUp,정답입니다,659.7335993000002,None,659.7335993000002,None,659.7335993000002,None,659.7335993000002,None,660.4577633000004,None,660.4577633000004,660.9688514000004,,,,,,,,,,,,,,,,229,2022-06-03_14h08.37.896,FishGame,2022.1.1,59.84587293873421,
,7,넌 잘 잊어,4,Orange,A,3,3.7,ScrollDown,ScrollUp,Orange.png,5,Negative,Incongruent,0,0,0,0,,,,,,,,,,,,,,,,,,,,,,,,,,,,,0,6,6,6,,,,,,,,,,,,,,,,,,,,,,,,,,,,,,,,,,,,,,,,,,,,,,,,,,,,,,,,,,,,,,,,,,,,,1.0663580298423767,0.9679702999997062,661.6880186000003,None,ScrollDown,정답입니다,661.6880186000003,None,661.6880186000003,None,661.6880186000003,None,661.6880186000003,None,662.4698953000002,None,662.4698953000002,662.9847485,,,,,,,,,,,,,,,,229,2022-06-03_14h08.37.896,FishGame,2022.1.1,59.84587293873421,
,8,넌 탐구심이없어,4,Green,B,2.833333333333333,3.066666666666667,ScrollUp,ScrollDown,Green.png,5,Negative,Congruent,0,0,0,0,,,,,,,,,,,,,,,,,,,,,,,,,,,,,0,7,7,7,,,,,,,,,,,,,,,,,,,,,,,,,,,,,,,,,,,,,,,,,,,,,,,,,,,,,,,,,,,,,,,,,,,,,2,0.9017700999997942,663.7054788,None,ScrollUp,정답입니다,663.7054788,None,663.7054788,None,663.7054788,None,663.7054788,None,664.4123394000003,None,664.4123394000003,664.9170369000003,,,,,,,,,,,,,,,,229,2022-06-03_14h08.37.896,FishGame,2022.1.1,59.84587293873421,
,9,나를 데려가줘,6,Green,B,0,0,ScrollDown,ScrollUp,Green.png,5,NonTarget,NonTarget,0,0,0,0,,,,,,,,,,,,,,,,,,,,,,,,,,,,,0,8,8,8,,,,,,,,,,,,,,,,,,,,,,,,,,,,,,,,,,,,,,,,,,,,,,,,,,,,,,,,,,,,,,,,,,,,,1.0478395124276478,0.9445925999998508,665.6067635000004,None,ScrollDown,정답입니다,665.6067635000004,None,665.6067635000004,None,665.6067635000004,None,665.6067635000004,None,666.3889076,None,666.3889076,666.8993747000004,,,,,,,,,,,,,,,,229,2022-06-03_14h08.37.896,FishGame,2022.1.1,59.84587293873421,
,10,넌 참되어,2,Orange,A,6.041666666666664,4.733333333333333,ScrollDown,ScrollUp,Orange.png,5,Positive,Congruent,0,0,0,0,,,,,,,,,,,,,,,,,,,,,,,,,,,,,0,9,9,9,,,,,,,,,,,,,,,,,,,,,,,,,,,,,,,,,,,,,,,,,,,,,,,,,,,,,,,,,,,,,,,,,,,,,1,0.9849223999999595,667.6068540000001,None,ScrollDown,정답입니다,667.6068540000001,None,667.6068540000001,None,667.6068540000001,None,667.6068540000001,None,668.4102165000004,None,668.4102165000004,668.9154210000002,,,,,,,,,,,,,,,,229,2022-06-03_14h08.37.896,FishGame,2022.1.1,59.84587293873421,
,11,넌 생기있어,1,Green,B,5.875,5.633333333333334,ScrollUp,ScrollDown,Green.png,5,Positive,Incongruent,0,0,0,0,,,,,,,,,,,,,,,,,,,,,,,,,,,,,0,10,10,10,,,,,,,,,,,,,,,,,,,,,,,,,,,,,,,,,,,,,,,,,,,,,,,,,,,,,,,,,,,,,,,,,,,,,1.959876557191213,1.0181711999998697,669.6198305000003,None,ScrollUp,정답입니다,669.6198305000003,None,669.6198305000003,None,669.6198305000003,None,669.6198305000003,None,670.4610717,None,670.4610717,670.9641001,,,,,,,,,,,,,,,,229,2022-06-03_14h08.37.896,FishGame,2022.1.1,59.84587293873421,
,12,넌 비사교적이야,4,Green,B,2.875,2.9,ScrollUp,ScrollDown,Green.png,5,Negative,Congruent,0,0,0,0,,,,,,,,,,,,,,,,,,,,,,,,,,,,,0,11,11,11,,,,,,,,,,,,,,,,,,,,,,,,,,,,,,,,,,,,,,,,,,,,,,,,,,,,,,,,,,,,,,,,,,,,,2,0.9877050000000054,671.6558180000002,None,ScrollUp,정답입니다,671.6558180000002,None,671.6558180000002,None,671.6558180000002,None,671.6558180000002,None,672.4796317,None,672.4796317,672.9799506000004,,,,,,,,,,,,,,,,229,2022-06-03_14h08.37.896,FishGame,2022.1.1,59.84587293873421,
,13,나를 데려가줘,6,Green,B,0,0,ScrollDown,ScrollUp,Green.png,5,NonTarget,NonTarget,0,0,0,0,,,,,,,,,,,,,,,,,,,,,,,,,,,,,0,12,12,12,,,,,,,,,,,,,,,,,,,,,,,,,,,,,,,,,,,,,,,,,,,,,,,,,,,,,,,,,,,,,,,,,,,,,1.0262345671653748,1.059641400000146,673.6766379000001,None,ScrollDown,정답입니다,673.6766379000001,None,673.6766379000001,None,673.6766379000001,None,673.6766379000001,None,674.5680325000003,None,674.5680325000003,675.0792157000001,,,,,,,,,,,,,,,,229,2022-06-03_14h08.37.896,FishGame,2022.1.1,59.84587293873421,
,14,넌 고독해,4,Orange,A,2.916666666666667,3.233333333333333,ScrollDown,ScrollUp,Orange.png,5,Negative,Incongruent,0,0,0,0,,,,,,,,,,,,,,,,,,,,,,,,,,,,,0,13,13,13,,,,,,,,,,,,,,,,,,,,,,,,,,,,,,,,,,,,,,,,,,,,,,,,,,,,,,,,,,,,,,,,,,,,,1.0648148159186046,1.0098480999999992,675.7902127000002,None,ScrollDown,정답입니다,675.7902127000002,None,675.7902127000002,None,675.7902127000002,None,675.7902127000002,None,676.6165333000004,None,676.6165333000004,677.1280359000002,,,,,,,,,,,,,,,,229,2022-06-03_14h08.37.896,FishGame,2022.1.1,59.84587293873421,
,15,넌 신경질적이야,5,Green,B,2.375,2.233333333333333,ScrollUp,ScrollDown,Green.png,5,Negative,Congruent,0,0,0,0,,,,,,,,,,,,,,,,,,,,,,,,,,,,,0,14,14,14,,,,,,,,,,,,,,,,,,,,,,,,,,,,,,,,,,,,,,,,,,,,,,,,,,,,,,,,,,,,,,,,,,,,,1.8225308656692505,0.9169081999998525,677.8544851000001,None,ScrollUp,정답입니다,677.8544851000001,None,677.8544851000001,None,677.8544851000001,None,677.8544851000001,None,678.5721337,None,678.5721337,679.0769480000004,,,,,,,,,,,,,,,,229,2022-06-03_14h08.37.896,FishGame,2022.1.1,59.84587293873421,
,16,넌 똑똑해,2,Green,B,5.666666666666667,3.966666666666667,ScrollUp,ScrollDown,Green.png,5,Positive,Incongruent,0,0,0,0,,,,,,,,,,,,,,,,,,,,,,,,,,,,,0,15,15,15,,,,,,,,,,,,,,,,,,,,,,,,,,,,,,,,,,,,,,,,,,,,,,,,,,,,,,,,,,,,,,,,,,,,,1.8657407313585281,0.9607273999999961,679.7726874,None,ScrollUp,정답입니다,679.7726874,None,679.7726874,None,679.7726874,None,679.7726874,None,680.5609629,None,680.5609629,681.0762105000003,,,,,,,,,,,,,,,,229,2022-06-03_14h08.37.896,FishGame,2022.1.1,59.84587293873421,
,17,나를 보내줘,6,Orange,A,0,0,ScrollUp,ScrollDown,Orange.png,5,NonTarget,NonTarget,0,0,0,0,,,,,,,,,,,,,,,,,,,,,,,,,,,,,0,16,16,16,,,,,,,,,,,,,,,,,,,,,,,,,,,,,,,,,,,,,,,,,,,,,,,,,,,,,,,,,,,,,,,,,,,,,2,0.9857805999999982,681.7414685000003,None,ScrollUp,정답입니다,681.7414685000003,None,681.7414685000003,None,681.7414685000003,None,681.7414685000003,None,682.5846869000002,None,682.5846869000002,683.0918014000003,,,,,,,,,,,,,,,,229,2022-06-03_14h08.37.896,FishGame,2022.1.1,59.84587293873421,
