name,TrialNum,Word,WordCategory,FishType,WordList,WordValence,WordReputation,CorrectResp,IncorrectResp,FishTypeFile,Round,WordType,Condition,LoopforOrange.thisRepN,LoopforOrange.thisTrialN,LoopforOrange.thisN,LoopforOrange.thisIndex,LoopForGreen.thisRepN,LoopForGreen.thisTrialN,LoopForGreen.thisN,LoopForGreen.thisIndex,GreenInstLoop.thisRepN,GreenInstLoop.thisTrialN,GreenInstLoop.thisN,GreenInstLoop.thisIndex,GreenPrac.thisRepN,GreenPrac.thisTrialN,GreenPrac.thisN,GreenPrac.thisIndex,trials_2.thisRepN,trials_2.thisTrialN,trials_2.thisN,trials_2.thisIndex,GreenRound1.thisRepN,GreenRound1.thisTrialN,GreenRound1.thisN,GreenRound1.thisIndex,GreenRound2.thisRepN,GreenRound2.thisTrialN,GreenRound2.thisN,GreenRound2.thisIndex,GreenRound3.thisRepN,GreenRound3.thisTrialN,GreenRound3.thisN,GreenRound3.thisIndex,GreenRound4.thisRepN,GreenRound4.thisTrialN,GreenRound4.thisN,GreenRound4.thisIndex,GreenRound5.thisRepN,GreenRound5.thisTrialN,GreenRound5.thisN,GreenRound5.thisIndex,text_2.started,text_2.stopped,text_3.started,text_3.stopped,key_resp.keys,key_resp.rt,key_resp.started,key_resp.stopped,PassI.started,PassI.stopped,PassInst.keys,PassInst.rt,PassInst.started,PassInst.stopped,mouse_2.x,mouse_2.y,mouse_2.leftButton,mouse_2.midButton,mouse_2.rightButton,mouse_2.started,mouse_2.stopped,image.started,image.stopped,text_5.started,text_5.stopped,text_6.started,text_6.stopped,text_7.started,text_7.stopped,text_8.started,text_8.stopped,slider_3.response,slider_3.rt,slider_3.started,slider_3.stopped,Response_3,Feedback_3,BackGround_3.started,BackGround_3.stopped,Fish_3.started,Fish_3.stopped,WordBox_3.started,WordBox_3.stopped,Words_3.started,Words_3.stopped,BackGround_Feedback_3.started,BackGround_Feedback_3.stopped,Feedbacks_3.started,Feedbacks_3.stopped,Continue_or_not_2.keys,Continue_or_not_2.rt,Continue_or_not_2.started,Continue_or_not_2.stopped,image_4.started,image_4.stopped,mouse_3.x,mouse_3.y,mouse_3.leftButton,mouse_3.midButton,mouse_3.rightButton,mouse_3.started,mouse_3.stopped,startmain.started,startmain.stopped,slider_4.response,slider_4.rt,slider_4.started,slider_4.stopped,Response_4,Feedback_4,BackGround_4.started,BackGround_4.stopped,Fish_4.started,Fish_4.stopped,WordBox_4.started,WordBox_4.stopped,Words_4.started,Words_4.stopped,BackGround_Feedback_4.started,BackGround_Feedback_4.stopped,Feedbacks_4.started,Feedbacks_4.stopped,text.started,text.stopped,break_interval.started,break_interval.stopped,mouse.x,mouse.y,mouse.leftButton,mouse.midButton,mouse.rightButton,mouse.started,mouse.stopped,stratnextround.started,stratnextround.stopped,endgame.started,endgame.stopped,participant,date,expName,psychopyVersion,frameRate,
,,,,,,,,,,,,,,,,,,,,,,,,,,,,,,,,,,,,,,,,,,,,,,,,,,,,,,23.613866499999858,None,23.613866499999858,None,space,9.169033500000296,24.08420710000064,None,,,,,,,,,,,,,,,,,,,,,,,,,,,,,,,,,,,,,,,,,,,,,,,,,,,,,,,,,,,,,,,,,,,,,,,,,,,,,,,,,,,,,,,,,,230,2022-06-03_16h09.12.376,FishGame,2022.1.1,60.03269380480112,
물고기과제_instruction(참가자용)GreenVersion.mp4,,,,,,,,,,,,,,,,,,0,0,0,0,0,0,0,0,,,,,,,,,,,,,,,,,,,,,,,,,,,,,,,,,,,,,100.05558910000036,None,n,2.1420533999989857,100.05558910000036,None,,,,,,,,,,,,,,,,,,,,,,,,,,,,,,,,,,,,,,,,,,,,,,,,,,,,,,,,,,,,,,,,,,,,,,,,,,,,,,,,,,,,230,2022-06-03_16h09.12.376,FishGame,2022.1.1,60.03269380480112,
,1,넌 교활해,5,Orange,B,2.333333333333333,2.133333333333333,ScrollUp,ScrollDown,Orange.png,practice,,,,,,,0,0,0,0,,,,,0,0,0,0,0,0,0,0,,,,,,,,,,,,,,,,,,,,,,,,,,,,,,,,,,,0.34814814,-0.19814815,1,0,0,0.5142206899981829,None,102.22748110000066,None,105.37402220000149,106.87377850000121,106.90714500000104,107.85705710000002,107.90698900000098,108.8569234000006,108.8569234000006,None,1.28703702489535,1.7632883999995101,110.04792020000059,None,ScrollDown,오답입니다,110.04792020000059,None,110.04792020000059,None,110.04792020000059,None,110.04792020000059,None,111.62971800000014,None,111.62971800000014,112.13947830000143,,,,,,,,,,,,,,,,,,,,,,,,,,,,,,,,,,,,,,,,,,,,,,,,,230,2022-06-03_16h09.12.376,FishGame,2022.1.1,60.03269380480112,
,2,넌 슬기로워,2,Green,A,6.166666666666667,4.1,ScrollDown,ScrollUp,Green.png,practice,,,,,,,0,0,0,0,,,,,0,0,0,0,0,1,1,1,,,,,,,,,,,,,,,,,,,,,,,,,,,,,,,,,,,,,,,,,,,,,,,,,,,,1.2577160596847534,2.688239600000088,112.79853010000079,None,ScrollDown,정답입니다,112.79853010000079,None,112.79853010000079,None,112.79853010000079,None,112.79853010000079,None,115.35249550000117,None,115.35249550000117,115.85574580000139,,,,,,,,,,,,,,,,,,,,,,,,,,,,,,,,,,,,,,,,,,,,,,,,,230,2022-06-03_16h09.12.376,FishGame,2022.1.1,60.03269380480112,
,3,나를 보내줘,6,Green,A,0,0,ScrollUp,ScrollDown,Green.png,practice,,,,,,,0,0,0,0,,,,,0,0,0,0,0,2,2,2,,,,,,,,,,,,,,,,,,,,,,,,,,,,,,,,,,,,,,,,,,,,,,,,,,,,1.632716049750646,1.503458999999566,116.50965230000111,None,ScrollUp,정답입니다,116.50965230000111,None,116.50965230000111,None,116.50965230000111,None,116.50965230000111,None,117.88138910000089,None,117.88138910000089,118.38872310000079,,,,,,,,,,,,,,,,,,,,,,,,,,,,,,,,,,,,,,,,,,,,,,,,,230,2022-06-03_16h09.12.376,FishGame,2022.1.1,60.03269380480112,
,4,나를 데려가줘,6,Orange,B,0,0,ScrollDown,ScrollUp,Orange.png,practice,,,,,,,0,0,0,0,,,,,0,0,0,0,0,3,3,3,,,,,,,,,,,,,,,,,,,,,,,,,,,,,,,,,,,,,,,,,,,,,,,,,,,,1.214506169160207,1.6333408999998937,119.04704780000066,None,ScrollDown,정답입니다,119.04704780000066,None,119.04704780000066,None,119.04704780000066,None,119.04704780000066,None,120.54703390000032,None,120.54703390000032,121.05500660000143,,,,,,,,,,,,,,,,,,,,,,,,,,,,,,,,,,,,,,,,,,,,,,,,,230,2022-06-03_16h09.12.376,FishGame,2022.1.1,60.03269380480112,
,1,넌 교활해,5,Orange,B,2.333333333333333,2.133333333333333,ScrollUp,ScrollDown,Orange.png,practice,,,,,,,0,0,0,0,,,,,0,0,0,0,,,,,,,,,,,,,,,,,,,,,,,,,,,,,,,,,,,,,,,,,,,,,,,,,,,,,,,,,,,,,,,,,,,,,,,,,,n,2.7327894999998534,121.55503820000013,None,121.55503820000013,None,,,,,,,,,,,,,,,,,,,,,,,,,,,,,,,,,,,,,,,,,,,230,2022-06-03_16h09.12.376,FishGame,2022.1.1,60.03269380480112,
,1,넌 따뜻해,1,Orange,B,6.083333333333333,5.6,ScrollUp,ScrollDown,Orange.png,1,Positive,Incongruent,,,,,0,0,0,0,,,,,,,,,,,,,0,0,0,0,,,,,,,,,,,,,,,,,,,,,,,,,,,,,,,,,,,,,,,,125.47163340000043,126.9710885000004,127.00427180000042,127.95436560000053,128.0041807000016,128.95418990000144,128.95418990000144,None,,,,,,,,,,,,,,,,,,,,,,,,,0.32592592,-0.12962963,1,0,0,0.3134572900016792,None,124.30482930000107,None,1.6003086442748704,1.8857007999995403,130.16462339999998,None,ScrollUp,정답입니다,130.16462339999998,None,130.16462339999998,None,130.16462339999998,None,130.16462339999998,None,131.85390950000146,None,131.85390950000146,132.3536976000014,,,,,,,,,,,,,,,,230,2022-06-03_16h09.12.376,FishGame,2022.1.1,60.03269380480112,
,2,넌 기품있어,2,Orange,B,5.791666666666668,4.5,ScrollUp,ScrollDown,Orange.png,1,Positive,Incongruent,,,,,0,0,0,0,,,,,,,,,,,,,0,1,1,1,,,,,,,,,,,,,,,,,,,,,,,,,,,,,,,,,,,,,,,,,,,,,,,,,,,,,,,,,,,,,,,,,,,,,,,,,,,,,,,,,1.5771604912976422,1.1774655999997776,133.02320560000044,None,ScrollUp,정답입니다,133.02320560000044,None,133.02320560000044,None,133.02320560000044,None,133.02320560000044,None,134.054887100001,None,134.054887100001,134.57006080000065,,,,,,,,,,,,,,,,230,2022-06-03_16h09.12.376,FishGame,2022.1.1,60.03269380480112,
,3,나를 보내줘,6,Green,A,0,0,ScrollUp,ScrollDown,Green.png,1,NonTarget,NonTarget,,,,,0,0,0,0,,,,,,,,,,,,,0,2,2,2,,,,,,,,,,,,,,,,,,,,,,,,,,,,,,,,,,,,,,,,,,,,,,,,,,,,,,,,,,,,,,,,,,,,,,,,,,,,,,,,,1.6666666691501937,1.2955184999991616,135.2399105000004,None,ScrollUp,정답입니다,135.2399105000004,None,135.2399105000004,None,135.2399105000004,None,135.2399105000004,None,136.38904420000108,None,136.38904420000108,136.90306110000165,,,,,,,,,,,,,,,,230,2022-06-03_16h09.12.376,FishGame,2022.1.1,60.03269380480112,
,4,넌 수동적이야,4,Green,A,2.833333333333333,2.933333333333333,ScrollDown,ScrollUp,Green.png,1,Negative,Incongruent,,,,,0,0,0,0,,,,,,,,,,,,,0,3,3,3,,,,,,,,,,,,,,,,,,,,,,,,,,,,,,,,,,,,,,,,,,,,,,,,,,,,,,,,,,,,,,,,,,,,,,,,,,,,,,,,,1.5509259259949126,1.2505967000015517,137.5820590000003,None,ScrollUp,오답입니다,137.5820590000003,None,137.5820590000003,None,137.5820590000003,None,137.5820590000003,None,138.68027470000015,None,138.68027470000015,139.1861194000012,,,,,,,,,,,,,,,,230,2022-06-03_16h09.12.376,FishGame,2022.1.1,60.03269380480112,
,5,넌 사심이 없어,3,Orange,B,4.916666666666666,4.333333333333333,ScrollUp,ScrollDown,Orange.png,1,Neutral,Neutral,,,,,0,0,0,0,,,,,,,,,,,,,0,4,4,4,,,,,,,,,,,,,,,,,,,,,,,,,,,,,,,,,,,,,,,,,,,,,,,,,,,,,,,,,,,,,,,,,,,,,,,,,,,,,,,,,1.6728395000100136,1.1344721000004938,139.860341900001,None,ScrollUp,정답입니다,139.860341900001,None,139.860341900001,None,139.860341900001,None,139.860341900001,None,140.84563479999997,None,140.84563479999997,141.35247060000074,,,,,,,,,,,,,,,,230,2022-06-03_16h09.12.376,FishGame,2022.1.1,60.03269380480112,
,6,넌 헤퍼,5,Green,A,2.458333333333334,2.233333333333333,ScrollDown,ScrollUp,Green.png,1,Negative,Incongruent,,,,,0,0,0,0,,,,,,,,,,,,,0,5,5,5,,,,,,,,,,,,,,,,,,,,,,,,,,,,,,,,,,,,,,,,,,,,,,,,,,,,,,,,,,,,,,,,,,,,,,,,,,,,,,,,,1.2577160596847534,1.1277824999997392,142.01075200000014,None,ScrollDown,정답입니다,142.01075200000014,None,142.01075200000014,None,142.01075200000014,None,142.01075200000014,None,142.99895190000098,None,142.99895190000098,143.5021841000016,,,,,,,,,,,,,,,,230,2022-06-03_16h09.12.376,FishGame,2022.1.1,60.03269380480112,
,7,넌 말쑥해,3,Green,A,4.833333333333334,4.333333333333333,ScrollDown,ScrollUp,Green.png,1,Neutral,Neutral,,,,,0,0,0,0,,,,,,,,,,,,,0,6,6,6,,,,,,,,,,,,,,,,,,,,,,,,,,,,,,,,,,,,,,,,,,,,,,,,,,,,,,,,,,,,,,,,,,,,,,,,,,,,,,,,,1.2222222139437993,1.045083799999702,144.167536500001,None,ScrollDown,정답입니다,144.167536500001,None,144.167536500001,None,144.167536500001,None,144.167536500001,None,145.06913710000117,None,145.06913710000117,145.56856550000157,,,,,,,,,,,,,,,,230,2022-06-03_16h09.12.376,FishGame,2022.1.1,60.03269380480112,
,8,넌 투덜거려,5,Orange,B,2.541666666666667,2.266666666666667,ScrollUp,ScrollDown,Orange.png,1,Negative,Congruent,,,,,0,0,0,0,,,,,,,,,,,,,0,7,7,7,,,,,,,,,,,,,,,,,,,,,,,,,,,,,,,,,,,,,,,,,,,,,,,,,,,,,,,,,,,,,,,,,,,,,,,,,,,,,,,,,1.6712962985038757,1.2202078999998776,146.24554770000032,None,ScrollUp,정답입니다,146.24554770000032,None,146.24554770000032,None,146.24554770000032,None,146.24554770000032,None,147.31141580000076,None,147.31141580000076,147.81822420000026,,,,,,,,,,,,,,,,230,2022-06-03_16h09.12.376,FishGame,2022.1.1,60.03269380480112,
,9,넌 적극적이야,1,Green,A,5.708333333333333,5.533333333333333,ScrollDown,ScrollUp,Green.png,1,Positive,Congruent,,,,,0,0,0,0,,,,,,,,,,,,,0,8,8,8,,,,,,,,,,,,,,,,,,,,,,,,,,,,,,,,,,,,,,,,,,,,,,,,,,,,,,,,,,,,,,,,,,,,,,,,,,,,,,,,,1.2716049353281655,1.0796860999998898,148.4744051000016,None,ScrollDown,정답입니다,148.4744051000016,None,148.4744051000016,None,148.4744051000016,None,148.4744051000016,None,149.41941980000047,None,149.41941980000047,149.9348890000001,,,,,,,,,,,,,,,,230,2022-06-03_16h09.12.376,FishGame,2022.1.1,60.03269380480112,
,10,넌 재미없어,4,Orange,B,2.625,2.966666666666667,ScrollUp,ScrollDown,Orange.png,1,Negative,Congruent,,,,,0,0,0,0,,,,,,,,,,,,,0,9,9,9,,,,,,,,,,,,,,,,,,,,,,,,,,,,,,,,,,,,,,,,,,,,,,,,,,,,,,,,,,,,,,,,,,,,,,,,,,,,,,,,,1.6064814875523248,1.0736980000001495,150.59257520000028,None,ScrollUp,정답입니다,150.59257520000028,None,150.59257520000028,None,150.59257520000028,None,150.59257520000028,None,151.52971230000003,None,151.52971230000003,152.0344782000011,,,,,,,,,,,,,,,,230,2022-06-03_16h09.12.376,FishGame,2022.1.1,60.03269380480112,
,11,넌 명석해,2,Green,A,5.875,4.033333333333333,ScrollDown,ScrollUp,Green.png,1,Positive,Congruent,,,,,0,0,0,0,,,,,,,,,,,,,0,10,10,10,,,,,,,,,,,,,,,,,,,,,,,,,,,,,,,,,,,,,,,,,,,,,,,,,,,,,,,,,,,,,,,,,,,,,,,,,,,,,,,,,1.387345681587855,1.0858344999996916,152.6936843000003,None,ScrollDown,정답입니다,152.6936843000003,None,152.6936843000003,None,152.6936843000003,None,152.6936843000003,None,153.64341220000097,None,153.64341220000097,154.15088470000046,,,,,,,,,,,,,,,,230,2022-06-03_16h09.12.376,FishGame,2022.1.1,60.03269380480112,
,12,나를 데려가줘,6,Orange,B,0,0,ScrollDown,ScrollUp,Orange.png,1,NonTarget,NonTarget,,,,,0,0,0,0,,,,,,,,,,,,,0,11,11,11,,,,,,,,,,,,,,,,,,,,,,,,,,,,,,,,,,,,,,,,,,,,,,,,,,,,,,,,,,,,,,,,,,,,,,,,,,,,,,,,,1.5555555584530034,1.2343985000006796,154.8143995999999,None,ScrollUp,오답입니다,154.8143995999999,None,154.8143995999999,None,154.8143995999999,None,154.8143995999999,None,155.9091468000006,None,155.9091468000006,156.41736450000099,,,,,,,,,,,,,,,,230,2022-06-03_16h09.12.376,FishGame,2022.1.1,60.03269380480112,
,13,넌 소심해,4,Green,A,3,3.1,ScrollDown,ScrollUp,Green.png,1,Negative,Incongruent,,,,,0,0,0,0,,,,,,,,,,,,,0,12,12,12,,,,,,,,,,,,,,,,,,,,,,,,,,,,,,,,,,,,,,,,,,,,,,,,,,,,,,,,,,,,,,,,,,,,,,,,,,,,,,,,,1.2638888905445733,1.171796099999483,157.07719240000006,None,ScrollDown,정답입니다,157.07719240000006,None,157.07719240000006,None,157.07719240000006,None,157.07719240000006,None,158.1139774000003,None,158.1139774000003,158.61699790000057,,,,,,,,,,,,,,,,230,2022-06-03_16h09.12.376,FishGame,2022.1.1,60.03269380480112,
,14,넌 합리적이야,2,Green,A,5.583333333333333,4.733333333333333,ScrollDown,ScrollUp,Green.png,1,Positive,Congruent,,,,,0,0,0,0,,,,,,,,,,,,,0,13,13,13,,,,,,,,,,,,,,,,,,,,,,,,,,,,,,,,,,,,,,,,,,,,,,,,,,,,,,,,,,,,,,,,,,,,,,,,,,,,,,,,,1.1975308656692505,0.9925995000012335,159.28639939999994,None,ScrollDown,정답입니다,159.28639939999994,None,159.28639939999994,None,159.28639939999994,None,159.28639939999994,None,160.1283510000012,None,160.1283510000012,160.6333494999999,,,,,,,,,,,,,,,,230,2022-06-03_16h09.12.376,FishGame,2022.1.1,60.03269380480112,
,15,넌 무자비해,5,Orange,B,2.333333333333333,2.1,ScrollUp,ScrollDown,Orange.png,1,Negative,Congruent,,,,,0,0,0,0,,,,,,,,,,,,,0,14,14,14,,,,,,,,,,,,,,,,,,,,,,,,,,,,,,,,,,,,,,,,,,,,,,,,,,,,,,,,,,,,,,,,,,,,,,,,,,,,,,,,,1.7361111094554267,1.7005501000003278,161.30001679999987,None,ScrollUp,정답입니다,161.30001679999987,None,161.30001679999987,None,161.30001679999987,None,161.30001679999987,None,162.85736650000035,None,162.85736650000035,163.36644660000093,,,,,,,,,,,,,,,,230,2022-06-03_16h09.12.376,FishGame,2022.1.1,60.03269380480112,
,16,나를 보내줘,6,Green,A,0,0,ScrollUp,ScrollDown,Green.png,1,NonTarget,NonTarget,,,,,0,0,0,0,,,,,,,,,,,,,0,15,15,15,,,,,,,,,,,,,,,,,,,,,,,,,,,,,,,,,,,,,,,,,,,,,,,,,,,,,,,,,,,,,,,,,,,,,,,,,,,,,,,,,1.6080246890584626,1.2511808000017481,164.02783760000057,None,ScrollUp,정답입니다,164.02783760000057,None,164.02783760000057,None,164.02783760000057,None,164.02783760000057,None,165.14011850000134,None,165.14011850000134,165.64940860000024,,,,,,,,,,,,,,,,230,2022-06-03_16h09.12.376,FishGame,2022.1.1,60.03269380480112,
,17,넌 현실적이야,3,Orange,B,4.608695652173913,4.766666666666667,ScrollUp,ScrollDown,Orange.png,1,Neutral,Neutral,,,,,0,0,0,0,,,,,,,,,,,,,0,16,16,16,,,,,,,,,,,,,,,,,,,,,,,,,,,,,,,,,,,,,,,,,,,,,,,,,,,,,,,,,,,,,,,,,,,,,,,,,,,,,,,,,1.4799382717659075,1.1104241000011825,166.31625239999994,None,NoResponse,무응답입니다,166.31625239999994,None,166.31625239999994,None,166.31625239999994,None,166.31625239999994,None,167.28614350000134,None,167.28614350000134,167.79917640000167,,,,,,,,,,,,,,,,230,2022-06-03_16h09.12.376,FishGame,2022.1.1,60.03269380480112,
,18,넌 의리있어,1,Orange,B,5.833333333333334,5.633333333333334,ScrollUp,ScrollDown,Orange.png,1,Positive,Incongruent,,,,,0,0,0,0,,,,,,,,,,,,,0,17,17,17,,,,,,,,,,,,,,,,,,,,,,,,,,,,,,,,,,,,,,,,,,,,,,,,,,,,,,,,,,,,,,,,,,,,,,,,,,,,,,,,,1.5432098750025034,1.0596536000011838,168.46139690000018,None,NoResponse,무응답입니다,168.46139690000018,None,168.46139690000018,None,168.46139690000018,None,168.46139690000018,None,169.37766080000074,None,169.37766080000074,169.8822411000001,,,,,,,,,,,,,,,,230,2022-06-03_16h09.12.376,FishGame,2022.1.1,60.03269380480112,
,19,넌 신경과민이야,5,Green,A,2.541666666666667,2.166666666666667,ScrollDown,ScrollUp,Green.png,1,Negative,Incongruent,,,,,0,0,0,0,,,,,,,,,,,,,0,18,18,18,,,,,,,,,,,,,,,,,,,,,,,,,,,,,,,,,,,,,,,,,,,,,,,,,,,,,,,,,,,,,,,,,,,,,,,,,,,,,,,,,1.2731481492519379,1.3191471999998612,170.5483744000012,None,ScrollDown,정답입니다,170.5483744000012,None,170.5483744000012,None,170.5483744000012,None,170.5483744000012,None,171.7267584000001,None,171.7267584000001,172.23186239999995,,,,,,,,,,,,,,,,230,2022-06-03_16h09.12.376,FishGame,2022.1.1,60.03269380480112,
,20,넌 편안해,1,Green,A,5.916666666666666,5.866666666666666,ScrollDown,ScrollUp,Green.png,1,Positive,Congruent,,,,,0,0,0,0,,,,,,,,,,,,,0,19,19,19,,,,,,,,,,,,,,,,,,,,,,,,,,,,,,,,,,,,,,,,,,,,,,,,,,,,,,,,,,,,,,,,,,,,,,,,,,,,,,,,,1.3132715995113053,1.1802380999997695,172.8905924999999,None,ScrollDown,정답입니다,172.8905924999999,None,172.8905924999999,None,172.8905924999999,None,172.8905924999999,None,173.9360901,None,173.9360901,174.44836970000142,,,,,,,,,,,,,,,,230,2022-06-03_16h09.12.376,FishGame,2022.1.1,60.03269380480112,
,21,넌 품위있어,2,Orange,B,5.291666666666666,4.466666666666667,ScrollUp,ScrollDown,Orange.png,1,Positive,Incongruent,,,,,0,0,0,0,,,,,,,,,,,,,0,20,20,20,,,,,,,,,,,,,,,,,,,,,,,,,,,,,,,,,,,,,,,,,,,,,,,,,,,,,,,,,,,,,,,,,,,,,,,,,,,,,,,,,1.7160493781169257,1.0478957000013907,175.10354860000007,None,ScrollUp,정답입니다,175.10354860000007,None,175.10354860000007,None,175.10354860000007,None,175.10354860000007,None,176.019745900001,None,176.019745900001,176.53137910000078,,,,,,,,,,,,,,,,230,2022-06-03_16h09.12.376,FishGame,2022.1.1,60.03269380480112,
,22,넌 빈틈없어,3,Green,A,4.833333333333333,3.966666666666667,ScrollDown,ScrollUp,Green.png,1,Neutral,Neutral,,,,,0,0,0,0,,,,,,,,,,,,,0,21,21,21,,,,,,,,,,,,,,,,,,,,,,,,,,,,,,,,,,,,,,,,,,,,,,,,,,,,,,,,,,,,,,,,,,,,,,,,,,,,,,,,,1.2916666666666665,1.9056817000000592,177.19257070000094,None,ScrollDown,정답입니다,177.19257070000094,None,177.19257070000094,None,177.19257070000094,None,177.19257070000094,None,178.9611842000013,None,178.9611842000013,179.46434940000108,,,,,,,,,,,,,,,,230,2022-06-03_16h09.12.376,FishGame,2022.1.1,60.03269380480112,
,23,넌 상상력없어,4,Orange,B,2.833333333333333,3.133333333333333,ScrollUp,ScrollDown,Orange.png,1,Negative,Congruent,,,,,0,0,0,0,,,,,,,,,,,,,0,22,22,22,,,,,,,,,,,,,,,,,,,,,,,,,,,,,,,,,,,,,,,,,,,,,,,,,,,,,,,,,,,,,,,,,,,,,,,,,,,,,,,,,1.5,1.1296559000002162,180.13342050000028,None,NoResponse,무응답입니다,180.13342050000028,None,180.13342050000028,None,180.13342050000028,None,180.13342050000028,None,181.12034800000038,None,181.12034800000038,181.63067899999987,,,,,,,,,,,,,,,,230,2022-06-03_16h09.12.376,FishGame,2022.1.1,60.03269380480112,
,24,넌 지혜로워,2,Orange,B,6.333333333333334,4.633333333333334,ScrollUp,ScrollDown,Orange.png,1,Positive,Incongruent,,,,,0,0,0,0,,,,,,,,,,,,,0,23,23,23,,,,,,,,,,,,,,,,,,,,,,,,,,,,,,,,,,,,,,,,,,,,,,,,,,,,,,,,,,,,,,,,,,,,,,,,,,,,,,,,,1.5864197500050068,1.1458779000004142,182.29530550000163,None,ScrollUp,정답입니다,182.29530550000163,None,182.29530550000163,None,182.29530550000163,None,182.29530550000163,None,183.30188230000022,None,183.30188230000022,183.81374850000066,,,,,,,,,,,,,,,,230,2022-06-03_16h09.12.376,FishGame,2022.1.1,60.03269380480112,
,25,넌 시끄러워,4,Green,A,2.833333333333333,3.033333333333333,ScrollDown,ScrollUp,Green.png,1,Negative,Incongruent,,,,,0,0,0,0,,,,,,,,,,,,,0,24,24,24,,,,,,,,,,,,,,,,,,,,,,,,,,,,,,,,,,,,,,,,,,,,,,,,,,,,,,,,,,,,,,,,,,,,,,,,,,,,,,,,,1.2916666666666665,0.8800215999999637,184.4776227000002,None,ScrollDown,정답입니다,184.4776227000002,None,184.4776227000002,None,184.4776227000002,None,184.4776227000002,None,185.21831480000037,None,185.21831480000037,185.73011100000076,,,,,,,,,,,,,,,,230,2022-06-03_16h09.12.376,FishGame,2022.1.1,60.03269380480112,
,26,넌 만사태평이야,3,Orange,B,4,4.333333333333333,ScrollUp,ScrollDown,Orange.png,1,Neutral,Neutral,,,,,0,0,0,0,,,,,,,,,,,,,0,25,25,25,,,,,,,,,,,,,,,,,,,,,,,,,,,,,,,,,,,,,,,,,,,,,,,,,,,,,,,,,,,,,,,,,,,,,,,,,,,,,,,,,1.4753086424122255,0.968391000000338,186.40264470000147,None,NoResponse,무응답입니다,186.40264470000147,None,186.40264470000147,None,186.40264470000147,None,186.40264470000147,None,187.22255020000011,None,187.22255020000011,187.72991920000095,,,,,,,,,,,,,,,,230,2022-06-03_16h09.12.376,FishGame,2022.1.1,60.03269380480112,
,27,넌 붙임성있어,1,Green,A,5.708333333333333,5.633333333333334,ScrollDown,ScrollUp,Green.png,1,Positive,Congruent,,,,,0,0,0,0,,,,,,,,,,,,,0,26,26,26,,,,,,,,,,,,,,,,,,,,,,,,,,,,,,,,,,,,,,,,,,,,,,,,,,,,,,,,,,,,,,,,,,,,,,,,,,,,,,,,,1.370370365679264,0.8521286000013788,188.39431560000048,None,ScrollDown,정답입니다,188.39431560000048,None,188.39431560000048,None,188.39431560000048,None,188.39431560000048,None,189.10618910000085,None,189.10618910000085,189.61304290000044,,,,,,,,,,,,,,,,230,2022-06-03_16h09.12.376,FishGame,2022.1.1,60.03269380480112,
,28,넌 영리해,2,Green,A,6,4.033333333333333,ScrollDown,ScrollUp,Green.png,1,Positive,Congruent,,,,,0,0,0,0,,,,,,,,,,,,,0,27,27,27,,,,,,,,,,,,,,,,,,,,,,,,,,,,,,,,,,,,,,,,,,,,,,,,,,,,,,,,,,,,,,,,,,,,,,,,,,,,,,,,,1.3425925895571709,1.9501498000008723,190.26878490000126,None,ScrollDown,정답입니다,190.26878490000126,None,190.26878490000126,None,190.26878490000126,None,190.26878490000126,None,192.08792940000058,None,192.08792940000058,192.59593740000128,,,,,,,,,,,,,,,,230,2022-06-03_16h09.12.376,FishGame,2022.1.1,60.03269380480112,
,29,넌 열심이야,1,Orange,B,6.041666666666667,5.833333333333333,ScrollUp,ScrollDown,Orange.png,1,Positive,Incongruent,,,,,0,0,0,0,,,,,,,,,,,,,0,28,28,28,,,,,,,,,,,,,,,,,,,,,,,,,,,,,,,,,,,,,,,,,,,,,,,,,,,,,,,,,,,,,,,,,,,,,,,,,,,,,,,,,1.7762345721324284,1.3196907000001374,193.2549224000013,None,ScrollUp,정답입니다,193.2549224000013,None,193.2549224000013,None,193.2549224000013,None,193.2549224000013,None,194.43764740000006,None,194.43764740000006,194.94570759999988,,,,,,,,,,,,,,,,230,2022-06-03_16h09.12.376,FishGame,2022.1.1,60.03269380480112,
,30,넌 인기없어,4,Orange,B,3,3.3,ScrollUp,ScrollDown,Orange.png,1,Negative,Congruent,,,,,0,0,0,0,,,,,,,,,,,,,0,29,29,29,,,,,,,,,,,,,,,,,,,,,,,,,,,,,,,,,,,,,,,,,,,,,,,,,,,,,,,,,,,,,,,,,,,,,,,,,,,,,,,,,1.5679012325902781,0.9014748999998119,195.60604610000155,None,ScrollUp,정답입니다,195.60604610000155,None,195.60604610000155,None,195.60604610000155,None,195.60604610000155,None,196.3704482000012,None,196.3704482000012,196.87883500000135,,,,,,,,,,,,,,,,230,2022-06-03_16h09.12.376,FishGame,2022.1.1,60.03269380480112,
,31,넌 익살스러워,3,Green,A,4.708333333333334,4.833333333333333,ScrollDown,ScrollUp,Green.png,1,Neutral,Neutral,,,,,0,0,0,0,,,,,,,,,,,,,0,30,30,30,,,,,,,,,,,,,,,,,,,,,,,,,,,,,,,,,,,,,,,,,,,,,,,,,,,,,,,,,,,,,,,,,,,,,,,,,,,,,,,,,1.4043209850788116,0.9796683999993547,197.54653250000047,None,ScrollDown,정답입니다,197.54653250000047,None,197.54653250000047,None,197.54653250000047,None,197.54653250000047,None,198.38067899999987,None,198.38067899999987,198.89509110000108,,,,,,,,,,,,,,,,230,2022-06-03_16h09.12.376,FishGame,2022.1.1,60.03269380480112,
,32,넌 이기적이야,5,Orange,B,2.291666666666667,2.333333333333333,ScrollUp,ScrollDown,Orange.png,1,Negative,Congruent,,,,,0,0,0,0,,,,,,,,,,,,,0,31,31,31,,,,,,,,,,,,,,,,,,,,,,,,,,,,,,,,,,,,,,,,,,,,,,,,,,,,,,,,,,,,,,,,,,,,,,,,,,,,,,,,,1.4490740740050871,1.077729200000249,199.55204760000015,None,ScrollDown,오답입니다,199.55204760000015,None,199.55204760000015,None,199.55204760000015,None,199.55204760000015,None,200.4963301000007,None,200.4963301000007,201.0116033000013,,,,,,,,,,,,,,,,230,2022-06-03_16h09.12.376,FishGame,2022.1.1,60.03269380480112,
,33,나를 데려가줘,6,Orange,B,0,0,ScrollDown,ScrollUp,Orange.png,1,NonTarget,NonTarget,,,,,0,0,0,0,,,,,,,,,,,,,0,32,32,32,,,,,,,,,,,,,,,,,,,,,,,,,,,,,,,,,,,,,,,,,,,,,,,,,,,,,,,,,,,,,,,,,,,,,,,,,,,,,,,,,1.3070987686514854,1.426195899999584,201.66794310000114,None,ScrollDown,정답입니다,201.66794310000114,None,201.66794310000114,None,201.66794310000114,None,201.66794310000114,None,202.95836860000054,None,202.95836860000054,203.46125200000097,,,,,,,,,,,,,,,,230,2022-06-03_16h09.12.376,FishGame,2022.1.1,60.03269380480112,
,34,넌 기회주의자야,5,Green,A,2.875,2.133333333333333,ScrollDown,ScrollUp,Green.png,1,Negative,Incongruent,,,,,0,0,0,0,,,,,,,,,,,,,0,33,33,33,,,,,,,,,,,,,,,,,,,,,,,,,,,,,,,,,,,,,,,,,,,,,,,,,,,,,,,,,,,,,,,,,,,,,,,,,,,,,,,,,1.2901234527428946,1.0164541000012832,204.1206254000008,None,ScrollDown,정답입니다,204.1206254000008,None,204.1206254000008,None,204.1206254000008,None,204.1206254000008,None,205.00120310000057,None,205.00120310000057,205.51122870000108,,,,,,,,,,,,,,,,230,2022-06-03_16h09.12.376,FishGame,2022.1.1,60.03269380480112,
,1,넌 미성숙해,4,Green,A,3,3.2,ScrollDown,ScrollUp,Green.png,2,Negative,Incongruent,,,,,0,0,0,0,,,,,,,,,,,,,,,,,0,0,0,0,,,,,,,,,,,,,,,,,,,,,,,,,,,,,,,,,,,,237.75700340000003,239.25680620000094,239.29015840000102,240.23988770000142,240.28995030000078,241.23990070000036,241.23990070000036,None,,,,,,,,,,,,,,,,,,,,,,,,,,,,,,,,,,1.3827160522341728,1.7311033999994834,242.4182879,None,ScrollDown,정답입니다,242.4182879,None,242.4182879,None,242.4182879,None,242.4182879,None,243.97812479999993,None,243.97812479999993,244.48921230000087,206.01094250000097,None,206.01094250000097,None,0.34166667,-0.125,1,0,0,0.016035089998695184,None,236.02385550000145,None,,,230,2022-06-03_16h09.12.376,FishGame,2022.1.1,60.03269380480112,
,2,넌 반사회적이야,5,Orange,B,2.416666666666667,2.033333333333333,ScrollUp,ScrollDown,Orange.png,2,Negative,Congruent,,,,,0,0,0,0,,,,,,,,,,,,,,,,,0,1,1,1,,,,,,,,,,,,,,,,,,,,,,,,,,,,,,,,,,,,,,,,,,,,,,,,,,,,,,,,,,,,,,,,,,,,,,,,,,,,,1.7901234477758408,1.263461799999277,245.15276390000145,None,ScrollUp,정답입니다,245.15276390000145,None,245.15276390000145,None,245.15276390000145,None,245.15276390000145,None,246.2762483000006,None,246.2762483000006,246.7890619000009,,,,,,,,,,,,,,,,230,2022-06-03_16h09.12.376,FishGame,2022.1.1,60.03269380480112,
,3,넌 유능해,2,Green,A,6.208333333333333,4.433333333333334,ScrollDown,ScrollUp,Green.png,2,Positive,Congruent,,,,,0,0,0,0,,,,,,,,,,,,,,,,,0,2,2,2,,,,,,,,,,,,,,,,,,,,,,,,,,,,,,,,,,,,,,,,,,,,,,,,,,,,,,,,,,,,,,,,,,,,,,,,,,,,,1.2885802388191223,0.885941600001388,247.44351760000063,None,ScrollDown,정답입니다,247.44351760000063,None,247.44351760000063,None,247.44351760000063,None,247.44351760000063,None,248.19710550000127,None,248.19710550000127,248.70554690000063,,,,,,,,,,,,,,,,230,2022-06-03_16h09.12.376,FishGame,2022.1.1,60.03269380480112,
,4,넌 능숙해,2,Orange,B,5.666666666666667,4.733333333333333,ScrollUp,ScrollDown,Orange.png,2,Positive,Incongruent,,,,,0,0,0,0,,,,,,,,,,,,,,,,,0,3,3,3,,,,,,,,,,,,,,,,,,,,,,,,,,,,,,,,,,,,,,,,,,,,,,,,,,,,,,,,,,,,,,,,,,,,,,,,,,,,,1.7145061641931534,1.0015386000013677,249.3630619000014,None,ScrollUp,정답입니다,249.3630619000014,None,249.3630619000014,None,249.3630619000014,None,249.3630619000014,None,250.22908760000064,None,250.22908760000064,250.7386858000009,,,,,,,,,,,,,,,,230,2022-06-03_16h09.12.376,FishGame,2022.1.1,60.03269380480112,
,5,넌 진부해,4,Orange,B,2.458333333333333,3.166666666666667,ScrollUp,ScrollDown,Orange.png,2,Negative,Congruent,,,,,0,0,0,0,,,,,,,,,,,,,,,,,0,4,4,4,,,,,,,,,,,,,,,,,,,,,,,,,,,,,,,,,,,,,,,,,,,,,,,,,,,,,,,,,,,,,,,,,,,,,,,,,,,,,1.540123456468185,1.0119608000004519,251.3970345000016,None,NoResponse,무응답입니다,251.3970345000016,None,251.3970345000016,None,251.3970345000016,None,251.3970345000016,None,252.27692690000003,None,252.27692690000003,252.78825160000088,,,,,,,,,,,,,,,,230,2022-06-03_16h09.12.376,FishGame,2022.1.1,60.03269380480112,
,6,나를 보내줘,6,Green,A,0,0,ScrollUp,ScrollDown,Green.png,2,NonTarget,NonTarget,,,,,0,0,0,0,,,,,,,,,,,,,,,,,0,5,5,5,,,,,,,,,,,,,,,,,,,,,,,,,,,,,,,,,,,,,,,,,,,,,,,,,,,,,,,,,,,,,,,,,,,,,,,,,,,,,1.8858024626970291,1.3769279000007373,253.4342159000007,None,ScrollUp,정답입니다,253.4342159000007,None,253.4342159000007,None,253.4342159000007,None,253.4342159000007,None,254.6881308000011,None,254.6881308000011,255.1880938000013,,,,,,,,,,,,,,,,230,2022-06-03_16h09.12.376,FishGame,2022.1.1,60.03269380480112,
,7,넌 엄격해,3,Green,A,4.166666666666666,4.1,ScrollDown,ScrollUp,Green.png,2,Neutral,Neutral,,,,,0,0,0,0,,,,,,,,,,,,,,,,,0,6,6,6,,,,,,,,,,,,,,,,,,,,,,,,,,,,,,,,,,,,,,,,,,,,,,,,,,,,,,,,,,,,,,,,,,,,,,,,,,,,,1.3348765447735786,1.2126987000010558,255.84687630000008,None,ScrollDown,정답입니다,255.84687630000008,None,255.84687630000008,None,255.84687630000008,None,255.84687630000008,None,256.92640700000084,None,256.92640700000084,257.43768679999994,,,,,,,,,,,,,,,,230,2022-06-03_16h09.12.376,FishGame,2022.1.1,60.03269380480112,
,8,나를 보내줘,6,Green,A,0,0,ScrollUp,ScrollDown,Green.png,2,NonTarget,NonTarget,,,,,0,0,0,0,,,,,,,,,,,,,,,,,0,7,7,7,,,,,,,,,,,,,,,,,,,,,,,,,,,,,,,,,,,,,,,,,,,,,,,,,,,,,,,,,,,,,,,,,,,,,,,,,,,,,1.8657407313585281,1.0716977000010957,258.0829711000006,None,ScrollUp,정답입니다,258.0829711000006,None,258.0829711000006,None,258.0829711000006,None,258.0829711000006,None,259.0379524,None,259.0379524,259.5375335000008,,,,,,,,,,,,,,,,230,2022-06-03_16h09.12.376,FishGame,2022.1.1,60.03269380480112,
,9,넌 대담해,3,Orange,B,4.875,4.866666666666666,ScrollUp,ScrollDown,Orange.png,2,Neutral,Neutral,,,,,0,0,0,0,,,,,,,,,,,,,,,,,0,8,8,8,,,,,,,,,,,,,,,,,,,,,,,,,,,,,,,,,,,,,,,,,,,,,,,,,,,,,,,,,,,,,,,,,,,,,,,,,,,,,1.7608024577299755,1.0755509999999049,260.1986386000008,None,ScrollUp,정답입니다,260.1986386000008,None,260.1986386000008,None,260.1986386000008,None,260.1986386000008,None,261.1322617000005,None,261.1322617000005,261.6371228000007,,,,,,,,,,,,,,,,230,2022-06-03_16h09.12.376,FishGame,2022.1.1,60.03269380480112,
,10,넌 꾸준해,1,Green,A,5.916666666666668,5.8,ScrollDown,ScrollUp,Green.png,2,Positive,Congruent,,,,,0,0,0,0,,,,,,,,,,,,,,,,,0,9,9,9,,,,,,,,,,,,,,,,,,,,,,,,,,,,,,,,,,,,,,,,,,,,,,,,,,,,,,,,,,,,,,,,,,,,,,,,,,,,,1.3271604999899864,1.060740099999748,262.28896740000164,None,ScrollDown,정답입니다,262.28896740000164,None,262.28896740000164,None,262.28896740000164,None,262.28896740000164,None,263.2170532,None,263.2170532,263.7202584000006,,,,,,,,,,,,,,,,230,2022-06-03_16h09.12.376,FishGame,2022.1.1,60.03269380480112,
,11,나를 데려가줘,6,Orange,B,0,0,ScrollDown,ScrollUp,Orange.png,2,NonTarget,NonTarget,,,,,0,0,0,0,,,,,,,,,,,,,,,,,0,10,10,10,,,,,,,,,,,,,,,,,,,,,,,,,,,,,,,,,,,,,,,,,,,,,,,,,,,,,,,,,,,,,,,,,,,,,,,,,,,,,1.2253086417913437,2.6761173000013514,264.3725633000013,None,ScrollDown,정답입니다,264.3725633000013,None,264.3725633000013,None,264.3725633000013,None,264.3725633000013,None,266.9159778000012,None,266.9159778000012,267.41978800000106,,,,,,,,,,,,,,,,230,2022-06-03_16h09.12.376,FishGame,2022.1.1,60.03269380480112,
,12,넌 독선적이야,5,Green,A,2.458333333333333,1.933333333333333,ScrollDown,ScrollUp,Green.png,2,Negative,Incongruent,,,,,0,0,0,0,,,,,,,,,,,,,,,,,0,11,11,11,,,,,,,,,,,,,,,,,,,,,,,,,,,,,,,,,,,,,,,,,,,,,,,,,,,,,,,,,,,,,,,,,,,,,,,,,,,,,1.2916666666666665,1.2166867000014463,268.0824287000014,None,ScrollDown,정답입니다,268.0824287000014,None,268.0824287000014,None,268.0824287000014,None,268.0824287000014,None,269.15979010000046,None,269.15979010000046,269.66944780000085,,,,,,,,,,,,,,,,230,2022-06-03_16h09.12.376,FishGame,2022.1.1,60.03269380480112,
,13,나를 보내줘,6,Green,A,0,0,ScrollUp,ScrollDown,Green.png,2,NonTarget,NonTarget,,,,,0,0,0,0,,,,,,,,,,,,,,,,,0,12,12,12,,,,,,,,,,,,,,,,,,,,,,,,,,,,,,,,,,,,,,,,,,,,,,,,,,,,,,,,,,,,,,,,,,,,,,,,,,,,,1.56944444651405,1.0917437999996764,270.3146721000012,None,ScrollUp,정답입니다,270.3146721000012,None,270.3146721000012,None,270.3146721000012,None,270.3146721000012,None,271.2820565000002,None,271.2820565000002,271.7859559000008,,,,,,,,,,,,,,,,230,2022-06-03_16h09.12.376,FishGame,2022.1.1,60.03269380480112,
,14,넌 책임감있어,1,Orange,B,6.347826086956522,6,ScrollUp,ScrollDown,Orange.png,2,Positive,Incongruent,,,,,0,0,0,0,,,,,,,,,,,,,,,,,0,13,13,13,,,,,,,,,,,,,,,,,,,,,,,,,,,,,,,,,,,,,,,,,,,,,,,,,,,,,,,,,,,,,,,,,,,,,,,,,,,,,1.589506171643734,1.194271899999876,272.44661030000134,None,ScrollUp,정답입니다,272.44661030000134,None,272.44661030000134,None,272.44661030000134,None,272.44661030000134,None,273.499308800001,None,273.499308800001,274.0022549000005,,,,,,,,,,,,,,,,230,2022-06-03_16h09.12.376,FishGame,2022.1.1,60.03269380480112,
,15,넌 문학적이야,3,Green,A,4.708333333333334,4.333333333333333,ScrollDown,ScrollUp,Green.png,2,Neutral,Neutral,,,,,0,0,0,0,,,,,,,,,,,,,,,,,0,14,14,14,,,,,,,,,,,,,,,,,,,,,,,,,,,,,,,,,,,,,,,,,,,,,,,,,,,,,,,,,,,,,,,,,,,,,,,,,,,,,1.1666666616996129,1.6354522000001452,274.6675935000003,None,ScrollDown,정답입니다,274.6675935000003,None,274.6675935000003,None,274.6675935000003,None,274.6675935000003,None,276.15979810000135,None,276.15979810000135,276.6685623000012,,,,,,,,,,,,,,,,230,2022-06-03_16h09.12.376,FishGame,2022.1.1,60.03269380480112,
,16,넌 재미있어,1,Orange,B,5.875,5.7,ScrollUp,ScrollDown,Orange.png,2,Positive,Incongruent,,,,,0,0,0,0,,,,,,,,,,,,,,,,,0,15,15,15,,,,,,,,,,,,,,,,,,,,,,,,,,,,,,,,,,,,,,,,,,,,,,,,,,,,,,,,,,,,,,,,,,,,,,,,,,,,,1.7793209999799728,1.3889116999998805,277.32030550000127,None,ScrollUp,정답입니다,277.32030550000127,None,277.32030550000127,None,277.32030550000127,None,277.32030550000127,None,278.5850171000002,None,278.5850171000002,279.08495330000005,,,,,,,,,,,,,,,,230,2022-06-03_16h09.12.376,FishGame,2022.1.1,60.03269380480112,
,17,나를 데려가줘,6,Orange,B,0,0,ScrollDown,ScrollUp,Orange.png,2,NonTarget,NonTarget,,,,,0,0,0,0,,,,,,,,,,,,,,,,,0,16,16,16,,,,,,,,,,,,,,,,,,,,,,,,,,,,,,,,,,,,,,,,,,,,,,,,,,,,,,,,,,,,,,,,,,,,,,,,,,,,,1.3518518482645354,3.770139800000834,279.7409157000002,None,ScrollDown,정답입니다,279.7409157000002,None,279.7409157000002,None,279.7409157000002,None,279.7409157000002,None,283.37860340000043,None,283.37860340000043,283.88445180000053,,,,,,,,,,,,,,,,230,2022-06-03_16h09.12.376,FishGame,2022.1.1,60.03269380480112,
,18,넌 협력적이야,1,Green,A,5.625,5.633333333333334,ScrollDown,ScrollUp,Green.png,2,Positive,Congruent,,,,,0,0,0,0,,,,,,,,,,,,,,,,,0,17,17,17,,,,,,,,,,,,,,,,,,,,,,,,,,,,,,,,,,,,,,,,,,,,,,,,,,,,,,,,,,,,,,,,,,,,,,,,,,,,,1.2222222139437993,1.425669199999902,284.5897890000015,None,ScrollDown,정답입니다,284.5897890000015,None,284.5897890000015,None,284.5897890000015,None,284.5897890000015,None,285.82959740000115,None,285.82959740000115,286.33414249999987,,,,,,,,,,,,,,,,230,2022-06-03_16h09.12.376,FishGame,2022.1.1,60.03269380480112,
,19,넌 평범해,3,Orange,B,4.333333333333332,4.233333333333333,ScrollUp,ScrollDown,Orange.png,2,Neutral,Neutral,,,,,0,0,0,0,,,,,,,,,,,,,,,,,0,18,18,18,,,,,,,,,,,,,,,,,,,,,,,,,,,,,,,,,,,,,,,,,,,,,,,,,,,,,,,,,,,,,,,,,,,,,,,,,,,,,1.6450617238879204,1.0684526000004553,286.9893963000013,None,ScrollUp,정답입니다,286.9893963000013,None,286.9893963000013,None,286.9893963000013,None,286.9893963000013,None,287.9262200000012,None,287.9262200000012,288.43392790000144,,,,,,,,,,,,,,,,230,2022-06-03_16h09.12.376,FishGame,2022.1.1,60.03269380480112,
,20,넌 오만해,5,Green,A,2.333333333333333,2,ScrollDown,ScrollUp,Green.png,2,Negative,Incongruent,,,,,0,0,0,0,,,,,,,,,,,,,,,,,0,19,19,19,,,,,,,,,,,,,,,,,,,,,,,,,,,,,,,,,,,,,,,,,,,,,,,,,,,,,,,,,,,,,,,,,,,,,,,,,,,,,1.2638888905445733,1.0644575000005716,289.08839890000127,None,ScrollDown,정답입니다,289.08839890000127,None,289.08839890000127,None,289.08839890000127,None,289.08839890000127,None,290.024130400001,None,290.024130400001,290.53353980000065,,,,,,,,,,,,,,,,230,2022-06-03_16h09.12.376,FishGame,2022.1.1,60.03269380480112,
,21,넌 운이없어,4,Orange,B,3,3.466666666666667,ScrollUp,ScrollDown,Orange.png,2,Negative,Congruent,,,,,0,0,0,0,,,,,,,,,,,,,,,,,0,20,20,20,,,,,,,,,,,,,,,,,,,,,,,,,,,,,,,,,,,,,,,,,,,,,,,,,,,,,,,,,,,,,,,,,,,,,,,,,,,,,1.6944444452722869,0.9703840000001946,291.1970366000005,None,ScrollUp,정답입니다,291.1970366000005,None,291.1970366000005,None,291.1970366000005,None,291.1970366000005,None,292.0267672000009,None,292.0267672000009,292.5333029000012,,,,,,,,,,,,,,,,230,2022-06-03_16h09.12.376,FishGame,2022.1.1,60.03269380480112,
,22,넌 창조적이야,2,Orange,B,6.125,4.633333333333334,ScrollUp,ScrollDown,Orange.png,2,Positive,Incongruent,,,,,0,0,0,0,,,,,,,,,,,,,,,,,0,21,21,21,,,,,,,,,,,,,,,,,,,,,,,,,,,,,,,,,,,,,,,,,,,,,,,,,,,,,,,,,,,,,,,,,,,,,,,,,,,,,1.702160490055879,0.8646047000002,293.1955883999999,None,ScrollUp,정답입니다,293.1955883999999,None,293.1955883999999,None,293.1955883999999,None,293.1955883999999,None,293.92210140000134,None,293.92210140000134,294.4329711999999,,,,,,,,,,,,,,,,230,2022-06-03_16h09.12.376,FishGame,2022.1.1,60.03269380480112,
,23,나를 보내줘,6,Green,A,0,0,ScrollUp,ScrollDown,Green.png,2,NonTarget,NonTarget,,,,,0,0,0,0,,,,,,,,,,,,,,,,,0,22,22,22,,,,,,,,,,,,,,,,,,,,,,,,,,,,,,,,,,,,,,,,,,,,,,,,,,,,,,,,,,,,,,,,,,,,,,,,,,,,,1.6682098706563315,1.1704903000008926,295.0781653000013,None,ScrollUp,정답입니다,295.0781653000013,None,295.0781653000013,None,295.0781653000013,None,295.0781653000013,None,296.1266992000001,None,296.1266992000001,296.63269690000016,,,,,,,,,,,,,,,,230,2022-06-03_16h09.12.376,FishGame,2022.1.1,60.03269380480112,
,24,넌 통찰력있어,2,Green,A,6.5,4.8,ScrollDown,ScrollUp,Green.png,2,Positive,Congruent,,,,,0,0,0,0,,,,,,,,,,,,,,,,,0,23,23,23,,,,,,,,,,,,,,,,,,,,,,,,,,,,,,,,,,,,,,,,,,,,,,,,,,,,,,,,,,,,,,,,,,,,,,,,,,,,,1.347222218910853,1.5368715999993583,297.2904423,None,ScrollDown,정답입니다,297.2904423,None,297.2904423,None,297.2904423,None,297.2904423,None,298.6922553000004,None,298.6922553000004,299.1992289000009,,,,,,,,,,,,,,,,230,2022-06-03_16h09.12.376,FishGame,2022.1.1,60.03269380480112,
,25,넌 경솔해,5,Orange,B,2.458333333333333,2.266666666666667,ScrollUp,ScrollDown,Orange.png,2,Negative,Congruent,,,,,0,0,0,0,,,,,,,,,,,,,,,,,0,24,24,24,,,,,,,,,,,,,,,,,,,,,,,,,,,,,,,,,,,,,,,,,,,,,,,,,,,,,,,,,,,,,,,,,,,,,,,,,,,,,1.6003086442748704,0.934183800000028,299.85710930000096,None,ScrollUp,정답입니다,299.85710930000096,None,299.85710930000096,None,299.85710930000096,None,299.85710930000096,None,300.6573463000004,None,300.6573463000004,301.1654621000016,,,,,,,,,,,,,,,,230,2022-06-03_16h09.12.376,FishGame,2022.1.1,60.03269380480112,
,26,넌 초조해,4,Green,A,2.916666666666667,3.133333333333333,ScrollDown,ScrollUp,Green.png,2,Negative,Incongruent,,,,,0,0,0,0,,,,,,,,,,,,,,,,,0,25,25,25,,,,,,,,,,,,,,,,,,,,,,,,,,,,,,,,,,,,,,,,,,,,,,,,,,,,,,,,,,,,,,,,,,,,,,,,,,,,,1.2916666666666665,1.5681536000010965,301.82228100000066,None,ScrollDown,정답입니다,301.82228100000066,None,301.82228100000066,None,301.82228100000066,None,301.82228100000066,None,303.2567334000014,None,303.2567334000014,303.76508680000006,,,,,,,,,,,,,,,,230,2022-06-03_16h09.12.376,FishGame,2022.1.1,60.03269380480112,
,27,넌 무관심해,4,Orange,B,2.833333333333333,2.9,ScrollUp,ScrollDown,Orange.png,2,Negative,Congruent,,,,,0,0,0,0,,,,,,,,,,,,,,,,,0,26,26,26,,,,,,,,,,,,,,,,,,,,,,,,,,,,,,,,,,,,,,,,,,,,,,,,,,,,,,,,,,,,,,,,,,,,,,,,,,,,,1.8641975422700245,1.2736844999999448,304.42734460000065,None,ScrollUp,정답입니다,304.42734460000065,None,304.42734460000065,None,304.42734460000065,None,304.42734460000065,None,305.5653323000006,None,305.5653323000006,306.0649114000007,,,,,,,,,,,,,,,,230,2022-06-03_16h09.12.376,FishGame,2022.1.1,60.03269380480112,
,28,넌 감성적이야,3,Orange,B,4.125,4.166666666666667,ScrollUp,ScrollDown,Orange.png,2,Neutral,Neutral,,,,,0,0,0,0,,,,,,,,,,,,,,,,,0,27,27,27,,,,,,,,,,,,,,,,,,,,,,,,,,,,,,,,,,,,,,,,,,,,,,,,,,,,,,,,,,,,,,,,,,,,,,,,,,,,,1.9691357910633087,1.2225057000014203,306.72078320000037,None,ScrollUp,정답입니다,306.72078320000037,None,306.72078320000037,None,306.72078320000037,None,306.72078320000037,None,307.8146376000004,None,307.8146376000004,308.3146461000015,,,,,,,,,,,,,,,,230,2022-06-03_16h09.12.376,FishGame,2022.1.1,60.03269380480112,
,29,넌 배려심있어,1,Green,A,6.083333333333333,5.5,ScrollDown,ScrollUp,Green.png,2,Positive,Congruent,,,,,0,0,0,0,,,,,,,,,,,,,,,,,0,28,28,28,,,,,,,,,,,,,,,,,,,,,,,,,,,,,,,,,,,,,,,,,,,,,,,,,,,,,,,,,,,,,,,,,,,,,,,,,,,,,1.182098776102066,0.9206653000001097,308.9709567000009,None,ScrollDown,정답입니다,308.9709567000009,None,308.9709567000009,None,308.9709567000009,None,308.9709567000009,None,309.7580114000011,None,309.7580114000011,310.2642796,,,,,,,,,,,,,,,,230,2022-06-03_16h09.12.376,FishGame,2022.1.1,60.03269380480112,
,30,넌 숨김없어,3,Green,A,4.5,4.933333333333334,ScrollDown,ScrollUp,Green.png,2,Neutral,Neutral,,,,,0,0,0,0,,,,,,,,,,,,,,,,,0,29,29,29,,,,,,,,,,,,,,,,,,,,,,,,,,,,,,,,,,,,,,,,,,,,,,,,,,,,,,,,,,,,,,,,,,,,,,,,,,,,,1.2222222139437993,0.9282519999997021,310.91716369999995,None,ScrollDown,정답입니다,310.91716369999995,None,310.91716369999995,None,310.91716369999995,None,310.91716369999995,None,311.7173321999999,None,311.7173321999999,312.2306989000008,,,,,,,,,,,,,,,,230,2022-06-03_16h09.12.376,FishGame,2022.1.1,60.03269380480112,
,31,넌 훌륭해,2,Orange,B,5.916666666666667,4.033333333333333,ScrollUp,ScrollDown,Orange.png,2,Positive,Incongruent,,,,,0,0,0,0,,,,,,,,,,,,,,,,,0,30,30,30,,,,,,,,,,,,,,,,,,,,,,,,,,,,,,,,,,,,,,,,,,,,,,,,,,,,,,,,,,,,,,,,,,,,,,,,,,,,,1.7484567960103354,1.0190882999995665,312.8893356000008,None,ScrollUp,정답입니다,312.8893356000008,None,312.8893356000008,None,312.8893356000008,None,312.8893356000008,None,313.77133310000136,None,313.77133310000136,314.28043490000164,,,,,,,,,,,,,,,,230,2022-06-03_16h09.12.376,FishGame,2022.1.1,60.03269380480112,
,32,넌 슬기로워,2,Green,A,6.166666666666667,4.1,ScrollDown,ScrollUp,Green.png,2,Positive,Congruent,,,,,0,0,0,0,,,,,,,,,,,,,,,,,0,31,31,31,,,,,,,,,,,,,,,,,,,,,,,,,,,,,,,,,,,,,,,,,,,,,,,,,,,,,,,,,,,,,,,,,,,,,,,,,,,,,1.3564814776182175,0.8885789999985718,314.9332086000013,None,ScrollDown,정답입니다,314.9332086000013,None,314.9332086000013,None,314.9332086000013,None,314.9332086000013,None,315.69248680000055,None,315.69248680000055,316.19699440000113,,,,,,,,,,,,,,,,230,2022-06-03_16h09.12.376,FishGame,2022.1.1,60.03269380480112,
,33,넌 냉혹해,5,Green,A,2.583333333333333,2.1,ScrollDown,ScrollUp,Green.png,2,Negative,Incongruent,,,,,0,0,0,0,,,,,,,,,,,,,,,,,0,32,32,32,,,,,,,,,,,,,,,,,,,,,,,,,,,,,,,,,,,,,,,,,,,,,,,,,,,,,,,,,,,,,,,,,,,,,,,,,,,,,1.160493830839793,1.1317346000014368,316.8493171000009,None,ScrollDown,정답입니다,316.8493171000009,None,316.8493171000009,None,316.8493171000009,None,316.8493171000009,None,317.85202110000137,None,317.85202110000137,318.36326780000127,,,,,,,,,,,,,,,,230,2022-06-03_16h09.12.376,FishGame,2022.1.1,60.03269380480112,
,34,나를 데려가줘,6,Orange,B,0,0,ScrollDown,ScrollUp,Orange.png,2,NonTarget,NonTarget,,,,,0,0,0,0,,,,,,,,,,,,,,,,,0,33,33,33,,,,,,,,,,,,,,,,,,,,,,,,,,,,,,,,,,,,,,,,,,,,,,,,,,,,,,,,,,,,,,,,,,,,,,,,,,,,,1.2993827114502587,1.0986446999995678,319.01418120000017,None,ScrollDown,정답입니다,319.01418120000017,None,319.01418120000017,None,319.01418120000017,None,319.01418120000017,None,319.98573540000143,None,319.98573540000143,320.4963957,,,,,,,,,,,,,,,,230,2022-06-03_16h09.12.376,FishGame,2022.1.1,60.03269380480112,
,35,넌 편파적이야,5,Orange,B,2.125,2,ScrollUp,ScrollDown,Orange.png,2,Negative,Congruent,,,,,0,0,0,0,,,,,,,,,,,,,,,,,0,34,34,34,,,,,,,,,,,,,,,,,,,,,,,,,,,,,,,,,,,,,,,,,,,,,,,,,,,,,,,,,,,,,,,,,,,,,,,,,,,,,1.658950611948967,1.0498435999998037,321.1583403000004,None,ScrollUp,정답입니다,321.1583403000004,None,321.1583403000004,None,321.1583403000004,None,321.1583403000004,None,322.06920320000063,None,322.06920320000063,322.57935910000015,,,,,,,,,,,,,,,,230,2022-06-03_16h09.12.376,FishGame,2022.1.1,60.03269380480112,
,36,넌 슬퍼,4,Green,A,2.583333333333333,3.066666666666667,ScrollDown,ScrollUp,Green.png,2,Negative,Incongruent,,,,,0,0,0,0,,,,,,,,,,,,,,,,,0,35,35,35,,,,,,,,,,,,,,,,,,,,,,,,,,,,,,,,,,,,,,,,,,,,,,,,,,,,,,,,,,,,,,,,,,,,,,,,,,,,,1.2299382835626602,0.9106981000004453,323.22541960000126,None,ScrollDown,정답입니다,323.22541960000126,None,323.22541960000126,None,323.22541960000126,None,323.22541960000126,None,324.0124966000003,None,324.0124966000003,324.51250130000153,,,,,,,,,,,,,,,,230,2022-06-03_16h09.12.376,FishGame,2022.1.1,60.03269380480112,
,37,나를 데려가줘,6,Orange,B,0,0,ScrollDown,ScrollUp,Orange.png,2,NonTarget,NonTarget,,,,,0,0,0,0,,,,,,,,,,,,,,,,,0,36,36,36,,,,,,,,,,,,,,,,,,,,,,,,,,,,,,,,,,,,,,,,,,,,,,,,,,,,,,,,,,,,,,,,,,,,,,,,,,,,,1.1496913582086563,1.1689541000014287,325.1674230000008,None,ScrollDown,정답입니다,325.1674230000008,None,325.1674230000008,None,325.1674230000008,None,325.1674230000008,None,326.2039530000002,None,326.2039530000002,326.71223009999994,,,,,,,,,,,,,,,,230,2022-06-03_16h09.12.376,FishGame,2022.1.1,60.03269380480112,
,38,넌 친절해,1,Orange,B,6.041666666666667,5.533333333333333,ScrollUp,ScrollDown,Orange.png,2,Positive,Incongruent,,,,,0,0,0,0,,,,,,,,,,,,,,,,,0,37,37,37,,,,,,,,,,,,,,,,,,,,,,,,,,,,,,,,,,,,,,,,,,,,,,,,,,,,,,,,,,,,,,,,,,,,,,,,,,,,,1.746913582086563,1.14458999999988,327.37013130000014,None,ScrollUp,정답입니다,327.37013130000014,None,327.37013130000014,None,327.37013130000014,None,327.37013130000014,None,328.37836550000065,None,328.37836550000065,328.8785630000002,,,,,,,,,,,,,,,,230,2022-06-03_16h09.12.376,FishGame,2022.1.1,60.03269380480112,
,1,넌 엉성해,4,Green,A,3,3.3,ScrollDown,ScrollUp,Green.png,3,Negative,Incongruent,,,,,0,0,0,0,,,,,,,,,,,,,,,,,,,,,0,0,0,0,,,,,,,,,,,,,,,,,,,,,,,,,,,,,,,,363.0913424999999,364.59073979999994,364.62420550000024,365.5741093000015,365.6239170000008,366.57387010000093,366.57387010000093,None,,,,,,,,,,,,,,,,,,,,,,,,,,,,,,,,,,1.2222222139437993,1.160257499999716,367.74769390000074,None,ScrollDown,정답입니다,367.74769390000074,None,367.74769390000074,None,367.74769390000074,None,367.74769390000074,None,368.74097640000036,None,368.74097640000036,369.24016180000035,329.37854830000106,None,329.37854830000106,None,0.22592592,-0.08240741,1,0,0,0.01622468999812554,None,359.39135669999996,None,,,230,2022-06-03_16h09.12.376,FishGame,2022.1.1,60.03269380480112,
,2,나를 보내줘,6,Green,A,0,0,ScrollUp,ScrollDown,Green.png,3,NonTarget,NonTarget,,,,,0,0,0,0,,,,,,,,,,,,,,,,,,,,,0,1,1,1,,,,,,,,,,,,,,,,,,,,,,,,,,,,,,,,,,,,,,,,,,,,,,,,,,,,,,,,,,,,,,,,,,,,,,,,,1.549382715175549,1.0858959000015602,369.8863297000007,None,NoResponse,무응답입니다,369.8863297000007,None,369.8863297000007,None,369.8863297000007,None,369.8863297000007,None,370.85136840000087,None,370.85136840000087,371.3566341000005,,,,,,,,,,,,,,,,230,2022-06-03_16h09.12.376,FishGame,2022.1.1,60.03269380480112,
,3,넌 활발해,1,Orange,B,5.666666666666667,5.6,ScrollUp,ScrollDown,Orange.png,3,Positive,Incongruent,,,,,0,0,0,0,,,,,,,,,,,,,,,,,,,,,0,2,2,2,,,,,,,,,,,,,,,,,,,,,,,,,,,,,,,,,,,,,,,,,,,,,,,,,,,,,,,,,,,,,,,,,,,,,,,,,1.7808641890684764,1.38185650000014,372.02616240000134,None,ScrollUp,정답입니다,372.02616240000134,None,372.02616240000134,None,372.02616240000134,None,372.02616240000134,None,373.26237840000067,None,373.26237840000067,373.7728833000001,,,,,,,,,,,,,,,,230,2022-06-03_16h09.12.376,FishGame,2022.1.1,60.03269380480112,
,4,넌 논리적이야,2,Green,A,5.666666666666666,4.633333333333334,ScrollDown,ScrollUp,Green.png,3,Positive,Congruent,,,,,0,0,0,0,,,,,,,,,,,,,,,,,,,,,0,3,3,3,,,,,,,,,,,,,,,,,,,,,,,,,,,,,,,,,,,,,,,,,,,,,,,,,,,,,,,,,,,,,,,,,,,,,,,,,1.3441358034809432,0.8936964999993506,374.4256314000013,None,ScrollDown,정답입니다,374.4256314000013,None,374.4256314000013,None,374.4256314000013,None,374.4256314000013,None,375.185852300001,None,375.185852300001,375.6893058000005,,,,,,,,,,,,,,,,230,2022-06-03_16h09.12.376,FishGame,2022.1.1,60.03269380480112,
,5,넌 과묵해,3,Green,A,3.875,4.4,ScrollDown,ScrollUp,Green.png,3,Neutral,Neutral,,,,,0,0,0,0,,,,,,,,,,,,,,,,,,,,,0,4,4,4,,,,,,,,,,,,,,,,,,,,,,,,,,,,,,,,,,,,,,,,,,,,,,,,,,,,,,,,,,,,,,,,,,,,,,,,,1.1959876517454784,1.3924782000012783,376.34227199999987,None,ScrollDown,정답입니다,376.34227199999987,None,376.34227199999987,None,376.34227199999987,None,376.34227199999987,None,377.60121190000064,None,377.60121190000064,378.105603,,,,,,,,,,,,,,,,230,2022-06-03_16h09.12.376,FishGame,2022.1.1,60.03269380480112,
,6,나를 데려가줘,6,Orange,B,0,0,ScrollDown,ScrollUp,Orange.png,3,NonTarget,NonTarget,,,,,0,0,0,0,,,,,,,,,,,,,,,,,,,,,0,5,5,5,,,,,,,,,,,,,,,,,,,,,,,,,,,,,,,,,,,,,,,,,,,,,,,,,,,,,,,,,,,,,,,,,,,,,,,,,1.080246905485789,1.2403592999999091,378.7618575000015,None,ScrollDown,정답입니다,378.7618575000015,None,378.7618575000015,None,378.7618575000015,None,378.7618575000015,None,379.87217820000114,None,379.87217820000114,380.3720095000008,,,,,,,,,,,,,,,,230,2022-06-03_16h09.12.376,FishGame,2022.1.1,60.03269380480112,
,7,넌 미숙해,4,Orange,B,3,3,ScrollUp,ScrollDown,Orange.png,3,Negative,Congruent,,,,,0,0,0,0,,,,,,,,,,,,,,,,,,,,,0,6,6,6,,,,,,,,,,,,,,,,,,,,,,,,,,,,,,,,,,,,,,,,,,,,,,,,,,,,,,,,,,,,,,,,,,,,,,,,,1.9382716119289398,1.1262486000014178,381.02466970000023,None,ScrollUp,정답입니다,381.02466970000023,None,381.02466970000023,None,381.02466970000023,None,381.02466970000023,None,382.02201930000047,None,382.02201930000047,382.5217679000016,,,,,,,,,,,,,,,,230,2022-06-03_16h09.12.376,FishGame,2022.1.1,60.03269380480112,
,8,나를 보내줘,6,Green,A,0,0,ScrollUp,ScrollDown,Green.png,3,NonTarget,NonTarget,,,,,0,0,0,0,,,,,,,,,,,,,,,,,,,,,0,7,7,7,,,,,,,,,,,,,,,,,,,,,,,,,,,,,,,,,,,,,,,,,,,,,,,,,,,,,,,,,,,,,,,,,,,,,,,,,1.7407407512267432,1.0843664000003628,383.1704954000015,None,ScrollUp,정답입니다,383.1704954000015,None,383.1704954000015,None,383.1704954000015,None,383.1704954000015,None,384.1295964000001,None,384.1295964000001,384.63830660000167,,,,,,,,,,,,,,,,230,2022-06-03_16h09.12.376,FishGame,2022.1.1,60.03269380480112,
,9,넌 자신만만해,3,Orange,B,4.833333333333334,4.333333333333333,ScrollUp,ScrollDown,Orange.png,3,Neutral,Neutral,,,,,0,0,0,0,,,,,,,,,,,,,,,,,,,,,0,8,8,8,,,,,,,,,,,,,,,,,,,,,,,,,,,,,,,,,,,,,,,,,,,,,,,,,,,,,,,,,,,,,,,,,,,,,,,,,1.819444437821706,1.138637000000017,385.2908743000007,None,ScrollUp,정답입니다,385.2908743000007,None,385.2908743000007,None,385.2908743000007,None,385.2908743000007,None,386.2975514000009,None,386.2975514000009,386.8045972,,,,,,,,,,,,,,,,230,2022-06-03_16h09.12.376,FishGame,2022.1.1,60.03269380480112,
,10,넌 탐욕스러워,5,Green,A,2.25,2.1,ScrollDown,ScrollUp,Green.png,3,Negative,Incongruent,,,,,0,0,0,0,,,,,,,,,,,,,,,,,,,,,0,9,9,9,,,,,,,,,,,,,,,,,,,,,,,,,,,,,,,,,,,,,,,,,,,,,,,,,,,,,,,,,,,,,,,,,,,,,,,,,1.234567900498708,1.165034800000285,387.46267330000046,None,ScrollDown,정답입니다,387.46267330000046,None,387.46267330000046,None,387.46267330000046,None,387.46267330000046,None,388.49374910000006,None,388.49374910000006,389.0042719000012,,,,,,,,,,,,,,,,230,2022-06-03_16h09.12.376,FishGame,2022.1.1,60.03269380480112,
,11,넌 인기있어,2,Green,A,5.458333333333333,4.5,ScrollDown,ScrollUp,Green.png,3,Positive,Congruent,,,,,0,0,0,0,,,,,,,,,,,,,,,,,,,,,0,10,10,10,,,,,,,,,,,,,,,,,,,,,,,,,,,,,,,,,,,,,,,,,,,,,,,,,,,,,,,,,,,,,,,,,,,,,,,,,1.370370365679264,0.8947912000003271,389.651723500001,None,ScrollDown,정답입니다,389.651723500001,None,389.651723500001,None,389.651723500001,None,389.651723500001,None,390.4203201,None,390.4203201,390.9207245000016,,,,,,,,,,,,,,,,230,2022-06-03_16h09.12.376,FishGame,2022.1.1,60.03269380480112,
,12,나를 데려가줘,6,Orange,B,0,0,ScrollDown,ScrollUp,Orange.png,3,NonTarget,NonTarget,,,,,0,0,0,0,,,,,,,,,,,,,,,,,,,,,0,11,11,11,,,,,,,,,,,,,,,,,,,,,,,,,,,,,,,,,,,,,,,,,,,,,,,,,,,,,,,,,,,,,,,,,,,,,,,,,1.435185182839632,1.2938653000001068,391.57292940000116,None,ScrollDown,정답입니다,391.57292940000116,None,391.57292940000116,None,391.57292940000116,None,391.57292940000116,None,392.7345512000011,None,392.7345512000011,393.23719490000076,,,,,,,,,,,,,,,,230,2022-06-03_16h09.12.376,FishGame,2022.1.1,60.03269380480112,
,13,넌 뛰어나,2,Orange,B,6.166666666666667,4,ScrollUp,ScrollDown,Orange.png,3,Positive,Incongruent,,,,,0,0,0,0,,,,,,,,,,,,,,,,,,,,,0,12,12,12,,,,,,,,,,,,,,,,,,,,,,,,,,,,,,,,,,,,,,,,,,,,,,,,,,,,,,,,,,,,,,,,,,,,,,,,,1.8719135870536168,1.3056377000011707,393.89928130000044,None,ScrollUp,정답입니다,393.89928130000044,None,393.89928130000044,None,393.89928130000044,None,393.89928130000044,None,395.07027019999987,None,395.07027019999987,395.57032270000127,,,,,,,,,,,,,,,,230,2022-06-03_16h09.12.376,FishGame,2022.1.1,60.03269380480112,
,14,넌 낙관적이야,1,Green,A,5.75,5.8,ScrollDown,ScrollUp,Green.png,3,Positive,Congruent,,,,,0,0,0,0,,,,,,,,,,,,,,,,,,,,,0,13,13,13,,,,,,,,,,,,,,,,,,,,,,,,,,,,,,,,,,,,,,,,,,,,,,,,,,,,,,,,,,,,,,,,,,,,,,,,,1.2361111144224803,1.071135800000775,396.22586030000093,None,ScrollDown,정답입니다,396.22586030000093,None,396.22586030000093,None,396.22586030000093,None,396.22586030000093,None,397.16245359999994,None,397.16245359999994,397.6698142000005,,,,,,,,,,,,,,,,230,2022-06-03_16h09.12.376,FishGame,2022.1.1,60.03269380480112,
,15,넌 산만해,4,Orange,B,2.695652173913043,3.033333333333333,ScrollUp,ScrollDown,Orange.png,3,Negative,Congruent,,,,,0,0,0,0,,,,,,,,,,,,,,,,,,,,,0,14,14,14,,,,,,,,,,,,,,,,,,,,,,,,,,,,,,,,,,,,,,,,,,,,,,,,,,,,,,,,,,,,,,,,,,,,,,,,,1.7006172885497413,1.044722399999955,398.32719410000027,None,ScrollUp,정답입니다,398.32719410000027,None,398.32719410000027,None,398.32719410000027,None,398.32719410000027,None,399.2364311000001,None,399.2364311000001,399.7363847000015,,,,,,,,,,,,,,,,230,2022-06-03_16h09.12.376,FishGame,2022.1.1,60.03269380480112,
,16,나를 보내줘,6,Green,A,0,0,ScrollUp,ScrollDown,Green.png,3,NonTarget,NonTarget,,,,,0,0,0,0,,,,,,,,,,,,,,,,,,,,,0,15,15,15,,,,,,,,,,,,,,,,,,,,,,,,,,,,,,,,,,,,,,,,,,,,,,,,,,,,,,,,,,,,,,,,,,,,,,,,,1.634259263674418,1.0943129999996017,400.3845205000016,None,ScrollUp,정답입니다,400.3845205000016,None,400.3845205000016,None,400.3845205000016,None,400.3845205000016,None,401.35226150000017,None,401.35226150000017,401.85264330000064,,,,,,,,,,,,,,,,230,2022-06-03_16h09.12.376,FishGame,2022.1.1,60.03269380480112,
,17,넌 교활해,5,Orange,B,2.333333333333333,2.133333333333333,ScrollUp,ScrollDown,Orange.png,3,Negative,Congruent,,,,,0,0,0,0,,,,,,,,,,,,,,,,,,,,,0,16,16,16,,,,,,,,,,,,,,,,,,,,,,,,,,,,,,,,,,,,,,,,,,,,,,,,,,,,,,,,,,,,,,,,,,,,,,,,,1.632716049750646,1.1099269999995158,402.50794470000073,None,ScrollUp,정답입니다,402.50794470000073,None,402.50794470000073,None,402.50794470000073,None,402.50794470000073,None,403.48278910000045,None,403.48278910000045,403.9857566999999,,,,,,,,,,,,,,,,230,2022-06-03_16h09.12.376,FishGame,2022.1.1,60.03269380480112,
,18,나를 보내줘,6,Green,A,0,0,ScrollUp,ScrollDown,Green.png,3,NonTarget,NonTarget,,,,,0,0,0,0,,,,,,,,,,,,,,,,,,,,,0,17,17,17,,,,,,,,,,,,,,,,,,,,,,,,,,,,,,,,,,,,,,,,,,,,,,,,,,,,,,,,,,,,,,,,,,,,,,,,,1.746913582086563,1.1172194999999192,404.63182920000145,None,ScrollUp,정답입니다,404.63182920000145,None,404.63182920000145,None,404.63182920000145,None,404.63182920000145,None,405.6265948,None,405.6265948,406.1354749000002,,,,,,,,,,,,,,,,230,2022-06-03_16h09.12.376,FishGame,2022.1.1,60.03269380480112,
,19,넌 불친절해,5,Orange,B,2.208333333333333,2.033333333333333,ScrollUp,ScrollDown,Orange.png,3,Negative,Congruent,,,,,0,0,0,0,,,,,,,,,,,,,,,,,,,,,0,18,18,18,,,,,,,,,,,,,,,,,,,,,,,,,,,,,,,,,,,,,,,,,,,,,,,,,,,,,,,,,,,,,,,,,,,,,,,,,1.8719135870536168,1.0432144000005792,406.7981378000004,None,ScrollUp,정답입니다,406.7981378000004,None,406.7981378000004,None,406.7981378000004,None,406.7981378000004,None,407.70210150000094,None,407.70210150000094,408.2019429000011,,,,,,,,,,,,,,,,230,2022-06-03_16h09.12.376,FishGame,2022.1.1,60.03269380480112,
,20,넌 지적이야,2,Orange,B,5.75,4.366666666666666,ScrollUp,ScrollDown,Orange.png,3,Positive,Incongruent,,,,,0,0,0,0,,,,,,,,,,,,,,,,,,,,,0,19,19,19,,,,,,,,,,,,,,,,,,,,,,,,,,,,,,,,,,,,,,,,,,,,,,,,,,,,,,,,,,,,,,,,,,,,,,,,,2,0.861953599998742,408.8549916000011,None,ScrollUp,정답입니다,408.8549916000011,None,408.8549916000011,None,408.8549916000011,None,408.8549916000011,None,409.5853511000005,None,409.5853511000005,410.08498860000145,,,,,,,,,,,,,,,,230,2022-06-03_16h09.12.376,FishGame,2022.1.1,60.03269380480112,
,21,넌 우유부단해,4,Green,A,2.666666666666667,3.166666666666667,ScrollDown,ScrollUp,Green.png,3,Negative,Incongruent,,,,,0,0,0,0,,,,,,,,,,,,,,,,,,,,,0,20,20,20,,,,,,,,,,,,,,,,,,,,,,,,,,,,,,,,,,,,,,,,,,,,,,,,,,,,,,,,,,,,,,,,,,,,,,,,,1.276234577099482,1.4127654999992956,410.74542720000136,None,ScrollDown,정답입니다,410.74542720000136,None,410.74542720000136,None,410.74542720000136,None,410.74542720000136,None,412.02191120000134,None,412.02191120000134,412.53463740000007,,,,,,,,,,,,,,,,230,2022-06-03_16h09.12.376,FishGame,2022.1.1,60.03269380480112,
,22,나를 데려가줘,6,Orange,B,0,0,ScrollDown,ScrollUp,Orange.png,3,NonTarget,NonTarget,,,,,0,0,0,0,,,,,,,,,,,,,,,,,,,,,0,21,21,21,,,,,,,,,,,,,,,,,,,,,,,,,,,,,,,,,,,,,,,,,,,,,,,,,,,,,,,,,,,,,,,,,,,,,,,,,1.1095678955316544,1.3429459000017232,413.19052040000133,None,ScrollDown,정답입니다,413.19052040000133,None,413.19052040000133,None,413.19052040000133,None,413.19052040000133,None,414.401319300001,None,414.401319300001,414.90108730000065,,,,,,,,,,,,,,,,230,2022-06-03_16h09.12.376,FishGame,2022.1.1,60.03269380480112,
,23,넌 성실해,1,Orange,B,6.041666666666666,5.7,ScrollUp,ScrollDown,Orange.png,3,Positive,Incongruent,,,,,0,0,0,0,,,,,,,,,,,,,,,,,,,,,0,22,22,22,,,,,,,,,,,,,,,,,,,,,,,,,,,,,,,,,,,,,,,,,,,,,,,,,,,,,,,,,,,,,,,,,,,,,,,,,2,1.173066999999719,415.55322680000063,None,ScrollUp,정답입니다,415.55322680000063,None,415.55322680000063,None,415.55322680000063,None,415.55322680000063,None,416.5948107000004,None,416.5948107000004,417.1008877000004,,,,,,,,,,,,,,,,230,2022-06-03_16h09.12.376,FishGame,2022.1.1,60.03269380480112,
,24,넌 현실주의적이야,3,Green,A,4.625,4.4,ScrollDown,ScrollUp,Green.png,3,Neutral,Neutral,,,,,0,0,0,0,,,,,,,,,,,,,,,,,,,,,0,23,23,23,,,,,,,,,,,,,,,,,,,,,,,,,,,,,,,,,,,,,,,,,,,,,,,,,,,,,,,,,,,,,,,,,,,,,,,,,1.3950617263714473,0.9673388999999588,417.74714120000135,None,ScrollDown,정답입니다,417.74714120000135,None,417.74714120000135,None,417.74714120000135,None,417.74714120000135,None,418.59227330000067,None,418.59227330000067,419.10056440000153,,,,,,,,,,,,,,,,230,2022-06-03_16h09.12.376,FishGame,2022.1.1,60.03269380480112,
,25,넌 진실돼,1,Green,A,6.625,5.566666666666666,ScrollDown,ScrollUp,Green.png,3,Positive,Congruent,,,,,0,0,0,0,,,,,,,,,,,,,,,,,,,,,0,24,24,24,,,,,,,,,,,,,,,,,,,,,,,,,,,,,,,,,,,,,,,,,,,,,,,,,,,,,,,,,,,,,,,,,,,,,,,,,1.1728395173947017,1.5090565999998944,419.7619781000012,None,ScrollDown,정답입니다,419.7619781000012,None,419.7619781000012,None,419.7619781000012,None,419.7619781000012,None,421.12823650000064,None,421.12823650000064,421.6334716000001,,,,,,,,,,,,,,,,230,2022-06-03_16h09.12.376,FishGame,2022.1.1,60.03269380480112,
,26,넌 천진난만해,3,Orange,B,4.958333333333334,4.833333333333333,ScrollUp,ScrollDown,Orange.png,3,Neutral,Neutral,,,,,0,0,0,0,,,,,,,,,,,,,,,,,,,,,0,25,25,25,,,,,,,,,,,,,,,,,,,,,,,,,,,,,,,,,,,,,,,,,,,,,,,,,,,,,,,,,,,,,,,,,,,,,,,,,1.9182098805904388,1.093454899999415,422.290762300001,None,ScrollUp,정답입니다,422.290762300001,None,422.290762300001,None,422.290762300001,None,422.290762300001,None,423.24988180000037,None,423.24988180000037,423.7498426000002,,,,,,,,,,,,,,,,230,2022-06-03_16h09.12.376,FishGame,2022.1.1,60.03269380480112,
,27,넌 교양없어,5,Green,A,2.416666666666667,2.2,ScrollDown,ScrollUp,Green.png,3,Negative,Incongruent,,,,,0,0,0,0,,,,,,,,,,,,,,,,,,,,,0,26,26,26,,,,,,,,,,,,,,,,,,,,,,,,,,,,,,,,,,,,,,,,,,,,,,,,,,,,,,,,,,,,,,,,,,,,,,,,,1.297839509944121,1.0528518999999505,424.4087584000008,None,ScrollDown,정답입니다,424.4087584000008,None,424.4087584000008,None,424.4087584000008,None,424.4087584000008,None,425.3260788000007,None,425.3260788000007,425.8329076000009,,,,,,,,,,,,,,,,230,2022-06-03_16h09.12.376,FishGame,2022.1.1,60.03269380480112,
,28,나를 보내줘,6,Green,A,0,0,ScrollUp,ScrollDown,Green.png,3,NonTarget,NonTarget,,,,,0,0,0,0,,,,,,,,,,,,,,,,,,,,,0,27,27,27,,,,,,,,,,,,,,,,,,,,,,,,,,,,,,,,,,,,,,,,,,,,,,,,,,,,,,,,,,,,,,,,,,,,,,,,,1.723765422900518,1.1024484999998094,426.4813240000003,None,ScrollUp,정답입니다,426.4813240000003,None,426.4813240000003,None,426.4813240000003,None,426.4813240000003,None,427.45858320000116,None,427.45858320000116,427.9660283000012,,,,,,,,,,,,,,,,230,2022-06-03_16h09.12.376,FishGame,2022.1.1,60.03269380480112,
,29,넌 엉뚱스러워,3,Green,A,4.166666666666667,4.133333333333334,ScrollDown,ScrollUp,Green.png,3,Neutral,Neutral,,,,,0,0,0,0,,,,,,,,,,,,,,,,,,,,,0,28,28,28,,,,,,,,,,,,,,,,,,,,,,,,,,,,,,,,,,,,,,,,,,,,,,,,,,,,,,,,,,,,,,,,,,,,,,,,,1.2469135870536168,1.4707553000007465,428.62837180000133,None,ScrollDown,정답입니다,428.62837180000133,None,428.62837180000133,None,428.62837180000133,None,428.62837180000133,None,429.95830340000066,None,429.95830340000066,430.46583530000134,,,,,,,,,,,,,,,,230,2022-06-03_16h09.12.376,FishGame,2022.1.1,60.03269380480112,
,30,넌 무지해,4,Orange,B,2.541666666666667,3.066666666666667,ScrollUp,ScrollDown,Orange.png,3,Negative,Congruent,,,,,0,0,0,0,,,,,,,,,,,,,,,,,,,,,0,29,29,29,,,,,,,,,,,,,,,,,,,,,,,,,,,,,,,,,,,,,,,,,,,,,,,,,,,,,,,,,,,,,,,,,,,,,,,,,1.8317901243766148,0.9500270999997156,431.11564610000096,None,ScrollUp,정답입니다,431.11564610000096,None,431.11564610000096,None,431.11564610000096,None,431.11564610000096,None,431.93904530000145,None,431.93904530000145,432.4491304000003,,,,,,,,,,,,,,,,230,2022-06-03_16h09.12.376,FishGame,2022.1.1,60.03269380480112,
,31,넌 음울해,5,Orange,B,2.25,2.233333333333333,ScrollUp,ScrollDown,Orange.png,3,Negative,Congruent,,,,,0,0,0,0,,,,,,,,,,,,,,,,,,,,,0,30,30,30,,,,,,,,,,,,,,,,,,,,,,,,,,,,,,,,,,,,,,,,,,,,,,,,,,,,,,,,,,,,,,,,,,,,,,,,,1.7391975373029709,1.0503043000007892,433.10241230000065,None,ScrollUp,정답입니다,433.10241230000065,None,433.10241230000065,None,433.10241230000065,None,433.10241230000065,None,434.02200240000093,None,434.02200240000093,434.5318775000014,,,,,,,,,,,,,,,,230,2022-06-03_16h09.12.376,FishGame,2022.1.1,60.03269380480112,
,32,넌 냉소적이야,5,Green,A,2.916666666666667,2.4,ScrollDown,ScrollUp,Green.png,3,Negative,Incongruent,,,,,0,0,0,0,,,,,,,,,,,,,,,,,,,,,0,31,31,31,,,,,,,,,,,,,,,,,,,,,,,,,,,,,,,,,,,,,,,,,,,,,,,,,,,,,,,,,,,,,,,,,,,,,,,,,1.0663580298423767,0.8598565000011149,435.1814572000003,None,ScrollDown,정답입니다,435.1814572000003,None,435.1814572000003,None,435.1814572000003,None,435.1814572000003,None,435.91488870000103,None,435.91488870000103,436.4148971000013,,,,,,,,,,,,,,,,230,2022-06-03_16h09.12.376,FishGame,2022.1.1,60.03269380480112,
,33,나를 데려가줘,6,Orange,B,0,0,ScrollDown,ScrollUp,Orange.png,3,NonTarget,NonTarget,,,,,0,0,0,0,,,,,,,,,,,,,,,,,,,,,0,32,32,32,,,,,,,,,,,,,,,,,,,,,,,,,,,,,,,,,,,,,,,,,,,,,,,,,,,,,,,,,,,,,,,,,,,,,,,,,1.0648148159186046,1.3504346999998234,437.0674986000013,None,ScrollDown,정답입니다,437.0674986000013,None,437.0674986000013,None,437.0674986000013,None,437.0674986000013,None,438.2876973000002,None,438.2876973000002,438.79806500000086,,,,,,,,,,,,,,,,230,2022-06-03_16h09.12.376,FishGame,2022.1.1,60.03269380480112,
,34,넌 쾌활해,1,Green,A,5.541666666666666,5.733333333333333,ScrollDown,ScrollUp,Green.png,3,Positive,Congruent,,,,,0,0,0,0,,,,,,,,,,,,,,,,,,,,,0,33,33,33,,,,,,,,,,,,,,,,,,,,,,,,,,,,,,,,,,,,,,,,,,,,,,,,,,,,,,,,,,,,,,,,,,,,,,,,,1.0231481393178303,1.0985347999994701,439.4546719000009,None,ScrollDown,정답입니다,439.4546719000009,None,439.4546719000009,None,439.4546719000009,None,439.4546719000009,None,440.4201873000002,None,440.4201873000002,440.9310174000002,,,,,,,,,,,,,,,,230,2022-06-03_16h09.12.376,FishGame,2022.1.1,60.03269380480112,
,35,나를 보내줘,6,Green,A,0,0,ScrollUp,ScrollDown,Green.png,3,NonTarget,NonTarget,,,,,0,0,0,0,,,,,,,,,,,,,,,,,,,,,0,34,34,34,,,,,,,,,,,,,,,,,,,,,,,,,,,,,,,,,,,,,,,,,,,,,,,,,,,,,,,,,,,,,,,,,,,,,,,,,1.7947530895471573,1.1312141999987944,441.58121310000024,None,ScrollUp,정답입니다,441.58121310000024,None,441.58121310000024,None,441.58121310000024,None,441.58121310000024,None,442.5859369000009,None,442.5859369000009,443.09739140000056,,,,,,,,,,,,,,,,230,2022-06-03_16h09.12.376,FishGame,2022.1.1,60.03269380480112,
,36,넌 명랑해,1,Orange,B,5.739130434782609,5.666666666666667,ScrollUp,ScrollDown,Orange.png,3,Positive,Incongruent,,,,,0,0,0,0,,,,,,,,,,,,,,,,,,,,,0,35,35,35,,,,,,,,,,,,,,,,,,,,,,,,,,,,,,,,,,,,,,,,,,,,,,,,,,,,,,,,,,,,,,,,,,,,,,,,,1.878086417913437,1.6985968999997567,443.7553259000015,None,ScrollUp,정답입니다,443.7553259000015,None,443.7553259000015,None,443.7553259000015,None,443.7553259000015,None,445.31945070000074,None,445.31945070000074,445.83050750000075,,,,,,,,,,,,,,,,230,2022-06-03_16h09.12.376,FishGame,2022.1.1,60.03269380480112,
,37,넌 멍해,4,Green,A,2.833333333333333,3.4,ScrollDown,ScrollUp,Green.png,3,Negative,Incongruent,,,,,0,0,0,0,,,,,,,,,,,,,,,,,,,,,0,36,36,36,,,,,,,,,,,,,,,,,,,,,,,,,,,,,,,,,,,,,,,,,,,,,,,,,,,,,,,,,,,,,,,,,,,,,,,,,1.1466049303611119,1.0891581000014412,446.48203900000044,None,ScrollDown,정답입니다,446.48203900000044,None,446.48203900000044,None,446.48203900000044,None,446.48203900000044,None,447.44026920000033,None,447.44026920000033,447.9468495000001,,,,,,,,,,,,,,,,230,2022-06-03_16h09.12.376,FishGame,2022.1.1,60.03269380480112,
,38,나를 데려가줘,6,Orange,B,0,0,ScrollDown,ScrollUp,Orange.png,3,NonTarget,NonTarget,,,,,0,0,0,0,,,,,,,,,,,,,,,,,,,,,0,37,37,37,,,,,,,,,,,,,,,,,,,,,,,,,,,,,,,,,,,,,,,,,,,,,,,,,,,,,,,,,,,,,,,,,,,,,,,,,1.2083333383003871,1.0396673000013834,448.6133493000016,None,ScrollDown,정답입니다,448.6133493000016,None,448.6133493000016,None,448.6133493000016,None,448.6133493000016,None,449.51346230000127,None,449.51346230000127,450.0132566000011,,,,,,,,,,,,,,,,230,2022-06-03_16h09.12.376,FishGame,2022.1.1,60.03269380480112,
,39,넌 현명해,2,Green,A,6.541666666666666,4.533333333333333,ScrollDown,ScrollUp,Green.png,3,Positive,Congruent,,,,,0,0,0,0,,,,,,,,,,,,,,,,,,,,,0,38,38,38,,,,,,,,,,,,,,,,,,,,,,,,,,,,,,,,,,,,,,,,,,,,,,,,,,,,,,,,,,,,,,,,,,,,,,,,,2,1.1348058999992645,450.6606952000002,None,ScrollUp,오답입니다,450.6606952000002,None,450.6606952000002,None,450.6606952000002,None,450.6606952000002,None,451.6712129000007,None,451.6712129000007,452.1796221000004,,,,,,,,,,,,,,,,230,2022-06-03_16h09.12.376,FishGame,2022.1.1,60.03269380480112,
,40,넌 수줍어,3,Orange,B,3.541666666666666,4.366666666666666,ScrollUp,ScrollDown,Orange.png,3,Neutral,Neutral,,,,,0,0,0,0,,,,,,,,,,,,,,,,,,,,,0,39,39,39,,,,,,,,,,,,,,,,,,,,,,,,,,,,,,,,,,,,,,,,,,,,,,,,,,,,,,,,,,,,,,,,,,,,,,,,,1.1018518507480621,0.98183870000139,452.841442500001,None,ScrollDown,오답입니다,452.841442500001,None,452.841442500001,None,452.841442500001,None,452.841442500001,None,453.68531170000097,None,453.68531170000097,454.19621610000104,,,,,,,,,,,,,,,,230,2022-06-03_16h09.12.376,FishGame,2022.1.1,60.03269380480112,
,41,나를 데려가줘,6,Orange,B,0,0,ScrollDown,ScrollUp,Orange.png,3,NonTarget,NonTarget,,,,,0,0,0,0,,,,,,,,,,,,,,,,,,,,,0,40,40,40,,,,,,,,,,,,,,,,,,,,,,,,,,,,,,,,,,,,,,,,,,,,,,,,,,,,,,,,,,,,,,,,,,,,,,,,,1.2546296318372092,1.2513586999994004,454.84216600000036,None,ScrollDown,정답입니다,454.84216600000036,None,454.84216600000036,None,454.84216600000036,None,454.84216600000036,None,455.9720455000006,None,455.9720455000006,456.4792656000009,,,,,,,,,,,,,,,,230,2022-06-03_16h09.12.376,FishGame,2022.1.1,60.03269380480112,
,42,넌 성숙해,2,Orange,B,5.833333333333333,4.533333333333333,ScrollUp,ScrollDown,Orange.png,3,Positive,Incongruent,,,,,0,0,0,0,,,,,,,,,,,,,,,,,,,,,0,41,41,41,,,,,,,,,,,,,,,,,,,,,,,,,,,,,,,,,,,,,,,,,,,,,,,,,,,,,,,,,,,,,,,,,,,,,,,,,1.7962963034709294,1.0588989999996556,457.12457800000084,None,ScrollUp,정답입니다,457.12457800000084,None,457.12457800000084,None,457.12457800000084,None,457.12457800000084,None,458.0569320000013,None,458.0569320000013,458.5621181000006,,,,,,,,,,,,,,,,230,2022-06-03_16h09.12.376,FishGame,2022.1.1,60.03269380480112,
,1,넌 매력적이야,2,Orange,B,6.125,4.666666666666667,ScrollUp,ScrollDown,Orange.png,4,Positive,Incongruent,,,,,0,0,0,0,,,,,,,,,,,,,,,,,,,,,,,,,0,0,0,0,,,,,,,,,,,,,,,,,,,,,,,,,,,,493.72457400000167,495.22418390000166,495.25760750000154,496.2074851000016,496.25748470000144,497.20747590000065,497.20747590000065,None,,,,,,,,,,,,,,,,,,,,,,,,,,,,,,,,,,1.819444437821706,1.0540096999993693,498.4029330000012,None,ScrollUp,정답입니다,498.4029330000012,None,498.4029330000012,None,498.4029330000012,None,498.4029330000012,None,499.26791159999993,None,499.26791159999993,499.77372060000016,459.0620205000014,None,459.0620205000014,None,0.17314816,-0.17592593,1,0,0,0.01619338999807951,None,489.07494040000165,None,,,230,2022-06-03_16h09.12.376,FishGame,2022.1.1,60.03269380480112,
,2,나를 보내줘,6,Green,A,0,0,ScrollUp,ScrollDown,Green.png,4,NonTarget,NonTarget,,,,,0,0,0,0,,,,,,,,,,,,,,,,,,,,,,,,,0,1,1,1,,,,,,,,,,,,,,,,,,,,,,,,,,,,,,,,,,,,,,,,,,,,,,,,,,,,,,,,,,,,,,,,,,,,,2,1.1372709999996005,500.4165043000012,None,ScrollUp,정답입니다,500.4165043000012,None,500.4165043000012,None,500.4165043000012,None,500.4165043000012,None,501.43263060000027,None,501.43263060000027,501.9399142000002,,,,,,,,,,,,,,,,230,2022-06-03_16h09.12.376,FishGame,2022.1.1,60.03269380480112,
,3,넌 조심스러워,3,Green,A,4.791666666666666,4.666666666666667,ScrollDown,ScrollUp,Green.png,4,Neutral,Neutral,,,,,0,0,0,0,,,,,,,,,,,,,,,,,,,,,,,,,0,2,2,2,,,,,,,,,,,,,,,,,,,,,,,,,,,,,,,,,,,,,,,,,,,,,,,,,,,,,,,,,,,,,,,,,,,,,1.2700617214043937,0.9685778000002756,502.58816920000027,None,ScrollDown,정답입니다,502.58816920000027,None,502.58816920000027,None,502.58816920000027,None,502.58816920000027,None,503.4319866000005,None,503.4319866000005,503.9396942000003,,,,,,,,,,,,,,,,230,2022-06-03_16h09.12.376,FishGame,2022.1.1,60.03269380480112,
,4,넌 철학적이야,3,Orange,B,4.5,4.266666666666667,ScrollUp,ScrollDown,Orange.png,4,Neutral,Neutral,,,,,0,0,0,0,,,,,,,,,,,,,,,,,,,,,,,,,0,3,3,3,,,,,,,,,,,,,,,,,,,,,,,,,,,,,,,,,,,,,,,,,,,,,,,,,,,,,,,,,,,,,,,,,,,,,1.8533950696388881,0.9331425000000309,504.60184800000025,None,ScrollUp,정답입니다,504.60184800000025,None,504.60184800000025,None,504.60184800000025,None,504.60184800000025,None,505.39462260000073,None,505.39462260000073,505.90608900000007,,,,,,,,,,,,,,,,230,2022-06-03_16h09.12.376,FishGame,2022.1.1,60.03269380480112,
,5,넌 쩨쩨해,5,Green,A,2.375,2.133333333333333,ScrollDown,ScrollUp,Green.png,4,Negative,Incongruent,,,,,0,0,0,0,,,,,,,,,,,,,,,,,,,,,,,,,0,4,4,4,,,,,,,,,,,,,,,,,,,,,,,,,,,,,,,,,,,,,,,,,,,,,,,,,,,,,,,,,,,,,,,,,,,,,1.4305555534859498,0.9609842999998364,506.55712420000054,None,ScrollDown,정답입니다,506.55712420000054,None,506.55712420000054,None,506.55712420000054,None,506.55712420000054,None,507.39073930000086,None,507.39073930000086,507.90590300000076,,,,,,,,,,,,,,,,230,2022-06-03_16h09.12.376,FishGame,2022.1.1,60.03269380480112,
,6,나를 데려가줘,6,Orange,B,0,0,ScrollDown,ScrollUp,Orange.png,4,NonTarget,NonTarget,,,,,0,0,0,0,,,,,,,,,,,,,,,,,,,,,,,,,0,5,5,5,,,,,,,,,,,,,,,,,,,,,,,,,,,,,,,,,,,,,,,,,,,,,,,,,,,,,,,,,,,,,,,,,,,,,1.1049382785956066,1.269133600000714,508.5569172000014,None,ScrollDown,정답입니다,508.5569172000014,None,508.5569172000014,None,508.5569172000014,None,508.5569172000014,None,509.69768170000134,None,509.69768170000134,510.2055239000001,,,,,,,,,,,,,,,,230,2022-06-03_16h09.12.376,FishGame,2022.1.1,60.03269380480112,
,7,넌 고집불통이야,5,Orange,B,2.875,2,ScrollUp,ScrollDown,Orange.png,4,Negative,Congruent,,,,,0,0,0,0,,,,,,,,,,,,,,,,,,,,,,,,,0,6,6,6,,,,,,,,,,,,,,,,,,,,,,,,,,,,,,,,,,,,,,,,,,,,,,,,,,,,,,,,,,,,,,,,,,,,,1.8641975422700245,1.3434161999994103,510.8715219000005,None,ScrollUp,정답입니다,510.8715219000005,None,510.8715219000005,None,510.8715219000005,None,510.8715219000005,None,512.0719087000016,None,512.0719087000016,512.5719458000003,,,,,,,,,,,,,,,,230,2022-06-03_16h09.12.376,FishGame,2022.1.1,60.03269380480112,
,8,넌 무심해,4,Green,A,2.875,3.2,ScrollDown,ScrollUp,Green.png,4,Negative,Incongruent,,,,,0,0,0,0,,,,,,,,,,,,,,,,,,,,,,,,,0,7,7,7,,,,,,,,,,,,,,,,,,,,,,,,,,,,,,,,,,,,,,,,,,,,,,,,,,,,,,,,,,,,,,,,,,,,,1.3518518482645354,0.9674390999989555,513.2174725000004,None,ScrollDown,정답입니다,513.2174725000004,None,513.2174725000004,None,513.2174725000004,None,513.2174725000004,None,514.0623362000006,None,514.0623362000006,514.5717093000003,,,,,,,,,,,,,,,,230,2022-06-03_16h09.12.376,FishGame,2022.1.1,60.03269380480112,
,9,넌 정겨워,1,Green,A,5.791666666666667,5.666666666666667,ScrollDown,ScrollUp,Green.png,4,Positive,Congruent,,,,,0,0,0,0,,,,,,,,,,,,,,,,,,,,,,,,,0,8,8,8,,,,,,,,,,,,,,,,,,,,,,,,,,,,,,,,,,,,,,,,,,,,,,,,,,,,,,,,,,,,,,,,,,,,,1.140432099501292,1.384161199999653,515.2247287000009,None,ScrollDown,정답입니다,515.2247287000009,None,515.2247287000009,None,515.2247287000009,None,515.2247287000009,None,516.4790905000009,None,516.4790905000009,516.9881010000008,,,,,,,,,,,,,,,,230,2022-06-03_16h09.12.376,FishGame,2022.1.1,60.03269380480112,
,10,나를 데려가줘,6,Orange,B,0,0,ScrollDown,ScrollUp,Orange.png,4,NonTarget,NonTarget,,,,,0,0,0,0,,,,,,,,,,,,,,,,,,,,,,,,,0,9,9,9,,,,,,,,,,,,,,,,,,,,,,,,,,,,,,,,,,,,,,,,,,,,,,,,,,,,,,,,,,,,,,,,,,,,,1.2037036965290706,1.1898656000012124,517.6449444000009,None,ScrollDown,정답입니다,517.6449444000009,None,517.6449444000009,None,517.6449444000009,None,517.6449444000009,None,518.6985735000017,None,518.6985735000017,519.2042975000004,,,,,,,,,,,,,,,,230,2022-06-03_16h09.12.376,FishGame,2022.1.1,60.03269380480112,
,11,넌 체제순응적이야,4,Orange,B,3,3.6,ScrollUp,ScrollDown,Orange.png,4,Negative,Congruent,,,,,0,0,0,0,,,,,,,,,,,,,,,,,,,,,,,,,0,10,10,10,,,,,,,,,,,,,,,,,,,,,,,,,,,,,,,,,,,,,,,,,,,,,,,,,,,,,,,,,,,,,,,,,,,,,1.8101851791143417,1.0586591999999655,519.8728597000008,None,ScrollUp,정답입니다,519.8728597000008,None,519.8728597000008,None,519.8728597000008,None,519.8728597000008,None,520.782483500001,None,520.782483500001,521.2875663000013,,,,,,,,,,,,,,,,230,2022-06-03_16h09.12.376,FishGame,2022.1.1,60.03269380480112,
,12,나를 보내줘,6,Green,A,0,0,ScrollUp,ScrollDown,Green.png,4,NonTarget,NonTarget,,,,,0,0,0,0,,,,,,,,,,,,,,,,,,,,,,,,,0,11,11,11,,,,,,,,,,,,,,,,,,,,,,,,,,,,,,,,,,,,,,,,,,,,,,,,,,,,,,,,,,,,,,,,,,,,,1.7947530895471573,1.0543785999998363,521.9328272000002,None,ScrollUp,정답입니다,521.9328272000002,None,521.9328272000002,None,521.9328272000002,None,521.9328272000002,None,522.8636856000012,None,522.8636856000012,523.3705592000006,,,,,,,,,,,,,,,,230,2022-06-03_16h09.12.376,FishGame,2022.1.1,60.03269380480112,
,13,넌 박식해,2,Green,A,5.625,3.933333333333333,ScrollDown,ScrollUp,Green.png,4,Positive,Congruent,,,,,0,0,0,0,,,,,,,,,,,,,,,,,,,,,,,,,0,12,12,12,,,,,,,,,,,,,,,,,,,,,,,,,,,,,,,,,,,,,,,,,,,,,,,,,,,,,,,,,,,,,,,,,,,,,1.1450617164373398,1.2013222000005044,524.0277219,None,ScrollDown,정답입니다,524.0277219,None,524.0277219,None,524.0277219,None,524.0277219,None,525.0935533000011,None,525.0935533000011,525.6036414999999,,,,,,,,,,,,,,,,230,2022-06-03_16h09.12.376,FishGame,2022.1.1,60.03269380480112,
,14,나를 보내줘,6,Green,A,0,0,ScrollUp,ScrollDown,Green.png,4,NonTarget,NonTarget,,,,,0,0,0,0,,,,,,,,,,,,,,,,,,,,,,,,,0,13,13,13,,,,,,,,,,,,,,,,,,,,,,,,,,,,,,,,,,,,,,,,,,,,,,,,,,,,,,,,,,,,,,,,,,,,,1.6913580298423767,1.2228791000015917,526.2510064000016,None,ScrollUp,정답입니다,526.2510064000016,None,526.2510064000016,None,526.2510064000016,None,526.2510064000016,None,527.3468434000006,None,527.3468434000006,527.8532234000013,,,,,,,,,,,,,,,,230,2022-06-03_16h09.12.376,FishGame,2022.1.1,60.03269380480112,
,15,넌 침착해,1,Orange,B,5.458333333333333,5.566666666666666,ScrollUp,ScrollDown,Orange.png,4,Positive,Incongruent,,,,,0,0,0,0,,,,,,,,,,,,,,,,,,,,,,,,,0,14,14,14,,,,,,,,,,,,,,,,,,,,,,,,,,,,,,,,,,,,,,,,,,,,,,,,,,,,,,,,,,,,,,,,,,,,,1.4953703702582668,1.4127512999984901,528.5184898000007,None,NoResponse,무응답입니다,528.5184898000007,None,528.5184898000007,None,528.5184898000007,None,528.5184898000007,None,529.7915747000006,None,529.7915747000006,530.3029931000001,,,,,,,,,,,,,,,,230,2022-06-03_16h09.12.376,FishGame,2022.1.1,60.03269380480112,
,16,나를 데려가줘,6,Orange,B,0,0,ScrollDown,ScrollUp,Orange.png,4,NonTarget,NonTarget,,,,,0,0,0,0,,,,,,,,,,,,,,,,,,,,,,,,,0,15,15,15,,,,,,,,,,,,,,,,,,,,,,,,,,,,,,,,,,,,,,,,,,,,,,,,,,,,,,,,,,,,,,,,,,,,,1.3626543208956718,1.402025199999116,530.9531466000008,None,ScrollDown,정답입니다,530.9531466000008,None,530.9531466000008,None,530.9531466000008,None,530.9531466000008,None,532.2291669000006,None,532.2291669000006,532.735968500001,,,,,,,,,,,,,,,,230,2022-06-03_16h09.12.376,FishGame,2022.1.1,60.03269380480112,
,17,넌 행복해,1,Green,A,6.416666666666666,6.166666666666667,ScrollDown,ScrollUp,Green.png,4,Positive,Congruent,,,,,0,0,0,0,,,,,,,,,,,,,,,,,,,,,,,,,0,16,16,16,,,,,,,,,,,,,,,,,,,,,,,,,,,,,,,,,,,,,,,,,,,,,,,,,,,,,,,,,,,,,,,,,,,,,1.5462962966412306,0.8829841999995551,533.3884346000013,None,NoResponse,무응답입니다,533.3884346000013,None,533.3884346000013,None,533.3884346000013,None,533.3884346000013,None,534.1435774000001,None,534.1435774000001,534.6523854000006,,,,,,,,,,,,,,,,230,2022-06-03_16h09.12.376,FishGame,2022.1.1,60.03269380480112,
,18,넌 겸손해,2,Orange,B,5.791666666666667,4.766666666666667,ScrollUp,ScrollDown,Orange.png,4,Positive,Incongruent,,,,,0,0,0,0,,,,,,,,,,,,,,,,,,,,,,,,,0,17,17,17,,,,,,,,,,,,,,,,,,,,,,,,,,,,,,,,,,,,,,,,,,,,,,,,,,,,,,,,,,,,,,,,,,,,,1.787037044763565,0.801237100000435,535.3127901000007,None,ScrollUp,정답입니다,535.3127901000007,None,535.3127901000007,None,535.3127901000007,None,535.3127901000007,None,535.9788060999999,None,535.9788060999999,536.4855533000009,,,,,,,,,,,,,,,,230,2022-06-03_16h09.12.376,FishGame,2022.1.1,60.03269380480112,
,19,나를 보내줘,6,Green,A,0,0,ScrollUp,ScrollDown,Green.png,4,NonTarget,NonTarget,,,,,0,0,0,0,,,,,,,,,,,,,,,,,,,,,,,,,0,18,18,18,,,,,,,,,,,,,,,,,,,,,,,,,,,,,,,,,,,,,,,,,,,,,,,,,,,,,,,,,,,,,,,,,,,,,1.3533950621883073,0.9190885000007256,537.1289911000003,None,ScrollDown,오답입니다,537.1289911000003,None,537.1289911000003,None,537.1289911000003,None,537.1289911000003,None,537.9309678000009,None,537.9309678000009,538.4352598000005,,,,,,,,,,,,,,,,230,2022-06-03_16h09.12.376,FishGame,2022.1.1,60.03269380480112,
,20,넌 의심없어,3,Green,A,4.166666666666667,4.6,ScrollDown,ScrollUp,Green.png,4,Neutral,Neutral,,,,,0,0,0,0,,,,,,,,,,,,,,,,,,,,,,,,,0,19,19,19,,,,,,,,,,,,,,,,,,,,,,,,,,,,,,,,,,,,,,,,,,,,,,,,,,,,,,,,,,,,,,,,,,,,,1.7592592686414719,0.8367189000000508,539.0796305000003,None,ScrollUp,오답입니다,539.0796305000003,None,539.0796305000003,None,539.0796305000003,None,539.0796305000003,None,539.7955508000014,None,539.7955508000014,540.3017060000002,,,,,,,,,,,,,,,,230,2022-06-03_16h09.12.376,FishGame,2022.1.1,60.03269380480112,
,21,넌 시시해,4,Green,A,2.666666666666667,2.966666666666667,ScrollDown,ScrollUp,Green.png,4,Negative,Incongruent,,,,,0,0,0,0,,,,,,,,,,,,,,,,,,,,,,,,,0,20,20,20,,,,,,,,,,,,,,,,,,,,,,,,,,,,,,,,,,,,,,,,,,,,,,,,,,,,,,,,,,,,,,,,,,,,,1.2206790000200272,1.131689699999697,540.9541129000008,None,ScrollDown,정답입니다,540.9541129000008,None,540.9541129000008,None,540.9541129000008,None,540.9541129000008,None,541.9593047000017,None,541.9593047000017,542.4682374000004,,,,,,,,,,,,,,,,230,2022-06-03_16h09.12.376,FishGame,2022.1.1,60.03269380480112,
,22,나를 데려가줘,6,Orange,B,0,0,ScrollDown,ScrollUp,Orange.png,4,NonTarget,NonTarget,,,,,0,0,0,0,,,,,,,,,,,,,,,,,,,,,,,,,0,21,21,21,,,,,,,,,,,,,,,,,,,,,,,,,,,,,,,,,,,,,,,,,,,,,,,,,,,,,,,,,,,,,,,,,,,,,1.1358024577299755,1.4512283000003663,543.1355510000012,None,ScrollDown,정답입니다,543.1355510000012,None,543.1355510000012,None,543.1355510000012,None,543.1355510000012,None,544.4416578,None,544.4416578,544.9511198,,,,,,,,,,,,,,,,230,2022-06-03_16h09.12.376,FishGame,2022.1.1,60.03269380480112,
,23,넌 무정해,5,Green,A,2.5,2.2,ScrollDown,ScrollUp,Green.png,4,Negative,Incongruent,,,,,0,0,0,0,,,,,,,,,,,,,,,,,,,,,,,,,0,22,22,22,,,,,,,,,,,,,,,,,,,,,,,,,,,,,,,,,,,,,,,,,,,,,,,,,,,,,,,,,,,,,,,,,,,,,1.200617293516795,1.1200853999998799,545.6001301000015,None,ScrollDown,정답입니다,545.6001301000015,None,545.6001301000015,None,545.6001301000015,None,545.6001301000015,None,546.5933977000004,None,546.5933977000004,547.1008192000008,,,,,,,,,,,,,,,,230,2022-06-03_16h09.12.376,FishGame,2022.1.1,60.03269380480112,
,24,넌 긍정적이야,1,Orange,B,6.041666666666667,6.066666666666666,ScrollUp,ScrollDown,Orange.png,4,Positive,Incongruent,,,,,0,0,0,0,,,,,,,,,,,,,,,,,,,,,,,,,0,23,23,23,,,,,,,,,,,,,,,,,,,,,,,,,,,,,,,,,,,,,,,,,,,,,,,,,,,,,,,,,,,,,,,,,,,,,1.939814825852712,1.632690399999774,547.7574126,None,ScrollUp,정답입니다,547.7574126,None,547.7574126,None,547.7574126,None,547.7574126,None,549.2554165000001,None,549.2554165000001,549.7674519000011,,,,,,,,,,,,,,,,230,2022-06-03_16h09.12.376,FishGame,2022.1.1,60.03269380480112,
,25,나를 보내줘,6,Green,A,0,0,ScrollUp,ScrollDown,Green.png,4,NonTarget,NonTarget,,,,,0,0,0,0,,,,,,,,,,,,,,,,,,,,,,,,,0,24,24,24,,,,,,,,,,,,,,,,,,,,,,,,,,,,,,,,,,,,,,,,,,,,,,,,,,,,,,,,,,,,,,,,,,,,,1.8302469104528427,1.093767200000002,550.4136237000002,None,ScrollUp,정답입니다,550.4136237000002,None,550.4136237000002,None,550.4136237000002,None,550.4136237000002,None,551.383912700001,None,551.383912700001,551.8836077000014,,,,,,,,,,,,,,,,230,2022-06-03_16h09.12.376,FishGame,2022.1.1,60.03269380480112,
,26,넌 시기심이 많아,5,Orange,B,2.458333333333333,2.233333333333333,ScrollUp,ScrollDown,Orange.png,4,Negative,Congruent,,,,,0,0,0,0,,,,,,,,,,,,,,,,,,,,,,,,,0,25,25,25,,,,,,,,,,,,,,,,,,,,,,,,,,,,,,,,,,,,,,,,,,,,,,,,,,,,,,,,,,,,,,,,,,,,,2,1.3140419000010297,552.5511858000009,None,ScrollUp,정답입니다,552.5511858000009,None,552.5511858000009,None,552.5511858000009,None,552.5511858000009,None,553.7201298,None,553.7201298,554.2332192000013,,,,,,,,,,,,,,,,230,2022-06-03_16h09.12.376,FishGame,2022.1.1,60.03269380480112,
,27,넌 탁월해,2,Green,A,5.708333333333334,4.5,ScrollDown,ScrollUp,Green.png,4,Positive,Congruent,,,,,0,0,0,0,,,,,,,,,,,,,,,,,,,,,,,,,0,26,26,26,,,,,,,,,,,,,,,,,,,,,,,,,,,,,,,,,,,,,,,,,,,,,,,,,,,,,,,,,,,,,,,,,,,,,1,1.1223193000005267,554.8954791000015,None,ScrollDown,정답입니다,554.8954791000015,None,554.8954791000015,None,554.8954791000015,None,554.8954791000015,None,555.8772238000001,None,555.8772238000001,556.3829500000011,,,,,,,,,,,,,,,,230,2022-06-03_16h09.12.376,FishGame,2022.1.1,60.03269380480112,
,28,나를 데려가줘,6,Orange,B,0,0,ScrollDown,ScrollUp,Orange.png,4,NonTarget,NonTarget,,,,,0,0,0,0,,,,,,,,,,,,,,,,,,,,,,,,,0,27,27,27,,,,,,,,,,,,,,,,,,,,,,,,,,,,,,,,,,,,,,,,,,,,,,,,,,,,,,,,,,,,,,,,,,,,,1.3981481480101745,1.127349200000026,557.0344576000007,None,ScrollDown,정답입니다,557.0344576000007,None,557.0344576000007,None,557.0344576000007,None,557.0344576000007,None,558.0287860000008,None,558.0287860000008,558.5327528000016,,,,,,,,,,,,,,,,230,2022-06-03_16h09.12.376,FishGame,2022.1.1,60.03269380480112,
,29,넌 조용해,3,Orange,B,4.333333333333333,4.166666666666667,ScrollUp,ScrollDown,Orange.png,4,Neutral,Neutral,,,,,0,0,0,0,,,,,,,,,,,,,,,,,,,,,,,,,0,28,28,28,,,,,,,,,,,,,,,,,,,,,,,,,,,,,,,,,,,,,,,,,,,,,,,,,,,,,,,,,,,,,,,,,,,,,1.699074074625969,0.7670663999997487,559.2018060000009,None,ScrollUp,정답입니다,559.2018060000009,None,559.2018060000009,None,559.2018060000009,None,559.2018060000009,None,559.8230218000008,None,559.8230218000008,560.3325056000012,,,,,,,,,,,,,,,,230,2022-06-03_16h09.12.376,FishGame,2022.1.1,60.03269380480112,
,30,넌 다정해,1,Green,A,5.833333333333334,5.7,ScrollDown,ScrollUp,Green.png,4,Positive,Congruent,,,,,0,0,0,0,,,,,,,,,,,,,,,,,,,,,,,,,0,29,29,29,,,,,,,,,,,,,,,,,,,,,,,,,,,,,,,,,,,,,,,,,,,,,,,,,,,,,,,,,,,,,,,,,,,,,1,1.165505299999495,560.9809206000009,None,ScrollDown,정답입니다,560.9809206000009,None,560.9809206000009,None,560.9809206000009,None,560.9809206000009,None,562.0211593000004,None,562.0211593000004,562.5321703000009,,,,,,,,,,,,,,,,230,2022-06-03_16h09.12.376,FishGame,2022.1.1,60.03269380480112,
,31,넌 능력있어,2,Orange,B,6.166666666666666,4.6,ScrollUp,ScrollDown,Orange.png,4,Positive,Incongruent,,,,,0,0,0,0,,,,,,,,,,,,,,,,,,,,,,,,,0,30,30,30,,,,,,,,,,,,,,,,,,,,,,,,,,,,,,,,,,,,,,,,,,,,,,,,,,,,,,,,,,,,,,,,,,,,,2,1.123050099999091,563.1856403000002,None,ScrollUp,정답입니다,563.1856403000002,None,563.1856403000002,None,563.1856403000002,None,563.1856403000002,None,564.1820132000012,None,564.1820132000012,564.6819568999999,,,,,,,,,,,,,,,,230,2022-06-03_16h09.12.376,FishGame,2022.1.1,60.03269380480112,
,32,넌 불쾌해,5,Green,A,2.125,1.933333333333333,ScrollDown,ScrollUp,Green.png,4,Negative,Incongruent,,,,,0,0,0,0,,,,,,,,,,,,,,,,,,,,,,,,,0,31,31,31,,,,,,,,,,,,,,,,,,,,,,,,,,,,,,,,,,,,,,,,,,,,,,,,,,,,,,,,,,,,,,,,,,,,,1.1250000099341075,1.1097391999992396,565.3316413000011,None,ScrollDown,정답입니다,565.3316413000011,None,565.3316413000011,None,565.3316413000011,None,565.3316413000011,None,566.3155274000001,None,566.3155274000001,566.8150951000007,,,,,,,,,,,,,,,,230,2022-06-03_16h09.12.376,FishGame,2022.1.1,60.03269380480112,
,33,나를 데려가줘,6,Orange,B,0,0,ScrollDown,ScrollUp,Orange.png,4,NonTarget,NonTarget,,,,,0,0,0,0,,,,,,,,,,,,,,,,,,,,,,,,,0,32,32,32,,,,,,,,,,,,,,,,,,,,,,,,,,,,,,,,,,,,,,,,,,,,,,,,,,,,,,,,,,,,,,,,,,,,,1.3101851840813956,1.4020228000008501,567.4666795000012,None,ScrollDown,정답입니다,567.4666795000012,None,567.4666795000012,None,567.4666795000012,None,567.4666795000012,None,568.7400521,None,568.7400521,569.2480882,,,,,,,,,,,,,,,,230,2022-06-03_16h09.12.376,FishGame,2022.1.1,60.03269380480112,
,34,넌 유순해,3,Green,A,4.458333333333333,5,ScrollDown,ScrollUp,Green.png,4,Neutral,Neutral,,,,,0,0,0,0,,,,,,,,,,,,,,,,,,,,,,,,,0,33,33,33,,,,,,,,,,,,,,,,,,,,,,,,,,,,,,,,,,,,,,,,,,,,,,,,,,,,,,,,,,,,,,,,,,,,,1.0540123681227367,0.969054999999571,569.8997204000007,None,ScrollDown,정답입니다,569.8997204000007,None,569.8997204000007,None,569.8997204000007,None,569.8997204000007,None,570.739918700001,None,570.739918700001,571.2478446000005,,,,,,,,,,,,,,,,230,2022-06-03_16h09.12.376,FishGame,2022.1.1,60.03269380480112,
,35,넌 근심스러워,4,Orange,B,2.708333333333333,3.133333333333333,ScrollUp,ScrollDown,Orange.png,4,Negative,Congruent,,,,,0,0,0,0,,,,,,,,,,,,,,,,,,,,,,,,,0,34,34,34,,,,,,,,,,,,,,,,,,,,,,,,,,,,,,,,,,,,,,,,,,,,,,,,,,,,,,,,,,,,,,,,,,,,,1.7453703681627908,1.2452923000000737,571.9090226000008,None,ScrollUp,정답입니다,571.9090226000008,None,571.9090226000008,None,571.9090226000008,None,571.9090226000008,None,573.0147138000011,None,573.0147138000011,573.514212,,,,,,,,,,,,,,,,230,2022-06-03_16h09.12.376,FishGame,2022.1.1,60.03269380480112,
,36,넌 세련되었어,2,Green,A,5.5,4.6,ScrollDown,ScrollUp,Green.png,4,Positive,Congruent,,,,,0,0,0,0,,,,,,,,,,,,,,,,,,,,,,,,,0,35,35,35,,,,,,,,,,,,,,,,,,,,,,,,,,,,,,,,,,,,,,,,,,,,,,,,,,,,,,,,,,,,,,,,,,,,,1.2206790000200272,0.9444513999987976,574.1761910000005,None,ScrollDown,정답입니다,574.1761910000005,None,574.1761910000005,None,574.1761910000005,None,574.1761910000005,None,574.9774522000007,None,574.9774522000007,575.4805872000015,,,,,,,,,,,,,,,,230,2022-06-03_16h09.12.376,FishGame,2022.1.1,60.03269380480112,
,37,나를 보내줘,6,Green,A,0,0,ScrollUp,ScrollDown,Green.png,4,NonTarget,NonTarget,,,,,0,0,0,0,,,,,,,,,,,,,,,,,,,,,,,,,0,36,36,36,,,,,,,,,,,,,,,,,,,,,,,,,,,,,,,,,,,,,,,,,,,,,,,,,,,,,,,,,,,,,,,,,,,,,1.723765422900518,1.0477079000011145,576.1304349000002,None,ScrollUp,정답입니다,576.1304349000002,None,576.1304349000002,None,576.1304349000002,None,576.1304349000002,None,577.0514491000013,None,577.0514491000013,577.5637726000004,,,,,,,,,,,,,,,,230,2022-06-03_16h09.12.376,FishGame,2022.1.1,60.03269380480112,
,38,넌 확고해,3,Orange,B,4.708333333333334,4.566666666666666,ScrollUp,ScrollDown,Orange.png,4,Neutral,Neutral,,,,,0,0,0,0,,,,,,,,,,,,,,,,,,,,,,,,,0,37,37,37,,,,,,,,,,,,,,,,,,,,,,,,,,,,,,,,,,,,,,,,,,,,,,,,,,,,,,,,,,,,,,,,,,,,,1.8533950696388881,1.026244200000292,578.2256282000017,None,ScrollUp,정답입니다,578.2256282000017,None,578.2256282000017,None,578.2256282000017,None,578.2256282000017,None,579.1134854000011,None,579.1134854000011,579.6133955000005,,,,,,,,,,,,,,,,230,2022-06-03_16h09.12.376,FishGame,2022.1.1,60.03269380480112,
,39,넌 이해심이 많아,1,Orange,B,6.041666666666668,5.533333333333333,ScrollUp,ScrollDown,Orange.png,4,Positive,Incongruent,,,,,0,0,0,0,,,,,,,,,,,,,,,,,,,,,,,,,0,38,38,38,,,,,,,,,,,,,,,,,,,,,,,,,,,,,,,,,,,,,,,,,,,,,,,,,,,,,,,,,,,,,,,,,,,,,1.8425925970077515,0.9900304999991931,580.2703175000006,None,ScrollUp,정답입니다,580.2703175000006,None,580.2703175000006,None,580.2703175000006,None,580.2703175000006,None,581.1238227000013,None,581.1238227000013,581.6298193000002,,,,,,,,,,,,,,,,230,2022-06-03_16h09.12.376,FishGame,2022.1.1,60.03269380480112,
,40,나를 보내줘,6,Green,A,0,0,ScrollUp,ScrollDown,Green.png,4,NonTarget,NonTarget,,,,,0,0,0,0,,,,,,,,,,,,,,,,,,,,,,,,,0,39,39,39,,,,,,,,,,,,,,,,,,,,,,,,,,,,,,,,,,,,,,,,,,,,,,,,,,,,,,,,,,,,,,,,,,,,,1.663580241302649,1.1171371999989788,582.2733094000014,None,ScrollUp,정답입니다,582.2733094000014,None,582.2733094000014,None,582.2733094000014,None,582.2733094000014,None,583.2705939000007,None,583.2705939000007,583.7794752000009,,,,,,,,,,,,,,,,230,2022-06-03_16h09.12.376,FishGame,2022.1.1,60.03269380480112,
,41,넌 거칠어,4,Green,A,2.625,3.033333333333333,ScrollDown,ScrollUp,Green.png,4,Negative,Incongruent,,,,,0,0,0,0,,,,,,,,,,,,,,,,,,,,,,,,,0,40,40,40,,,,,,,,,,,,,,,,,,,,,,,,,,,,,,,,,,,,,,,,,,,,,,,,,,,,,,,,,,,,,,,,,,,,,1.4212962947785854,1.1163354000000254,584.4300867000002,None,ScrollDown,정답입니다,584.4300867000002,None,584.4300867000002,None,584.4300867000002,None,584.4300867000002,None,585.4195634000007,None,585.4195634000007,585.9292246000005,,,,,,,,,,,,,,,,230,2022-06-03_16h09.12.376,FishGame,2022.1.1,60.03269380480112,
,42,넌 변덕맞아,5,Orange,B,2.75,2.166666666666667,ScrollUp,ScrollDown,Orange.png,4,Negative,Congruent,,,,,0,0,0,0,,,,,,,,,,,,,,,,,,,,,,,,,0,41,41,41,,,,,,,,,,,,,,,,,,,,,,,,,,,,,,,,,,,,,,,,,,,,,,,,,,,,,,,,,,,,,,,,,,,,,2,1.4996025999989797,586.6113259000012,None,ScrollUp,정답입니다,586.6113259000012,None,586.6113259000012,None,586.6113259000012,None,586.6113259000012,None,587.9501200000013,None,587.9501200000013,588.4622554000016,,,,,,,,,,,,,,,,230,2022-06-03_16h09.12.376,FishGame,2022.1.1,60.03269380480112,
,43,나를 데려가줘,6,Orange,B,0,0,ScrollDown,ScrollUp,Orange.png,4,NonTarget,NonTarget,,,,,0,0,0,0,,,,,,,,,,,,,,,,,,,,,,,,,0,42,42,42,,,,,,,,,,,,,,,,,,,,,,,,,,,,,,,,,,,,,,,,,,,,,,,,,,,,,,,,,,,,,,,,,,,,,1.8024691343307495,0.8459879999991244,589.1130908000014,None,ScrollUp,오답입니다,589.1130908000014,None,589.1130908000014,None,589.1130908000014,None,589.1130908000014,None,589.8308077000002,None,589.8308077000002,590.3453207000002,,,,,,,,,,,,,,,,230,2022-06-03_16h09.12.376,FishGame,2022.1.1,60.03269380480112,
,44,넌 외로워,4,Orange,B,2.833333333333333,3.3,ScrollUp,ScrollDown,Orange.png,4,Negative,Congruent,,,,,0,0,0,0,,,,,,,,,,,,,,,,,,,,,,,,,0,43,43,43,,,,,,,,,,,,,,,,,,,,,,,,,,,,,,,,,,,,,,,,,,,,,,,,,,,,,,,,,,,,,,,,,,,,,1.629629634320736,0.9032100000003993,591.0030899000012,None,ScrollUp,정답입니다,591.0030899000012,None,591.0030899000012,None,591.0030899000012,None,591.0030899000012,None,591.7731236,None,591.7731236,592.2785977000003,,,,,,,,,,,,,,,,230,2022-06-03_16h09.12.376,FishGame,2022.1.1,60.03269380480112,
,1,넌 불평스러워,5,Green,A,2.25,2.066666666666667,ScrollDown,ScrollUp,Green.png,5,Negative,Incongruent,,,,,0,0,0,0,,,,,,,,,,,,,,,,,,,,,,,,,,,,,0,0,0,0,,,,,,,,,,,,,,,,,,,,,,,,623.8079074000016,625.3077729000015,625.3409069000008,626.2908986000002,626.3408380000001,627.2906306000004,627.2906306000004,None,,,,,,,,,,,,,,,,,,,,,,,,,,,,,,,,,,1.3040123408039412,1.0842895999994653,628.4652060000008,None,ScrollDown,정답입니다,628.4652060000008,None,628.4652060000008,None,628.4652060000008,None,628.4652060000008,None,629.3831378000014,None,629.3831378000014,629.8903116000001,592.7783741000003,None,592.7783741000003,None,0.19074073,-0.18888889,1,0,0,0.016190289998121443,None,622.7912261000001,None,,,230,2022-06-03_16h09.12.376,FishGame,2022.1.1,60.03269380480112,
,2,나를 보내줘,6,Green,A,0,0,ScrollUp,ScrollDown,Green.png,5,NonTarget,NonTarget,,,,,0,0,0,0,,,,,,,,,,,,,,,,,,,,,,,,,,,,,0,1,1,1,,,,,,,,,,,,,,,,,,,,,,,,,,,,,,,,,,,,,,,,,,,,,,,,,,,,,,,,,,,,,,,,,1.5756172835826874,0.8281728000001749,630.5327637000009,None,ScrollUp,정답입니다,630.5327637000009,None,630.5327637000009,None,630.5327637000009,None,630.5327637000009,None,631.2427251000008,None,631.2427251000008,631.7568269000003,,,,,,,,,,,,,,,,230,2022-06-03_16h09.12.376,FishGame,2022.1.1,60.03269380480112,
,3,넌 다재다능해,2,Orange,B,6.208333333333333,4.5,ScrollUp,ScrollDown,Orange.png,5,Positive,Incongruent,,,,,0,0,0,0,,,,,,,,,,,,,,,,,,,,,,,,,,,,,0,2,2,2,,,,,,,,,,,,,,,,,,,,,,,,,,,,,,,,,,,,,,,,,,,,,,,,,,,,,,,,,,,,,,,,,1.5509259259949126,1.3696130999996967,632.4074674000003,None,ScrollUp,정답입니다,632.4074674000003,None,632.4074674000003,None,632.4074674000003,None,632.4074674000003,None,633.6487555000003,None,633.6487555000003,634.1564057000014,,,,,,,,,,,,,,,,230,2022-06-03_16h09.12.376,FishGame,2022.1.1,60.03269380480112,
,4,넌 과감해,3,Green,A,4.833333333333334,4.6,ScrollDown,ScrollUp,Green.png,5,Neutral,Neutral,,,,,0,0,0,0,,,,,,,,,,,,,,,,,,,,,,,,,,,,,0,3,3,3,,,,,,,,,,,,,,,,,,,,,,,,,,,,,,,,,,,,,,,,,,,,,,,,,,,,,,,,,,,,,,,,,1.2361111144224803,0.9506204000008438,634.8053464000004,None,ScrollDown,정답입니다,634.8053464000004,None,634.8053464000004,None,634.8053464000004,None,634.8053464000004,None,635.6305799000002,None,635.6305799000002,636.1394924000015,,,,,,,,,,,,,,,,230,2022-06-03_16h09.12.376,FishGame,2022.1.1,60.03269380480112,
,5,넌 고분고분해,3,Orange,B,3.75,4.033333333333333,ScrollUp,ScrollDown,Orange.png,5,Neutral,Neutral,,,,,0,0,0,0,,,,,,,,,,,,,,,,,,,,,,,,,,,,,0,4,4,4,,,,,,,,,,,,,,,,,,,,,,,,,,,,,,,,,,,,,,,,,,,,,,,,,,,,,,,,,,,,,,,,,1.5740740758677325,0.8994461999991472,636.7965558000014,None,ScrollUp,정답입니다,636.7965558000014,None,636.7965558000014,None,636.7965558000014,None,636.7965558000014,None,637.5618953000012,None,637.5618953000012,638.0725551000014,,,,,,,,,,,,,,,,230,2022-06-03_16h09.12.376,FishGame,2022.1.1,60.03269380480112,
,6,나를 보내줘,6,Green,A,0,0,ScrollUp,ScrollDown,Green.png,5,NonTarget,NonTarget,,,,,0,0,0,0,,,,,,,,,,,,,,,,,,,,,,,,,,,,,0,5,5,5,,,,,,,,,,,,,,,,,,,,,,,,,,,,,,,,,,,,,,,,,,,,,,,,,,,,,,,,,,,,,,,,,1.5910493855675063,1.0003023000008398,638.7211244000009,None,ScrollUp,정답입니다,638.7211244000009,None,638.7211244000009,None,638.7211244000009,None,638.7211244000009,None,639.596228800001,None,639.596228800001,640.1056450000015,,,,,,,,,,,,,,,,230,2022-06-03_16h09.12.376,FishGame,2022.1.1,60.03269380480112,
,7,넌 잘 잊어,4,Green,A,3,3.7,ScrollDown,ScrollUp,Green.png,5,Negative,Incongruent,,,,,0,0,0,0,,,,,,,,,,,,,,,,,,,,,,,,,,,,,0,6,6,6,,,,,,,,,,,,,,,,,,,,,,,,,,,,,,,,,,,,,,,,,,,,,,,,,,,,,,,,,,,,,,,,,1.4228395087023575,1.0167968000005203,640.763321800001,None,ScrollDown,정답입니다,640.763321800001,None,640.763321800001,None,640.763321800001,None,640.763321800001,None,641.6454247000001,None,641.6454247000001,642.1554488000002,,,,,,,,,,,,,,,,230,2022-06-03_16h09.12.376,FishGame,2022.1.1,60.03269380480112,
,8,넌 탐구심이없어,4,Orange,B,2.833333333333333,3.066666666666667,ScrollUp,ScrollDown,Orange.png,5,Negative,Congruent,,,,,0,0,0,0,,,,,,,,,,,,,,,,,,,,,,,,,,,,,0,7,7,7,,,,,,,,,,,,,,,,,,,,,,,,,,,,,,,,,,,,,,,,,,,,,,,,,,,,,,,,,,,,,,,,,1.609567902982235,1.663085800000772,642.8197746000005,None,ScrollUp,정답입니다,642.8197746000005,None,642.8197746000005,None,642.8197746000005,None,642.8197746000005,None,644.3428196000004,None,644.3428196000004,644.8551201999999,,,,,,,,,,,,,,,,230,2022-06-03_16h09.12.376,FishGame,2022.1.1,60.03269380480112,
,9,나를 데려가줘,6,Orange,B,0,0,ScrollDown,ScrollUp,Orange.png,5,NonTarget,NonTarget,,,,,0,0,0,0,,,,,,,,,,,,,,,,,,,,,,,,,,,,,0,8,8,8,,,,,,,,,,,,,,,,,,,,,,,,,,,,,,,,,,,,,,,,,,,,,,,,,,,,,,,,,,,,,,,,,1.0277777810891469,1.5390167999994446,645.5116828999999,None,ScrollDown,정답입니다,645.5116828999999,None,645.5116828999999,None,645.5116828999999,None,645.5116828999999,None,646.9145395000014,None,646.9145395000014,647.4213797000011,,,,,,,,,,,,,,,,230,2022-06-03_16h09.12.376,FishGame,2022.1.1,60.03269380480112,
,10,넌 참되어,2,Green,A,6.041666666666664,4.733333333333333,ScrollDown,ScrollUp,Green.png,5,Positive,Congruent,,,,,0,0,0,0,,,,,,,,,,,,,,,,,,,,,,,,,,,,,0,9,9,9,,,,,,,,,,,,,,,,,,,,,,,,,,,,,,,,,,,,,,,,,,,,,,,,,,,,,,,,,,,,,,,,,1.1712963034709294,1.2344702999998844,648.0711846000013,None,ScrollDown,정답입니다,648.0711846000013,None,648.0711846000013,None,648.0711846000013,None,648.0711846000013,None,649.1784640000005,None,649.1784640000005,649.6878935000004,,,,,,,,,,,,,,,,230,2022-06-03_16h09.12.376,FishGame,2022.1.1,60.03269380480112,
,11,넌 생기있어,1,Orange,B,5.875,5.633333333333334,ScrollUp,ScrollDown,Orange.png,5,Positive,Incongruent,,,,,0,0,0,0,,,,,,,,,,,,,,,,,,,,,,,,,,,,,0,10,10,10,,,,,,,,,,,,,,,,,,,,,,,,,,,,,,,,,,,,,,,,,,,,,,,,,,,,,,,,,,,,,,,,,1.432098767409722,0.8776107999983651,650.3432668000005,None,ScrollDown,오답입니다,650.3432668000005,None,650.3432668000005,None,650.3432668000005,None,650.3432668000005,None,651.0882064000016,None,651.0882064000016,651.5876513000003,,,,,,,,,,,,,,,,230,2022-06-03_16h09.12.376,FishGame,2022.1.1,60.03269380480112,
,12,넌 비사교적이야,4,Orange,B,2.875,2.9,ScrollUp,ScrollDown,Orange.png,5,Negative,Congruent,,,,,0,0,0,0,,,,,,,,,,,,,,,,,,,,,,,,,,,,,0,11,11,11,,,,,,,,,,,,,,,,,,,,,,,,,,,,,,,,,,,,,,,,,,,,,,,,,,,,,,,,,,,,,,,,,1.2222222139437993,0.9266708999984985,652.2443949000008,None,ScrollDown,오답입니다,652.2443949000008,None,652.2443949000008,None,652.2443949000008,None,652.2443949000008,None,653.0335825000002,None,653.0335825000002,653.5374467000001,,,,,,,,,,,,,,,,230,2022-06-03_16h09.12.376,FishGame,2022.1.1,60.03269380480112,
,13,나를 데려가줘,6,Orange,B,0,0,ScrollDown,ScrollUp,Orange.png,5,NonTarget,NonTarget,,,,,0,0,0,0,,,,,,,,,,,,,,,,,,,,,,,,,,,,,0,12,12,12,,,,,,,,,,,,,,,,,,,,,,,,,,,,,,,,,,,,,,,,,,,,,,,,,,,,,,,,,,,,,,,,,1.3271604999899864,2.143319699998756,654.1878938000009,None,ScrollDown,정답입니다,654.1878938000009,None,654.1878938000009,None,654.1878938000009,None,654.1878938000009,None,656.2071236000011,None,656.2071236000011,656.7203275000011,,,,,,,,,,,,,,,,230,2022-06-03_16h09.12.376,FishGame,2022.1.1,60.03269380480112,
,14,넌 고독해,4,Green,A,2.916666666666667,3.233333333333333,ScrollDown,ScrollUp,Green.png,5,Negative,Incongruent,,,,,0,0,0,0,,,,,,,,,,,,,,,,,,,,,,,,,,,,,0,13,13,13,,,,,,,,,,,,,,,,,,,,,,,,,,,,,,,,,,,,,,,,,,,,,,,,,,,,,,,,,,,,,,,,,1.3533950621883073,1.5192855999994208,657.3773728000015,None,ScrollDown,정답입니다,657.3773728000015,None,657.3773728000015,None,657.3773728000015,None,657.3773728000015,None,658.7621037000008,None,658.7621037000008,659.2699016000006,,,,,,,,,,,,,,,,230,2022-06-03_16h09.12.376,FishGame,2022.1.1,60.03269380480112,
,15,넌 신경질적이야,5,Orange,B,2.375,2.233333333333333,ScrollUp,ScrollDown,Orange.png,5,Negative,Congruent,,,,,0,0,0,0,,,,,,,,,,,,,,,,,,,,,,,,,,,,,0,14,14,14,,,,,,,,,,,,,,,,,,,,,,,,,,,,,,,,,,,,,,,,,,,,,,,,,,,,,,,,,,,,,,,,,1.5061728393969438,1.2838424000001396,659.9380045000016,None,NoResponse,무응답입니다,659.9380045000016,None,659.9380045000016,None,659.9380045000016,None,659.9380045000016,None,661.0798434000008,None,661.0798434000008,661.5863224000004,,,,,,,,,,,,,,,,230,2022-06-03_16h09.12.376,FishGame,2022.1.1,60.03269380480112,
,16,넌 똑똑해,2,Orange,B,5.666666666666667,3.966666666666667,ScrollUp,ScrollDown,Orange.png,5,Positive,Incongruent,,,,,0,0,0,0,,,,,,,,,,,,,,,,,,,,,,,,,,,,,0,15,15,15,,,,,,,,,,,,,,,,,,,,,,,,,,,,,,,,,,,,,,,,,,,,,,,,,,,,,,,,,,,,,,,,,1.6574074104428291,1.2553040999991936,662.2423071000012,None,ScrollUp,정답입니다,662.2423071000012,None,662.2423071000012,None,662.2423071000012,None,662.2423071000012,None,663.3640758000001,None,663.3640758000001,663.8693400000011,,,,,,,,,,,,,,,,230,2022-06-03_16h09.12.376,FishGame,2022.1.1,60.03269380480112,
,17,나를 보내줘,6,Green,A,0,0,ScrollUp,ScrollDown,Green.png,5,NonTarget,NonTarget,,,,,0,0,0,0,,,,,,,,,,,,,,,,,,,,,,,,,,,,,0,16,16,16,,,,,,,,,,,,,,,,,,,,,,,,,,,,,,,,,,,,,,,,,,,,,,,,,,,,,,,,,,,,,,,,,1.3919753109415371,1.0618931999997585,664.519400000001,None,ScrollDown,오답입니다,664.519400000001,None,664.519400000001,None,664.519400000001,None,664.519400000001,None,665.4575514000007,None,665.4575514000007,665.9689679000003,,,,,,,,,,,,,,,,230,2022-06-03_16h09.12.376,FishGame,2022.1.1,60.03269380480112,
,18,넌 협조적이야,1,Green,A,5.625,5.666666666666667,ScrollDown,ScrollUp,Green.png,5,Positive,Congruent,,,,,0,0,0,0,,,,,,,,,,,,,,,,,,,,,,,,,,,,,0,17,17,17,,,,,,,,,,,,,,,,,,,,,,,,,,,,,,,,,,,,,,,,,,,,,,,,,,,,,,,,,,,,,,,,,1.2885802388191223,8.758995199999845,666.613546300001,None,ScrollDown,정답입니다,666.613546300001,None,666.613546300001,None,666.613546300001,None,666.613546300001,None,675.2519539000004,None,675.2519539000004,675.7511474000003,,,,,,,,,,,,,,,,230,2022-06-03_16h09.12.376,FishGame,2022.1.1,60.03269380480112,
,19,나를 데려가줘,6,Orange,B,0,0,ScrollDown,ScrollUp,Orange.png,5,NonTarget,NonTarget,,,,,0,0,0,0,,,,,,,,,,,,,,,,,,,,,,,,,,,,,0,18,18,18,,,,,,,,,,,,,,,,,,,,,,,,,,,,,,,,,,,,,,,,,,,,,,,,,,,,,,,,,,,,,,,,,1.3179012288649878,1.626774700000169,676.4349281000013,None,ScrollDown,정답입니다,676.4349281000013,None,676.4349281000013,None,676.4349281000013,None,676.4349281000013,None,677.9023336000009,None,677.9023336000009,678.4177063000006,,,,,,,,,,,,,,,,230,2022-06-03_16h09.12.376,FishGame,2022.1.1,60.03269380480112,
,20,넌 몰인정해,5,Orange,B,2.541666666666667,2.066666666666667,ScrollUp,ScrollDown,Orange.png,5,Negative,Congruent,,,,,0,0,0,0,,,,,,,,,,,,,,,,,,,,,,,,,,,,,0,19,19,19,,,,,,,,,,,,,,,,,,,,,,,,,,,,,,,,,,,,,,,,,,,,,,,,,,,,,,,,,,,,,,,,,1.629629634320736,1.393018499999016,679.0729243000005,None,ScrollUp,정답입니다,679.0729243000005,None,679.0729243000005,None,679.0729243000005,None,679.0729243000005,None,680.3293745999999,None,680.3293745999999,680.8338433000008,,,,,,,,,,,,,,,,230,2022-06-03_16h09.12.376,FishGame,2022.1.1,60.03269380480112,
,21,나를 데려가줘,6,Orange,B,0,0,ScrollDown,ScrollUp,Orange.png,5,NonTarget,NonTarget,,,,,0,0,0,0,,,,,,,,,,,,,,,,,,,,,,,,,,,,,0,20,20,20,,,,,,,,,,,,,,,,,,,,,,,,,,,,,,,,,,,,,,,,,,,,,,,,,,,,,,,,,,,,,,,,,1.1790123482545216,1.177351299998918,681.4909335000011,None,ScrollDown,정답입니다,681.4909335000011,None,681.4909335000011,None,681.4909335000011,None,681.4909335000011,None,682.5299491000005,None,682.5299491000005,683.0335664000013,,,,,,,,,,,,,,,,230,2022-06-03_16h09.12.376,FishGame,2022.1.1,60.03269380480112,
,22,넌 순진해,3,Orange,B,4.125,4.166666666666667,ScrollUp,ScrollDown,Orange.png,5,Neutral,Neutral,,,,,0,0,0,0,,,,,,,,,,,,,,,,,,,,,,,,,,,,,0,21,21,21,,,,,,,,,,,,,,,,,,,,,,,,,,,,,,,,,,,,,,,,,,,,,,,,,,,,,,,,,,,,,,,,,1.4938271606030564,1.1051847000017005,683.6858709000007,None,NoResponse,무응답입니다,683.6858709000007,None,683.6858709000007,None,683.6858709000007,None,683.6858709000007,None,684.6621395000002,None,684.6621395000002,685.1667315000013,,,,,,,,,,,,,,,,230,2022-06-03_16h09.12.376,FishGame,2022.1.1,60.03269380480112,
