name,TrialNum,Word,WordCategory,FishType,WordList,WordValence,WordReputation,CorrectResp,IncorrectResp,FishTypeFile,Round,WordType,Condition,LoopforOrange.thisRepN,LoopforOrange.thisTrialN,LoopforOrange.thisN,LoopforOrange.thisIndex,OrangeInstLoop.thisRepN,OrangeInstLoop.thisTrialN,OrangeInstLoop.thisN,OrangeInstLoop.thisIndex,OrangePrac.thisRepN,OrangePrac.thisTrialN,OrangePrac.thisN,OrangePrac.thisIndex,temp1.thisRepN,temp1.thisTrialN,temp1.thisN,temp1.thisIndex,OrangeRound1.thisRepN,OrangeRound1.thisTrialN,OrangeRound1.thisN,OrangeRound1.thisIndex,OrangeRound2.thisRepN,OrangeRound2.thisTrialN,OrangeRound2.thisN,OrangeRound2.thisIndex,OrangeRound3.thisRepN,OrangeRound3.thisTrialN,OrangeRound3.thisN,OrangeRound3.thisIndex,OrangeRound4.thisRepN,OrangeRound4.thisTrialN,OrangeRound4.thisN,OrangeRound4.thisIndex,OrangeRound5.thisRepN,OrangeRound5.thisTrialN,OrangeRound5.thisN,OrangeRound5.thisIndex,LoopForGreen.thisRepN,LoopForGreen.thisTrialN,LoopForGreen.thisN,LoopForGreen.thisIndex,text_2.started,text_2.stopped,text_3.started,text_3.stopped,key_resp.keys,key_resp.rt,key_resp.started,key_resp.stopped,PassI_2.started,PassI_2.stopped,PassInst_2.keys,PassInst_2.rt,PassInst_2.started,PassInst_2.stopped,mouse_2.x,mouse_2.y,mouse_2.leftButton,mouse_2.midButton,mouse_2.rightButton,mouse_2.started,mouse_2.stopped,image.started,image.stopped,text_5.started,text_5.stopped,text_6.started,text_6.stopped,text_7.started,text_7.stopped,text_8.started,text_8.stopped,slider_2.response,slider_2.rt,slider_2.started,slider_2.stopped,Response_2,Feedback_2,BackGround_2.started,BackGround_2.stopped,Fish_2.started,Fish_2.stopped,WordBox_2.started,WordBox_2.stopped,Words_2.started,Words_2.stopped,BackGround_Feedback_2.started,BackGround_Feedback_2.stopped,Feedbacks_2.started,Feedbacks_2.stopped,Continue_or_not.keys,Continue_or_not.rt,Continue_or_not.started,Continue_or_not.stopped,image_3.started,image_3.stopped,mouse_3.x,mouse_3.y,mouse_3.leftButton,mouse_3.midButton,mouse_3.rightButton,mouse_3.started,mouse_3.stopped,startmain.started,startmain.stopped,slider.response,slider.rt,slider.started,slider.stopped,Response,Feedback,BackGround.started,BackGround.stopped,Fish.started,Fish.stopped,WordBox.started,WordBox.stopped,Words.started,Words.stopped,BackGround_Feedback.started,BackGround_Feedback.stopped,Feedbacks.started,Feedbacks.stopped,text.started,text.stopped,break_interval.started,break_interval.stopped,mouse.x,mouse.y,mouse.leftButton,mouse.midButton,mouse.rightButton,mouse.started,mouse.stopped,stratnextround.started,stratnextround.stopped,endgame.started,endgame.stopped,participant,date,expName,psychopyVersion,frameRate,
,,,,,,,,,,,,,,,,,,,,,,,,,,,,,,,,,,,,,,,,,,,,,,,,,,,,,,19.02259520000007,None,19.02259520000007,None,space,3.418945299999905,19.516024000000016,None,,,,,,,,,,,,,,,,,,,,,,,,,,,,,,,,,,,,,,,,,,,,,,,,,,,,,,,,,,,,,,,,,,,,,,,,,,,,,,,,,,,,,,,,,,231,2022-06-03_17h32.18.928,FishGame,2022.1.1,60.0110780449805,
물고기과제_instruction(참가자용)OrangeVersion.mp4,,,,,,,,,,,,,,0,0,0,0,0,0,0,0,,,,,,,,,,,,,,,,,,,,,,,,,,,,,,,,,,,,,,,,,89.8107187999999,None,n,3.534706399999777,89.8107187999999,None,,,,,,,,,,,,,,,,,,,,,,,,,,,,,,,,,,,,,,,,,,,,,,,,,,,,,,,,,,,,,,,,,,,,,,,,,,,,,,,,,,,,231,2022-06-03_17h32.18.928,FishGame,2022.1.1,60.0110780449805,
,1,넌 교활해,5,Green,B,2.333333333333333,2.133333333333333,ScrollUp,ScrollDown,Green.png,practice,,,0,0,0,0,,,,,0,0,0,0,0,0,0,0,,,,,,,,,,,,,,,,,,,,,,,,,,,,,,,,,,,,,,,0.08796296,-0.2638889,1,0,0,0.5136155099994539,None,93.37329899999986,None,96.88987399999996,98.38954509999985,98.42271110000001,99.37254029999986,99.42273840000007,100.37245119999989,100.37245119999989,None,1.5432098750025034,1.5096172000003207,101.55008799999996,None,NoResponse,무응답입니다,101.55008799999996,None,101.55008799999996,None,101.55008799999996,None,101.55008799999996,None,102.89389010000014,None,102.89389010000014,103.40534530000014,,,,,,,,,,,,,,,,,,,,,,,,,,,,,,,,,,,,,,,,,,,,,,,,,231,2022-06-03_17h32.18.928,FishGame,2022.1.1,60.0110780449805,
,2,넌 슬기로워,2,Orange,A,6.166666666666667,4.1,ScrollDown,ScrollUp,Orange.png,practice,,,0,0,0,0,,,,,0,0,0,0,0,1,1,1,,,,,,,,,,,,,,,,,,,,,,,,,,,,,,,,,,,,,,,,,,,,,,,,,,,,,,,,1,1.3662235000001601,104.07896519999986,None,ScrollDown,정답입니다,104.07896519999986,None,104.07896519999986,None,104.07896519999986,None,104.07896519999986,None,105.29653250000001,None,105.29653250000001,105.80506509999987,,,,,,,,,,,,,,,,,,,,,,,,,,,,,,,,,,,,,,,,,,,,,,,,,231,2022-06-03_17h32.18.928,FishGame,2022.1.1,60.0110780449805,
,3,나를 보내줘,6,Orange,A,0,0,ScrollUp,ScrollDown,Orange.png,practice,,,0,0,0,0,,,,,0,0,0,0,0,2,2,2,,,,,,,,,,,,,,,,,,,,,,,,,,,,,,,,,,,,,,,,,,,,,,,,,,,,,,,,2,2.0785923000003095,106.45479440000008,None,ScrollUp,정답입니다,106.45479440000008,None,106.45479440000008,None,106.45479440000008,None,106.45479440000008,None,108.40528589999985,None,108.40528589999985,108.90456360000007,,,,,,,,,,,,,,,,,,,,,,,,,,,,,,,,,,,,,,,,,,,,,,,,,231,2022-06-03_17h32.18.928,FishGame,2022.1.1,60.0110780449805,
,4,나를 데려가줘,6,Green,B,0,0,ScrollDown,ScrollUp,Green.png,practice,,,0,0,0,0,,,,,0,0,0,0,0,3,3,3,,,,,,,,,,,,,,,,,,,,,,,,,,,,,,,,,,,,,,,,,,,,,,,,,,,,,,,,1,1.5143640999999661,109.5578131000002,None,ScrollDown,정답입니다,109.5578131000002,None,109.5578131000002,None,109.5578131000002,None,109.5578131000002,None,110.94183250000015,None,110.94183250000015,111.45429030000014,,,,,,,,,,,,,,,,,,,,,,,,,,,,,,,,,,,,,,,,,,,,,,,,,231,2022-06-03_17h32.18.928,FishGame,2022.1.1,60.0110780449805,
,1,넌 교활해,5,Green,B,2.333333333333333,2.133333333333333,ScrollUp,ScrollDown,Green.png,practice,,,0,0,0,0,,,,,0,0,0,0,,,,,,,,,,,,,,,,,,,,,,,,,,,,,,,,,,,,,,,,,,,,,,,,,,,,,,,,,,,,,,,,,,,,,,,,,,,,,,n,2.8041520999995555,111.95435069999985,None,111.95435069999985,None,,,,,,,,,,,,,,,,,,,,,,,,,,,,,,,,,,,,,,,,,,,231,2022-06-03_17h32.18.928,FishGame,2022.1.1,60.0110780449805,
,1,넌 따뜻해,1,Green,B,6.083333333333333,5.6,ScrollUp,ScrollDown,Green.png,1,Positive,Incongruent,0,0,0,0,,,,,,,,,,,,,0,0,0,0,,,,,,,,,,,,,,,,,,,,,,,,,,,,,,,,,,,,,,,,,,,,118.0036043,119.50331090000009,119.53662940000004,120.48650420000013,120.5365799000001,121.4863233000001,121.4863233000001,None,,,,,,,,,,,,,,,,,,,,,,,,,0.11018518,-0.21203704,1,0,0,0.3135082099997817,None,114.78716540000005,None,2,1.383692500000052,122.68579980000004,None,ScrollUp,정답입니다,122.68579980000004,None,122.68579980000004,None,122.68579980000004,None,122.68579980000004,None,123.88765689999991,None,123.88765689999991,124.40264650000017,,,,,,,,,,,,,,,,231,2022-06-03_17h32.18.928,FishGame,2022.1.1,60.0110780449805,
,2,넌 기품있어,2,Green,B,5.791666666666668,4.5,ScrollUp,ScrollDown,Green.png,1,Positive,Incongruent,0,0,0,0,,,,,,,,,,,,,0,1,1,1,,,,,,,,,,,,,,,,,,,,,,,,,,,,,,,,,,,,,,,,,,,,,,,,,,,,,,,,,,,,,,,,,,,,,,,,,,,,,,,,,,,,,2,1.0628833999999188,125.06782729999986,None,ScrollUp,정답입니다,125.06782729999986,None,125.06782729999986,None,125.06782729999986,None,125.06782729999986,None,125.98655450000024,None,125.98655450000024,126.48585830000002,,,,,,,,,,,,,,,,231,2022-06-03_17h32.18.928,FishGame,2022.1.1,60.0110780449805,
,3,나를 보내줘,6,Orange,A,0,0,ScrollUp,ScrollDown,Orange.png,1,NonTarget,NonTarget,0,0,0,0,,,,,,,,,,,,,0,2,2,2,,,,,,,,,,,,,,,,,,,,,,,,,,,,,,,,,,,,,,,,,,,,,,,,,,,,,,,,,,,,,,,,,,,,,,,,,,,,,,,,,,,,,2,1.2780344000002515,127.1565799,None,ScrollUp,정답입니다,127.1565799,None,127.1565799,None,127.1565799,None,127.1565799,None,128.28662840000015,None,128.28662840000015,128.80211270000018,,,,,,,,,,,,,,,,231,2022-06-03_17h32.18.928,FishGame,2022.1.1,60.0110780449805,
,4,넌 수동적이야,4,Orange,A,2.833333333333333,2.933333333333333,ScrollDown,ScrollUp,Orange.png,1,Negative,Incongruent,0,0,0,0,,,,,,,,,,,,,0,3,3,3,,,,,,,,,,,,,,,,,,,,,,,,,,,,,,,,,,,,,,,,,,,,,,,,,,,,,,,,,,,,,,,,,,,,,,,,,,,,,,,,,,,,,1,1.2261478000000352,129.4731056999999,None,ScrollDown,정답입니다,129.4731056999999,None,129.4731056999999,None,129.4731056999999,None,129.4731056999999,None,130.5517076000001,None,130.5517076000001,131.0520203000001,,,,,,,,,,,,,,,,231,2022-06-03_17h32.18.928,FishGame,2022.1.1,60.0110780449805,
,5,넌 사심이 없어,3,Green,B,4.916666666666666,4.333333333333333,ScrollUp,ScrollDown,Green.png,1,Neutral,Neutral,0,0,0,0,,,,,,,,,,,,,0,4,4,4,,,,,,,,,,,,,,,,,,,,,,,,,,,,,,,,,,,,,,,,,,,,,,,,,,,,,,,,,,,,,,,,,,,,,,,,,,,,,,,,,,,,,2,1.034426799999892,131.71316160000015,None,ScrollUp,정답입니다,131.71316160000015,None,131.71316160000015,None,131.71316160000015,None,131.71316160000015,None,132.60661890000029,None,132.60661890000029,133.1181643,,,,,,,,,,,,,,,,231,2022-06-03_17h32.18.928,FishGame,2022.1.1,60.0110780449805,
,6,넌 헤퍼,5,Orange,A,2.458333333333334,2.233333333333333,ScrollDown,ScrollUp,Orange.png,1,Negative,Incongruent,0,0,0,0,,,,,,,,,,,,,0,5,5,5,,,,,,,,,,,,,,,,,,,,,,,,,,,,,,,,,,,,,,,,,,,,,,,,,,,,,,,,,,,,,,,,,,,,,,,,,,,,,,,,,,,,,1,1.4015891000003649,133.78669440000021,None,ScrollDown,정답입니다,133.78669440000021,None,133.78669440000021,None,133.78669440000021,None,133.78669440000021,None,135.0407841000001,None,135.0407841000001,135.5512136000002,,,,,,,,,,,,,,,,231,2022-06-03_17h32.18.928,FishGame,2022.1.1,60.0110780449805,
,7,넌 말쑥해,3,Orange,A,4.833333333333334,4.333333333333333,ScrollDown,ScrollUp,Orange.png,1,Neutral,Neutral,0,0,0,0,,,,,,,,,,,,,0,6,6,6,,,,,,,,,,,,,,,,,,,,,,,,,,,,,,,,,,,,,,,,,,,,,,,,,,,,,,,,,,,,,,,,,,,,,,,,,,,,,,,,,,,,,1,1.0625435999995716,136.21557639999992,None,ScrollDown,정답입니다,136.21557639999992,None,136.21557639999992,None,136.21557639999992,None,136.21557639999992,None,137.13620889999993,None,137.13620889999993,137.65097109999988,,,,,,,,,,,,,,,,231,2022-06-03_17h32.18.928,FishGame,2022.1.1,60.0110780449805,
,8,넌 투덜거려,5,Green,B,2.541666666666667,2.266666666666667,ScrollUp,ScrollDown,Green.png,1,Negative,Congruent,0,0,0,0,,,,,,,,,,,,,0,7,7,7,,,,,,,,,,,,,,,,,,,,,,,,,,,,,,,,,,,,,,,,,,,,,,,,,,,,,,,,,,,,,,,,,,,,,,,,,,,,,,,,,,,,,2,1.0572902000003523,138.31167749999986,None,ScrollUp,정답입니다,138.31167749999986,None,138.31167749999986,None,138.31167749999986,None,138.31167749999986,None,139.2340460999999,None,139.2340460999999,139.73397860000023,,,,,,,,,,,,,,,,231,2022-06-03_17h32.18.928,FishGame,2022.1.1,60.0110780449805,
,9,넌 적극적이야,1,Orange,A,5.708333333333333,5.533333333333333,ScrollDown,ScrollUp,Orange.png,1,Positive,Congruent,0,0,0,0,,,,,,,,,,,,,0,8,8,8,,,,,,,,,,,,,,,,,,,,,,,,,,,,,,,,,,,,,,,,,,,,,,,,,,,,,,,,,,,,,,,,,,,,,,,,,,,,,,,,,,,,,1,1.227291299999706,140.3947407999999,None,ScrollDown,정답입니다,140.3947407999999,None,140.3947407999999,None,140.3947407999999,None,140.3947407999999,None,141.48408999999992,None,141.48408999999992,141.98372040000004,,,,,,,,,,,,,,,,231,2022-06-03_17h32.18.928,FishGame,2022.1.1,60.0110780449805,
,10,넌 재미없어,4,Green,B,2.625,2.966666666666667,ScrollUp,ScrollDown,Green.png,1,Negative,Congruent,0,0,0,0,,,,,,,,,,,,,0,9,9,9,,,,,,,,,,,,,,,,,,,,,,,,,,,,,,,,,,,,,,,,,,,,,,,,,,,,,,,,,,,,,,,,,,,,,,,,,,,,,,,,,,,,,2,1.0233706000003622,142.64375199999995,None,ScrollUp,정답입니다,142.64375199999995,None,142.64375199999995,None,142.64375199999995,None,142.64375199999995,None,143.53374440000016,None,143.53374440000016,144.03341920000003,,,,,,,,,,,,,,,,231,2022-06-03_17h32.18.928,FishGame,2022.1.1,60.0110780449805,
,11,넌 명석해,2,Orange,A,5.875,4.033333333333333,ScrollDown,ScrollUp,Orange.png,1,Positive,Congruent,0,0,0,0,,,,,,,,,,,,,0,10,10,10,,,,,,,,,,,,,,,,,,,,,,,,,,,,,,,,,,,,,,,,,,,,,,,,,,,,,,,,,,,,,,,,,,,,,,,,,,,,,,,,,,,,,1.0108024775981903,1.1127360999998928,144.69533760000013,None,ScrollDown,정답입니다,144.69533760000013,None,144.69533760000013,None,144.69533760000013,None,144.69533760000013,None,145.6692868,None,145.6692868,146.18315410000014,,,,,,,,,,,,,,,,231,2022-06-03_17h32.18.928,FishGame,2022.1.1,60.0110780449805,
,12,나를 데려가줘,6,Green,B,0,0,ScrollDown,ScrollUp,Green.png,1,NonTarget,NonTarget,0,0,0,0,,,,,,,,,,,,,0,11,11,11,,,,,,,,,,,,,,,,,,,,,,,,,,,,,,,,,,,,,,,,,,,,,,,,,,,,,,,,,,,,,,,,,,,,,,,,,,,,,,,,,,,,,1,1.50179449999996,146.84165910000002,None,ScrollDown,정답입니다,146.84165910000002,None,146.84165910000002,None,146.84165910000002,None,146.84165910000002,None,148.20599859999993,None,148.20599859999993,148.71625630000017,,,,,,,,,,,,,,,,231,2022-06-03_17h32.18.928,FishGame,2022.1.1,60.0110780449805,
,13,넌 소심해,4,Orange,A,3,3.1,ScrollDown,ScrollUp,Orange.png,1,Negative,Incongruent,0,0,0,0,,,,,,,,,,,,,0,12,12,12,,,,,,,,,,,,,,,,,,,,,,,,,,,,,,,,,,,,,,,,,,,,,,,,,,,,,,,,,,,,,,,,,,,,,,,,,,,,,,,,,,,,,1,1.0459123000000545,149.36902770000006,None,ScrollDown,정답입니다,149.36902770000006,None,149.36902770000006,None,149.36902770000006,None,149.36902770000006,None,150.2847369000001,None,150.2847369000001,150.79929390000007,,,,,,,,,,,,,,,,231,2022-06-03_17h32.18.928,FishGame,2022.1.1,60.0110780449805,
,14,넌 합리적이야,2,Orange,A,5.583333333333333,4.733333333333333,ScrollDown,ScrollUp,Orange.png,1,Positive,Congruent,0,0,0,0,,,,,,,,,,,,,0,13,13,13,,,,,,,,,,,,,,,,,,,,,,,,,,,,,,,,,,,,,,,,,,,,,,,,,,,,,,,,,,,,,,,,,,,,,,,,,,,,,,,,,,,,,1.1064814925193787,0.8421715999998014,151.46157949999997,None,ScrollDown,정답입니다,151.46157949999997,None,151.46157949999997,None,151.46157949999997,None,151.46157949999997,None,152.16605200000004,None,152.16605200000004,152.66564580000022,,,,,,,,,,,,,,,,231,2022-06-03_17h32.18.928,FishGame,2022.1.1,60.0110780449805,
,15,넌 무자비해,5,Green,B,2.333333333333333,2.1,ScrollUp,ScrollDown,Green.png,1,Negative,Congruent,0,0,0,0,,,,,,,,,,,,,0,14,14,14,,,,,,,,,,,,,,,,,,,,,,,,,,,,,,,,,,,,,,,,,,,,,,,,,,,,,,,,,,,,,,,,,,,,,,,,,,,,,,,,,,,,,2,1.4719571999999062,153.32613889999993,None,ScrollUp,정답입니다,153.32613889999993,None,153.32613889999993,None,153.32613889999993,None,153.32613889999993,None,154.66359520000015,None,154.66359520000015,155.1654695000002,,,,,,,,,,,,,,,,231,2022-06-03_17h32.18.928,FishGame,2022.1.1,60.0110780449805,
,16,나를 보내줘,6,Orange,A,0,0,ScrollUp,ScrollDown,Orange.png,1,NonTarget,NonTarget,0,0,0,0,,,,,,,,,,,,,0,15,15,15,,,,,,,,,,,,,,,,,,,,,,,,,,,,,,,,,,,,,,,,,,,,,,,,,,,,,,,,,,,,,,,,,,,,,,,,,,,,,,,,,,,,,1.983024666706721,1.2502526999996917,155.82576700000027,None,ScrollUp,정답입니다,155.82576700000027,None,155.82576700000027,None,155.82576700000027,None,155.82576700000027,None,156.93727590000026,None,156.93727590000026,157.4483620000001,,,,,,,,,,,,,,,,231,2022-06-03_17h32.18.928,FishGame,2022.1.1,60.0110780449805,
,17,넌 현실적이야,3,Green,B,4.608695652173913,4.766666666666667,ScrollUp,ScrollDown,Green.png,1,Neutral,Neutral,0,0,0,0,,,,,,,,,,,,,0,16,16,16,,,,,,,,,,,,,,,,,,,,,,,,,,,,,,,,,,,,,,,,,,,,,,,,,,,,,,,,,,,,,,,,,,,,,,,,,,,,,,,,,,,,,2,1.41189439999971,158.1097875999999,None,ScrollUp,정답입니다,158.1097875999999,None,158.1097875999999,None,158.1097875999999,None,158.1097875999999,None,159.381668,None,159.381668,159.88139230000024,,,,,,,,,,,,,,,,231,2022-06-03_17h32.18.928,FishGame,2022.1.1,60.0110780449805,
,18,넌 의리있어,1,Green,B,5.833333333333334,5.633333333333334,ScrollUp,ScrollDown,Green.png,1,Positive,Incongruent,0,0,0,0,,,,,,,,,,,,,0,17,17,17,,,,,,,,,,,,,,,,,,,,,,,,,,,,,,,,,,,,,,,,,,,,,,,,,,,,,,,,,,,,,,,,,,,,,,,,,,,,,,,,,,,,,1.8919753183921177,0.9082726000001458,160.53647910000018,None,ScrollUp,정답입니다,160.53647910000018,None,160.53647910000018,None,160.53647910000018,None,160.53647910000018,None,161.31477959999984,None,161.31477959999984,161.8145316,,,,,,,,,,,,,,,,231,2022-06-03_17h32.18.928,FishGame,2022.1.1,60.0110780449805,
,19,넌 신경과민이야,5,Orange,A,2.541666666666667,2.166666666666667,ScrollDown,ScrollUp,Orange.png,1,Negative,Incongruent,0,0,0,0,,,,,,,,,,,,,0,18,18,18,,,,,,,,,,,,,,,,,,,,,,,,,,,,,,,,,,,,,,,,,,,,,,,,,,,,,,,,,,,,,,,,,,,,,,,,,,,,,,,,,,,,,1,0.978756599999997,162.48470829999997,None,ScrollDown,정답입니다,162.48470829999997,None,162.48470829999997,None,162.48470829999997,None,162.48470829999997,None,163.31460289999995,None,163.31460289999995,163.81423170000016,,,,,,,,,,,,,,,,231,2022-06-03_17h32.18.928,FishGame,2022.1.1,60.0110780449805,
,20,넌 편안해,1,Orange,A,5.916666666666666,5.866666666666666,ScrollDown,ScrollUp,Orange.png,1,Positive,Congruent,0,0,0,0,,,,,,,,,,,,,0,19,19,19,,,,,,,,,,,,,,,,,,,,,,,,,,,,,,,,,,,,,,,,,,,,,,,,,,,,,,,,,,,,,,,,,,,,,,,,,,,,,,,,,,,,,1,1.16894209999964,164.47661909999988,None,ScrollDown,정답입니다,164.47661909999988,None,164.47661909999988,None,164.47661909999988,None,164.47661909999988,None,165.50509590000001,None,165.50509590000001,166.0139236,,,,,,,,,,,,,,,,231,2022-06-03_17h32.18.928,FishGame,2022.1.1,60.0110780449805,
,21,넌 품위있어,2,Green,B,5.291666666666666,4.466666666666667,ScrollUp,ScrollDown,Green.png,1,Positive,Incongruent,0,0,0,0,,,,,,,,,,,,,0,20,20,20,,,,,,,,,,,,,,,,,,,,,,,,,,,,,,,,,,,,,,,,,,,,,,,,,,,,,,,,,,,,,,,,,,,,,,,,,,,,,,,,,,,,,2,0.9984036000000742,166.66839100000016,None,ScrollUp,정답입니다,166.66839100000016,None,166.66839100000016,None,166.66839100000016,None,166.66839100000016,None,167.53412230000004,None,167.53412230000004,168.04698159999998,,,,,,,,,,,,,,,,231,2022-06-03_17h32.18.928,FishGame,2022.1.1,60.0110780449805,
,22,넌 빈틈없어,3,Orange,A,4.833333333333333,3.966666666666667,ScrollDown,ScrollUp,Orange.png,1,Neutral,Neutral,0,0,0,0,,,,,,,,,,,,,0,21,21,21,,,,,,,,,,,,,,,,,,,,,,,,,,,,,,,,,,,,,,,,,,,,,,,,,,,,,,,,,,,,,,,,,,,,,,,,,,,,,,,,,,,,,1.0138889054457347,0.8626157000003332,168.71001590000014,None,ScrollDown,정답입니다,168.71001590000014,None,168.71001590000014,None,168.71001590000014,None,168.71001590000014,None,169.43335130000014,None,169.43335130000014,169.94676570000001,,,,,,,,,,,,,,,,231,2022-06-03_17h32.18.928,FishGame,2022.1.1,60.0110780449805,
,23,넌 상상력없어,4,Green,B,2.833333333333333,3.133333333333333,ScrollUp,ScrollDown,Green.png,1,Negative,Congruent,0,0,0,0,,,,,,,,,,,,,0,22,22,22,,,,,,,,,,,,,,,,,,,,,,,,,,,,,,,,,,,,,,,,,,,,,,,,,,,,,,,,,,,,,,,,,,,,,,,,,,,,,,,,,,,,,1.9645061492919922,0.9658902000001035,170.61346890000004,None,ScrollUp,정답입니다,170.61346890000004,None,170.61346890000004,None,170.61346890000004,None,170.61346890000004,None,171.43511149999995,None,171.43511149999995,171.94644400000016,,,,,,,,,,,,,,,,231,2022-06-03_17h32.18.928,FishGame,2022.1.1,60.0110780449805,
,24,넌 지혜로워,2,Green,B,6.333333333333334,4.633333333333334,ScrollUp,ScrollDown,Green.png,1,Positive,Incongruent,0,0,0,0,,,,,,,,,,,,,0,23,23,23,,,,,,,,,,,,,,,,,,,,,,,,,,,,,,,,,,,,,,,,,,,,,,,,,,,,,,,,,,,,,,,,,,,,,,,,,,,,,,,,,,,,,2,0.8619483999996191,172.60898380000026,None,ScrollUp,정답입니다,172.60898380000026,None,172.60898380000026,None,172.60898380000026,None,172.60898380000026,None,173.33103470000015,None,173.33103470000015,173.84621719999996,,,,,,,,,,,,,,,,231,2022-06-03_17h32.18.928,FishGame,2022.1.1,60.0110780449805,
,25,넌 시끄러워,4,Orange,A,2.833333333333333,3.033333333333333,ScrollDown,ScrollUp,Orange.png,1,Negative,Incongruent,0,0,0,0,,,,,,,,,,,,,0,24,24,24,,,,,,,,,,,,,,,,,,,,,,,,,,,,,,,,,,,,,,,,,,,,,,,,,,,,,,,,,,,,,,,,,,,,,,,,,,,,,,,,,,,,,1,1.2296290000003864,174.51332170000023,None,ScrollDown,정답입니다,174.51332170000023,None,174.51332170000023,None,174.51332170000023,None,174.51332170000023,None,175.59803460000012,None,175.59803460000012,176.11264200000005,,,,,,,,,,,,,,,,231,2022-06-03_17h32.18.928,FishGame,2022.1.1,60.0110780449805,
,26,넌 만사태평이야,3,Green,B,4,4.333333333333333,ScrollUp,ScrollDown,Green.png,1,Neutral,Neutral,0,0,0,0,,,,,,,,,,,,,0,25,25,25,,,,,,,,,,,,,,,,,,,,,,,,,,,,,,,,,,,,,,,,,,,,,,,,,,,,,,,,,,,,,,,,,,,,,,,,,,,,,,,,,,,,,2,0.9505324000001565,176.78317650000008,None,ScrollUp,정답입니다,176.78317650000008,None,176.78317650000008,None,176.78317650000008,None,176.78317650000008,None,177.5845918,None,177.5845918,178.09594199999992,,,,,,,,,,,,,,,,231,2022-06-03_17h32.18.928,FishGame,2022.1.1,60.0110780449805,
,27,넌 붙임성있어,1,Orange,A,5.708333333333333,5.633333333333334,ScrollDown,ScrollUp,Orange.png,1,Positive,Congruent,0,0,0,0,,,,,,,,,,,,,0,26,26,26,,,,,,,,,,,,,,,,,,,,,,,,,,,,,,,,,,,,,,,,,,,,,,,,,,,,,,,,,,,,,,,,,,,,,,,,,,,,,,,,,,,,,1,1.0509775999998965,178.75554109999985,None,ScrollDown,정답입니다,178.75554109999985,None,178.75554109999985,None,178.75554109999985,None,178.75554109999985,None,179.6680706000002,None,179.6680706000002,180.17880890000015,,,,,,,,,,,,,,,,231,2022-06-03_17h32.18.928,FishGame,2022.1.1,60.0110780449805,
,28,넌 영리해,2,Orange,A,6,4.033333333333333,ScrollDown,ScrollUp,Orange.png,1,Positive,Congruent,0,0,0,0,,,,,,,,,,,,,0,27,27,27,,,,,,,,,,,,,,,,,,,,,,,,,,,,,,,,,,,,,,,,,,,,,,,,,,,,,,,,,,,,,,,,,,,,,,,,,,,,,,,,,,,,,1,0.9514899999999216,180.8397777,None,ScrollDown,정답입니다,180.8397777,None,180.8397777,None,180.8397777,None,180.8397777,None,181.6514886,None,181.6514886,182.16192300000012,,,,,,,,,,,,,,,,231,2022-06-03_17h32.18.928,FishGame,2022.1.1,60.0110780449805,
,29,넌 열심이야,1,Green,B,6.041666666666667,5.833333333333333,ScrollUp,ScrollDown,Green.png,1,Positive,Incongruent,0,0,0,0,,,,,,,,,,,,,0,28,28,28,,,,,,,,,,,,,,,,,,,,,,,,,,,,,,,,,,,,,,,,,,,,,,,,,,,,,,,,,,,,,,,,,,,,,,,,,,,,,,,,,,,,,1.9012345770994823,0.8842291000000841,182.81755250000015,None,ScrollUp,정답입니다,182.81755250000015,None,182.81755250000015,None,182.81755250000015,None,182.81755250000015,None,183.56799739999997,None,183.56799739999997,184.07838219999985,,,,,,,,,,,,,,,,231,2022-06-03_17h32.18.928,FishGame,2022.1.1,60.0110780449805,
,30,넌 인기없어,4,Green,B,3,3.3,ScrollUp,ScrollDown,Green.png,1,Negative,Congruent,0,0,0,0,,,,,,,,,,,,,0,29,29,29,,,,,,,,,,,,,,,,,,,,,,,,,,,,,,,,,,,,,,,,,,,,,,,,,,,,,,,,,,,,,,,,,,,,,,,,,,,,,,,,,,,,,1.9861110945542653,0.9431104999998752,184.7267225999999,None,ScrollUp,정답입니다,184.7267225999999,None,184.7267225999999,None,184.7267225999999,None,184.7267225999999,None,185.54515600000013,None,185.54515600000013,186.04497560000027,,,,,,,,,,,,,,,,231,2022-06-03_17h32.18.928,FishGame,2022.1.1,60.0110780449805,
,31,넌 익살스러워,3,Orange,A,4.708333333333334,4.833333333333333,ScrollDown,ScrollUp,Orange.png,1,Neutral,Neutral,0,0,0,0,,,,,,,,,,,,,0,30,30,30,,,,,,,,,,,,,,,,,,,,,,,,,,,,,,,,,,,,,,,,,,,,,,,,,,,,,,,,,,,,,,,,,,,,,,,,,,,,,,,,,,,,,1,1.2235215000000608,186.71310790000007,None,ScrollDown,정답입니다,186.71310790000007,None,186.71310790000007,None,186.71310790000007,None,186.71310790000007,None,187.7944877,None,187.7944877,188.2944425999999,,,,,,,,,,,,,,,,231,2022-06-03_17h32.18.928,FishGame,2022.1.1,60.0110780449805,
,32,넌 이기적이야,5,Green,B,2.291666666666667,2.333333333333333,ScrollUp,ScrollDown,Green.png,1,Negative,Congruent,0,0,0,0,,,,,,,,,,,,,0,31,31,31,,,,,,,,,,,,,,,,,,,,,,,,,,,,,,,,,,,,,,,,,,,,,,,,,,,,,,,,,,,,,,,,,,,,,,,,,,,,,,,,,,,,,2,1.2702047000002494,188.94354999999996,None,ScrollUp,정답입니다,188.94354999999996,None,188.94354999999996,None,188.94354999999996,None,188.94354999999996,None,190.0867373000001,None,190.0867373000001,190.59412139999995,,,,,,,,,,,,,,,,231,2022-06-03_17h32.18.928,FishGame,2022.1.1,60.0110780449805,
,33,나를 데려가줘,6,Green,B,0,0,ScrollDown,ScrollUp,Green.png,1,NonTarget,NonTarget,0,0,0,0,,,,,,,,,,,,,0,32,32,32,,,,,,,,,,,,,,,,,,,,,,,,,,,,,,,,,,,,,,,,,,,,,,,,,,,,,,,,,,,,,,,,,,,,,,,,,,,,,,,,,,,,,1,1.3287401999996291,191.2455571999999,None,ScrollDown,정답입니다,191.2455571999999,None,191.2455571999999,None,191.2455571999999,None,191.2455571999999,None,192.44569550000006,None,192.44569550000006,192.96047399999998,,,,,,,,,,,,,,,,231,2022-06-03_17h32.18.928,FishGame,2022.1.1,60.0110780449805,
,34,넌 기회주의자야,5,Orange,A,2.875,2.133333333333333,ScrollDown,ScrollUp,Orange.png,1,Negative,Incongruent,0,0,0,0,,,,,,,,,,,,,0,33,33,33,,,,,,,,,,,,,,,,,,,,,,,,,,,,,,,,,,,,,,,,,,,,,,,,,,,,,,,,,,,,,,,,,,,,,,,,,,,,,,,,,,,,,1,1.4787486000000172,193.62585910000007,None,ScrollDown,정답입니다,193.62585910000007,None,193.62585910000007,None,193.62585910000007,None,193.62585910000007,None,194.9606122,None,194.9606122,195.46028909999995,,,,,,,,,,,,,,,,231,2022-06-03_17h32.18.928,FishGame,2022.1.1,60.0110780449805,
,1,넌 미성숙해,4,Orange,A,3,3.2,ScrollDown,ScrollUp,Orange.png,2,Negative,Incongruent,0,0,0,0,,,,,,,,,,,,,,,,,0,0,0,0,,,,,,,,,,,,,,,,,,,,,,,,,,,,,,,,,,,,,,,,228.75626809999994,230.25588300000027,230.28923329999998,231.23908389999997,231.2889763000003,232.23883320000004,232.23883320000004,None,,,,,,,,,,,,,,,,,,,,,,,,,,,,,,,,,,1,1.229459399999996,233.4238479999999,None,ScrollDown,정답입니다,233.4238479999999,None,233.4238479999999,None,233.4238479999999,None,233.4238479999999,None,234.47713180000028,None,234.47713180000028,234.98843970000007,195.96011230000022,None,195.96011230000022,None,0.25277779,-0.17777778,1,0,0,0.01608360999944125,None,225.97318829999995,None,,,231,2022-06-03_17h32.18.928,FishGame,2022.1.1,60.0110780449805,
,2,넌 반사회적이야,5,Green,B,2.416666666666667,2.033333333333333,ScrollUp,ScrollDown,Green.png,2,Negative,Congruent,0,0,0,0,,,,,,,,,,,,,,,,,0,1,1,1,,,,,,,,,,,,,,,,,,,,,,,,,,,,,,,,,,,,,,,,,,,,,,,,,,,,,,,,,,,,,,,,,,,,,,,,,,,,,,,,,1.9567901293436687,0.9289811999997255,235.64599750000025,None,ScrollUp,정답입니다,235.64599750000025,None,235.64599750000025,None,235.64599750000025,None,235.64599750000025,None,236.4384654999999,None,236.4384654999999,236.93833440000026,,,,,,,,,,,,,,,,231,2022-06-03_17h32.18.928,FishGame,2022.1.1,60.0110780449805,
,3,넌 유능해,2,Orange,A,6.208333333333333,4.433333333333334,ScrollDown,ScrollUp,Orange.png,2,Positive,Congruent,0,0,0,0,,,,,,,,,,,,,,,,,0,2,2,2,,,,,,,,,,,,,,,,,,,,,,,,,,,,,,,,,,,,,,,,,,,,,,,,,,,,,,,,,,,,,,,,,,,,,,,,,,,,,,,,,1,0.938299200000074,237.59792930000003,None,ScrollDown,정답입니다,237.59792930000003,None,237.59792930000003,None,237.59792930000003,None,237.59792930000003,None,238.39765799999986,None,238.39765799999986,238.90461099999993,,,,,,,,,,,,,,,,231,2022-06-03_17h32.18.928,FishGame,2022.1.1,60.0110780449805,
,4,넌 능숙해,2,Green,B,5.666666666666667,4.733333333333333,ScrollUp,ScrollDown,Green.png,2,Positive,Incongruent,0,0,0,0,,,,,,,,,,,,,,,,,0,3,3,3,,,,,,,,,,,,,,,,,,,,,,,,,,,,,,,,,,,,,,,,,,,,,,,,,,,,,,,,,,,,,,,,,,,,,,,,,,,,,,,,,2,1.1989040000003115,239.55657840000003,None,ScrollUp,정답입니다,239.55657840000003,None,239.55657840000003,None,239.55657840000003,None,239.55657840000003,None,240.62642719999985,None,240.62642719999985,241.13772599999993,,,,,,,,,,,,,,,,231,2022-06-03_17h32.18.928,FishGame,2022.1.1,60.0110780449805,
,5,넌 진부해,4,Green,B,2.458333333333333,3.166666666666667,ScrollUp,ScrollDown,Green.png,2,Negative,Congruent,0,0,0,0,,,,,,,,,,,,,,,,,0,4,4,4,,,,,,,,,,,,,,,,,,,,,,,,,,,,,,,,,,,,,,,,,,,,,,,,,,,,,,,,,,,,,,,,,,,,,,,,,,,,,,,,,2,0.933954999999969,241.79547290000028,None,ScrollUp,정답입니다,241.79547290000028,None,241.79547290000028,None,241.79547290000028,None,241.79547290000028,None,242.59280350000017,None,242.59280350000017,243.10402269999986,,,,,,,,,,,,,,,,231,2022-06-03_17h32.18.928,FishGame,2022.1.1,60.0110780449805,
,6,나를 보내줘,6,Orange,A,0,0,ScrollUp,ScrollDown,Orange.png,2,NonTarget,NonTarget,0,0,0,0,,,,,,,,,,,,,,,,,0,5,5,5,,,,,,,,,,,,,,,,,,,,,,,,,,,,,,,,,,,,,,,,,,,,,,,,,,,,,,,,,,,,,,,,,,,,,,,,,,,,,,,,,2,1.1199181000001772,243.75985320000018,None,ScrollUp,정답입니다,243.75985320000018,None,243.75985320000018,None,243.75985320000018,None,243.75985320000018,None,244.74512510000022,None,244.74512510000022,245.25382510000009,,,,,,,,,,,,,,,,231,2022-06-03_17h32.18.928,FishGame,2022.1.1,60.0110780449805,
,7,넌 엄격해,3,Orange,A,4.166666666666666,4.1,ScrollDown,ScrollUp,Orange.png,2,Neutral,Neutral,0,0,0,0,,,,,,,,,,,,,,,,,0,6,6,6,,,,,,,,,,,,,,,,,,,,,,,,,,,,,,,,,,,,,,,,,,,,,,,,,,,,,,,,,,,,,,,,,,,,,,,,,,,,,,,,,1,1.0151369999998678,245.91815440000028,None,ScrollDown,정답입니다,245.91815440000028,None,245.91815440000028,None,245.91815440000028,None,245.91815440000028,None,246.79188060000024,None,246.79188060000024,247.30356370000027,,,,,,,,,,,,,,,,231,2022-06-03_17h32.18.928,FishGame,2022.1.1,60.0110780449805,
,8,나를 보내줘,6,Orange,A,0,0,ScrollUp,ScrollDown,Orange.png,2,NonTarget,NonTarget,0,0,0,0,,,,,,,,,,,,,,,,,0,7,7,7,,,,,,,,,,,,,,,,,,,,,,,,,,,,,,,,,,,,,,,,,,,,,,,,,,,,,,,,,,,,,,,,,,,,,,,,,,,,,,,,,2,1.0449631999999838,247.95969790000026,None,ScrollUp,정답입니다,247.95969790000026,None,247.95969790000026,None,247.95969790000026,None,247.95969790000026,None,248.87096199999996,None,248.87096199999996,249.36982720000015,,,,,,,,,,,,,,,,231,2022-06-03_17h32.18.928,FishGame,2022.1.1,60.0110780449805,
,9,넌 대담해,3,Green,B,4.875,4.866666666666666,ScrollUp,ScrollDown,Green.png,2,Neutral,Neutral,0,0,0,0,,,,,,,,,,,,,,,,,0,8,8,8,,,,,,,,,,,,,,,,,,,,,,,,,,,,,,,,,,,,,,,,,,,,,,,,,,,,,,,,,,,,,,,,,,,,,,,,,,,,,,,,,2,1.055818199999976,250.0448879999999,None,ScrollUp,정답입니다,250.0448879999999,None,250.0448879999999,None,250.0448879999999,None,250.0448879999999,None,250.96999200000027,None,250.96999200000027,251.46974499999988,,,,,,,,,,,,,,,,231,2022-06-03_17h32.18.928,FishGame,2022.1.1,60.0110780449805,
,10,넌 꾸준해,1,Orange,A,5.916666666666668,5.8,ScrollDown,ScrollUp,Orange.png,2,Positive,Congruent,0,0,0,0,,,,,,,,,,,,,,,,,0,9,9,9,,,,,,,,,,,,,,,,,,,,,,,,,,,,,,,,,,,,,,,,,,,,,,,,,,,,,,,,,,,,,,,,,,,,,,,,,,,,,,,,,1,1.034842000000026,252.1334092000002,None,ScrollDown,정답입니다,252.1334092000002,None,252.1334092000002,None,252.1334092000002,None,252.1334092000002,None,253.02592649999997,None,253.02592649999997,253.5360512000002,,,,,,,,,,,,,,,,231,2022-06-03_17h32.18.928,FishGame,2022.1.1,60.0110780449805,
,11,나를 데려가줘,6,Green,B,0,0,ScrollDown,ScrollUp,Green.png,2,NonTarget,NonTarget,0,0,0,0,,,,,,,,,,,,,,,,,0,10,10,10,,,,,,,,,,,,,,,,,,,,,,,,,,,,,,,,,,,,,,,,,,,,,,,,,,,,,,,,,,,,,,,,,,,,,,,,,,,,,,,,,1,1.3459833000001709,254.1883702,None,ScrollDown,정답입니다,254.1883702,None,254.1883702,None,254.1883702,None,254.1883702,None,255.4026342000002,None,255.4026342000002,255.90238690000024,,,,,,,,,,,,,,,,231,2022-06-03_17h32.18.928,FishGame,2022.1.1,60.0110780449805,
,12,넌 독선적이야,5,Orange,A,2.458333333333333,1.933333333333333,ScrollDown,ScrollUp,Orange.png,2,Negative,Incongruent,0,0,0,0,,,,,,,,,,,,,,,,,0,11,11,11,,,,,,,,,,,,,,,,,,,,,,,,,,,,,,,,,,,,,,,,,,,,,,,,,,,,,,,,,,,,,,,,,,,,,,,,,,,,,,,,,1,1.127051400000255,256.5655010999999,None,ScrollDown,정답입니다,256.5655010999999,None,256.5655010999999,None,256.5655010999999,None,256.5655010999999,None,257.5523837999999,None,257.5523837999999,258.0521739999999,,,,,,,,,,,,,,,,231,2022-06-03_17h32.18.928,FishGame,2022.1.1,60.0110780449805,
,13,나를 보내줘,6,Orange,A,0,0,ScrollUp,ScrollDown,Orange.png,2,NonTarget,NonTarget,0,0,0,0,,,,,,,,,,,,,,,,,0,12,12,12,,,,,,,,,,,,,,,,,,,,,,,,,,,,,,,,,,,,,,,,,,,,,,,,,,,,,,,,,,,,,,,,,,,,,,,,,,,,,,,,,2,0.9484151999999995,258.7140623,None,ScrollUp,정답입니다,258.7140623,None,258.7140623,None,258.7140623,None,258.7140623,None,259.5240240000003,None,259.5240240000003,260.0353591000003,,,,,,,,,,,,,,,,231,2022-06-03_17h32.18.928,FishGame,2022.1.1,60.0110780449805,
,14,넌 책임감있어,1,Green,B,6.347826086956522,6,ScrollUp,ScrollDown,Green.png,2,Positive,Incongruent,0,0,0,0,,,,,,,,,,,,,,,,,0,13,13,13,,,,,,,,,,,,,,,,,,,,,,,,,,,,,,,,,,,,,,,,,,,,,,,,,,,,,,,,,,,,,,,,,,,,,,,,,,,,,,,,,1.8919753183921177,0.8641779999998107,260.69335090000004,None,ScrollUp,정답입니다,260.69335090000004,None,260.69335090000004,None,260.69335090000004,None,260.69335090000004,None,261.42153899999994,None,261.42153899999994,261.93510730000025,,,,,,,,,,,,,,,,231,2022-06-03_17h32.18.928,FishGame,2022.1.1,60.0110780449805,
,15,넌 문학적이야,3,Orange,A,4.708333333333334,4.333333333333333,ScrollDown,ScrollUp,Orange.png,2,Neutral,Neutral,0,0,0,0,,,,,,,,,,,,,,,,,0,14,14,14,,,,,,,,,,,,,,,,,,,,,,,,,,,,,,,,,,,,,,,,,,,,,,,,,,,,,,,,,,,,,,,,,,,,,,,,,,,,,,,,,1,0.8658585999996831,262.60000420000006,None,ScrollDown,정답입니다,262.60000420000006,None,262.60000420000006,None,262.60000420000006,None,262.60000420000006,None,263.32365119999986,None,263.32365119999986,263.83489740000005,,,,,,,,,,,,,,,,231,2022-06-03_17h32.18.928,FishGame,2022.1.1,60.0110780449805,
,16,넌 재미있어,1,Green,B,5.875,5.7,ScrollUp,ScrollDown,Green.png,2,Positive,Incongruent,0,0,0,0,,,,,,,,,,,,,,,,,0,15,15,15,,,,,,,,,,,,,,,,,,,,,,,,,,,,,,,,,,,,,,,,,,,,,,,,,,,,,,,,,,,,,,,,,,,,,,,,,,,,,,,,,2,1.1882543000001533,264.4877956,None,ScrollUp,정답입니다,264.4877956,None,264.4877956,None,264.4877956,None,264.4877956,None,265.5445472000001,None,265.5445472000001,266.0512438999999,,,,,,,,,,,,,,,,231,2022-06-03_17h32.18.928,FishGame,2022.1.1,60.0110780449805,
,17,나를 데려가줘,6,Green,B,0,0,ScrollDown,ScrollUp,Green.png,2,NonTarget,NonTarget,0,0,0,0,,,,,,,,,,,,,,,,,0,16,16,16,,,,,,,,,,,,,,,,,,,,,,,,,,,,,,,,,,,,,,,,,,,,,,,,,,,,,,,,,,,,,,,,,,,,,,,,,,,,,,,,,1,1.0822539999999208,266.7017850000002,None,ScrollDown,정답입니다,266.7017850000002,None,266.7017850000002,None,266.7017850000002,None,266.7017850000002,None,267.65558310000006,None,267.65558310000006,268.1675958999999,,,,,,,,,,,,,,,,231,2022-06-03_17h32.18.928,FishGame,2022.1.1,60.0110780449805,
,18,넌 협력적이야,1,Orange,A,5.625,5.633333333333334,ScrollDown,ScrollUp,Orange.png,2,Positive,Congruent,0,0,0,0,,,,,,,,,,,,,,,,,0,17,17,17,,,,,,,,,,,,,,,,,,,,,,,,,,,,,,,,,,,,,,,,,,,,,,,,,,,,,,,,,,,,,,,,,,,,,,,,,,,,,,,,,1.320987656712532,0.9464208999997936,268.83259420000013,None,ScrollDown,정답입니다,268.83259420000013,None,268.83259420000013,None,268.83259420000013,None,268.83259420000013,None,269.6383415999999,None,269.6383415999999,270.15063629999986,,,,,,,,,,,,,,,,231,2022-06-03_17h32.18.928,FishGame,2022.1.1,60.0110780449805,
,19,넌 평범해,3,Green,B,4.333333333333332,4.233333333333333,ScrollUp,ScrollDown,Green.png,2,Neutral,Neutral,0,0,0,0,,,,,,,,,,,,,,,,,0,18,18,18,,,,,,,,,,,,,,,,,,,,,,,,,,,,,,,,,,,,,,,,,,,,,,,,,,,,,,,,,,,,,,,,,,,,,,,,,,,,,,,,,1.9922839502493541,0.9847848000003978,270.81649700000025,None,ScrollUp,정답입니다,270.81649700000025,None,270.81649700000025,None,270.81649700000025,None,270.81649700000025,None,271.6555496000001,None,271.6555496000001,272.1670143000001,,,,,,,,,,,,,,,,231,2022-06-03_17h32.18.928,FishGame,2022.1.1,60.0110780449805,
,20,넌 오만해,5,Orange,A,2.333333333333333,2,ScrollDown,ScrollUp,Orange.png,2,Negative,Incongruent,0,0,0,0,,,,,,,,,,,,,,,,,0,19,19,19,,,,,,,,,,,,,,,,,,,,,,,,,,,,,,,,,,,,,,,,,,,,,,,,,,,,,,,,,,,,,,,,,,,,,,,,,,,,,,,,,1,1.03908040000033,272.8290615000001,None,ScrollDown,정답입니다,272.8290615000001,None,272.8290615000001,None,272.8290615000001,None,272.8290615000001,None,273.73379120000027,None,273.73379120000027,274.233479,,,,,,,,,,,,,,,,231,2022-06-03_17h32.18.928,FishGame,2022.1.1,60.0110780449805,
,21,넌 운이없어,4,Green,B,3,3.466666666666667,ScrollUp,ScrollDown,Green.png,2,Negative,Congruent,0,0,0,0,,,,,,,,,,,,,,,,,0,20,20,20,,,,,,,,,,,,,,,,,,,,,,,,,,,,,,,,,,,,,,,,,,,,,,,,,,,,,,,,,,,,,,,,,,,,,,,,,,,,,,,,,2,0.9558266000003641,274.8905748000002,None,ScrollUp,정답입니다,274.8905748000002,None,274.8905748000002,None,274.8905748000002,None,274.8905748000002,None,275.71646520000013,None,275.71646520000013,276.21649720000005,,,,,,,,,,,,,,,,231,2022-06-03_17h32.18.928,FishGame,2022.1.1,60.0110780449805,
,22,넌 창조적이야,2,Green,B,6.125,4.633333333333334,ScrollUp,ScrollDown,Green.png,2,Positive,Incongruent,0,0,0,0,,,,,,,,,,,,,,,,,0,21,21,21,,,,,,,,,,,,,,,,,,,,,,,,,,,,,,,,,,,,,,,,,,,,,,,,,,,,,,,,,,,,,,,,,,,,,,,,,,,,,,,,,2,0.9289502999999968,276.87696890000007,None,ScrollUp,정답입니다,276.87696890000007,None,276.87696890000007,None,276.87696890000007,None,276.87696890000007,None,277.66859620000014,None,277.66859620000014,278.1828797000003,,,,,,,,,,,,,,,,231,2022-06-03_17h32.18.928,FishGame,2022.1.1,60.0110780449805,
,23,나를 보내줘,6,Orange,A,0,0,ScrollUp,ScrollDown,Orange.png,2,NonTarget,NonTarget,0,0,0,0,,,,,,,,,,,,,,,,,0,22,22,22,,,,,,,,,,,,,,,,,,,,,,,,,,,,,,,,,,,,,,,,,,,,,,,,,,,,,,,,,,,,,,,,,,,,,,,,,,,,,,,,,2,1.2594242999998642,278.83987590000015,None,ScrollUp,정답입니다,278.83987590000015,None,278.83987590000015,None,278.83987590000015,None,278.83987590000015,None,279.9688521000003,None,279.9688521000003,280.482806,,,,,,,,,,,,,,,,231,2022-06-03_17h32.18.928,FishGame,2022.1.1,60.0110780449805,
,24,넌 통찰력있어,2,Orange,A,6.5,4.8,ScrollDown,ScrollUp,Orange.png,2,Positive,Congruent,0,0,0,0,,,,,,,,,,,,,,,,,0,23,23,23,,,,,,,,,,,,,,,,,,,,,,,,,,,,,,,,,,,,,,,,,,,,,,,,,,,,,,,,,,,,,,,,,,,,,,,,,,,,,,,,,1,1.0515872999999374,281.15023789999987,None,ScrollDown,정답입니다,281.15023789999987,None,281.15023789999987,None,281.15023789999987,None,281.15023789999987,None,282.0553272000002,None,282.0553272000002,282.56576870000026,,,,,,,,,,,,,,,,231,2022-06-03_17h32.18.928,FishGame,2022.1.1,60.0110780449805,
,25,넌 경솔해,5,Green,B,2.458333333333333,2.266666666666667,ScrollUp,ScrollDown,Green.png,2,Negative,Congruent,0,0,0,0,,,,,,,,,,,,,,,,,0,24,24,24,,,,,,,,,,,,,,,,,,,,,,,,,,,,,,,,,,,,,,,,,,,,,,,,,,,,,,,,,,,,,,,,,,,,,,,,,,,,,,,,,1.9537037014961243,0.9007303999997021,283.21619950000013,None,ScrollUp,정답입니다,283.21619950000013,None,283.21619950000013,None,283.21619950000013,None,283.21619950000013,None,283.98778089999996,None,283.98778089999996,284.4987986000001,,,,,,,,,,,,,,,,231,2022-06-03_17h32.18.928,FishGame,2022.1.1,60.0110780449805,
,26,넌 초조해,4,Orange,A,2.916666666666667,3.133333333333333,ScrollDown,ScrollUp,Orange.png,2,Negative,Incongruent,0,0,0,0,,,,,,,,,,,,,,,,,0,25,25,25,,,,,,,,,,,,,,,,,,,,,,,,,,,,,,,,,,,,,,,,,,,,,,,,,,,,,,,,,,,,,,,,,,,,,,,,,,,,,,,,,1,0.9323427000003903,285.1594632000001,None,ScrollDown,정답입니다,285.1594632000001,None,285.1594632000001,None,285.1594632000001,None,285.1594632000001,None,285.95365260000017,None,285.95365260000017,286.4653281000001,,,,,,,,,,,,,,,,231,2022-06-03_17h32.18.928,FishGame,2022.1.1,60.0110780449805,
,27,넌 무관심해,4,Green,B,2.833333333333333,2.9,ScrollUp,ScrollDown,Green.png,2,Negative,Congruent,0,0,0,0,,,,,,,,,,,,,,,,,0,26,26,26,,,,,,,,,,,,,,,,,,,,,,,,,,,,,,,,,,,,,,,,,,,,,,,,,,,,,,,,,,,,,,,,,,,,,,,,,,,,,,,,,2,1.3007274000001416,287.11567430000014,None,ScrollUp,정답입니다,287.11567430000014,None,287.11567430000014,None,287.11567430000014,None,287.11567430000014,None,288.2878055000001,None,288.2878055000001,288.7982611000002,,,,,,,,,,,,,,,,231,2022-06-03_17h32.18.928,FishGame,2022.1.1,60.0110780449805,
,28,넌 감성적이야,3,Green,B,4.125,4.166666666666667,ScrollUp,ScrollDown,Green.png,2,Neutral,Neutral,0,0,0,0,,,,,,,,,,,,,,,,,0,27,27,27,,,,,,,,,,,,,,,,,,,,,,,,,,,,,,,,,,,,,,,,,,,,,,,,,,,,,,,,,,,,,,,,,,,,,,,,,,,,,,,,,2,0.8122682999996869,289.44742540000016,None,ScrollUp,정답입니다,289.44742540000016,None,289.44742540000016,None,289.44742540000016,None,289.44742540000016,None,290.13127010000017,None,290.13127010000017,290.6313335,,,,,,,,,,,,,,,,231,2022-06-03_17h32.18.928,FishGame,2022.1.1,60.0110780449805,
,29,넌 배려심있어,1,Orange,A,6.083333333333333,5.5,ScrollDown,ScrollUp,Orange.png,2,Positive,Congruent,0,0,0,0,,,,,,,,,,,,,,,,,0,28,28,28,,,,,,,,,,,,,,,,,,,,,,,,,,,,,,,,,,,,,,,,,,,,,,,,,,,,,,,,,,,,,,,,,,,,,,,,,,,,,,,,,1,0.9681104999999661,291.29890520000026,None,ScrollDown,정답입니다,291.29890520000026,None,291.29890520000026,None,291.29890520000026,None,291.29890520000026,None,292.12048000000004,None,292.12048000000004,292.6310767,,,,,,,,,,,,,,,,231,2022-06-03_17h32.18.928,FishGame,2022.1.1,60.0110780449805,
,30,넌 숨김없어,3,Orange,A,4.5,4.933333333333334,ScrollDown,ScrollUp,Orange.png,2,Neutral,Neutral,0,0,0,0,,,,,,,,,,,,,,,,,0,29,29,29,,,,,,,,,,,,,,,,,,,,,,,,,,,,,,,,,,,,,,,,,,,,,,,,,,,,,,,,,,,,,,,,,,,,,,,,,,,,,,,,,1,0.8551072000000204,293.2921325000002,None,ScrollDown,정답입니다,293.2921325000002,None,293.2921325000002,None,293.2921325000002,None,293.2921325000002,None,294.00740159999987,None,294.00740159999987,294.51420099999996,,,,,,,,,,,,,,,,231,2022-06-03_17h32.18.928,FishGame,2022.1.1,60.0110780449805,
,31,넌 훌륭해,2,Green,B,5.916666666666667,4.033333333333333,ScrollUp,ScrollDown,Green.png,2,Positive,Incongruent,0,0,0,0,,,,,,,,,,,,,,,,,0,30,30,30,,,,,,,,,,,,,,,,,,,,,,,,,,,,,,,,,,,,,,,,,,,,,,,,,,,,,,,,,,,,,,,,,,,,,,,,,,,,,,,,,2,0.9672175999999126,295.16980109999986,None,ScrollUp,정답입니다,295.16980109999986,None,295.16980109999986,None,295.16980109999986,None,295.16980109999986,None,296.0036817,None,296.0036817,296.51392209999995,,,,,,,,,,,,,,,,231,2022-06-03_17h32.18.928,FishGame,2022.1.1,60.0110780449805,
,32,넌 슬기로워,2,Orange,A,6.166666666666667,4.1,ScrollDown,ScrollUp,Orange.png,2,Positive,Congruent,0,0,0,0,,,,,,,,,,,,,,,,,0,31,31,31,,,,,,,,,,,,,,,,,,,,,,,,,,,,,,,,,,,,,,,,,,,,,,,,,,,,,,,,,,,,,,,,,,,,,,,,,,,,,,,,,1,0.880815900000016,297.1770606,None,ScrollDown,정답입니다,297.1770606,None,297.1770606,None,297.1770606,None,297.1770606,None,297.91651950000005,None,297.91651950000005,298.4303549000001,,,,,,,,,,,,,,,,231,2022-06-03_17h32.18.928,FishGame,2022.1.1,60.0110780449805,
,33,넌 냉혹해,5,Orange,A,2.583333333333333,2.1,ScrollDown,ScrollUp,Orange.png,2,Negative,Incongruent,0,0,0,0,,,,,,,,,,,,,,,,,0,32,32,32,,,,,,,,,,,,,,,,,,,,,,,,,,,,,,,,,,,,,,,,,,,,,,,,,,,,,,,,,,,,,,,,,,,,,,,,,,,,,,,,,1,0.9815737999997509,299.08560239999997,None,ScrollDown,정답입니다,299.08560239999997,None,299.08560239999997,None,299.08560239999997,None,299.08560239999997,None,299.9354509,None,299.9354509,300.44676830000026,,,,,,,,,,,,,,,,231,2022-06-03_17h32.18.928,FishGame,2022.1.1,60.0110780449805,
,34,나를 데려가줘,6,Green,B,0,0,ScrollDown,ScrollUp,Green.png,2,NonTarget,NonTarget,0,0,0,0,,,,,,,,,,,,,,,,,0,33,33,33,,,,,,,,,,,,,,,,,,,,,,,,,,,,,,,,,,,,,,,,,,,,,,,,,,,,,,,,,,,,,,,,,,,,,,,,,,,,,,,,,1.0925925920406978,1.3892720999997437,301.0979502,None,ScrollDown,정답입니다,301.0979502,None,301.0979502,None,301.0979502,None,301.0979502,None,302.3631141000001,None,302.3631141000001,302.86302650000016,,,,,,,,,,,,,,,,231,2022-06-03_17h32.18.928,FishGame,2022.1.1,60.0110780449805,
,35,넌 편파적이야,5,Green,B,2.125,2,ScrollUp,ScrollDown,Green.png,2,Negative,Congruent,0,0,0,0,,,,,,,,,,,,,,,,,0,34,34,34,,,,,,,,,,,,,,,,,,,,,,,,,,,,,,,,,,,,,,,,,,,,,,,,,,,,,,,,,,,,,,,,,,,,,,,,,,,,,,,,,2,1.1833293999998205,303.5162921000001,None,ScrollUp,정답입니다,303.5162921000001,None,303.5162921000001,None,303.5162921000001,None,303.5162921000001,None,304.56841840000016,None,304.56841840000016,305.07948680000027,,,,,,,,,,,,,,,,231,2022-06-03_17h32.18.928,FishGame,2022.1.1,60.0110780449805,
,36,넌 슬퍼,4,Orange,A,2.583333333333333,3.066666666666667,ScrollDown,ScrollUp,Orange.png,2,Negative,Incongruent,0,0,0,0,,,,,,,,,,,,,,,,,0,35,35,35,,,,,,,,,,,,,,,,,,,,,,,,,,,,,,,,,,,,,,,,,,,,,,,,,,,,,,,,,,,,,,,,,,,,,,,,,,,,,,,,,1.296296296020349,0.7984285000002274,305.7314744999999,None,ScrollDown,정답입니다,305.7314744999999,None,305.7314744999999,None,305.7314744999999,None,305.7314744999999,None,306.4013310999999,None,306.4013310999999,306.9125512999999,,,,,,,,,,,,,,,,231,2022-06-03_17h32.18.928,FishGame,2022.1.1,60.0110780449805,
,37,나를 데려가줘,6,Green,B,0,0,ScrollDown,ScrollUp,Green.png,2,NonTarget,NonTarget,0,0,0,0,,,,,,,,,,,,,,,,,0,36,36,36,,,,,,,,,,,,,,,,,,,,,,,,,,,,,,,,,,,,,,,,,,,,,,,,,,,,,,,,,,,,,,,,,,,,,,,,,,,,,,,,,1,1.0647343999999066,307.5628165000003,None,ScrollDown,정답입니다,307.5628165000003,None,307.5628165000003,None,307.5628165000003,None,307.5628165000003,None,308.5002205999999,None,308.5002205999999,309.0122176,,,,,,,,,,,,,,,,231,2022-06-03_17h32.18.928,FishGame,2022.1.1,60.0110780449805,
,38,넌 친절해,1,Green,B,6.041666666666667,5.533333333333333,ScrollUp,ScrollDown,Green.png,2,Positive,Incongruent,0,0,0,0,,,,,,,,,,,,,,,,,0,37,37,37,,,,,,,,,,,,,,,,,,,,,,,,,,,,,,,,,,,,,,,,,,,,,,,,,,,,,,,,,,,,,,,,,,,,,,,,,,,,,,,,,1.8425925970077515,0.9092100000002574,309.6660651000002,None,ScrollUp,정답입니다,309.6660651000002,None,309.6660651000002,None,309.6660651000002,None,309.6660651000002,None,310.44532590000017,None,310.44532590000017,310.9454988000002,,,,,,,,,,,,,,,,231,2022-06-03_17h32.18.928,FishGame,2022.1.1,60.0110780449805,
,1,넌 엉성해,4,Orange,A,3,3.3,ScrollDown,ScrollUp,Orange.png,3,Negative,Incongruent,0,0,0,0,,,,,,,,,,,,,,,,,,,,,0,0,0,0,,,,,,,,,,,,,,,,,,,,,,,,,,,,,,,,,,,,342.72488090000024,344.22470079999994,344.2579248000002,345.2078190000002,345.25781430000006,346.2075755000001,346.2075755000001,None,,,,,,,,,,,,,,,,,,,,,,,,,,,,,,,,,,1.120370368162791,1.02732960000003,347.4038390999999,None,ScrollDown,정답입니다,347.4038390999999,None,347.4038390999999,None,347.4038390999999,None,347.4038390999999,None,348.24780599999985,None,348.24780599999985,348.7572261,311.4453830000002,None,311.4453830000002,None,0.2638889,-0.12592593,1,0,0,0.016223209999679966,None,341.4581796000002,None,,,231,2022-06-03_17h32.18.928,FishGame,2022.1.1,60.0110780449805,
,2,나를 보내줘,6,Orange,A,0,0,ScrollUp,ScrollDown,Orange.png,3,NonTarget,NonTarget,0,0,0,0,,,,,,,,,,,,,,,,,,,,,0,1,1,1,,,,,,,,,,,,,,,,,,,,,,,,,,,,,,,,,,,,,,,,,,,,,,,,,,,,,,,,,,,,,,,,,,,,,,,,,,,,,1.7268518507480621,0.9840458000003309,349.41373999999996,None,ScrollUp,정답입니다,349.41373999999996,None,349.41373999999996,None,349.41373999999996,None,349.41373999999996,None,350.2636415000002,None,350.2636415000002,350.7737010000001,,,,,,,,,,,,,,,,231,2022-06-03_17h32.18.928,FishGame,2022.1.1,60.0110780449805,
,3,넌 활발해,1,Green,B,5.666666666666667,5.6,ScrollUp,ScrollDown,Green.png,3,Positive,Incongruent,0,0,0,0,,,,,,,,,,,,,,,,,,,,,0,2,2,2,,,,,,,,,,,,,,,,,,,,,,,,,,,,,,,,,,,,,,,,,,,,,,,,,,,,,,,,,,,,,,,,,,,,,,,,,,,,,1.8888888905445735,1.026303999999982,351.4257289000002,None,ScrollUp,정답입니다,351.4257289000002,None,351.4257289000002,None,351.4257289000002,None,351.4257289000002,None,352.323453,None,352.323453,352.82334579999997,,,,,,,,,,,,,,,,231,2022-06-03_17h32.18.928,FishGame,2022.1.1,60.0110780449805,
,4,넌 논리적이야,2,Orange,A,5.666666666666666,4.633333333333334,ScrollDown,ScrollUp,Orange.png,3,Positive,Congruent,0,0,0,0,,,,,,,,,,,,,,,,,,,,,0,3,3,3,,,,,,,,,,,,,,,,,,,,,,,,,,,,,,,,,,,,,,,,,,,,,,,,,,,,,,,,,,,,,,,,,,,,,,,,,,,,,1.276234577099482,0.9279740000001766,353.4822355000001,None,ScrollDown,정답입니다,353.4822355000001,None,353.4822355000001,None,353.4822355000001,None,353.4822355000001,None,354.2759793,None,354.2759793,354.7897597000001,,,,,,,,,,,,,,,,231,2022-06-03_17h32.18.928,FishGame,2022.1.1,60.0110780449805,
,5,넌 과묵해,3,Orange,A,3.875,4.4,ScrollDown,ScrollUp,Orange.png,3,Neutral,Neutral,0,0,0,0,,,,,,,,,,,,,,,,,,,,,0,4,4,4,,,,,,,,,,,,,,,,,,,,,,,,,,,,,,,,,,,,,,,,,,,,,,,,,,,,,,,,,,,,,,,,,,,,,,,,,,,,,1,0.9788792999997895,355.45314940000026,None,ScrollDown,정답입니다,355.45314940000026,None,355.45314940000026,None,355.45314940000026,None,355.45314940000026,None,356.2916857,None,356.2916857,356.8061409000002,,,,,,,,,,,,,,,,231,2022-06-03_17h32.18.928,FishGame,2022.1.1,60.0110780449805,
,6,나를 데려가줘,6,Green,B,0,0,ScrollDown,ScrollUp,Green.png,3,NonTarget,NonTarget,0,0,0,0,,,,,,,,,,,,,,,,,,,,,0,5,5,5,,,,,,,,,,,,,,,,,,,,,,,,,,,,,,,,,,,,,,,,,,,,,,,,,,,,,,,,,,,,,,,,,,,,,,,,,,,,,1.0725308855374653,1.1289870999999039,357.45395199999984,None,ScrollDown,정답입니다,357.45395199999984,None,357.45395199999984,None,357.45395199999984,None,357.45395199999984,None,358.4584724000001,None,358.4584724000001,358.97255459999997,,,,,,,,,,,,,,,,231,2022-06-03_17h32.18.928,FishGame,2022.1.1,60.0110780449805,
,7,넌 미숙해,4,Green,B,3,3,ScrollUp,ScrollDown,Green.png,3,Negative,Congruent,0,0,0,0,,,,,,,,,,,,,,,,,,,,,0,6,6,6,,,,,,,,,,,,,,,,,,,,,,,,,,,,,,,,,,,,,,,,,,,,,,,,,,,,,,,,,,,,,,,,,,,,,,,,,,,,,2,0.9448082999997496,359.6223123,None,ScrollUp,정답입니다,359.6223123,None,359.6223123,None,359.6223123,None,359.6223123,None,360.4388750000003,None,360.4388750000003,360.93917820000024,,,,,,,,,,,,,,,,231,2022-06-03_17h32.18.928,FishGame,2022.1.1,60.0110780449805,
,8,나를 보내줘,6,Orange,A,0,0,ScrollUp,ScrollDown,Orange.png,3,NonTarget,NonTarget,0,0,0,0,,,,,,,,,,,,,,,,,,,,,0,7,7,7,,,,,,,,,,,,,,,,,,,,,,,,,,,,,,,,,,,,,,,,,,,,,,,,,,,,,,,,,,,,,,,,,,,,,,,,,,,,,2,1.1562166999997316,361.5856394000002,None,ScrollUp,정답입니다,361.5856394000002,None,361.5856394000002,None,361.5856394000002,None,361.5856394000002,None,362.6155484000001,None,362.6155484000001,363.1221805,,,,,,,,,,,,,,,,231,2022-06-03_17h32.18.928,FishGame,2022.1.1,60.0110780449805,
,9,넌 자신만만해,3,Green,B,4.833333333333334,4.333333333333333,ScrollUp,ScrollDown,Green.png,3,Neutral,Neutral,0,0,0,0,,,,,,,,,,,,,,,,,,,,,0,8,8,8,,,,,,,,,,,,,,,,,,,,,,,,,,,,,,,,,,,,,,,,,,,,,,,,,,,,,,,,,,,,,,,,,,,,,,,,,,,,,1.9243827362855275,0.9018725000000813,363.7687627,None,ScrollUp,정답입니다,363.7687627,None,363.7687627,None,363.7687627,None,363.7687627,None,364.54528089999985,None,364.54528089999985,365.05509770000026,,,,,,,,,,,,,,,,231,2022-06-03_17h32.18.928,FishGame,2022.1.1,60.0110780449805,
,10,넌 탐욕스러워,5,Orange,A,2.25,2.1,ScrollDown,ScrollUp,Orange.png,3,Negative,Incongruent,0,0,0,0,,,,,,,,,,,,,,,,,,,,,0,9,9,9,,,,,,,,,,,,,,,,,,,,,,,,,,,,,,,,,,,,,,,,,,,,,,,,,,,,,,,,,,,,,,,,,,,,,,,,,,,,,1.080246905485789,0.8665753999998742,365.7200564,None,ScrollDown,정답입니다,365.7200564,None,365.7200564,None,365.7200564,None,365.7200564,None,366.44354509999994,None,366.44354509999994,366.955027,,,,,,,,,,,,,,,,231,2022-06-03_17h32.18.928,FishGame,2022.1.1,60.0110780449805,
,11,넌 인기있어,2,Orange,A,5.458333333333333,4.5,ScrollDown,ScrollUp,Orange.png,3,Positive,Congruent,0,0,0,0,,,,,,,,,,,,,,,,,,,,,0,10,10,10,,,,,,,,,,,,,,,,,,,,,,,,,,,,,,,,,,,,,,,,,,,,,,,,,,,,,,,,,,,,,,,,,,,,,,,,,,,,,1,0.9473370999999133,367.60439099999985,None,ScrollDown,정답입니다,367.60439099999985,None,367.60439099999985,None,367.60439099999985,None,367.60439099999985,None,368.4258447000002,None,368.4258447000002,368.9380827,,,,,,,,,,,,,,,,231,2022-06-03_17h32.18.928,FishGame,2022.1.1,60.0110780449805,
,12,나를 데려가줘,6,Green,B,0,0,ScrollDown,ScrollUp,Green.png,3,NonTarget,NonTarget,0,0,0,0,,,,,,,,,,,,,,,,,,,,,0,11,11,11,,,,,,,,,,,,,,,,,,,,,,,,,,,,,,,,,,,,,,,,,,,,,,,,,,,,,,,,,,,,,,,,,,,,,,,,,,,,,1.1466049303611119,1.262381699999878,369.58400230000007,None,ScrollDown,정답입니다,369.58400230000007,None,369.58400230000007,None,369.58400230000007,None,369.58400230000007,None,370.7228702000002,None,370.7228702000002,371.2376124000002,,,,,,,,,,,,,,,,231,2022-06-03_17h32.18.928,FishGame,2022.1.1,60.0110780449805,
,13,넌 뛰어나,2,Green,B,6.166666666666667,4,ScrollUp,ScrollDown,Green.png,3,Positive,Incongruent,0,0,0,0,,,,,,,,,,,,,,,,,,,,,0,12,12,12,,,,,,,,,,,,,,,,,,,,,,,,,,,,,,,,,,,,,,,,,,,,,,,,,,,,,,,,,,,,,,,,,,,,,,,,,,,,,1.746913582086563,1.0218022000003657,371.89379469999994,None,ScrollUp,정답입니다,371.89379469999994,None,371.89379469999994,None,371.89379469999994,None,371.89379469999994,None,372.78792250000015,None,372.78792250000015,373.28734780000013,,,,,,,,,,,,,,,,231,2022-06-03_17h32.18.928,FishGame,2022.1.1,60.0110780449805,
,14,넌 낙관적이야,1,Orange,A,5.75,5.8,ScrollDown,ScrollUp,Orange.png,3,Positive,Congruent,0,0,0,0,,,,,,,,,,,,,,,,,,,,,0,13,13,13,,,,,,,,,,,,,,,,,,,,,,,,,,,,,,,,,,,,,,,,,,,,,,,,,,,,,,,,,,,,,,,,,,,,,,,,,,,,,1.0617283880710602,0.8778884000003018,373.94486830000005,None,ScrollDown,정답입니다,373.94486830000005,None,373.94486830000005,None,373.94486830000005,None,373.94486830000005,None,374.6876123000002,None,374.6876123000002,375.1871820000001,,,,,,,,,,,,,,,,231,2022-06-03_17h32.18.928,FishGame,2022.1.1,60.0110780449805,
,15,넌 산만해,4,Green,B,2.695652173913043,3.033333333333333,ScrollUp,ScrollDown,Green.png,3,Negative,Congruent,0,0,0,0,,,,,,,,,,,,,,,,,,,,,0,14,14,14,,,,,,,,,,,,,,,,,,,,,,,,,,,,,,,,,,,,,,,,,,,,,,,,,,,,,,,,,,,,,,,,,,,,,,,,,,,,,1.6234567910432816,1.2018933999997898,375.8409422,None,ScrollUp,정답입니다,375.8409422,None,375.8409422,None,375.8409422,None,375.8409422,None,376.9129860000003,None,376.9129860000003,377.4202642,,,,,,,,,,,,,,,,231,2022-06-03_17h32.18.928,FishGame,2022.1.1,60.0110780449805,
,16,나를 보내줘,6,Orange,A,0,0,ScrollUp,ScrollDown,Orange.png,3,NonTarget,NonTarget,0,0,0,0,,,,,,,,,,,,,,,,,,,,,0,15,15,15,,,,,,,,,,,,,,,,,,,,,,,,,,,,,,,,,,,,,,,,,,,,,,,,,,,,,,,,,,,,,,,,,,,,,,,,,,,,,1.8657407313585281,1.0465739000001122,378.07197010000027,None,ScrollUp,정답입니다,378.07197010000027,None,378.07197010000027,None,378.07197010000027,None,378.07197010000027,None,378.98910810000007,None,378.98910810000007,379.50331319999987,,,,,,,,,,,,,,,,231,2022-06-03_17h32.18.928,FishGame,2022.1.1,60.0110780449805,
,17,넌 교활해,5,Green,B,2.333333333333333,2.133333333333333,ScrollUp,ScrollDown,Green.png,3,Negative,Congruent,0,0,0,0,,,,,,,,,,,,,,,,,,,,,0,16,16,16,,,,,,,,,,,,,,,,,,,,,,,,,,,,,,,,,,,,,,,,,,,,,,,,,,,,,,,,,,,,,,,,,,,,,,,,,,,,,2,1.1116209000001618,380.15579720000005,None,ScrollUp,정답입니다,380.15579720000005,None,380.15579720000005,None,380.15579720000005,None,380.15579720000005,None,381.1363346000003,None,381.1363346000003,381.6363346000003,,,,,,,,,,,,,,,,231,2022-06-03_17h32.18.928,FishGame,2022.1.1,60.0110780449805,
,18,나를 보내줘,6,Orange,A,0,0,ScrollUp,ScrollDown,Orange.png,3,NonTarget,NonTarget,0,0,0,0,,,,,,,,,,,,,,,,,,,,,0,17,17,17,,,,,,,,,,,,,,,,,,,,,,,,,,,,,,,,,,,,,,,,,,,,,,,,,,,,,,,,,,,,,,,,,,,,,,,,,,,,,1.9876543084780376,1.1471883999997772,382.2942137,None,ScrollUp,정답입니다,382.2942137,None,382.2942137,None,382.2942137,None,382.2942137,None,383.30594759999985,None,383.30594759999985,383.8194093000002,,,,,,,,,,,,,,,,231,2022-06-03_17h32.18.928,FishGame,2022.1.1,60.0110780449805,
,19,넌 불친절해,5,Green,B,2.208333333333333,2.033333333333333,ScrollUp,ScrollDown,Green.png,3,Negative,Congruent,0,0,0,0,,,,,,,,,,,,,,,,,,,,,0,18,18,18,,,,,,,,,,,,,,,,,,,,,,,,,,,,,,,,,,,,,,,,,,,,,,,,,,,,,,,,,,,,,,,,,,,,,,,,,,,,,2,0.9118293000001358,384.4705176000002,None,ScrollUp,정답입니다,384.4705176000002,None,384.4705176000002,None,384.4705176000002,None,384.4705176000002,None,385.2539004,None,385.2539004,385.76909890000024,,,,,,,,,,,,,,,,231,2022-06-03_17h32.18.928,FishGame,2022.1.1,60.0110780449805,
,20,넌 지적이야,2,Green,B,5.75,4.366666666666666,ScrollUp,ScrollDown,Green.png,3,Positive,Incongruent,0,0,0,0,,,,,,,,,,,,,,,,,,,,,0,19,19,19,,,,,,,,,,,,,,,,,,,,,,,,,,,,,,,,,,,,,,,,,,,,,,,,,,,,,,,,,,,,,,,,,,,,,,,,,,,,,2,0.9230857000002288,386.4192637000001,None,ScrollUp,정답입니다,386.4192637000001,None,386.4192637000001,None,386.4192637000001,None,386.4192637000001,None,387.2130237000001,None,387.2130237000001,387.71885569999995,,,,,,,,,,,,,,,,231,2022-06-03_17h32.18.928,FishGame,2022.1.1,60.0110780449805,
,21,넌 우유부단해,4,Orange,A,2.666666666666667,3.166666666666667,ScrollDown,ScrollUp,Orange.png,3,Negative,Incongruent,0,0,0,0,,,,,,,,,,,,,,,,,,,,,0,20,20,20,,,,,,,,,,,,,,,,,,,,,,,,,,,,,,,,,,,,,,,,,,,,,,,,,,,,,,,,,,,,,,,,,,,,,,,,,,,,,1,1.1333211000001029,388.3854498999999,None,ScrollDown,정답입니다,388.3854498999999,None,388.3854498999999,None,388.3854498999999,None,388.3854498999999,None,389.3747320000002,None,389.3747320000002,389.8853208999999,,,,,,,,,,,,,,,,231,2022-06-03_17h32.18.928,FishGame,2022.1.1,60.0110780449805,
,22,나를 데려가줘,6,Green,B,0,0,ScrollDown,ScrollUp,Green.png,3,NonTarget,NonTarget,0,0,0,0,,,,,,,,,,,,,,,,,,,,,0,21,21,21,,,,,,,,,,,,,,,,,,,,,,,,,,,,,,,,,,,,,,,,,,,,,,,,,,,,,,,,,,,,,,,,,,,,,,,,,,,,,1,1.0329071999999542,390.5418218,None,ScrollDown,정답입니다,390.5418218,None,390.5418218,None,390.5418218,None,390.5418218,None,391.4411086,None,391.4411086,391.95170670000016,,,,,,,,,,,,,,,,231,2022-06-03_17h32.18.928,FishGame,2022.1.1,60.0110780449805,
,23,넌 성실해,1,Green,B,6.041666666666666,5.7,ScrollUp,ScrollDown,Green.png,3,Positive,Incongruent,0,0,0,0,,,,,,,,,,,,,,,,,,,,,0,22,22,22,,,,,,,,,,,,,,,,,,,,,,,,,,,,,,,,,,,,,,,,,,,,,,,,,,,,,,,,,,,,,,,,,,,,,,,,,,,,,1.9891975224018097,1.1293280999998387,392.60003370000004,None,ScrollUp,정답입니다,392.60003370000004,None,392.60003370000004,None,392.60003370000004,None,392.60003370000004,None,393.6017519000002,None,393.6017519000002,394.1014396999999,,,,,,,,,,,,,,,,231,2022-06-03_17h32.18.928,FishGame,2022.1.1,60.0110780449805,
,24,넌 현실주의적이야,3,Orange,A,4.625,4.4,ScrollDown,ScrollUp,Orange.png,3,Neutral,Neutral,0,0,0,0,,,,,,,,,,,,,,,,,,,,,0,23,23,23,,,,,,,,,,,,,,,,,,,,,,,,,,,,,,,,,,,,,,,,,,,,,,,,,,,,,,,,,,,,,,,,,,,,,,,,,,,,,1.0879629751046498,1.002611700000216,394.7533910000002,None,ScrollDown,정답입니다,394.7533910000002,None,394.7533910000002,None,394.7533910000002,None,394.7533910000002,None,395.62649880000026,None,395.62649880000026,396.1345689,,,,,,,,,,,,,,,,231,2022-06-03_17h32.18.928,FishGame,2022.1.1,60.0110780449805,
,25,넌 진실돼,1,Orange,A,6.625,5.566666666666666,ScrollDown,ScrollUp,Orange.png,3,Positive,Congruent,0,0,0,0,,,,,,,,,,,,,,,,,,,,,0,24,24,24,,,,,,,,,,,,,,,,,,,,,,,,,,,,,,,,,,,,,,,,,,,,,,,,,,,,,,,,,,,,,,,,,,,,,,,,,,,,,1,0.9896223999999165,396.79522050000014,None,ScrollDown,정답입니다,396.79522050000014,None,396.79522050000014,None,396.79522050000014,None,396.79522050000014,None,397.65089260000013,None,397.65089260000013,398.15093720000004,,,,,,,,,,,,,,,,231,2022-06-03_17h32.18.928,FishGame,2022.1.1,60.0110780449805,
,26,넌 천진난만해,3,Green,B,4.958333333333334,4.833333333333333,ScrollUp,ScrollDown,Green.png,3,Neutral,Neutral,0,0,0,0,,,,,,,,,,,,,,,,,,,,,0,25,25,25,,,,,,,,,,,,,,,,,,,,,,,,,,,,,,,,,,,,,,,,,,,,,,,,,,,,,,,,,,,,,,,,,,,,,,,,,,,,,2,1.0173123999998097,398.8101818,None,ScrollUp,정답입니다,398.8101818,None,398.8101818,None,398.8101818,None,398.8101818,None,399.689206,None,399.689206,400.20070410000017,,,,,,,,,,,,,,,,231,2022-06-03_17h32.18.928,FishGame,2022.1.1,60.0110780449805,
,27,넌 교양없어,5,Orange,A,2.416666666666667,2.2,ScrollDown,ScrollUp,Orange.png,3,Negative,Incongruent,0,0,0,0,,,,,,,,,,,,,,,,,,,,,0,26,26,26,,,,,,,,,,,,,,,,,,,,,,,,,,,,,,,,,,,,,,,,,,,,,,,,,,,,,,,,,,,,,,,,,,,,,,,,,,,,,1.1712963034709294,0.9060671000002003,400.8586983,None,ScrollDown,정답입니다,400.8586983,None,400.8586983,None,400.8586983,None,400.8586983,None,401.6339776,None,401.6339776,402.1337432,,,,,,,,,,,,,,,,231,2022-06-03_17h32.18.928,FishGame,2022.1.1,60.0110780449805,
,28,나를 보내줘,6,Orange,A,0,0,ScrollUp,ScrollDown,Orange.png,3,NonTarget,NonTarget,0,0,0,0,,,,,,,,,,,,,,,,,,,,,0,27,27,27,,,,,,,,,,,,,,,,,,,,,,,,,,,,,,,,,,,,,,,,,,,,,,,,,,,,,,,,,,,,,,,,,,,,,,,,,,,,,2,1.265751999999793,402.7866320000003,None,ScrollUp,정답입니다,402.7866320000003,None,402.7866320000003,None,402.7866320000003,None,402.7866320000003,None,403.92171540000027,None,403.92171540000027,404.43342440000015,,,,,,,,,,,,,,,,231,2022-06-03_17h32.18.928,FishGame,2022.1.1,60.0110780449805,
,29,넌 엉뚱스러워,3,Orange,A,4.166666666666667,4.133333333333334,ScrollDown,ScrollUp,Orange.png,3,Neutral,Neutral,0,0,0,0,,,,,,,,,,,,,,,,,,,,,0,28,28,28,,,,,,,,,,,,,,,,,,,,,,,,,,,,,,,,,,,,,,,,,,,,,,,,,,,,,,,,,,,,,,,,,,,,,,,,,,,,,1,0.9088785999997526,405.0999603,None,ScrollDown,정답입니다,405.0999603,None,405.0999603,None,405.0999603,None,405.0999603,None,405.8669490000002,None,405.8669490000002,406.3665215000001,,,,,,,,,,,,,,,,231,2022-06-03_17h32.18.928,FishGame,2022.1.1,60.0110780449805,
,30,넌 무지해,4,Green,B,2.541666666666667,3.066666666666667,ScrollUp,ScrollDown,Green.png,3,Negative,Congruent,0,0,0,0,,,,,,,,,,,,,,,,,,,,,0,29,29,29,,,,,,,,,,,,,,,,,,,,,,,,,,,,,,,,,,,,,,,,,,,,,,,,,,,,,,,,,,,,,,,,,,,,,,,,,,,,,2,0.8778929999998581,407.0072504,None,ScrollUp,정답입니다,407.0072504,None,407.0072504,None,407.0072504,None,407.0072504,None,407.76629120000007,None,407.76629120000007,408.2662046999999,,,,,,,,,,,,,,,,231,2022-06-03_17h32.18.928,FishGame,2022.1.1,60.0110780449805,
,31,넌 음울해,5,Green,B,2.25,2.233333333333333,ScrollUp,ScrollDown,Green.png,3,Negative,Congruent,0,0,0,0,,,,,,,,,,,,,,,,,,,,,0,30,30,30,,,,,,,,,,,,,,,,,,,,,,,,,,,,,,,,,,,,,,,,,,,,,,,,,,,,,,,,,,,,,,,,,,,,,,,,,,,,,1.9552469154198964,0.8447390999999698,408.92370040000014,None,ScrollUp,정답입니다,408.92370040000014,None,408.92370040000014,None,408.92370040000014,None,408.92370040000014,None,409.6333933000001,None,409.6333933000001,410.1327977000001,,,,,,,,,,,,,,,,231,2022-06-03_17h32.18.928,FishGame,2022.1.1,60.0110780449805,
,32,넌 냉소적이야,5,Orange,A,2.916666666666667,2.4,ScrollDown,ScrollUp,Orange.png,3,Negative,Incongruent,0,0,0,0,,,,,,,,,,,,,,,,,,,,,0,31,31,31,,,,,,,,,,,,,,,,,,,,,,,,,,,,,,,,,,,,,,,,,,,,,,,,,,,,,,,,,,,,,,,,,,,,,,,,,,,,,1.2407407313585281,0.8013482999999724,410.7789179000001,None,ScrollDown,정답입니다,410.7789179000001,None,410.7789179000001,None,410.7789179000001,None,410.7789179000001,None,411.4569912000002,None,411.4569912000002,411.9658955,,,,,,,,,,,,,,,,231,2022-06-03_17h32.18.928,FishGame,2022.1.1,60.0110780449805,
,33,나를 데려가줘,6,Green,B,0,0,ScrollDown,ScrollUp,Green.png,3,NonTarget,NonTarget,0,0,0,0,,,,,,,,,,,,,,,,,,,,,0,32,32,32,,,,,,,,,,,,,,,,,,,,,,,,,,,,,,,,,,,,,,,,,,,,,,,,,,,,,,,,,,,,,,,,,,,,,,,,,,,,,1,1.0441021999999975,412.6130069000001,None,ScrollDown,정답입니다,412.6130069000001,None,412.6130069000001,None,412.6130069000001,None,412.6130069000001,None,413.53243169999996,None,413.53243169999996,414.0321742000001,,,,,,,,,,,,,,,,231,2022-06-03_17h32.18.928,FishGame,2022.1.1,60.0110780449805,
,34,넌 쾌활해,1,Orange,A,5.541666666666666,5.733333333333333,ScrollDown,ScrollUp,Orange.png,3,Positive,Congruent,0,0,0,0,,,,,,,,,,,,,,,,,,,,,0,33,33,33,,,,,,,,,,,,,,,,,,,,,,,,,,,,,,,,,,,,,,,,,,,,,,,,,,,,,,,,,,,,,,,,,,,,,,,,,,,,,1,0.9269973000000391,414.69328829999995,None,ScrollDown,정답입니다,414.69328829999995,None,414.69328829999995,None,414.69328829999995,None,414.69328829999995,None,415.4821396000002,None,415.4821396000002,415.9821734000002,,,,,,,,,,,,,,,,231,2022-06-03_17h32.18.928,FishGame,2022.1.1,60.0110780449805,
,35,나를 보내줘,6,Orange,A,0,0,ScrollUp,ScrollDown,Orange.png,3,NonTarget,NonTarget,0,0,0,0,,,,,,,,,,,,,,,,,,,,,0,34,34,34,,,,,,,,,,,,,,,,,,,,,,,,,,,,,,,,,,,,,,,,,,,,,,,,,,,,,,,,,,,,,,,,,,,,,,,,,,,,,1.878086417913437,1.1052629000000707,416.63056080000024,None,ScrollUp,정답입니다,416.63056080000024,None,416.63056080000024,None,416.63056080000024,None,416.63056080000024,None,417.6155490000001,None,417.6155490000001,418.11534410000013,,,,,,,,,,,,,,,,231,2022-06-03_17h32.18.928,FishGame,2022.1.1,60.0110780449805,
,36,넌 명랑해,1,Green,B,5.739130434782609,5.666666666666667,ScrollUp,ScrollDown,Green.png,3,Positive,Incongruent,0,0,0,0,,,,,,,,,,,,,,,,,,,,,0,35,35,35,,,,,,,,,,,,,,,,,,,,,,,,,,,,,,,,,,,,,,,,,,,,,,,,,,,,,,,,,,,,,,,,,,,,,,,,,,,,,2,0.9986761999998635,418.7673175,None,ScrollUp,정답입니다,418.7673175,None,418.7673175,None,418.7673175,None,418.7673175,None,419.6355063000001,None,419.6355063000001,420.14856929999996,,,,,,,,,,,,,,,,231,2022-06-03_17h32.18.928,FishGame,2022.1.1,60.0110780449805,
,37,넌 멍해,4,Orange,A,2.833333333333333,3.4,ScrollDown,ScrollUp,Orange.png,3,Negative,Incongruent,0,0,0,0,,,,,,,,,,,,,,,,,,,,,0,36,36,36,,,,,,,,,,,,,,,,,,,,,,,,,,,,,,,,,,,,,,,,,,,,,,,,,,,,,,,,,,,,,,,,,,,,,,,,,,,,,1.1959876517454784,1.1531598000001395,420.80670020000025,None,ScrollDown,정답입니다,420.80670020000025,None,420.80670020000025,None,420.80670020000025,None,420.80670020000025,None,421.82323429999997,None,421.82323429999997,422.33128620000025,,,,,,,,,,,,,,,,231,2022-06-03_17h32.18.928,FishGame,2022.1.1,60.0110780449805,
,38,나를 데려가줘,6,Green,B,0,0,ScrollDown,ScrollUp,Green.png,3,NonTarget,NonTarget,0,0,0,0,,,,,,,,,,,,,,,,,,,,,0,37,37,37,,,,,,,,,,,,,,,,,,,,,,,,,,,,,,,,,,,,,,,,,,,,,,,,,,,,,,,,,,,,,,,,,,,,,,,,,,,,,1.1095678955316544,0.9576285999996799,422.9795081000002,None,ScrollDown,정답입니다,422.9795081000002,None,422.9795081000002,None,422.9795081000002,None,422.9795081000002,None,423.8144467000002,None,423.8144467000002,424.3141705000003,,,,,,,,,,,,,,,,231,2022-06-03_17h32.18.928,FishGame,2022.1.1,60.0110780449805,
,39,넌 현명해,2,Orange,A,6.541666666666666,4.533333333333333,ScrollDown,ScrollUp,Orange.png,3,Positive,Congruent,0,0,0,0,,,,,,,,,,,,,,,,,,,,,0,38,38,38,,,,,,,,,,,,,,,,,,,,,,,,,,,,,,,,,,,,,,,,,,,,,,,,,,,,,,,,,,,,,,,,,,,,,,,,,,,,,1,1.0394473000001199,424.9706212000001,None,ScrollDown,정답입니다,424.9706212000001,None,424.9706212000001,None,424.9706212000001,None,424.9706212000001,None,425.8807102999999,None,425.8807102999999,426.3806184,,,,,,,,,,,,,,,,231,2022-06-03_17h32.18.928,FishGame,2022.1.1,60.0110780449805,
,40,넌 수줍어,3,Green,B,3.541666666666666,4.366666666666666,ScrollUp,ScrollDown,Green.png,3,Neutral,Neutral,0,0,0,0,,,,,,,,,,,,,,,,,,,,,0,39,39,39,,,,,,,,,,,,,,,,,,,,,,,,,,,,,,,,,,,,,,,,,,,,,,,,,,,,,,,,,,,,,,,,,,,,,,,,,,,,,2,1.0973369000003004,427.03018580000025,None,ScrollUp,정답입니다,427.03018580000025,None,427.03018580000025,None,427.03018580000025,None,427.03018580000025,None,428.00079129999995,None,428.00079129999995,428.5137156999999,,,,,,,,,,,,,,,,231,2022-06-03_17h32.18.928,FishGame,2022.1.1,60.0110780449805,
,41,나를 데려가줘,6,Green,B,0,0,ScrollDown,ScrollUp,Green.png,3,NonTarget,NonTarget,0,0,0,0,,,,,,,,,,,,,,,,,,,,,0,40,40,40,,,,,,,,,,,,,,,,,,,,,,,,,,,,,,,,,,,,,,,,,,,,,,,,,,,,,,,,,,,,,,,,,,,,,,,,,,,,,1,1.2396820999997544,429.1613305000001,None,ScrollDown,정답입니다,429.1613305000001,None,429.1613305000001,None,429.1613305000001,None,429.1613305000001,None,430.28056370000013,None,430.28056370000013,430.78003420000005,,,,,,,,,,,,,,,,231,2022-06-03_17h32.18.928,FishGame,2022.1.1,60.0110780449805,
,42,넌 성숙해,2,Green,B,5.833333333333333,4.533333333333333,ScrollUp,ScrollDown,Green.png,3,Positive,Incongruent,0,0,0,0,,,,,,,,,,,,,,,,,,,,,0,41,41,41,,,,,,,,,,,,,,,,,,,,,,,,,,,,,,,,,,,,,,,,,,,,,,,,,,,,,,,,,,,,,,,,,,,,,,,,,,,,,1.9876543084780376,1.0789663000000473,431.4256002000002,None,ScrollUp,정답입니다,431.4256002000002,None,431.4256002000002,None,431.4256002000002,None,431.4256002000002,None,432.3812797999999,None,432.3812797999999,432.8964992000001,,,,,,,,,,,,,,,,231,2022-06-03_17h32.18.928,FishGame,2022.1.1,60.0110780449805,
,1,넌 매력적이야,2,Green,B,6.125,4.666666666666667,ScrollUp,ScrollDown,Green.png,4,Positive,Incongruent,0,0,0,0,,,,,,,,,,,,,,,,,,,,,,,,,0,0,0,0,,,,,,,,,,,,,,,,,,,,,,,,,,,,,,,,464.17661850000013,465.67574909999985,465.70904370000017,466.65900390000024,466.70910300000014,467.65882809999994,467.65882809999994,None,,,,,,,,,,,,,,,,,,,,,,,,,,,,,,,,,,2,1.149120700000367,468.8340072000001,None,ScrollUp,정답입니다,468.8340072000001,None,468.8340072000001,None,468.8340072000001,None,468.8340072000001,None,469.8166107000002,None,469.8166107000002,470.32503080000015,433.39641470000015,None,433.39641470000015,None,-0.25,-0.08888889,1,0,0,0.016169510000054288,None,463.3926225,None,,,231,2022-06-03_17h32.18.928,FishGame,2022.1.1,60.0110780449805,
,2,나를 보내줘,6,Orange,A,0,0,ScrollUp,ScrollDown,Orange.png,4,NonTarget,NonTarget,0,0,0,0,,,,,,,,,,,,,,,,,,,,,,,,,0,1,1,1,,,,,,,,,,,,,,,,,,,,,,,,,,,,,,,,,,,,,,,,,,,,,,,,,,,,,,,,,,,,,,,,,,,,,,,,,1.9290123283863068,0.94151439999996,470.9787096,None,ScrollUp,정답입니다,470.9787096,None,470.9787096,None,470.9787096,None,470.9787096,None,471.79145629999994,None,471.79145629999994,472.29143209999984,,,,,,,,,,,,,,,,231,2022-06-03_17h32.18.928,FishGame,2022.1.1,60.0110780449805,
,3,넌 조심스러워,3,Orange,A,4.791666666666666,4.666666666666667,ScrollDown,ScrollUp,Orange.png,4,Neutral,Neutral,0,0,0,0,,,,,,,,,,,,,,,,,,,,,,,,,0,2,2,2,,,,,,,,,,,,,,,,,,,,,,,,,,,,,,,,,,,,,,,,,,,,,,,,,,,,,,,,,,,,,,,,,,,,,,,,,1,0.8847803999997268,472.97349299999996,None,ScrollDown,정답입니다,472.97349299999996,None,472.97349299999996,None,472.97349299999996,None,472.97349299999996,None,473.69707849999986,None,473.69707849999986,474.20783280000023,,,,,,,,,,,,,,,,231,2022-06-03_17h32.18.928,FishGame,2022.1.1,60.0110780449805,
,4,넌 철학적이야,3,Green,B,4.5,4.266666666666667,ScrollUp,ScrollDown,Green.png,4,Neutral,Neutral,0,0,0,0,,,,,,,,,,,,,,,,,,,,,,,,,0,3,3,3,,,,,,,,,,,,,,,,,,,,,,,,,,,,,,,,,,,,,,,,,,,,,,,,,,,,,,,,,,,,,,,,,,,,,,,,,1.9768518606821697,0.7533637000001363,474.85906810000006,None,ScrollUp,정답입니다,474.85906810000006,None,474.85906810000006,None,474.85906810000006,None,474.85906810000006,None,475.48190520000026,None,475.48190520000026,475.9911952000002,,,,,,,,,,,,,,,,231,2022-06-03_17h32.18.928,FishGame,2022.1.1,60.0110780449805,
,5,넌 쩨쩨해,5,Orange,A,2.375,2.133333333333333,ScrollDown,ScrollUp,Orange.png,4,Negative,Incongruent,0,0,0,0,,,,,,,,,,,,,,,,,,,,,,,,,0,4,4,4,,,,,,,,,,,,,,,,,,,,,,,,,,,,,,,,,,,,,,,,,,,,,,,,,,,,,,,,,,,,,,,,,,,,,,,,,1.09413580596447,0.989495799999986,476.64076320000004,None,ScrollDown,정답입니다,476.64076320000004,None,476.64076320000004,None,476.64076320000004,None,476.64076320000004,None,477.5076497,None,477.5076497,478.0073388999999,,,,,,,,,,,,,,,,231,2022-06-03_17h32.18.928,FishGame,2022.1.1,60.0110780449805,
,6,나를 데려가줘,6,Green,B,0,0,ScrollDown,ScrollUp,Green.png,4,NonTarget,NonTarget,0,0,0,0,,,,,,,,,,,,,,,,,,,,,,,,,0,5,5,5,,,,,,,,,,,,,,,,,,,,,,,,,,,,,,,,,,,,,,,,,,,,,,,,,,,,,,,,,,,,,,,,,,,,,,,,,1,1.014076799999657,478.6505906000002,None,ScrollDown,정답입니다,478.6505906000002,None,478.6505906000002,None,478.6505906000002,None,478.6505906000002,None,479.54402900000014,None,479.54402900000014,480.05723050000006,,,,,,,,,,,,,,,,231,2022-06-03_17h32.18.928,FishGame,2022.1.1,60.0110780449805,
,7,넌 고집불통이야,5,Green,B,2.875,2,ScrollUp,ScrollDown,Green.png,4,Negative,Congruent,0,0,0,0,,,,,,,,,,,,,,,,,,,,,,,,,0,6,6,6,,,,,,,,,,,,,,,,,,,,,,,,,,,,,,,,,,,,,,,,,,,,,,,,,,,,,,,,,,,,,,,,,,,,,,,,,2,0.7350685000001249,480.7022457000003,None,ScrollUp,정답입니다,480.7022457000003,None,480.7022457000003,None,480.7022457000003,None,480.7022457000003,None,481.3120509999999,None,481.3120509999999,481.82353439999997,,,,,,,,,,,,,,,,231,2022-06-03_17h32.18.928,FishGame,2022.1.1,60.0110780449805,
,8,넌 무심해,4,Orange,A,2.875,3.2,ScrollDown,ScrollUp,Orange.png,4,Negative,Incongruent,0,0,0,0,,,,,,,,,,,,,,,,,,,,,,,,,0,7,7,7,,,,,,,,,,,,,,,,,,,,,,,,,,,,,,,,,,,,,,,,,,,,,,,,,,,,,,,,,,,,,,,,,,,,,,,,,1.1172839403152466,0.9178686999998718,482.47758269999986,None,ScrollDown,정답입니다,482.47758269999986,None,482.47758269999986,None,482.47758269999986,None,482.47758269999986,None,483.2627215000002,None,483.2627215000002,483.7732516000001,,,,,,,,,,,,,,,,231,2022-06-03_17h32.18.928,FishGame,2022.1.1,60.0110780449805,
,9,넌 정겨워,1,Orange,A,5.791666666666667,5.666666666666667,ScrollDown,ScrollUp,Orange.png,4,Positive,Congruent,0,0,0,0,,,,,,,,,,,,,,,,,,,,,,,,,0,8,8,8,,,,,,,,,,,,,,,,,,,,,,,,,,,,,,,,,,,,,,,,,,,,,,,,,,,,,,,,,,,,,,,,,,,,,,,,,1,0.9791604000001826,484.42850899999985,None,ScrollDown,정답입니다,484.42850899999985,None,484.42850899999985,None,484.42850899999985,None,484.42850899999985,None,485.27566179999985,None,485.27566179999985,485.78973499999984,,,,,,,,,,,,,,,,231,2022-06-03_17h32.18.928,FishGame,2022.1.1,60.0110780449805,
,10,나를 데려가줘,6,Green,B,0,0,ScrollDown,ScrollUp,Green.png,4,NonTarget,NonTarget,0,0,0,0,,,,,,,,,,,,,,,,,,,,,,,,,0,9,9,9,,,,,,,,,,,,,,,,,,,,,,,,,,,,,,,,,,,,,,,,,,,,,,,,,,,,,,,,,,,,,,,,,,,,,,,,,1,0.973762699999952,486.43265699999984,None,ScrollDown,정답입니다,486.43265699999984,None,486.43265699999984,None,486.43265699999984,None,486.43265699999984,None,487.2894707999999,None,487.2894707999999,487.78941729999997,,,,,,,,,,,,,,,,231,2022-06-03_17h32.18.928,FishGame,2022.1.1,60.0110780449805,
,11,넌 체제순응적이야,4,Green,B,3,3.6,ScrollUp,ScrollDown,Green.png,4,Negative,Congruent,0,0,0,0,,,,,,,,,,,,,,,,,,,,,,,,,0,10,10,10,,,,,,,,,,,,,,,,,,,,,,,,,,,,,,,,,,,,,,,,,,,,,,,,,,,,,,,,,,,,,,,,,,,,,,,,,1.879629631837209,0.8045408999996653,488.45240520000016,None,ScrollUp,정답입니다,488.45240520000016,None,488.45240520000016,None,488.45240520000016,None,488.45240520000016,None,489.11509049999995,None,489.11509049999995,489.62265130000014,,,,,,,,,,,,,,,,231,2022-06-03_17h32.18.928,FishGame,2022.1.1,60.0110780449805,
,12,나를 보내줘,6,Orange,A,0,0,ScrollUp,ScrollDown,Orange.png,4,NonTarget,NonTarget,0,0,0,0,,,,,,,,,,,,,,,,,,,,,,,,,0,11,11,11,,,,,,,,,,,,,,,,,,,,,,,,,,,,,,,,,,,,,,,,,,,,,,,,,,,,,,,,,,,,,,,,,,,,,,,,,2,1.0560734000000593,490.26569169999993,None,ScrollUp,정답입니다,490.26569169999993,None,490.26569169999993,None,490.26569169999993,None,490.26569169999993,None,491.20619020000004,None,491.20619020000004,491.7058271000001,,,,,,,,,,,,,,,,231,2022-06-03_17h32.18.928,FishGame,2022.1.1,60.0110780449805,
,13,넌 박식해,2,Orange,A,5.625,3.933333333333333,ScrollDown,ScrollUp,Orange.png,4,Positive,Congruent,0,0,0,0,,,,,,,,,,,,,,,,,,,,,,,,,0,12,12,12,,,,,,,,,,,,,,,,,,,,,,,,,,,,,,,,,,,,,,,,,,,,,,,,,,,,,,,,,,,,,,,,,,,,,,,,,1.0108024775981903,0.7399517999997443,492.3590429000001,None,ScrollDown,정답입니다,492.3590429000001,None,492.3590429000001,None,492.3590429000001,None,492.3590429000001,None,492.9722993999999,None,492.9722993999999,493.47201619999987,,,,,,,,,,,,,,,,231,2022-06-03_17h32.18.928,FishGame,2022.1.1,60.0110780449805,
,14,나를 보내줘,6,Orange,A,0,0,ScrollUp,ScrollDown,Orange.png,4,NonTarget,NonTarget,0,0,0,0,,,,,,,,,,,,,,,,,,,,,,,,,0,13,13,13,,,,,,,,,,,,,,,,,,,,,,,,,,,,,,,,,,,,,,,,,,,,,,,,,,,,,,,,,,,,,,,,,,,,,,,,,1.9907407363255818,0.9980528000000959,494.1190832000002,None,ScrollUp,정답입니다,494.1190832000002,None,494.1190832000002,None,494.1190832000002,None,494.1190832000002,None,494.9951655,None,494.9951655,495.5052076000002,,,,,,,,,,,,,,,,231,2022-06-03_17h32.18.928,FishGame,2022.1.1,60.0110780449805,
,15,넌 침착해,1,Green,B,5.458333333333333,5.566666666666666,ScrollUp,ScrollDown,Green.png,4,Positive,Incongruent,0,0,0,0,,,,,,,,,,,,,,,,,,,,,,,,,0,14,14,14,,,,,,,,,,,,,,,,,,,,,,,,,,,,,,,,,,,,,,,,,,,,,,,,,,,,,,,,,,,,,,,,,,,,,,,,,2,1.182831399999941,496.15945610000017,None,ScrollUp,정답입니다,496.15945610000017,None,496.15945610000017,None,496.15945610000017,None,496.15945610000017,None,497.2099983000003,None,497.2099983000003,497.72149089999994,,,,,,,,,,,,,,,,231,2022-06-03_17h32.18.928,FishGame,2022.1.1,60.0110780449805,
,16,나를 데려가줘,6,Green,B,0,0,ScrollDown,ScrollUp,Green.png,4,NonTarget,NonTarget,0,0,0,0,,,,,,,,,,,,,,,,,,,,,,,,,0,15,15,15,,,,,,,,,,,,,,,,,,,,,,,,,,,,,,,,,,,,,,,,,,,,,,,,,,,,,,,,,,,,,,,,,,,,,,,,,1,1.0654546999999184,498.3711042,None,ScrollDown,정답입니다,498.3711042,None,498.3711042,None,498.3711042,None,498.3711042,None,499.3086960999999,None,499.3086960999999,499.8211999,,,,,,,,,,,,,,,,231,2022-06-03_17h32.18.928,FishGame,2022.1.1,60.0110780449805,
,17,넌 행복해,1,Orange,A,6.416666666666666,6.166666666666667,ScrollDown,ScrollUp,Orange.png,4,Positive,Congruent,0,0,0,0,,,,,,,,,,,,,,,,,,,,,,,,,0,16,16,16,,,,,,,,,,,,,,,,,,,,,,,,,,,,,,,,,,,,,,,,,,,,,,,,,,,,,,,,,,,,,,,,,,,,,,,,,1.2731481492519379,0.9852175000000898,500.47693930000014,None,ScrollDown,정답입니다,500.47693930000014,None,500.47693930000014,None,500.47693930000014,None,500.47693930000014,None,501.32779759999994,None,501.32779759999994,501.8376066999999,,,,,,,,,,,,,,,,231,2022-06-03_17h32.18.928,FishGame,2022.1.1,60.0110780449805,
,18,넌 겸손해,2,Green,B,5.791666666666667,4.766666666666667,ScrollUp,ScrollDown,Green.png,4,Positive,Incongruent,0,0,0,0,,,,,,,,,,,,,,,,,,,,,,,,,0,17,17,17,,,,,,,,,,,,,,,,,,,,,,,,,,,,,,,,,,,,,,,,,,,,,,,,,,,,,,,,,,,,,,,,,,,,,,,,,2,1.0079840999997032,502.48932939999986,None,ScrollUp,정답입니다,502.48932939999986,None,502.48932939999986,None,502.48932939999986,None,502.48932939999986,None,503.37092600000005,None,503.37092600000005,503.8706772999999,,,,,,,,,,,,,,,,231,2022-06-03_17h32.18.928,FishGame,2022.1.1,60.0110780449805,
,19,나를 보내줘,6,Orange,A,0,0,ScrollUp,ScrollDown,Orange.png,4,NonTarget,NonTarget,0,0,0,0,,,,,,,,,,,,,,,,,,,,,,,,,0,18,18,18,,,,,,,,,,,,,,,,,,,,,,,,,,,,,,,,,,,,,,,,,,,,,,,,,,,,,,,,,,,,,,,,,,,,,,,,,2,2.161096400000133,504.5234000999999,None,ScrollUp,정답입니다,504.5234000999999,None,504.5234000999999,None,504.5234000999999,None,504.5234000999999,None,506.5537297000001,None,506.5537297000001,507.0536886,,,,,,,,,,,,,,,,231,2022-06-03_17h32.18.928,FishGame,2022.1.1,60.0110780449805,
,20,넌 의심없어,3,Orange,A,4.166666666666667,4.6,ScrollDown,ScrollUp,Orange.png,4,Neutral,Neutral,0,0,0,0,,,,,,,,,,,,,,,,,,,,,,,,,0,19,19,19,,,,,,,,,,,,,,,,,,,,,,,,,,,,,,,,,,,,,,,,,,,,,,,,,,,,,,,,,,,,,,,,,,,,,,,,,1.0277777810891469,0.8918551000001571,507.7104825000001,None,ScrollDown,정답입니다,507.7104825000001,None,507.7104825000001,None,507.7104825000001,None,507.7104825000001,None,508.47020550000025,None,508.47020550000025,508.9700951,,,,,,,,,,,,,,,,231,2022-06-03_17h32.18.928,FishGame,2022.1.1,60.0110780449805,
,21,넌 시시해,4,Orange,A,2.666666666666667,2.966666666666667,ScrollDown,ScrollUp,Orange.png,4,Negative,Incongruent,0,0,0,0,,,,,,,,,,,,,,,,,,,,,,,,,0,20,20,20,,,,,,,,,,,,,,,,,,,,,,,,,,,,,,,,,,,,,,,,,,,,,,,,,,,,,,,,,,,,,,,,,,,,,,,,,1.0154321193695068,0.8529743999997663,509.62254600000006,None,ScrollDown,정답입니다,509.62254600000006,None,509.62254600000006,None,509.62254600000006,None,509.62254600000006,None,510.3444417999999,None,510.3444417999999,510.85310260000006,,,,,,,,,,,,,,,,231,2022-06-03_17h32.18.928,FishGame,2022.1.1,60.0110780449805,
,22,나를 데려가줘,6,Green,B,0,0,ScrollDown,ScrollUp,Green.png,4,NonTarget,NonTarget,0,0,0,0,,,,,,,,,,,,,,,,,,,,,,,,,0,21,21,21,,,,,,,,,,,,,,,,,,,,,,,,,,,,,,,,,,,,,,,,,,,,,,,,,,,,,,,,,,,,,,,,,,,,,,,,,1,1.359998700000233,511.49676180000006,None,ScrollDown,정답입니다,511.49676180000006,None,511.49676180000006,None,511.49676180000006,None,511.49676180000006,None,512.7360558999999,None,512.7360558999999,513.2362379000001,,,,,,,,,,,,,,,,231,2022-06-03_17h32.18.928,FishGame,2022.1.1,60.0110780449805,
,23,넌 무정해,5,Orange,A,2.5,2.2,ScrollDown,ScrollUp,Orange.png,4,Negative,Incongruent,0,0,0,0,,,,,,,,,,,,,,,,,,,,,,,,,0,22,22,22,,,,,,,,,,,,,,,,,,,,,,,,,,,,,,,,,,,,,,,,,,,,,,,,,,,,,,,,,,,,,,,,,,,,,,,,,1,0.862579299999652,513.8884877,None,ScrollDown,정답입니다,513.8884877,None,513.8884877,None,513.8884877,None,513.8884877,None,514.6242802000002,None,514.6242802000002,515.1360199999999,,,,,,,,,,,,,,,,231,2022-06-03_17h32.18.928,FishGame,2022.1.1,60.0110780449805,
,24,넌 긍정적이야,1,Green,B,6.041666666666667,6.066666666666666,ScrollUp,ScrollDown,Green.png,4,Positive,Incongruent,0,0,0,0,,,,,,,,,,,,,,,,,,,,,,,,,0,23,23,23,,,,,,,,,,,,,,,,,,,,,,,,,,,,,,,,,,,,,,,,,,,,,,,,,,,,,,,,,,,,,,,,,,,,,,,,,2,1.1233070999996926,515.793091,None,ScrollUp,정답입니다,515.793091,None,515.793091,None,515.793091,None,515.793091,None,516.7860209,None,516.7860209,517.2856709000002,,,,,,,,,,,,,,,,231,2022-06-03_17h32.18.928,FishGame,2022.1.1,60.0110780449805,
,25,나를 보내줘,6,Orange,A,0,0,ScrollUp,ScrollDown,Orange.png,4,NonTarget,NonTarget,0,0,0,0,,,,,,,,,,,,,,,,,,,,,,,,,0,24,24,24,,,,,,,,,,,,,,,,,,,,,,,,,,,,,,,,,,,,,,,,,,,,,,,,,,,,,,,,,,,,,,,,,,,,,,,,,1,0.9305610999999772,517.9331831,None,ScrollDown,오답입니다,517.9331831,None,517.9331831,None,517.9331831,None,517.9331831,None,518.7418634,None,518.7418634,519.2520890000001,,,,,,,,,,,,,,,,231,2022-06-03_17h32.18.928,FishGame,2022.1.1,60.0110780449805,
,26,넌 시기심이 많아,5,Green,B,2.458333333333333,2.233333333333333,ScrollUp,ScrollDown,Green.png,4,Negative,Congruent,0,0,0,0,,,,,,,,,,,,,,,,,,,,,,,,,0,25,25,25,,,,,,,,,,,,,,,,,,,,,,,,,,,,,,,,,,,,,,,,,,,,,,,,,,,,,,,,,,,,,,,,,,,,,,,,,1.9212963084379833,0.9736109000000397,519.9063080999999,None,ScrollUp,정답입니다,519.9063080999999,None,519.9063080999999,None,519.9063080999999,None,519.9063080999999,None,520.7475775000003,None,520.7475775000003,521.2517785999999,,,,,,,,,,,,,,,,231,2022-06-03_17h32.18.928,FishGame,2022.1.1,60.0110780449805,
,27,넌 탁월해,2,Orange,A,5.708333333333334,4.5,ScrollDown,ScrollUp,Orange.png,4,Positive,Congruent,0,0,0,0,,,,,,,,,,,,,,,,,,,,,,,,,0,26,26,26,,,,,,,,,,,,,,,,,,,,,,,,,,,,,,,,,,,,,,,,,,,,,,,,,,,,,,,,,,,,,,,,,,,,,,,,,1,0.9310571000000891,521.9135838000002,None,ScrollDown,정답입니다,521.9135838000002,None,521.9135838000002,None,521.9135838000002,None,521.9135838000002,None,522.7052250000002,None,522.7052250000002,523.2181350999999,,,,,,,,,,,,,,,,231,2022-06-03_17h32.18.928,FishGame,2022.1.1,60.0110780449805,
,28,나를 데려가줘,6,Green,B,0,0,ScrollDown,ScrollUp,Green.png,4,NonTarget,NonTarget,0,0,0,0,,,,,,,,,,,,,,,,,,,,,,,,,0,27,27,27,,,,,,,,,,,,,,,,,,,,,,,,,,,,,,,,,,,,,,,,,,,,,,,,,,,,,,,,,,,,,,,,,,,,,,,,,1,1.0898992000002181,523.8610398999999,None,ScrollDown,정답입니다,523.8610398999999,None,523.8610398999999,None,523.8610398999999,None,523.8610398999999,None,524.8351624000002,None,524.8351624000002,525.3348289,,,,,,,,,,,,,,,,231,2022-06-03_17h32.18.928,FishGame,2022.1.1,60.0110780449805,
,29,넌 조용해,3,Green,B,4.333333333333333,4.166666666666667,ScrollUp,ScrollDown,Green.png,4,Neutral,Neutral,0,0,0,0,,,,,,,,,,,,,,,,,,,,,,,,,0,28,28,28,,,,,,,,,,,,,,,,,,,,,,,,,,,,,,,,,,,,,,,,,,,,,,,,,,,,,,,,,,,,,,,,,,,,,,,,,1.9228395223617554,1.0117377000001397,525.9830881000003,None,ScrollUp,정답입니다,525.9830881000003,None,525.9830881000003,None,525.9830881000003,None,525.9830881000003,None,526.8676865000002,None,526.8676865000002,527.3676614000001,,,,,,,,,,,,,,,,231,2022-06-03_17h32.18.928,FishGame,2022.1.1,60.0110780449805,
,30,넌 다정해,1,Orange,A,5.833333333333334,5.7,ScrollDown,ScrollUp,Orange.png,4,Positive,Congruent,0,0,0,0,,,,,,,,,,,,,,,,,,,,,,,,,0,29,29,29,,,,,,,,,,,,,,,,,,,,,,,,,,,,,,,,,,,,,,,,,,,,,,,,,,,,,,,,,,,,,,,,,,,,,,,,,1.2299382835626602,0.9955089000000044,528.0211865000001,None,ScrollDown,정답입니다,528.0211865000001,None,528.0211865000001,None,528.0211865000001,None,528.0211865000001,None,528.8840324000003,None,528.8840324000003,529.3840841000001,,,,,,,,,,,,,,,,231,2022-06-03_17h32.18.928,FishGame,2022.1.1,60.0110780449805,
,31,넌 능력있어,2,Green,B,6.166666666666666,4.6,ScrollUp,ScrollDown,Green.png,4,Positive,Incongruent,0,0,0,0,,,,,,,,,,,,,,,,,,,,,,,,,0,30,30,30,,,,,,,,,,,,,,,,,,,,,,,,,,,,,,,,,,,,,,,,,,,,,,,,,,,,,,,,,,,,,,,,,,,,,,,,,1.9845678806304932,0.9452165000002424,530.0294664000003,None,ScrollUp,정답입니다,530.0294664000003,None,530.0294664000003,None,530.0294664000003,None,530.0294664000003,None,530.8520997999999,None,530.8520997999999,531.3671801999999,,,,,,,,,,,,,,,,231,2022-06-03_17h32.18.928,FishGame,2022.1.1,60.0110780449805,
,32,넌 불쾌해,5,Orange,A,2.125,1.933333333333333,ScrollDown,ScrollUp,Orange.png,4,Negative,Incongruent,0,0,0,0,,,,,,,,,,,,,,,,,,,,,,,,,0,31,31,31,,,,,,,,,,,,,,,,,,,,,,,,,,,,,,,,,,,,,,,,,,,,,,,,,,,,,,,,,,,,,,,,,,,,,,,,,1,0.9221299999999246,532.0204243000003,None,ScrollDown,정답입니다,532.0204243000003,None,532.0204243000003,None,532.0204243000003,None,532.0204243000003,None,532.8105573000003,None,532.8105573000003,533.3169771000003,,,,,,,,,,,,,,,,231,2022-06-03_17h32.18.928,FishGame,2022.1.1,60.0110780449805,
,33,나를 데려가줘,6,Green,B,0,0,ScrollDown,ScrollUp,Green.png,4,NonTarget,NonTarget,0,0,0,0,,,,,,,,,,,,,,,,,,,,,,,,,0,32,32,32,,,,,,,,,,,,,,,,,,,,,,,,,,,,,,,,,,,,,,,,,,,,,,,,,,,,,,,,,,,,,,,,,,,,,,,,,1.0910493781169255,0.9316207000001668,533.9580540000002,None,ScrollDown,정답입니다,533.9580540000002,None,533.9580540000002,None,533.9580540000002,None,533.9580540000002,None,534.7719983000002,None,534.7719983000002,535.2833565000001,,,,,,,,,,,,,,,,231,2022-06-03_17h32.18.928,FishGame,2022.1.1,60.0110780449805,
,34,넌 유순해,3,Orange,A,4.458333333333333,5,ScrollDown,ScrollUp,Orange.png,4,Neutral,Neutral,0,0,0,0,,,,,,,,,,,,,,,,,,,,,,,,,0,33,33,33,,,,,,,,,,,,,,,,,,,,,,,,,,,,,,,,,,,,,,,,,,,,,,,,,,,,,,,,,,,,,,,,,,,,,,,,,1.095679019888242,0.8285418000000391,535.9305254000001,None,ScrollDown,정답입니다,535.9305254000001,None,535.9305254000001,None,535.9305254000001,None,535.9305254000001,None,536.6334759000001,None,536.6334759000001,537.1330865,,,,,,,,,,,,,,,,231,2022-06-03_17h32.18.928,FishGame,2022.1.1,60.0110780449805,
,35,넌 근심스러워,4,Green,B,2.708333333333333,3.133333333333333,ScrollUp,ScrollDown,Green.png,4,Negative,Congruent,0,0,0,0,,,,,,,,,,,,,,,,,,,,,,,,,0,34,34,34,,,,,,,,,,,,,,,,,,,,,,,,,,,,,,,,,,,,,,,,,,,,,,,,,,,,,,,,,,,,,,,,,,,,,,,,,1.9891975224018097,1.0732594000000972,537.7898777,None,ScrollUp,정답입니다,537.7898777,None,537.7898777,None,537.7898777,None,537.7898777,None,538.7332722000001,None,538.7332722000001,539.2328525000003,,,,,,,,,,,,,,,,231,2022-06-03_17h32.18.928,FishGame,2022.1.1,60.0110780449805,
,36,넌 세련되었어,2,Orange,A,5.5,4.6,ScrollDown,ScrollUp,Orange.png,4,Positive,Congruent,0,0,0,0,,,,,,,,,,,,,,,,,,,,,,,,,0,35,35,35,,,,,,,,,,,,,,,,,,,,,,,,,,,,,,,,,,,,,,,,,,,,,,,,,,,,,,,,,,,,,,,,,,,,,,,,,1,0.93083230000002,539.8955684000002,None,ScrollDown,정답입니다,539.8955684000002,None,539.8955684000002,None,539.8955684000002,None,539.8955684000002,None,540.6870391000002,None,540.6870391000002,541.1993182000001,,,,,,,,,,,,,,,,231,2022-06-03_17h32.18.928,FishGame,2022.1.1,60.0110780449805,
,37,나를 보내줘,6,Orange,A,0,0,ScrollUp,ScrollDown,Orange.png,4,NonTarget,NonTarget,0,0,0,0,,,,,,,,,,,,,,,,,,,,,,,,,0,36,36,36,,,,,,,,,,,,,,,,,,,,,,,,,,,,,,,,,,,,,,,,,,,,,,,,,,,,,,,,,,,,,,,,,,,,,,,,,2,1.0319005999999717,541.8518520000002,None,ScrollUp,정답입니다,541.8518520000002,None,541.8518520000002,None,541.8518520000002,None,541.8518520000002,None,542.7523357999999,None,542.7523357999999,543.2656582,,,,,,,,,,,,,,,,231,2022-06-03_17h32.18.928,FishGame,2022.1.1,60.0110780449805,
,38,넌 확고해,3,Green,B,4.708333333333334,4.566666666666666,ScrollUp,ScrollDown,Green.png,4,Neutral,Neutral,0,0,0,0,,,,,,,,,,,,,,,,,,,,,,,,,0,37,37,37,,,,,,,,,,,,,,,,,,,,,,,,,,,,,,,,,,,,,,,,,,,,,,,,,,,,,,,,,,,,,,,,,,,,,,,,,2,0.9662286999996468,543.9134036999999,None,ScrollUp,정답입니다,543.9134036999999,None,543.9134036999999,None,543.9134036999999,None,543.9134036999999,None,544.7541811000001,None,544.7541811000001,545.2654514999999,,,,,,,,,,,,,,,,231,2022-06-03_17h32.18.928,FishGame,2022.1.1,60.0110780449805,
,39,넌 이해심이 많아,1,Green,B,6.041666666666668,5.533333333333333,ScrollUp,ScrollDown,Green.png,4,Positive,Incongruent,0,0,0,0,,,,,,,,,,,,,,,,,,,,,,,,,0,38,38,38,,,,,,,,,,,,,,,,,,,,,,,,,,,,,,,,,,,,,,,,,,,,,,,,,,,,,,,,,,,,,,,,,,,,,,,,,2,0.7951636000002509,545.9081360999999,None,ScrollUp,정답입니다,545.9081360999999,None,545.9081360999999,None,545.9081360999999,None,545.9081360999999,None,546.5819345,None,546.5819345,547.0818804,,,,,,,,,,,,,,,,231,2022-06-03_17h32.18.928,FishGame,2022.1.1,60.0110780449805,
,40,나를 보내줘,6,Orange,A,0,0,ScrollUp,ScrollDown,Orange.png,4,NonTarget,NonTarget,0,0,0,0,,,,,,,,,,,,,,,,,,,,,,,,,0,39,39,39,,,,,,,,,,,,,,,,,,,,,,,,,,,,,,,,,,,,,,,,,,,,,,,,,,,,,,,,,,,,,,,,,,,,,,,,,1.884259248773257,1.0397828000000118,547.7342604,None,ScrollUp,정답입니다,547.7342604,None,547.7342604,None,547.7342604,None,547.7342604,None,548.6485117000002,None,548.6485117000002,549.1482699000003,,,,,,,,,,,,,,,,231,2022-06-03_17h32.18.928,FishGame,2022.1.1,60.0110780449805,
,41,넌 거칠어,4,Orange,A,2.625,3.033333333333333,ScrollDown,ScrollUp,Orange.png,4,Negative,Incongruent,0,0,0,0,,,,,,,,,,,,,,,,,,,,,,,,,0,40,40,40,,,,,,,,,,,,,,,,,,,,,,,,,,,,,,,,,,,,,,,,,,,,,,,,,,,,,,,,,,,,,,,,,,,,,,,,,1,0.8976815000000897,549.8036975,None,ScrollDown,정답입니다,549.8036975,None,549.8036975,None,549.8036975,None,549.8036975,None,550.5675741,None,550.5675741,551.0812322000002,,,,,,,,,,,,,,,,231,2022-06-03_17h32.18.928,FishGame,2022.1.1,60.0110780449805,
,42,넌 변덕맞아,5,Green,B,2.75,2.166666666666667,ScrollUp,ScrollDown,Green.png,4,Negative,Congruent,0,0,0,0,,,,,,,,,,,,,,,,,,,,,,,,,0,41,41,41,,,,,,,,,,,,,,,,,,,,,,,,,,,,,,,,,,,,,,,,,,,,,,,,,,,,,,,,,,,,,,,,,,,,,,,,,1.7808641890684764,0.9485021999998935,551.7375284,None,ScrollUp,정답입니다,551.7375284,None,551.7375284,None,551.7375284,None,551.7375284,None,552.5524722999999,None,552.5524722999999,553.0645772000003,,,,,,,,,,,,,,,,231,2022-06-03_17h32.18.928,FishGame,2022.1.1,60.0110780449805,
,43,나를 데려가줘,6,Green,B,0,0,ScrollDown,ScrollUp,Green.png,4,NonTarget,NonTarget,0,0,0,0,,,,,,,,,,,,,,,,,,,,,,,,,0,42,42,42,,,,,,,,,,,,,,,,,,,,,,,,,,,,,,,,,,,,,,,,,,,,,,,,,,,,,,,,,,,,,,,,,,,,,,,,,1.0447530845801036,1.1543463000002703,553.7067569000001,None,ScrollDown,정답입니다,553.7067569000001,None,553.7067569000001,None,553.7067569000001,None,553.7067569000001,None,554.7403886000002,None,554.7403886000002,555.2474608000002,,,,,,,,,,,,,,,,231,2022-06-03_17h32.18.928,FishGame,2022.1.1,60.0110780449805,
,44,넌 외로워,4,Green,B,2.833333333333333,3.3,ScrollUp,ScrollDown,Green.png,4,Negative,Congruent,0,0,0,0,,,,,,,,,,,,,,,,,,,,,,,,,0,43,43,43,,,,,,,,,,,,,,,,,,,,,,,,,,,,,,,,,,,,,,,,,,,,,,,,,,,,,,,,,,,,,,,,,,,,,,,,,1.8904321044683456,0.939411299999847,555.8960771000002,None,ScrollUp,정답입니다,555.8960771000002,None,555.8960771000002,None,555.8960771000002,None,555.8960771000002,None,556.7144646000002,None,556.7144646000002,557.2139514999999,,,,,,,,,,,,,,,,231,2022-06-03_17h32.18.928,FishGame,2022.1.1,60.0110780449805,
,1,넌 불평스러워,5,Orange,A,2.25,2.066666666666667,ScrollDown,ScrollUp,Orange.png,5,Negative,Incongruent,0,0,0,0,,,,,,,,,,,,,,,,,,,,,,,,,,,,,0,0,0,0,,,,,,,,,,,,,,,,,,,,,,,,,,,,588.5767928,590.0763612000001,590.1097995,591.0595238000001,591.1096837999999,592.0593870000002,592.0593870000002,None,,,,,,,,,,,,,,,,,,,,,,,,,,,,,,,,,,1,1.1498913999998877,593.2443978000001,None,ScrollDown,정답입니다,593.2443978000001,None,593.2443978000001,None,593.2443978000001,None,593.2443978000001,None,594.2197160000001,None,594.2197160000001,594.7258202000003,557.7140015,None,557.7140015,None,-0.094444446,-0.25277779,1,0,0,0.016200210000079096,None,587.7267949000002,None,,,231,2022-06-03_17h32.18.928,FishGame,2022.1.1,60.0110780449805,
,2,나를 보내줘,6,Orange,A,0,0,ScrollUp,ScrollDown,Orange.png,5,NonTarget,NonTarget,0,0,0,0,,,,,,,,,,,,,,,,,,,,,,,,,,,,,0,1,1,1,,,,,,,,,,,,,,,,,,,,,,,,,,,,,,,,,,,,,,,,,,,,,,,,,,,,,,,,,,,,,,,,,,,,,2,0.9772385999999642,595.3780024000002,None,ScrollUp,정답입니다,595.3780024000002,None,595.3780024000002,None,595.3780024000002,None,595.3780024000002,None,596.2259549999999,None,596.2259549999999,596.7256393000002,,,,,,,,,,,,,,,,231,2022-06-03_17h32.18.928,FishGame,2022.1.1,60.0110780449805,
,3,넌 다재다능해,2,Green,B,6.208333333333333,4.5,ScrollUp,ScrollDown,Green.png,5,Positive,Incongruent,0,0,0,0,,,,,,,,,,,,,,,,,,,,,,,,,,,,,0,2,2,2,,,,,,,,,,,,,,,,,,,,,,,,,,,,,,,,,,,,,,,,,,,,,,,,,,,,,,,,,,,,,,,,,,,,,1.8950617214043934,0.8541824999997516,597.3633261999998,None,ScrollUp,정답입니다,597.3633261999998,None,597.3633261999998,None,597.3633261999998,None,597.3633261999998,None,598.1016852000002,None,598.1016852000002,598.6086023000003,,,,,,,,,,,,,,,,231,2022-06-03_17h32.18.928,FishGame,2022.1.1,60.0110780449805,
,4,넌 과감해,3,Orange,A,4.833333333333334,4.6,ScrollDown,ScrollUp,Orange.png,5,Neutral,Neutral,0,0,0,0,,,,,,,,,,,,,,,,,,,,,,,,,,,,,0,3,3,3,,,,,,,,,,,,,,,,,,,,,,,,,,,,,,,,,,,,,,,,,,,,,,,,,,,,,,,,,,,,,,,,,,,,,1,0.9292293999997128,599.262776,None,ScrollDown,정답입니다,599.262776,None,599.262776,None,599.262776,None,599.262776,None,600.0595489000002,None,600.0595489000002,600.5750091999998,,,,,,,,,,,,,,,,231,2022-06-03_17h32.18.928,FishGame,2022.1.1,60.0110780449805,
,5,넌 고분고분해,3,Green,B,3.75,4.033333333333333,ScrollUp,ScrollDown,Green.png,5,Neutral,Neutral,0,0,0,0,,,,,,,,,,,,,,,,,,,,,,,,,,,,,0,4,4,4,,,,,,,,,,,,,,,,,,,,,,,,,,,,,,,,,,,,,,,,,,,,,,,,,,,,,,,,,,,,,,,,,,,,,2,1.0169552000002113,601.2316645000001,None,ScrollUp,정답입니다,601.2316645000001,None,601.2316645000001,None,601.2316645000001,None,601.2316645000001,None,602.1131435000002,None,602.1131435000002,602.6247722000003,,,,,,,,,,,,,,,,231,2022-06-03_17h32.18.928,FishGame,2022.1.1,60.0110780449805,
,6,나를 보내줘,6,Orange,A,0,0,ScrollUp,ScrollDown,Orange.png,5,NonTarget,NonTarget,0,0,0,0,,,,,,,,,,,,,,,,,,,,,,,,,,,,,0,5,5,5,,,,,,,,,,,,,,,,,,,,,,,,,,,,,,,,,,,,,,,,,,,,,,,,,,,,,,,,,,,,,,,,,,,,,2,0.9341612999996869,603.2724658000002,None,ScrollUp,정답입니다,603.2724658000002,None,603.2724658000002,None,603.2724658000002,None,603.2724658000002,None,604.0797004000001,None,604.0797004000001,604.5914081000001,,,,,,,,,,,,,,,,231,2022-06-03_17h32.18.928,FishGame,2022.1.1,60.0110780449805,
,7,넌 잘 잊어,4,Orange,A,3,3.7,ScrollDown,ScrollUp,Orange.png,5,Negative,Incongruent,0,0,0,0,,,,,,,,,,,,,,,,,,,,,,,,,,,,,0,6,6,6,,,,,,,,,,,,,,,,,,,,,,,,,,,,,,,,,,,,,,,,,,,,,,,,,,,,,,,,,,,,,,,,,,,,,1,0.9048449999995682,605.2459337999999,None,ScrollDown,정답입니다,605.2459337999999,None,605.2459337999999,None,605.2459337999999,None,605.2459337999999,None,606.0172528000003,None,606.0172528000003,606.5242031000002,,,,,,,,,,,,,,,,231,2022-06-03_17h32.18.928,FishGame,2022.1.1,60.0110780449805,
,8,넌 탐구심이없어,4,Green,B,2.833333333333333,3.066666666666667,ScrollUp,ScrollDown,Green.png,5,Negative,Congruent,0,0,0,0,,,,,,,,,,,,,,,,,,,,,,,,,,,,,0,7,7,7,,,,,,,,,,,,,,,,,,,,,,,,,,,,,,,,,,,,,,,,,,,,,,,,,,,,,,,,,,,,,,,,,,,,,2,0.9313449000001128,607.1755959000002,None,ScrollUp,정답입니다,607.1755959000002,None,607.1755959000002,None,607.1755959000002,None,607.1755959000002,None,607.9778919,None,607.9778919,608.4905604999999,,,,,,,,,,,,,,,,231,2022-06-03_17h32.18.928,FishGame,2022.1.1,60.0110780449805,
,9,나를 데려가줘,6,Green,B,0,0,ScrollDown,ScrollUp,Green.png,5,NonTarget,NonTarget,0,0,0,0,,,,,,,,,,,,,,,,,,,,,,,,,,,,,0,8,8,8,,,,,,,,,,,,,,,,,,,,,,,,,,,,,,,,,,,,,,,,,,,,,,,,,,,,,,,,,,,,,,,,,,,,,1.0061728358268738,1.5578235000002678,609.1389644999999,None,ScrollDown,정답입니다,609.1389644999999,None,609.1389644999999,None,609.1389644999999,None,609.1389644999999,None,610.5736526999999,None,610.5736526999999,611.0735427,,,,,,,,,,,,,,,,231,2022-06-03_17h32.18.928,FishGame,2022.1.1,60.0110780449805,
,10,넌 참되어,2,Orange,A,6.041666666666664,4.733333333333333,ScrollDown,ScrollUp,Orange.png,5,Positive,Congruent,0,0,0,0,,,,,,,,,,,,,,,,,,,,,,,,,,,,,0,9,9,9,,,,,,,,,,,,,,,,,,,,,,,,,,,,,,,,,,,,,,,,,,,,,,,,,,,,,,,,,,,,,,,,,,,,,1.0354938507080078,0.8173373999998148,611.7266637000002,None,ScrollDown,정답입니다,611.7266637000002,None,611.7266637000002,None,611.7266637000002,None,611.7266637000002,None,612.4124205000003,None,612.4124205000003,612.9233244000002,,,,,,,,,,,,,,,,231,2022-06-03_17h32.18.928,FishGame,2022.1.1,60.0110780449805,
,11,넌 생기있어,1,Green,B,5.875,5.633333333333334,ScrollUp,ScrollDown,Green.png,5,Positive,Incongruent,0,0,0,0,,,,,,,,,,,,,,,,,,,,,,,,,,,,,0,10,10,10,,,,,,,,,,,,,,,,,,,,,,,,,,,,,,,,,,,,,,,,,,,,,,,,,,,,,,,,,,,,,,,,,,,,,2,1.1623858999996628,613.5720451000002,None,ScrollUp,정답입니다,613.5720451000002,None,613.5720451000002,None,613.5720451000002,None,613.5720451000002,None,614.6069628,None,614.6069628,615.1065088,,,,,,,,,,,,,,,,231,2022-06-03_17h32.18.928,FishGame,2022.1.1,60.0110780449805,
,12,넌 비사교적이야,4,Green,B,2.875,2.9,ScrollUp,ScrollDown,Green.png,5,Negative,Congruent,0,0,0,0,,,,,,,,,,,,,,,,,,,,,,,,,,,,,0,11,11,11,,,,,,,,,,,,,,,,,,,,,,,,,,,,,,,,,,,,,,,,,,,,,,,,,,,,,,,,,,,,,,,,,,,,,2,0.9388638000000356,615.7591886,None,ScrollUp,정답입니다,615.7591886,None,615.7591886,None,615.7591886,None,615.7591886,None,616.5728318000001,None,616.5728318000001,617.0728693000001,,,,,,,,,,,,,,,,231,2022-06-03_17h32.18.928,FishGame,2022.1.1,60.0110780449805,
,13,나를 데려가줘,6,Green,B,0,0,ScrollDown,ScrollUp,Green.png,5,NonTarget,NonTarget,0,0,0,0,,,,,,,,,,,,,,,,,,,,,,,,,,,,,0,12,12,12,,,,,,,,,,,,,,,,,,,,,,,,,,,,,,,,,,,,,,,,,,,,,,,,,,,,,,,,,,,,,,,,,,,,,1,1.0024011000000428,617.7200081999999,None,ScrollDown,정답입니다,617.7200081999999,None,617.7200081999999,None,617.7200081999999,None,617.7200081999999,None,618.5974688000001,None,618.5974688000001,619.1059112000003,,,,,,,,,,,,,,,,231,2022-06-03_17h32.18.928,FishGame,2022.1.1,60.0110780449805,
,14,넌 고독해,4,Orange,A,2.916666666666667,3.233333333333333,ScrollDown,ScrollUp,Orange.png,5,Negative,Incongruent,0,0,0,0,,,,,,,,,,,,,,,,,,,,,,,,,,,,,0,13,13,13,,,,,,,,,,,,,,,,,,,,,,,,,,,,,,,,,,,,,,,,,,,,,,,,,,,,,,,,,,,,,,,,,,,,,1,0.9949960000003557,619.7529004000003,None,ScrollDown,정답입니다,619.7529004000003,None,619.7529004000003,None,619.7529004000003,None,619.7529004000003,None,620.6226600999998,None,620.6226600999998,621.1223172999998,,,,,,,,,,,,,,,,231,2022-06-03_17h32.18.928,FishGame,2022.1.1,60.0110780449805,
,15,넌 신경질적이야,5,Green,B,2.375,2.233333333333333,ScrollUp,ScrollDown,Green.png,5,Negative,Congruent,0,0,0,0,,,,,,,,,,,,,,,,,,,,,,,,,,,,,0,14,14,14,,,,,,,,,,,,,,,,,,,,,,,,,,,,,,,,,,,,,,,,,,,,,,,,,,,,,,,,,,,,,,,,,,,,,2,1.079730599999948,621.7840814000001,None,ScrollUp,정답입니다,621.7840814000001,None,621.7840814000001,None,621.7840814000001,None,621.7840814000001,None,622.7239341,None,622.7239341,623.2387798,,,,,,,,,,,,,,,,231,2022-06-03_17h32.18.928,FishGame,2022.1.1,60.0110780449805,
,16,넌 똑똑해,2,Green,B,5.666666666666667,3.966666666666667,ScrollUp,ScrollDown,Green.png,5,Positive,Incongruent,0,0,0,0,,,,,,,,,,,,,,,,,,,,,,,,,,,,,0,15,15,15,,,,,,,,,,,,,,,,,,,,,,,,,,,,,,,,,,,,,,,,,,,,,,,,,,,,,,,,,,,,,,,,,,,,,1.9845678806304932,0.8121390999999676,623.8867556,None,ScrollUp,정답입니다,623.8867556,None,623.8867556,None,623.8867556,None,623.8867556,None,624.5721248999998,None,624.5721248999998,625.0717794000002,,,,,,,,,,,,,,,,231,2022-06-03_17h32.18.928,FishGame,2022.1.1,60.0110780449805,
,17,나를 보내줘,6,Orange,A,0,0,ScrollUp,ScrollDown,Orange.png,5,NonTarget,NonTarget,0,0,0,0,,,,,,,,,,,,,,,,,,,,,,,,,,,,,0,16,16,16,,,,,,,,,,,,,,,,,,,,,,,,,,,,,,,,,,,,,,,,,,,,,,,,,,,,,,,,,,,,,,,,,,,,,2,1.0995528000003105,625.7287165000002,None,ScrollUp,정답입니다,625.7287165000002,None,625.7287165000002,None,625.7287165000002,None,625.7287165000002,None,626.693205,None,626.693205,627.2050076,,,,,,,,,,,,,,,,231,2022-06-03_17h32.18.928,FishGame,2022.1.1,60.0110780449805,
,18,넌 협조적이야,1,Orange,A,5.625,5.666666666666667,ScrollDown,ScrollUp,Orange.png,5,Positive,Congruent,0,0,0,0,,,,,,,,,,,,,,,,,,,,,,,,,,,,,0,17,17,17,,,,,,,,,,,,,,,,,,,,,,,,,,,,,,,,,,,,,,,,,,,,,,,,,,,,,,,,,,,,,,,,,,,,,1,0.9350368999998864,627.8532727000002,None,ScrollDown,정답입니다,627.8532727000002,None,627.8532727000002,None,627.8532727000002,None,627.8532727000002,None,628.6611416999999,None,628.6611416999999,629.1712978,,,,,,,,,,,,,,,,231,2022-06-03_17h32.18.928,FishGame,2022.1.1,60.0110780449805,
,19,나를 데려가줘,6,Green,B,0,0,ScrollDown,ScrollUp,Green.png,5,NonTarget,NonTarget,0,0,0,0,,,,,,,,,,,,,,,,,,,,,,,,,,,,,0,18,18,18,,,,,,,,,,,,,,,,,,,,,,,,,,,,,,,,,,,,,,,,,,,,,,,,,,,,,,,,,,,,,,,,,,,,,1.0015431940555573,1.0237966999998207,629.8144935,None,ScrollDown,정답입니다,629.8144935,None,629.8144935,None,629.8144935,None,629.8144935,None,630.7210552000001,None,630.7210552000001,631.2212175,,,,,,,,,,,,,,,,231,2022-06-03_17h32.18.928,FishGame,2022.1.1,60.0110780449805,
,20,넌 몰인정해,5,Green,B,2.541666666666667,2.066666666666667,ScrollUp,ScrollDown,Green.png,5,Negative,Congruent,0,0,0,0,,,,,,,,,,,,,,,,,,,,,,,,,,,,,0,19,19,19,,,,,,,,,,,,,,,,,,,,,,,,,,,,,,,,,,,,,,,,,,,,,,,,,,,,,,,,,,,,,,,,,,,,,2,0.9651418000003105,631.8839157000002,None,ScrollUp,정답입니다,631.8839157000002,None,631.8839157000002,None,631.8839157000002,None,631.8839157000002,None,632.7080248000002,None,632.7080248000002,633.2208277,,,,,,,,,,,,,,,,231,2022-06-03_17h32.18.928,FishGame,2022.1.1,60.0110780449805,
,21,나를 데려가줘,6,Green,B,0,0,ScrollDown,ScrollUp,Green.png,5,NonTarget,NonTarget,0,0,0,0,,,,,,,,,,,,,,,,,,,,,,,,,,,,,0,20,20,20,,,,,,,,,,,,,,,,,,,,,,,,,,,,,,,,,,,,,,,,,,,,,,,,,,,,,,,,,,,,,,,,,,,,,1,0.9979382000001351,633.8628693,None,ScrollDown,정답입니다,633.8628693,None,633.8628693,None,633.8628693,None,633.8628693,None,634.7427212000002,None,634.7427212000002,635.2538657,,,,,,,,,,,,,,,,231,2022-06-03_17h32.18.928,FishGame,2022.1.1,60.0110780449805,
,22,넌 순진해,3,Green,B,4.125,4.166666666666667,ScrollUp,ScrollDown,Green.png,5,Neutral,Neutral,0,0,0,0,,,,,,,,,,,,,,,,,,,,,,,,,,,,,0,21,21,21,,,,,,,,,,,,,,,,,,,,,,,,,,,,,,,,,,,,,,,,,,,,,,,,,,,,,,,,,,,,,,,,,,,,,2,0.8848513999996612,635.8994521,None,ScrollUp,정답입니다,635.8994521,None,635.8994521,None,635.8994521,None,635.8994521,None,636.6588132000002,None,636.6588132000002,637.1703007000001,,,,,,,,,,,,,,,,231,2022-06-03_17h32.18.928,FishGame,2022.1.1,60.0110780449805,
,23,넌 신뢰할만해,1,Orange,A,6.625,5.533333333333333,ScrollDown,ScrollUp,Orange.png,5,Positive,Congruent,0,0,0,0,,,,,,,,,,,,,,,,,,,,,,,,,,,,,0,22,22,22,,,,,,,,,,,,,,,,,,,,,,,,,,,,,,,,,,,,,,,,,,,,,,,,,,,,,,,,,,,,,,,,,,,,,1,0.9565864000001056,637.8358293000001,None,ScrollDown,정답입니다,637.8358293000001,None,637.8358293000001,None,637.8358293000001,None,637.8358293000001,None,638.6538574000001,None,638.6538574000001,639.1535543,,,,,,,,,,,,,,,,231,2022-06-03_17h32.18.928,FishGame,2022.1.1,60.0110780449805,
,24,나를 보내줘,6,Orange,A,0,0,ScrollUp,ScrollDown,Orange.png,5,NonTarget,NonTarget,0,0,0,0,,,,,,,,,,,,,,,,,,,,,,,,,,,,,0,23,23,23,,,,,,,,,,,,,,,,,,,,,,,,,,,,,,,,,,,,,,,,,,,,,,,,,,,,,,,,,,,,,,,,,,,,,2,0.8008426999999756,639.7961045000002,None,ScrollUp,정답입니다,639.7961045000002,None,639.7961045000002,None,639.7961045000002,None,639.7961045000002,None,640.4756316000003,None,640.4756316000003,640.9863988000002,,,,,,,,,,,,,,,,231,2022-06-03_17h32.18.928,FishGame,2022.1.1,60.0110780449805,
,25,넌 인색해,5,Orange,A,2.625,2.233333333333333,ScrollDown,ScrollUp,Orange.png,5,Negative,Incongruent,0,0,0,0,,,,,,,,,,,,,,,,,,,,,,,,,,,,,0,24,24,24,,,,,,,,,,,,,,,,,,,,,,,,,,,,,,,,,,,,,,,,,,,,,,,,,,,,,,,,,,,,,,,,,,,,,1,0.8379620000000614,641.6449928000002,None,ScrollDown,정답입니다,641.6449928000002,None,641.6449928000002,None,641.6449928000002,None,641.6449928000002,None,642.3456154,None,642.3456154,642.8529211999999,,,,,,,,,,,,,,,,231,2022-06-03_17h32.18.928,FishGame,2022.1.1,60.0110780449805,
,26,넌 유쾌해,1,Green,B,5.833333333333333,5.766666666666667,ScrollUp,ScrollDown,Green.png,5,Positive,Incongruent,0,0,0,0,,,,,,,,,,,,,,,,,,,,,,,,,,,,,0,25,25,25,,,,,,,,,,,,,,,,,,,,,,,,,,,,,,,,,,,,,,,,,,,,,,,,,,,,,,,,,,,,,,,,,,,,,2,0.9546395000002121,643.4944885,None,ScrollUp,정답입니다,643.4944885,None,643.4944885,None,643.4944885,None,643.4944885,None,644.3288173000001,None,644.3288173000001,644.8361135999999,,,,,,,,,,,,,,,,231,2022-06-03_17h32.18.928,FishGame,2022.1.1,60.0110780449805,
,27,나를 보내줘,6,Orange,A,0,0,ScrollUp,ScrollDown,Orange.png,5,NonTarget,NonTarget,0,0,0,0,,,,,,,,,,,,,,,,,,,,,,,,,,,,,0,26,26,26,,,,,,,,,,,,,,,,,,,,,,,,,,,,,,,,,,,,,,,,,,,,,,,,,,,,,,,,,,,,,,,,,,,,,2,0.9453483000002052,645.4854756,None,ScrollUp,정답입니다,645.4854756,None,645.4854756,None,645.4854756,None,645.4854756,None,646.3026819000002,None,646.3026819000002,646.8024208000002,,,,,,,,,,,,,,,,231,2022-06-03_17h32.18.928,FishGame,2022.1.1,60.0110780449805,
,28,넌 창의력있어,2,Orange,A,5.916666666666667,4.8,ScrollDown,ScrollUp,Orange.png,5,Positive,Congruent,0,0,0,0,,,,,,,,,,,,,,,,,,,,,,,,,,,,,0,27,27,27,,,,,,,,,,,,,,,,,,,,,,,,,,,,,,,,,,,,,,,,,,,,,,,,,,,,,,,,,,,,,,,,,,,,,1.0277777810891469,0.8890645999999833,647.454111,None,ScrollDown,정답입니다,647.454111,None,647.454111,None,647.454111,None,647.454111,None,648.2189864000002,None,648.2189864000002,648.7188521000003,,,,,,,,,,,,,,,,231,2022-06-03_17h32.18.928,FishGame,2022.1.1,60.0110780449805,
