name,TrialNum,Word,WordCategory,FishType,WordList,WordValence,WordReputation,CorrectResp,IncorrectResp,FishTypeFile,Round,WordType,Condition,LoopforOrange.thisRepN,LoopforOrange.thisTrialN,LoopforOrange.thisN,LoopforOrange.thisIndex,LoopForGreen.thisRepN,LoopForGreen.thisTrialN,LoopForGreen.thisN,LoopForGreen.thisIndex,GreenInstLoop.thisRepN,GreenInstLoop.thisTrialN,GreenInstLoop.thisN,GreenInstLoop.thisIndex,GreenPrac.thisRepN,GreenPrac.thisTrialN,GreenPrac.thisN,GreenPrac.thisIndex,trials_2.thisRepN,trials_2.thisTrialN,trials_2.thisN,trials_2.thisIndex,GreenRound1.thisRepN,GreenRound1.thisTrialN,GreenRound1.thisN,GreenRound1.thisIndex,GreenRound2.thisRepN,GreenRound2.thisTrialN,GreenRound2.thisN,GreenRound2.thisIndex,GreenRound3.thisRepN,GreenRound3.thisTrialN,GreenRound3.thisN,GreenRound3.thisIndex,GreenRound4.thisRepN,GreenRound4.thisTrialN,GreenRound4.thisN,GreenRound4.thisIndex,GreenRound5.thisRepN,GreenRound5.thisTrialN,GreenRound5.thisN,GreenRound5.thisIndex,text_2.started,text_2.stopped,text_3.started,text_3.stopped,key_resp.keys,key_resp.rt,key_resp.started,key_resp.stopped,PassI.started,PassI.stopped,PassInst.keys,PassInst.rt,PassInst.started,PassInst.stopped,mouse_2.x,mouse_2.y,mouse_2.leftButton,mouse_2.midButton,mouse_2.rightButton,mouse_2.started,mouse_2.stopped,image.started,image.stopped,text_5.started,text_5.stopped,text_6.started,text_6.stopped,text_7.started,text_7.stopped,text_8.started,text_8.stopped,slider_3.response,slider_3.rt,slider_3.started,slider_3.stopped,Response_3,Feedback_3,BackGround_3.started,BackGround_3.stopped,Fish_3.started,Fish_3.stopped,WordBox_3.started,WordBox_3.stopped,Words_3.started,Words_3.stopped,BackGround_Feedback_3.started,BackGround_Feedback_3.stopped,Feedbacks_3.started,Feedbacks_3.stopped,Continue_or_not_2.keys,Continue_or_not_2.rt,Continue_or_not_2.started,Continue_or_not_2.stopped,image_4.started,image_4.stopped,mouse_3.x,mouse_3.y,mouse_3.leftButton,mouse_3.midButton,mouse_3.rightButton,mouse_3.started,mouse_3.stopped,startmain.started,startmain.stopped,slider_4.response,slider_4.rt,slider_4.started,slider_4.stopped,Response_4,Feedback_4,BackGround_4.started,BackGround_4.stopped,Fish_4.started,Fish_4.stopped,WordBox_4.started,WordBox_4.stopped,Words_4.started,Words_4.stopped,BackGround_Feedback_4.started,BackGround_Feedback_4.stopped,Feedbacks_4.started,Feedbacks_4.stopped,text.started,text.stopped,break_interval.started,break_interval.stopped,mouse.x,mouse.y,mouse.leftButton,mouse.midButton,mouse.rightButton,mouse.started,mouse.stopped,stratnextround.started,stratnextround.stopped,endgame.started,endgame.stopped,participant,date,expName,psychopyVersion,frameRate,
,,,,,,,,,,,,,,,,,,,,,,,,,,,,,,,,,,,,,,,,,,,,,,,,,,,,,,18.757501000000047,None,18.757501000000047,None,space,1.7649850000002516,19.242228500000238,None,,,,,,,,,,,,,,,,,,,,,,,,,,,,,,,,,,,,,,,,,,,,,,,,,,,,,,,,,,,,,,,,,,,,,,,,,,,,,,,,,,,,,,,,,,232,2022-06-10_14h12.24.310,FishGame,2022.1.1,60.006252651601926,
물고기과제_instruction(참가자용)GreenVersion.mp4,,,,,,,,,,,,,,,,,,0,0,0,0,0,0,0,0,,,,,,,,,,,,,,,,,,,,,,,,,,,,,,,,,,,,,88.32269450000013,None,n,6.1739809999999125,88.32269450000013,None,,,,,,,,,,,,,,,,,,,,,,,,,,,,,,,,,,,,,,,,,,,,,,,,,,,,,,,,,,,,,,,,,,,,,,,,,,,,,,,,,,,,232,2022-06-10_14h12.24.310,FishGame,2022.1.1,60.006252651601926,
,1,넌 교활해,5,Orange,B,2.333333333333333,2.133333333333333,ScrollUp,ScrollDown,Orange.png,practice,,,,,,,0,0,0,0,,,,,0,0,0,0,0,0,0,0,,,,,,,,,,,,,,,,,,,,,,,,,,,,,,,,,,,0.074074075,-0.13240741,1,0,0,0.5133976800002529,None,94.5156179999999,None,100.64822869999989,102.14816500000006,102.1816232000001,103.13135120000015,103.1812503000001,104.13126749999992,104.13126749999992,None,2,1.6359478000003946,105.32850300000018,None,ScrollUp,정답입니다,105.32850300000018,None,105.32850300000018,None,105.32850300000018,None,105.32850300000018,None,106.78005080000003,None,106.78005080000003,107.28099539999994,,,,,,,,,,,,,,,,,,,,,,,,,,,,,,,,,,,,,,,,,,,,,,,,,232,2022-06-10_14h12.24.310,FishGame,2022.1.1,60.006252651601926,
,2,넌 슬기로워,2,Green,A,6.166666666666667,4.1,ScrollDown,ScrollUp,Green.png,practice,,,,,,,0,0,0,0,,,,,0,0,0,0,0,1,1,1,,,,,,,,,,,,,,,,,,,,,,,,,,,,,,,,,,,,,,,,,,,,,,,,,,,,1,1.2554760000002716,107.92984440000009,None,ScrollDown,정답입니다,107.92984440000009,None,107.92984440000009,None,107.92984440000009,None,107.92984440000009,None,109.05627080000022,None,109.05627080000022,109.56392619999997,,,,,,,,,,,,,,,,,,,,,,,,,,,,,,,,,,,,,,,,,,,,,,,,,232,2022-06-10_14h12.24.310,FishGame,2022.1.1,60.006252651601926,
,3,나를 보내줘,6,Green,A,0,0,ScrollUp,ScrollDown,Green.png,practice,,,,,,,0,0,0,0,,,,,0,0,0,0,0,2,2,2,,,,,,,,,,,,,,,,,,,,,,,,,,,,,,,,,,,,,,,,,,,,,,,,,,,,2,1.354482900000221,110.20574020000004,None,ScrollUp,정답입니다,110.20574020000004,None,110.20574020000004,None,110.20574020000004,None,110.20574020000004,None,111.44507569999996,None,111.44507569999996,111.94686039999988,,,,,,,,,,,,,,,,,,,,,,,,,,,,,,,,,,,,,,,,,,,,,,,,,232,2022-06-10_14h12.24.310,FishGame,2022.1.1,60.006252651601926,
,4,나를 데려가줘,6,Orange,B,0,0,ScrollDown,ScrollUp,Orange.png,practice,,,,,,,0,0,0,0,,,,,0,0,0,0,0,3,3,3,,,,,,,,,,,,,,,,,,,,,,,,,,,,,,,,,,,,,,,,,,,,,,,,,,,,1,1.2503804000002674,112.5933957000002,None,ScrollDown,정답입니다,112.5933957000002,None,112.5933957000002,None,112.5933957000002,None,112.5933957000002,None,113.71802979999984,None,113.71802979999984,114.22993540000016,,,,,,,,,,,,,,,,,,,,,,,,,,,,,,,,,,,,,,,,,,,,,,,,,232,2022-06-10_14h12.24.310,FishGame,2022.1.1,60.006252651601926,
,1,넌 교활해,5,Orange,B,2.333333333333333,2.133333333333333,ScrollUp,ScrollDown,Orange.png,practice,,,,,,,0,0,0,0,,,,,0,0,0,0,,,,,,,,,,,,,,,,,,,,,,,,,,,,,,,,,,,,,,,,,,,,,,,,,,,,,,,,,,,,,,,,,,,,,,,,,,n,2.178466800000024,114.72987009999997,None,114.72987009999997,None,,,,,,,,,,,,,,,,,,,,,,,,,,,,,,,,,,,,,,,,,,,232,2022-06-10_14h12.24.310,FishGame,2022.1.1,60.006252651601926,
,1,넌 따뜻해,1,Orange,B,6.083333333333333,5.6,ScrollUp,ScrollDown,Orange.png,1,Positive,Incongruent,,,,,0,0,0,0,,,,,,,,,,,,,0,0,0,0,,,,,,,,,,,,,,,,,,,,,,,,,,,,,,,,,,,,,,,,119.12950510000019,120.62916840000025,120.66245019999997,121.61254099999996,121.66254729999991,122.61230400000022,122.61230400000022,None,,,,,,,,,,,,,,,,,,,,,,,,,0.23888889,-0.098148145,1,0,0,0.3136923800002478,None,116.92956409999988,None,1.884259248773257,1.3216909000002488,123.8107030000001,None,ScrollUp,정답입니다,123.8107030000001,None,123.8107030000001,None,123.8107030000001,None,123.8107030000001,None,124.95045449999998,None,124.95045449999998,125.461863,,,,,,,,,,,,,,,,232,2022-06-10_14h12.24.310,FishGame,2022.1.1,60.006252651601926,
,2,넌 기품있어,2,Orange,B,5.791666666666668,4.5,ScrollUp,ScrollDown,Orange.png,1,Positive,Incongruent,,,,,0,0,0,0,,,,,,,,,,,,,0,1,1,1,,,,,,,,,,,,,,,,,,,,,,,,,,,,,,,,,,,,,,,,,,,,,,,,,,,,,,,,,,,,,,,,,,,,,,,,,,,,,,,,,1.9259259502092998,1.0098654999997052,126.12339350000002,None,ScrollUp,정답입니다,126.12339350000002,None,126.12339350000002,None,126.12339350000002,None,126.12339350000002,None,126.99488010000005,None,126.99488010000005,127.49480649999987,,,,,,,,,,,,,,,,232,2022-06-10_14h12.24.310,FishGame,2022.1.1,60.006252651601926,
,3,나를 보내줘,6,Green,A,0,0,ScrollUp,ScrollDown,Green.png,1,NonTarget,NonTarget,,,,,0,0,0,0,,,,,,,,,,,,,0,2,2,2,,,,,,,,,,,,,,,,,,,,,,,,,,,,,,,,,,,,,,,,,,,,,,,,,,,,,,,,,,,,,,,,,,,,,,,,,,,,,,,,,1.7808641890684764,1.1952366000000438,128.14949699999988,None,ScrollUp,정답입니다,128.14949699999988,None,128.14949699999988,None,128.14949699999988,None,128.14949699999988,None,129.20812000000024,None,129.20812000000024,129.71139200000016,,,,,,,,,,,,,,,,232,2022-06-10_14h12.24.310,FishGame,2022.1.1,60.006252651601926,
,4,넌 수동적이야,4,Green,A,2.833333333333333,2.933333333333333,ScrollDown,ScrollUp,Green.png,1,Negative,Incongruent,,,,,0,0,0,0,,,,,,,,,,,,,0,3,3,3,,,,,,,,,,,,,,,,,,,,,,,,,,,,,,,,,,,,,,,,,,,,,,,,,,,,,,,,,,,,,,,,,,,,,,,,,,,,,,,,,1.0154321193695068,0.9880914000000303,130.36592520000022,None,ScrollDown,정답입니다,130.36592520000022,None,130.36592520000022,None,130.36592520000022,None,130.36592520000022,None,131.21952939999983,None,131.21952939999983,131.72781459999987,,,,,,,,,,,,,,,,232,2022-06-10_14h12.24.310,FishGame,2022.1.1,60.006252651601926,
,5,넌 사심이 없어,3,Orange,B,4.916666666666666,4.333333333333333,ScrollUp,ScrollDown,Orange.png,1,Neutral,Neutral,,,,,0,0,0,0,,,,,,,,,,,,,0,4,4,4,,,,,,,,,,,,,,,,,,,,,,,,,,,,,,,,,,,,,,,,,,,,,,,,,,,,,,,,,,,,,,,,,,,,,,,,,,,,,,,,,1.6697530845801034,0.9440557999996599,132.38561010000012,None,ScrollUp,정답입니다,132.38561010000012,None,132.38561010000012,None,132.38561010000012,None,132.38561010000012,None,133.19414110000025,None,133.19414110000025,133.69404299999997,,,,,,,,,,,,,,,,232,2022-06-10_14h12.24.310,FishGame,2022.1.1,60.006252651601926,
,6,넌 헤퍼,5,Green,A,2.458333333333334,2.233333333333333,ScrollDown,ScrollUp,Green.png,1,Negative,Incongruent,,,,,0,0,0,0,,,,,,,,,,,,,0,5,5,5,,,,,,,,,,,,,,,,,,,,,,,,,,,,,,,,,,,,,,,,,,,,,,,,,,,,,,,,,,,,,,,,,,,,,,,,,,,,,,,,,1.0293209950129192,1.2758005999999114,134.34804179999992,None,ScrollDown,정답입니다,134.34804179999992,None,134.34804179999992,None,134.34804179999992,None,134.34804179999992,None,135.49389569999994,None,135.49389569999994,135.99387930000012,,,,,,,,,,,,,,,,232,2022-06-10_14h12.24.310,FishGame,2022.1.1,60.006252651601926,
,7,넌 말쑥해,3,Green,A,4.833333333333334,4.333333333333333,ScrollDown,ScrollUp,Green.png,1,Neutral,Neutral,,,,,0,0,0,0,,,,,,,,,,,,,0,6,6,6,,,,,,,,,,,,,,,,,,,,,,,,,,,,,,,,,,,,,,,,,,,,,,,,,,,,,,,,,,,,,,,,,,,,,,,,,,,,,,,,,1,0.9372568999997384,136.64071150000018,None,ScrollDown,정답입니다,136.64071150000018,None,136.64071150000018,None,136.64071150000018,None,136.64071150000018,None,137.4504479000002,None,137.4504479000002,137.96010699999988,,,,,,,,,,,,,,,,232,2022-06-10_14h12.24.310,FishGame,2022.1.1,60.006252651601926,
,8,넌 투덜거려,5,Orange,B,2.541666666666667,2.266666666666667,ScrollUp,ScrollDown,Orange.png,1,Negative,Congruent,,,,,0,0,0,0,,,,,,,,,,,,,0,7,7,7,,,,,,,,,,,,,,,,,,,,,,,,,,,,,,,,,,,,,,,,,,,,,,,,,,,,,,,,,,,,,,,,,,,,,,,,,,,,,,,,,1.787037044763565,0.90547880000031,138.61634129999993,None,ScrollUp,정답입니다,138.61634129999993,None,138.61634129999993,None,138.61634129999993,None,138.61634129999993,None,139.3856111,None,139.3856111,139.89326770000025,,,,,,,,,,,,,,,,232,2022-06-10_14h12.24.310,FishGame,2022.1.1,60.006252651601926,
,9,넌 적극적이야,1,Green,A,5.708333333333333,5.533333333333333,ScrollDown,ScrollUp,Green.png,1,Positive,Congruent,,,,,0,0,0,0,,,,,,,,,,,,,0,8,8,8,,,,,,,,,,,,,,,,,,,,,,,,,,,,,,,,,,,,,,,,,,,,,,,,,,,,,,,,,,,,,,,,,,,,,,,,,,,,,,,,,1.0200617114702861,0.8985380000003715,140.53974610000023,None,ScrollDown,정답입니다,140.53974610000023,None,140.53974610000023,None,140.53974610000023,None,140.53974610000023,None,141.31317639999997,None,141.31317639999997,141.8264548000002,,,,,,,,,,,,,,,,232,2022-06-10_14h12.24.310,FishGame,2022.1.1,60.006252651601926,
,10,넌 재미없어,4,Orange,B,2.625,2.966666666666667,ScrollUp,ScrollDown,Orange.png,1,Negative,Congruent,,,,,0,0,0,0,,,,,,,,,,,,,0,9,9,9,,,,,,,,,,,,,,,,,,,,,,,,,,,,,,,,,,,,,,,,,,,,,,,,,,,,,,,,,,,,,,,,,,,,,,,,,,,,,,,,,1.7006172885497413,0.8676964999999655,142.48009739999998,None,ScrollUp,정답입니다,142.48009739999998,None,142.48009739999998,None,142.48009739999998,None,142.48009739999998,None,143.21428960000003,None,143.21428960000003,143.72603500000014,,,,,,,,,,,,,,,,232,2022-06-10_14h12.24.310,FishGame,2022.1.1,60.006252651601926,
,11,넌 명석해,2,Green,A,5.875,4.033333333333333,ScrollDown,ScrollUp,Green.png,1,Positive,Congruent,,,,,0,0,0,0,,,,,,,,,,,,,0,10,10,10,,,,,,,,,,,,,,,,,,,,,,,,,,,,,,,,,,,,,,,,,,,,,,,,,,,,,,,,,,,,,,,,,,,,,,,,,,,,,,,,,1.2237654278675716,0.851798400000007,144.37443480000002,None,ScrollDown,정답입니다,144.37443480000002,None,144.37443480000002,None,144.37443480000002,None,144.37443480000002,None,145.09805619999997,None,145.09805619999997,145.60920560000022,,,,,,,,,,,,,,,,232,2022-06-10_14h12.24.310,FishGame,2022.1.1,60.006252651601926,
,12,나를 데려가줘,6,Orange,B,0,0,ScrollDown,ScrollUp,Orange.png,1,NonTarget,NonTarget,,,,,0,0,0,0,,,,,,,,,,,,,0,11,11,11,,,,,,,,,,,,,,,,,,,,,,,,,,,,,,,,,,,,,,,,,,,,,,,,,,,,,,,,,,,,,,,,,,,,,,,,,,,,,,,,,1,1.1883161000000655,146.26472939999985,None,ScrollDown,정답입니다,146.26472939999985,None,146.26472939999985,None,146.26472939999985,None,146.26472939999985,None,147.3177396000001,None,147.3177396000001,147.82563280000022,,,,,,,,,,,,,,,,232,2022-06-10_14h12.24.310,FishGame,2022.1.1,60.006252651601926,
,13,넌 소심해,4,Green,A,3,3.1,ScrollDown,ScrollUp,Green.png,1,Negative,Incongruent,,,,,0,0,0,0,,,,,,,,,,,,,0,12,12,12,,,,,,,,,,,,,,,,,,,,,,,,,,,,,,,,,,,,,,,,,,,,,,,,,,,,,,,,,,,,,,,,,,,,,,,,,,,,,,,,,1.0092592636744182,0.9776431999998749,148.47101229999998,None,ScrollDown,정답입니다,148.47101229999998,None,148.47101229999998,None,148.47101229999998,None,148.47101229999998,None,149.3256710999999,None,149.3256710999999,149.82541700000002,,,,,,,,,,,,,,,,232,2022-06-10_14h12.24.310,FishGame,2022.1.1,60.006252651601926,
,14,넌 합리적이야,2,Green,A,5.583333333333333,4.733333333333333,ScrollDown,ScrollUp,Green.png,1,Positive,Congruent,,,,,0,0,0,0,,,,,,,,,,,,,0,13,13,13,,,,,,,,,,,,,,,,,,,,,,,,,,,,,,,,,,,,,,,,,,,,,,,,,,,,,,,,,,,,,,,,,,,,,,,,,,,,,,,,,1.0756172637144725,0.8811636999998882,150.47449890000007,None,ScrollDown,정답입니다,150.47449890000007,None,150.47449890000007,None,150.47449890000007,None,150.47449890000007,None,151.2284967999999,None,151.2284967999999,151.74200139999994,,,,,,,,,,,,,,,,232,2022-06-10_14h12.24.310,FishGame,2022.1.1,60.006252651601926,
,15,넌 무자비해,5,Orange,B,2.333333333333333,2.1,ScrollUp,ScrollDown,Orange.png,1,Negative,Congruent,,,,,0,0,0,0,,,,,,,,,,,,,0,14,14,14,,,,,,,,,,,,,,,,,,,,,,,,,,,,,,,,,,,,,,,,,,,,,,,,,,,,,,,,,,,,,,,,,,,,,,,,,,,,,,,,,1.7052469179034233,0.8949117000001934,152.39627250000012,None,ScrollUp,정답입니다,152.39627250000012,None,152.39627250000012,None,152.39627250000012,None,152.39627250000012,None,153.15823469999987,None,153.15823469999987,153.65826019999986,,,,,,,,,,,,,,,,232,2022-06-10_14h12.24.310,FishGame,2022.1.1,60.006252651601926,
,16,나를 보내줘,6,Green,A,0,0,ScrollUp,ScrollDown,Green.png,1,NonTarget,NonTarget,,,,,0,0,0,0,,,,,,,,,,,,,0,15,15,15,,,,,,,,,,,,,,,,,,,,,,,,,,,,,,,,,,,,,,,,,,,,,,,,,,,,,,,,,,,,,,,,,,,,,,,,,,,,,,,,,1.6759259278575578,1.000045300000238,154.2980934000002,None,ScrollUp,정답입니다,154.2980934000002,None,154.2980934000002,None,154.2980934000002,None,154.2980934000002,None,155.17933119999998,None,155.17933119999998,155.69143810000014,,,,,,,,,,,,,,,,232,2022-06-10_14h12.24.310,FishGame,2022.1.1,60.006252651601926,
,17,넌 현실적이야,3,Orange,B,4.608695652173913,4.766666666666667,ScrollUp,ScrollDown,Orange.png,1,Neutral,Neutral,,,,,0,0,0,0,,,,,,,,,,,,,0,16,16,16,,,,,,,,,,,,,,,,,,,,,,,,,,,,,,,,,,,,,,,,,,,,,,,,,,,,,,,,,,,,,,,,,,,,,,,,,,,,,,,,,1.589506171643734,0.8615517999996882,156.343844,None,ScrollUp,정답입니다,156.343844,None,156.343844,None,156.343844,None,156.343844,None,157.07421139999997,None,157.07421139999997,157.5745093999999,,,,,,,,,,,,,,,,232,2022-06-10_14h12.24.310,FishGame,2022.1.1,60.006252651601926,
,18,넌 의리있어,1,Orange,B,5.833333333333334,5.633333333333334,ScrollUp,ScrollDown,Orange.png,1,Positive,Incongruent,,,,,0,0,0,0,,,,,,,,,,,,,0,17,17,17,,,,,,,,,,,,,,,,,,,,,,,,,,,,,,,,,,,,,,,,,,,,,,,,,,,,,,,,,,,,,,,,,,,,,,,,,,,,,,,,,1.6234567910432816,0.8608014999999796,158.22698750000018,None,ScrollUp,정답입니다,158.22698750000018,None,158.22698750000018,None,158.22698750000018,None,158.22698750000018,None,158.9538588999999,None,158.9538588999999,159.45737850000023,,,,,,,,,,,,,,,,232,2022-06-10_14h12.24.310,FishGame,2022.1.1,60.006252651601926,
,19,넌 신경과민이야,5,Green,A,2.541666666666667,2.166666666666667,ScrollDown,ScrollUp,Green.png,1,Negative,Incongruent,,,,,0,0,0,0,,,,,,,,,,,,,0,18,18,18,,,,,,,,,,,,,,,,,,,,,,,,,,,,,,,,,,,,,,,,,,,,,,,,,,,,,,,,,,,,,,,,,,,,,,,,,,,,,,,,,1.0586419602235158,0.9283109000002696,160.11249469999984,None,ScrollDown,정답입니다,160.11249469999984,None,160.11249469999984,None,160.11249469999984,None,160.11249469999984,None,160.90731809999988,None,160.90731809999988,161.40716410000005,,,,,,,,,,,,,,,,232,2022-06-10_14h12.24.310,FishGame,2022.1.1,60.006252651601926,
,20,넌 편안해,1,Green,A,5.916666666666666,5.866666666666666,ScrollDown,ScrollUp,Green.png,1,Positive,Congruent,,,,,0,0,0,0,,,,,,,,,,,,,0,19,19,19,,,,,,,,,,,,,,,,,,,,,,,,,,,,,,,,,,,,,,,,,,,,,,,,,,,,,,,,,,,,,,,,,,,,,,,,,,,,,,,,,1.0385802288850148,0.9101967999999943,162.05450090000022,None,ScrollDown,정답입니다,162.05450090000022,None,162.05450090000022,None,162.05450090000022,None,162.05450090000022,None,162.84036430000015,None,162.84036430000015,163.3403429,,,,,,,,,,,,,,,,232,2022-06-10_14h12.24.310,FishGame,2022.1.1,60.006252651601926,
,21,넌 품위있어,2,Orange,B,5.291666666666666,4.466666666666667,ScrollUp,ScrollDown,Orange.png,1,Positive,Incongruent,,,,,0,0,0,0,,,,,,,,,,,,,0,20,20,20,,,,,,,,,,,,,,,,,,,,,,,,,,,,,,,,,,,,,,,,,,,,,,,,,,,,,,,,,,,,,,,,,,,,,,,,,,,,,,,,,1.71913580596447,0.8391916999999012,163.99135419999993,None,ScrollUp,정답입니다,163.99135419999993,None,163.99135419999993,None,163.99135419999993,None,163.99135419999993,None,164.69992140000022,None,164.69992140000022,165.20674969999982,,,,,,,,,,,,,,,,232,2022-06-10_14h12.24.310,FishGame,2022.1.1,60.006252651601926,
,22,넌 빈틈없어,3,Green,A,4.833333333333333,3.966666666666667,ScrollDown,ScrollUp,Green.png,1,Neutral,Neutral,,,,,0,0,0,0,,,,,,,,,,,,,0,21,21,21,,,,,,,,,,,,,,,,,,,,,,,,,,,,,,,,,,,,,,,,,,,,,,,,,,,,,,,,,,,,,,,,,,,,,,,,,,,,,,,,,1.0262345671653748,0.8989268000000266,165.85477619999983,None,ScrollDown,정답입니다,165.85477619999983,None,165.85477619999983,None,165.85477619999983,None,165.85477619999983,None,166.62726340000017,None,166.62726340000017,167.1398767999999,,,,,,,,,,,,,,,,232,2022-06-10_14h12.24.310,FishGame,2022.1.1,60.006252651601926,
,23,넌 상상력없어,4,Orange,B,2.833333333333333,3.133333333333333,ScrollUp,ScrollDown,Orange.png,1,Negative,Congruent,,,,,0,0,0,0,,,,,,,,,,,,,0,22,22,22,,,,,,,,,,,,,,,,,,,,,,,,,,,,,,,,,,,,,,,,,,,,,,,,,,,,,,,,,,,,,,,,,,,,,,,,,,,,,,,,,1.6311728358268738,0.9062917999999627,167.80043060000025,None,ScrollUp,정답입니다,167.80043060000025,None,167.80043060000025,None,167.80043060000025,None,167.80043060000025,None,168.5658610999999,None,168.5658610999999,169.0729282000002,,,,,,,,,,,,,,,,232,2022-06-10_14h12.24.310,FishGame,2022.1.1,60.006252651601926,
,24,넌 지혜로워,2,Orange,B,6.333333333333334,4.633333333333334,ScrollUp,ScrollDown,Orange.png,1,Positive,Incongruent,,,,,0,0,0,0,,,,,,,,,,,,,0,23,23,23,,,,,,,,,,,,,,,,,,,,,,,,,,,,,,,,,,,,,,,,,,,,,,,,,,,,,,,,,,,,,,,,,,,,,,,,,,,,,,,,,1.6435185223817825,0.832020399999692,169.72997970000006,None,ScrollUp,정답입니다,169.72997970000006,None,169.72997970000006,None,169.72997970000006,None,169.72997970000006,None,170.42940499999986,None,170.42940499999986,170.93922310000016,,,,,,,,,,,,,,,,232,2022-06-10_14h12.24.310,FishGame,2022.1.1,60.006252651601926,
,25,넌 시끄러워,4,Green,A,2.833333333333333,3.033333333333333,ScrollDown,ScrollUp,Green.png,1,Negative,Incongruent,,,,,0,0,0,0,,,,,,,,,,,,,0,24,24,24,,,,,,,,,,,,,,,,,,,,,,,,,,,,,,,,,,,,,,,,,,,,,,,,,,,,,,,,,,,,,,,,,,,,,,,,,,,,,,,,,1.2299382835626602,0.8380154999999831,171.58816780000006,None,ScrollDown,정답입니다,171.58816780000006,None,171.58816780000006,None,171.58816780000006,None,171.58816780000006,None,172.2968937999999,None,172.2968937999999,172.8056421000001,,,,,,,,,,,,,,,,232,2022-06-10_14h12.24.310,FishGame,2022.1.1,60.006252651601926,
,26,넌 만사태평이야,3,Orange,B,4,4.333333333333333,ScrollUp,ScrollDown,Orange.png,1,Neutral,Neutral,,,,,0,0,0,0,,,,,,,,,,,,,0,25,25,25,,,,,,,,,,,,,,,,,,,,,,,,,,,,,,,,,,,,,,,,,,,,,,,,,,,,,,,,,,,,,,,,,,,,,,,,,,,,,,,,,1.5509259259949126,0.91867719999982,173.46335720000025,None,ScrollUp,정답입니다,173.46335720000025,None,173.46335720000025,None,173.46335720000025,None,173.46335720000025,None,174.24471940000012,None,174.24471940000012,174.7555784000001,,,,,,,,,,,,,,,,232,2022-06-10_14h12.24.310,FishGame,2022.1.1,60.006252651601926,
,27,넌 붙임성있어,1,Green,A,5.708333333333333,5.633333333333334,ScrollDown,ScrollUp,Green.png,1,Positive,Congruent,,,,,0,0,0,0,,,,,,,,,,,,,0,26,26,26,,,,,,,,,,,,,,,,,,,,,,,,,,,,,,,,,,,,,,,,,,,,,,,,,,,,,,,,,,,,,,,,,,,,,,,,,,,,,,,,,1.040123442808787,0.9604807999999139,175.40461760000017,None,ScrollDown,정답입니다,175.40461760000017,None,175.40461760000017,None,175.40461760000017,None,175.40461760000017,None,176.2385416000002,None,176.2385416000002,176.73859720000019,,,,,,,,,,,,,,,,232,2022-06-10_14h12.24.310,FishGame,2022.1.1,60.006252651601926,
,28,넌 영리해,2,Green,A,6,4.033333333333333,ScrollDown,ScrollUp,Green.png,1,Positive,Congruent,,,,,0,0,0,0,,,,,,,,,,,,,0,27,27,27,,,,,,,,,,,,,,,,,,,,,,,,,,,,,,,,,,,,,,,,,,,,,,,,,,,,,,,,,,,,,,,,,,,,,,,,,,,,,,,,,1.141975313425064,0.79353059999994,177.38374550000026,None,ScrollDown,정답입니다,177.38374550000026,None,177.38374550000026,None,177.38374550000026,None,177.38374550000026,None,178.0548914000001,None,178.0548914000001,178.5549417000002,,,,,,,,,,,,,,,,232,2022-06-10_14h12.24.310,FishGame,2022.1.1,60.006252651601926,
,29,넌 열심이야,1,Orange,B,6.041666666666667,5.833333333333333,ScrollUp,ScrollDown,Orange.png,1,Positive,Incongruent,,,,,0,0,0,0,,,,,,,,,,,,,0,28,28,28,,,,,,,,,,,,,,,,,,,,,,,,,,,,,,,,,,,,,,,,,,,,,,,,,,,,,,,,,,,,,,,,,,,,,,,,,,,,,,,,,1.5725308619439602,0.812323699999979,179.20554519999996,None,ScrollUp,정답입니다,179.20554519999996,None,179.20554519999996,None,179.20554519999996,None,179.20554519999996,None,179.88956430000007,None,179.88956430000007,180.40487230000008,,,,,,,,,,,,,,,,232,2022-06-10_14h12.24.310,FishGame,2022.1.1,60.006252651601926,
,30,넌 인기없어,4,Orange,B,3,3.3,ScrollUp,ScrollDown,Orange.png,1,Negative,Congruent,,,,,0,0,0,0,,,,,,,,,,,,,0,29,29,29,,,,,,,,,,,,,,,,,,,,,,,,,,,,,,,,,,,,,,,,,,,,,,,,,,,,,,,,,,,,,,,,,,,,,,,,,,,,,,,,,1.540123456468185,0.8710974999999053,181.05559889999995,None,NoResponse,무응답입니다,181.05559889999995,None,181.05559889999995,None,181.05559889999995,None,181.05559889999995,None,181.80092509999986,None,181.80092509999986,182.3045990999999,,,,,,,,,,,,,,,,232,2022-06-10_14h12.24.310,FishGame,2022.1.1,60.006252651601926,
,31,넌 익살스러워,3,Green,A,4.708333333333334,4.833333333333333,ScrollDown,ScrollUp,Green.png,1,Neutral,Neutral,,,,,0,0,0,0,,,,,,,,,,,,,0,30,30,30,,,,,,,,,,,,,,,,,,,,,,,,,,,,,,,,,,,,,,,,,,,,,,,,,,,,,,,,,,,,,,,,,,,,,,,,,,,,,,,,,1.1373456716537476,1.2495257999999012,182.95787580000024,None,ScrollDown,정답입니다,182.95787580000024,None,182.95787580000024,None,182.95787580000024,None,182.95787580000024,None,184.07638050000014,None,184.07638050000014,184.58762620000016,,,,,,,,,,,,,,,,232,2022-06-10_14h12.24.310,FishGame,2022.1.1,60.006252651601926,
,32,넌 이기적이야,5,Orange,B,2.291666666666667,2.333333333333333,ScrollUp,ScrollDown,Orange.png,1,Negative,Congruent,,,,,0,0,0,0,,,,,,,,,,,,,0,31,31,31,,,,,,,,,,,,,,,,,,,,,,,,,,,,,,,,,,,,,,,,,,,,,,,,,,,,,,,,,,,,,,,,,,,,,,,,,,,,,,,,,1.6604938258727393,0.8607958999996299,185.23253280000017,None,ScrollUp,정답입니다,185.23253280000017,None,185.23253280000017,None,185.23253280000017,None,185.23253280000017,None,185.97064170000021,None,185.97064170000021,186.47073020000016,,,,,,,,,,,,,,,,232,2022-06-10_14h12.24.310,FishGame,2022.1.1,60.006252651601926,
,33,나를 데려가줘,6,Orange,B,0,0,ScrollDown,ScrollUp,Orange.png,1,NonTarget,NonTarget,,,,,0,0,0,0,,,,,,,,,,,,,0,32,32,32,,,,,,,,,,,,,,,,,,,,,,,,,,,,,,,,,,,,,,,,,,,,,,,,,,,,,,,,,,,,,,,,,,,,,,,,,,,,,,,,,1.060185174147288,1.5291075999998611,187.11576950000017,None,ScrollDown,정답입니다,187.11576950000017,None,187.11576950000017,None,187.11576950000017,None,187.11576950000017,None,188.52034170000024,None,188.52034170000024,189.02024029999984,,,,,,,,,,,,,,,,232,2022-06-10_14h12.24.310,FishGame,2022.1.1,60.006252651601926,
,34,넌 기회주의자야,5,Green,A,2.875,2.133333333333333,ScrollDown,ScrollUp,Green.png,1,Negative,Incongruent,,,,,0,0,0,0,,,,,,,,,,,,,0,33,33,33,,,,,,,,,,,,,,,,,,,,,,,,,,,,,,,,,,,,,,,,,,,,,,,,,,,,,,,,,,,,,,,,,,,,,,,,,,,,,,,,,1.160493830839793,0.9666451999996752,189.6695150999999,None,ScrollDown,정답입니다,189.6695150999999,None,189.6695150999999,None,189.6695150999999,None,189.6695150999999,None,190.5084941,None,190.5084941,191.02019900000005,,,,,,,,,,,,,,,,232,2022-06-10_14h12.24.310,FishGame,2022.1.1,60.006252651601926,
,1,넌 미성숙해,4,Green,A,3,3.2,ScrollDown,ScrollUp,Green.png,2,Negative,Incongruent,,,,,0,0,0,0,,,,,,,,,,,,,,,,,0,0,0,0,,,,,,,,,,,,,,,,,,,,,,,,,,,,,,,,,,,,222.74952080000003,224.24928709999995,224.28260839999984,225.23242179999988,225.28255769999987,226.2324367000001,226.2324367000001,None,,,,,,,,,,,,,,,,,,,,,,,,,,,,,,,,,,1,1.5644187000002603,227.39796149999984,None,ScrollDown,정답입니다,227.39796149999984,None,227.39796149999984,None,227.39796149999984,None,227.39796149999984,None,228.8036646999999,None,228.8036646999999,229.31518140000026,191.52011420000008,None,191.52011420000008,None,0.25555557,-0.08425926,1,0,0,0.015834780000204773,None,221.51636039999994,None,,,232,2022-06-10_14h12.24.310,FishGame,2022.1.1,60.006252651601926,
,2,넌 반사회적이야,5,Orange,B,2.416666666666667,2.033333333333333,ScrollUp,ScrollDown,Orange.png,2,Negative,Congruent,,,,,0,0,0,0,,,,,,,,,,,,,,,,,0,1,1,1,,,,,,,,,,,,,,,,,,,,,,,,,,,,,,,,,,,,,,,,,,,,,,,,,,,,,,,,,,,,,,,,,,,,,,,,,,,,,1.6728395000100136,0.9506911999997101,229.97298809999984,None,ScrollUp,정답입니다,229.97298809999984,None,229.97298809999984,None,229.97298809999984,None,229.97298809999984,None,230.78711780000003,None,230.78711780000003,231.29823799999986,,,,,,,,,,,,,,,,232,2022-06-10_14h12.24.310,FishGame,2022.1.1,60.006252651601926,
,3,넌 유능해,2,Green,A,6.208333333333333,4.433333333333334,ScrollDown,ScrollUp,Green.png,2,Positive,Congruent,,,,,0,0,0,0,,,,,,,,,,,,,,,,,0,2,2,2,,,,,,,,,,,,,,,,,,,,,,,,,,,,,,,,,,,,,,,,,,,,,,,,,,,,,,,,,,,,,,,,,,,,,,,,,,,,,1.200617293516795,0.9275016999999934,231.94577260000005,None,ScrollDown,정답입니다,231.94577260000005,None,231.94577260000005,None,231.94577260000005,None,231.94577260000005,None,232.74826299999995,None,232.74826299999995,233.24814500000002,,,,,,,,,,,,,,,,232,2022-06-10_14h12.24.310,FishGame,2022.1.1,60.006252651601926,
,4,넌 능숙해,2,Orange,B,5.666666666666667,4.733333333333333,ScrollUp,ScrollDown,Orange.png,2,Positive,Incongruent,,,,,0,0,0,0,,,,,,,,,,,,,,,,,0,3,3,3,,,,,,,,,,,,,,,,,,,,,,,,,,,,,,,,,,,,,,,,,,,,,,,,,,,,,,,,,,,,,,,,,,,,,,,,,,,,,1.6388888930281005,0.9228802000002361,233.89256049999995,None,ScrollUp,정답입니다,233.89256049999995,None,233.89256049999995,None,233.89256049999995,None,233.89256049999995,None,234.6916986000001,None,234.6916986000001,235.1978739000001,,,,,,,,,,,,,,,,232,2022-06-10_14h12.24.310,FishGame,2022.1.1,60.006252651601926,
,5,넌 진부해,4,Orange,B,2.458333333333333,3.166666666666667,ScrollUp,ScrollDown,Orange.png,2,Negative,Congruent,,,,,0,0,0,0,,,,,,,,,,,,,,,,,0,4,4,4,,,,,,,,,,,,,,,,,,,,,,,,,,,,,,,,,,,,,,,,,,,,,,,,,,,,,,,,,,,,,,,,,,,,,,,,,,,,,1.560185187806686,0.8882978000001458,235.84951679999995,None,ScrollUp,정답입니다,235.84951679999995,None,235.84951679999995,None,235.84951679999995,None,235.84951679999995,None,236.60729720000018,None,236.60729720000018,237.11424609999995,,,,,,,,,,,,,,,,232,2022-06-10_14h12.24.310,FishGame,2022.1.1,60.006252651601926,
,6,나를 보내줘,6,Green,A,0,0,ScrollUp,ScrollDown,Green.png,2,NonTarget,NonTarget,,,,,0,0,0,0,,,,,,,,,,,,,,,,,0,5,5,5,,,,,,,,,,,,,,,,,,,,,,,,,,,,,,,,,,,,,,,,,,,,,,,,,,,,,,,,,,,,,,,,,,,,,,,,,,,,,1.589506171643734,1.1337043000003177,237.75500460000012,None,ScrollUp,정답입니다,237.75500460000012,None,237.75500460000012,None,237.75500460000012,None,237.75500460000012,None,238.7685851000001,None,238.7685851000001,239.28078170000026,,,,,,,,,,,,,,,,232,2022-06-10_14h12.24.310,FishGame,2022.1.1,60.006252651601926,
,7,넌 엄격해,3,Green,A,4.166666666666666,4.1,ScrollDown,ScrollUp,Green.png,2,Neutral,Neutral,,,,,0,0,0,0,,,,,,,,,,,,,,,,,0,6,6,6,,,,,,,,,,,,,,,,,,,,,,,,,,,,,,,,,,,,,,,,,,,,,,,,,,,,,,,,,,,,,,,,,,,,,,,,,,,,,1.0972222338120143,1.117018100000223,239.9295646999999,None,ScrollDown,정답입니다,239.9295646999999,None,239.9295646999999,None,239.9295646999999,None,239.9295646999999,None,240.91835070000025,None,240.91835070000025,241.43040680000013,,,,,,,,,,,,,,,,232,2022-06-10_14h12.24.310,FishGame,2022.1.1,60.006252651601926,
,8,나를 보내줘,6,Green,A,0,0,ScrollUp,ScrollDown,Green.png,2,NonTarget,NonTarget,,,,,0,0,0,0,,,,,,,,,,,,,,,,,0,7,7,7,,,,,,,,,,,,,,,,,,,,,,,,,,,,,,,,,,,,,,,,,,,,,,,,,,,,,,,,,,,,,,,,,,,,,,,,,,,,,1.6265432064731917,0.9953675000001567,242.07539970000016,None,ScrollUp,정답입니다,242.07539970000016,None,242.07539970000016,None,242.07539970000016,None,242.07539970000016,None,242.94849269999986,None,242.94849269999986,243.46337690000018,,,,,,,,,,,,,,,,232,2022-06-10_14h12.24.310,FishGame,2022.1.1,60.006252651601926,
,9,넌 대담해,3,Orange,B,4.875,4.866666666666666,ScrollUp,ScrollDown,Orange.png,2,Neutral,Neutral,,,,,0,0,0,0,,,,,,,,,,,,,,,,,0,8,8,8,,,,,,,,,,,,,,,,,,,,,,,,,,,,,,,,,,,,,,,,,,,,,,,,,,,,,,,,,,,,,,,,,,,,,,,,,,,,,1.589506171643734,0.9540638000003128,244.11601120000023,None,ScrollUp,정답입니다,244.11601120000023,None,244.11601120000023,None,244.11601120000023,None,244.11601120000023,None,244.9377330000002,None,244.9377330000002,245.4465613000002,,,,,,,,,,,,,,,,232,2022-06-10_14h12.24.310,FishGame,2022.1.1,60.006252651601926,
,10,넌 꾸준해,1,Green,A,5.916666666666668,5.8,ScrollDown,ScrollUp,Green.png,2,Positive,Congruent,,,,,0,0,0,0,,,,,,,,,,,,,,,,,0,9,9,9,,,,,,,,,,,,,,,,,,,,,,,,,,,,,,,,,,,,,,,,,,,,,,,,,,,,,,,,,,,,,,,,,,,,,,,,,,,,,1.1959876517454784,1.0145692999999483,246.09655840000005,None,ScrollDown,정답입니다,246.09655840000005,None,246.09655840000005,None,246.09655840000005,None,246.09655840000005,None,246.9820976000001,None,246.9820976000001,247.4963262000001,,,,,,,,,,,,,,,,232,2022-06-10_14h12.24.310,FishGame,2022.1.1,60.006252651601926,
,11,나를 데려가줘,6,Orange,B,0,0,ScrollDown,ScrollUp,Orange.png,2,NonTarget,NonTarget,,,,,0,0,0,0,,,,,,,,,,,,,,,,,0,10,10,10,,,,,,,,,,,,,,,,,,,,,,,,,,,,,,,,,,,,,,,,,,,,,,,,,,,,,,,,,,,,,,,,,,,,,,,,,,,,,1.1342592686414719,1.2475292999997691,248.14259489999995,None,ScrollDown,정답입니다,248.14259489999995,None,248.14259489999995,None,248.14259489999995,None,248.14259489999995,None,249.26409220000005,None,249.26409220000005,249.77935049999996,,,,,,,,,,,,,,,,232,2022-06-10_14h12.24.310,FishGame,2022.1.1,60.006252651601926,
,12,넌 독선적이야,5,Green,A,2.458333333333333,1.933333333333333,ScrollDown,ScrollUp,Green.png,2,Negative,Incongruent,,,,,0,0,0,0,,,,,,,,,,,,,,,,,0,11,11,11,,,,,,,,,,,,,,,,,,,,,,,,,,,,,,,,,,,,,,,,,,,,,,,,,,,,,,,,,,,,,,,,,,,,,,,,,,,,,1.2206790000200272,0.9963422000000719,250.43047860000024,None,ScrollDown,정답입니다,250.43047860000024,None,250.43047860000024,None,250.43047860000024,None,250.43047860000024,None,251.29698310000003,None,251.29698310000003,251.8123814999999,,,,,,,,,,,,,,,,232,2022-06-10_14h12.24.310,FishGame,2022.1.1,60.006252651601926,
,13,나를 보내줘,6,Green,A,0,0,ScrollUp,ScrollDown,Green.png,2,NonTarget,NonTarget,,,,,0,0,0,0,,,,,,,,,,,,,,,,,0,12,12,12,,,,,,,,,,,,,,,,,,,,,,,,,,,,,,,,,,,,,,,,,,,,,,,,,,,,,,,,,,,,,,,,,,,,,,,,,,,,,1.67746914178133,1.0876498000002357,252.45133910000004,None,ScrollUp,정답입니다,252.45133910000004,None,252.45133910000004,None,252.45133910000004,None,252.45133910000004,None,253.4201247000001,None,253.4201247000001,253.9286379,,,,,,,,,,,,,,,,232,2022-06-10_14h12.24.310,FishGame,2022.1.1,60.006252651601926,
,14,넌 책임감있어,1,Orange,B,6.347826086956522,6,ScrollUp,ScrollDown,Orange.png,2,Positive,Incongruent,,,,,0,0,0,0,,,,,,,,,,,,,,,,,0,13,13,13,,,,,,,,,,,,,,,,,,,,,,,,,,,,,,,,,,,,,,,,,,,,,,,,,,,,,,,,,,,,,,,,,,,,,,,,,,,,,1.629629634320736,1.2273801999999705,254.58354139999983,None,ScrollUp,정답입니다,254.58354139999983,None,254.58354139999983,None,254.58354139999983,None,254.58354139999983,None,255.67827660000012,None,255.67827660000012,256.1784845000002,,,,,,,,,,,,,,,,232,2022-06-10_14h12.24.310,FishGame,2022.1.1,60.006252651601926,
,15,넌 문학적이야,3,Green,A,4.708333333333334,4.333333333333333,ScrollDown,ScrollUp,Green.png,2,Neutral,Neutral,,,,,0,0,0,0,,,,,,,,,,,,,,,,,0,14,14,14,,,,,,,,,,,,,,,,,,,,,,,,,,,,,,,,,,,,,,,,,,,,,,,,,,,,,,,,,,,,,,,,,,,,,,,,,,,,,1.2268518557151158,0.9432225000000471,256.82788870000013,None,ScrollDown,정답입니다,256.82788870000013,None,256.82788870000013,None,256.82788870000013,None,256.82788870000013,None,257.64473050000015,None,257.64473050000015,258.1449204999999,,,,,,,,,,,,,,,,232,2022-06-10_14h12.24.310,FishGame,2022.1.1,60.006252651601926,
,16,넌 재미있어,1,Orange,B,5.875,5.7,ScrollUp,ScrollDown,Orange.png,2,Positive,Incongruent,,,,,0,0,0,0,,,,,,,,,,,,,,,,,0,15,15,15,,,,,,,,,,,,,,,,,,,,,,,,,,,,,,,,,,,,,,,,,,,,,,,,,,,,,,,,,,,,,,,,,,,,,,,,,,,,,1.4938271606030564,0.9289029999999912,258.7918494999999,None,NoResponse,무응답입니다,258.7918494999999,None,258.7918494999999,None,258.7918494999999,None,258.7918494999999,None,259.59460309999986,None,259.59460309999986,260.09467840000025,,,,,,,,,,,,,,,,232,2022-06-10_14h12.24.310,FishGame,2022.1.1,60.006252651601926,
,17,나를 데려가줘,6,Orange,B,0,0,ScrollDown,ScrollUp,Orange.png,2,NonTarget,NonTarget,,,,,0,0,0,0,,,,,,,,,,,,,,,,,0,16,16,16,,,,,,,,,,,,,,,,,,,,,,,,,,,,,,,,,,,,,,,,,,,,,,,,,,,,,,,,,,,,,,,,,,,,,,,,,,,,,1.2037036965290706,1.0376283000000512,260.74219500000027,None,ScrollDown,정답입니다,260.74219500000027,None,260.74219500000027,None,260.74219500000027,None,260.74219500000027,None,261.6538581,None,261.6538581,262.1609647,,,,,,,,,,,,,,,,232,2022-06-10_14h12.24.310,FishGame,2022.1.1,60.006252651601926,
,18,넌 협력적이야,1,Green,A,5.625,5.633333333333334,ScrollDown,ScrollUp,Green.png,2,Positive,Congruent,,,,,0,0,0,0,,,,,,,,,,,,,,,,,0,17,17,17,,,,,,,,,,,,,,,,,,,,,,,,,,,,,,,,,,,,,,,,,,,,,,,,,,,,,,,,,,,,,,,,,,,,,,,,,,,,,1.09413580596447,1.4117286999999124,262.81536300000016,None,ScrollDown,정답입니다,262.81536300000016,None,262.81536300000016,None,262.81536300000016,None,262.81536300000016,None,264.09094110000024,None,264.09094110000024,264.59414000000015,,,,,,,,,,,,,,,,232,2022-06-10_14h12.24.310,FishGame,2022.1.1,60.006252651601926,
,19,넌 평범해,3,Orange,B,4.333333333333332,4.233333333333333,ScrollUp,ScrollDown,Orange.png,2,Neutral,Neutral,,,,,0,0,0,0,,,,,,,,,,,,,,,,,0,18,18,18,,,,,,,,,,,,,,,,,,,,,,,,,,,,,,,,,,,,,,,,,,,,,,,,,,,,,,,,,,,,,,,,,,,,,,,,,,,,,1.68364197264115,1.080738200000269,265.2449741999999,None,ScrollUp,정답입니다,265.2449741999999,None,265.2449741999999,None,265.2449741999999,None,265.2449741999999,None,266.19610139999986,None,266.19610139999986,266.7104743,,,,,,,,,,,,,,,,232,2022-06-10_14h12.24.310,FishGame,2022.1.1,60.006252651601926,
,20,넌 오만해,5,Green,A,2.333333333333333,2,ScrollDown,ScrollUp,Green.png,2,Negative,Incongruent,,,,,0,0,0,0,,,,,,,,,,,,,,,,,0,19,19,19,,,,,,,,,,,,,,,,,,,,,,,,,,,,,,,,,,,,,,,,,,,,,,,,,,,,,,,,,,,,,,,,,,,,,,,,,,,,,1.2515432039896646,0.9711542000000009,267.3559012999999,None,ScrollDown,정답입니다,267.3559012999999,None,267.3559012999999,None,267.3559012999999,None,267.3559012999999,None,268.2023681999999,None,268.2023681999999,268.71029929999986,,,,,,,,,,,,,,,,232,2022-06-10_14h12.24.310,FishGame,2022.1.1,60.006252651601926,
,21,넌 운이없어,4,Orange,B,3,3.466666666666667,ScrollUp,ScrollDown,Orange.png,2,Negative,Congruent,,,,,0,0,0,0,,,,,,,,,,,,,,,,,0,20,20,20,,,,,,,,,,,,,,,,,,,,,,,,,,,,,,,,,,,,,,,,,,,,,,,,,,,,,,,,,,,,,,,,,,,,,,,,,,,,,1.6280864203969636,0.9728197999997974,269.3616643999999,None,ScrollUp,정답입니다,269.3616643999999,None,269.3616643999999,None,269.3616643999999,None,269.3616643999999,None,270.2101011999998,None,270.2101011999998,270.7099806000001,,,,,,,,,,,,,,,,232,2022-06-10_14h12.24.310,FishGame,2022.1.1,60.006252651601926,
,22,넌 창조적이야,2,Orange,B,6.125,4.633333333333334,ScrollUp,ScrollDown,Orange.png,2,Positive,Incongruent,,,,,0,0,0,0,,,,,,,,,,,,,,,,,0,21,21,21,,,,,,,,,,,,,,,,,,,,,,,,,,,,,,,,,,,,,,,,,,,,,,,,,,,,,,,,,,,,,,,,,,,,,,,,,,,,,1.6558641965190568,0.9335690000002614,271.3633669000001,None,ScrollUp,정답입니다,271.3633669000001,None,271.3633669000001,None,271.3633669000001,None,271.3633669000001,None,272.1647753000002,None,272.1647753000002,272.6763611000001,,,,,,,,,,,,,,,,232,2022-06-10_14h12.24.310,FishGame,2022.1.1,60.006252651601926,
,23,나를 보내줘,6,Green,A,0,0,ScrollUp,ScrollDown,Green.png,2,NonTarget,NonTarget,,,,,0,0,0,0,,,,,,,,,,,,,,,,,0,22,22,22,,,,,,,,,,,,,,,,,,,,,,,,,,,,,,,,,,,,,,,,,,,,,,,,,,,,,,,,,,,,,,,,,,,,,,,,,,,,,1.6697530845801034,1.0653784999999516,273.3175030000002,None,ScrollUp,정답입니다,273.3175030000002,None,273.3175030000002,None,273.3175030000002,None,273.3175030000002,None,274.2626524000002,None,274.2626524000002,274.77608340000006,,,,,,,,,,,,,,,,232,2022-06-10_14h12.24.310,FishGame,2022.1.1,60.006252651601926,
,24,넌 통찰력있어,2,Green,A,6.5,4.8,ScrollDown,ScrollUp,Green.png,2,Positive,Congruent,,,,,0,0,0,0,,,,,,,,,,,,,,,,,0,23,23,23,,,,,,,,,,,,,,,,,,,,,,,,,,,,,,,,,,,,,,,,,,,,,,,,,,,,,,,,,,,,,,,,,,,,,,,,,,,,,1.2469135870536168,0.9278990000002523,275.42321249999986,None,ScrollDown,정답입니다,275.42321249999986,None,275.42321249999986,None,275.42321249999986,None,275.42321249999986,None,276.2260633000001,None,276.2260633000001,276.72576230000004,,,,,,,,,,,,,,,,232,2022-06-10_14h12.24.310,FishGame,2022.1.1,60.006252651601926,
,25,넌 경솔해,5,Orange,B,2.458333333333333,2.266666666666667,ScrollUp,ScrollDown,Orange.png,2,Negative,Congruent,,,,,0,0,0,0,,,,,,,,,,,,,,,,,0,24,24,24,,,,,,,,,,,,,,,,,,,,,,,,,,,,,,,,,,,,,,,,,,,,,,,,,,,,,,,,,,,,,,,,,,,,,,,,,,,,,1.68364197264115,0.8568918999999369,277.3755833,None,ScrollUp,정답입니다,277.3755833,None,277.3755833,None,277.3755833,None,277.3755833,None,278.10899640000025,None,278.10899640000025,278.60894020000023,,,,,,,,,,,,,,,,232,2022-06-10_14h12.24.310,FishGame,2022.1.1,60.006252651601926,
,26,넌 초조해,4,Green,A,2.916666666666667,3.133333333333333,ScrollDown,ScrollUp,Green.png,2,Negative,Incongruent,,,,,0,0,0,0,,,,,,,,,,,,,,,,,0,25,25,25,,,,,,,,,,,,,,,,,,,,,,,,,,,,,,,,,,,,,,,,,,,,,,,,,,,,,,,,,,,,,,,,,,,,,,,,,,,,,1.3132715995113053,0.7725368999999773,279.25795019999987,None,ScrollDown,정답입니다,279.25795019999987,None,279.25795019999987,None,279.25795019999987,None,279.25795019999987,None,279.9016706000002,None,279.9016706000002,280.40880479999987,,,,,,,,,,,,,,,,232,2022-06-10_14h12.24.310,FishGame,2022.1.1,60.006252651601926,
,27,넌 무관심해,4,Orange,B,2.833333333333333,2.9,ScrollUp,ScrollDown,Orange.png,2,Negative,Congruent,,,,,0,0,0,0,,,,,,,,,,,,,,,,,0,26,26,26,,,,,,,,,,,,,,,,,,,,,,,,,,,,,,,,,,,,,,,,,,,,,,,,,,,,,,,,,,,,,,,,,,,,,,,,,,,,,1.5910493855675063,0.8985791999998582,281.06297510000013,None,ScrollUp,정답입니다,281.06297510000013,None,281.06297510000013,None,281.06297510000013,None,281.06297510000013,None,281.82940480000025,None,281.82940480000025,282.34184289999985,,,,,,,,,,,,,,,,232,2022-06-10_14h12.24.310,FishGame,2022.1.1,60.006252651601926,
,28,넌 감성적이야,3,Orange,B,4.125,4.166666666666667,ScrollUp,ScrollDown,Orange.png,2,Neutral,Neutral,,,,,0,0,0,0,,,,,,,,,,,,,,,,,0,27,27,27,,,,,,,,,,,,,,,,,,,,,,,,,,,,,,,,,,,,,,,,,,,,,,,,,,,,,,,,,,,,,,,,,,,,,,,,,,,,,1.6064814875523248,1.0143887000003815,282.98727940000026,None,ScrollUp,정답입니다,282.98727940000026,None,282.98727940000026,None,282.98727940000026,None,282.98727940000026,None,283.8772048000001,None,283.8772048000001,284.3916353999998,,,,,,,,,,,,,,,,232,2022-06-10_14h12.24.310,FishGame,2022.1.1,60.006252651601926,
,29,넌 배려심있어,1,Green,A,6.083333333333333,5.5,ScrollDown,ScrollUp,Green.png,2,Positive,Congruent,,,,,0,0,0,0,,,,,,,,,,,,,,,,,0,28,28,28,,,,,,,,,,,,,,,,,,,,,,,,,,,,,,,,,,,,,,,,,,,,,,,,,,,,,,,,,,,,,,,,,,,,,,,,,,,,,1.2175925970077515,0.830383399999846,285.0382413000002,None,ScrollDown,정답입니다,285.0382413000002,None,285.0382413000002,None,285.0382413000002,None,285.0382413000002,None,285.74327429999994,None,285.74327429999994,286.25802299999987,,,,,,,,,,,,,,,,232,2022-06-10_14h12.24.310,FishGame,2022.1.1,60.006252651601926,
,30,넌 숨김없어,3,Green,A,4.5,4.933333333333334,ScrollDown,ScrollUp,Green.png,2,Neutral,Neutral,,,,,0,0,0,0,,,,,,,,,,,,,,,,,0,29,29,29,,,,,,,,,,,,,,,,,,,,,,,,,,,,,,,,,,,,,,,,,,,,,,,,,,,,,,,,,,,,,,,,,,,,,,,,,,,,,1.3441358034809432,0.7513502000001608,286.9065952000001,None,ScrollDown,정답입니다,286.9065952000001,None,286.9065952000001,None,286.9065952000001,None,286.9065952000001,None,287.53044839999984,None,287.53044839999984,288.041158,,,,,,,,,,,,,,,,232,2022-06-10_14h12.24.310,FishGame,2022.1.1,60.006252651601926,
,31,넌 훌륭해,2,Orange,B,5.916666666666667,4.033333333333333,ScrollUp,ScrollDown,Orange.png,2,Positive,Incongruent,,,,,0,0,0,0,,,,,,,,,,,,,,,,,0,30,30,30,,,,,,,,,,,,,,,,,,,,,,,,,,,,,,,,,,,,,,,,,,,,,,,,,,,,,,,,,,,,,,,,,,,,,,,,,,,,,1.652777781089147,1.566997800000081,288.69857379999985,None,ScrollUp,정답입니다,288.69857379999985,None,288.69857379999985,None,288.69857379999985,None,288.69857379999985,None,290.12893080000003,None,290.12893080000003,290.6408252000001,,,,,,,,,,,,,,,,232,2022-06-10_14h12.24.310,FishGame,2022.1.1,60.006252651601926,
,32,넌 슬기로워,2,Green,A,6.166666666666667,4.1,ScrollDown,ScrollUp,Green.png,2,Positive,Congruent,,,,,0,0,0,0,,,,,,,,,,,,,,,,,0,31,31,31,,,,,,,,,,,,,,,,,,,,,,,,,,,,,,,,,,,,,,,,,,,,,,,,,,,,,,,,,,,,,,,,,,,,,,,,,,,,,1.248456800977389,0.8619629999998324,291.2855410000002,None,ScrollDown,정답입니다,291.2855410000002,None,291.2855410000002,None,291.2855410000002,None,291.2855410000002,None,292.02332579999984,None,292.02332579999984,292.52373510000007,,,,,,,,,,,,,,,,232,2022-06-10_14h12.24.310,FishGame,2022.1.1,60.006252651601926,
,33,넌 냉혹해,5,Green,A,2.583333333333333,2.1,ScrollDown,ScrollUp,Green.png,2,Negative,Incongruent,,,,,0,0,0,0,,,,,,,,,,,,,,,,,0,32,32,32,,,,,,,,,,,,,,,,,,,,,,,,,,,,,,,,,,,,,,,,,,,,,,,,,,,,,,,,,,,,,,,,,,,,,,,,,,,,,1.2469135870536168,0.8988048999999592,293.17072510000025,None,ScrollDown,정답입니다,293.17072510000025,None,293.17072510000025,None,293.17072510000025,None,293.17072510000025,None,293.9441938,None,293.9441938,294.4570374,,,,,,,,,,,,,,,,232,2022-06-10_14h12.24.310,FishGame,2022.1.1,60.006252651601926,
,34,나를 데려가줘,6,Orange,B,0,0,ScrollDown,ScrollUp,Orange.png,2,NonTarget,NonTarget,,,,,0,0,0,0,,,,,,,,,,,,,,,,,0,33,33,33,,,,,,,,,,,,,,,,,,,,,,,,,,,,,,,,,,,,,,,,,,,,,,,,,,,,,,,,,,,,,,,,,,,,,,,,,,,,,1.1790123482545216,1.0616179000003285,295.1030661,None,ScrollDown,정답입니다,295.1030661,None,295.1030661,None,295.1030661,None,295.1030661,None,296.0397883999999,None,296.0397883999999,296.539992,,,,,,,,,,,,,,,,232,2022-06-10_14h12.24.310,FishGame,2022.1.1,60.006252651601926,
,35,넌 편파적이야,5,Orange,B,2.125,2,ScrollUp,ScrollDown,Orange.png,2,Negative,Congruent,,,,,0,0,0,0,,,,,,,,,,,,,,,,,0,34,34,34,,,,,,,,,,,,,,,,,,,,,,,,,,,,,,,,,,,,,,,,,,,,,,,,,,,,,,,,,,,,,,,,,,,,,,,,,,,,,1.6358024651805558,0.9560079000002588,297.19510089999994,None,ScrollUp,정답입니다,297.19510089999994,None,297.19510089999994,None,297.19510089999994,None,297.19510089999994,None,298.0160513000001,None,298.0160513000001,298.52306020000015,,,,,,,,,,,,,,,,232,2022-06-10_14h12.24.310,FishGame,2022.1.1,60.006252651601926,
,36,넌 슬퍼,4,Green,A,2.583333333333333,3.066666666666667,ScrollDown,ScrollUp,Green.png,2,Negative,Incongruent,,,,,0,0,0,0,,,,,,,,,,,,,,,,,0,35,35,35,,,,,,,,,,,,,,,,,,,,,,,,,,,,,,,,,,,,,,,,,,,,,,,,,,,,,,,,,,,,,,,,,,,,,,,,,,,,,1.1450617164373398,0.9168491000000358,299.16281830000025,None,ScrollDown,정답입니다,299.16281830000025,None,299.16281830000025,None,299.16281830000025,None,299.16281830000025,None,299.9610229,None,299.9610229,300.47293100000024,,,,,,,,,,,,,,,,232,2022-06-10_14h12.24.310,FishGame,2022.1.1,60.006252651601926,
,37,나를 데려가줘,6,Orange,B,0,0,ScrollDown,ScrollUp,Orange.png,2,NonTarget,NonTarget,,,,,0,0,0,0,,,,,,,,,,,,,,,,,0,36,36,36,,,,,,,,,,,,,,,,,,,,,,,,,,,,,,,,,,,,,,,,,,,,,,,,,,,,,,,,,,,,,,,,,,,,,,,,,,,,,1.0709876716136932,1.032491299999947,301.11776439999994,None,ScrollDown,정답입니다,301.11776439999994,None,301.11776439999994,None,301.11776439999994,None,301.11776439999994,None,302.02633909999986,None,302.02633909999986,302.53919780000024,,,,,,,,,,,,,,,,232,2022-06-10_14h12.24.310,FishGame,2022.1.1,60.006252651601926,
,38,넌 친절해,1,Orange,B,6.041666666666667,5.533333333333333,ScrollUp,ScrollDown,Orange.png,2,Positive,Incongruent,,,,,0,0,0,0,,,,,,,,,,,,,,,,,0,37,37,37,,,,,,,,,,,,,,,,,,,,,,,,,,,,,,,,,,,,,,,,,,,,,,,,,,,,,,,,,,,,,,,,,,,,,,,,,,,,,1.609567902982235,0.9676514999996471,303.1944675999998,None,ScrollUp,정답입니다,303.1944675999998,None,303.1944675999998,None,303.1944675999998,None,303.1944675999998,None,304.0273806,None,304.0273806,304.53903040000023,,,,,,,,,,,,,,,,232,2022-06-10_14h12.24.310,FishGame,2022.1.1,60.006252651601926,
,1,넌 엉성해,4,Green,A,3,3.3,ScrollDown,ScrollUp,Green.png,3,Negative,Incongruent,,,,,0,0,0,0,,,,,,,,,,,,,,,,,,,,,0,0,0,0,,,,,,,,,,,,,,,,,,,,,,,,,,,,,,,,336.18502620000027,337.68477870000015,337.71814540000014,338.66808070000025,338.7180847999998,339.66773680000006,339.66773680000006,None,,,,,,,,,,,,,,,,,,,,,,,,,,,,,,,,,,1.212962955236435,1.260248799999772,340.8404660000001,None,ScrollDown,정답입니다,340.8404660000001,None,340.8404660000001,None,340.8404660000001,None,340.8404660000001,None,341.9362916,None,341.9362916,342.4507864000002,305.03887669999995,None,305.03887669999995,None,0.108333334,-0.027777778,1,0,0,0.016163679999863234,None,335.0350484999999,None,,,232,2022-06-10_14h12.24.310,FishGame,2022.1.1,60.006252651601926,
,2,나를 보내줘,6,Green,A,0,0,ScrollUp,ScrollDown,Green.png,3,NonTarget,NonTarget,,,,,0,0,0,0,,,,,,,,,,,,,,,,,,,,,0,1,1,1,,,,,,,,,,,,,,,,,,,,,,,,,,,,,,,,,,,,,,,,,,,,,,,,,,,,,,,,,,,,,,,,,,,,,,,,,1.6959876591960588,0.9887170000001788,343.0894870000002,None,ScrollUp,정답입니다,343.0894870000002,None,343.0894870000002,None,343.0894870000002,None,343.0894870000002,None,343.9592845000002,None,343.9592845000002,344.4671352999999,,,,,,,,,,,,,,,,232,2022-06-10_14h12.24.310,FishGame,2022.1.1,60.006252651601926,
,3,넌 활발해,1,Orange,B,5.666666666666667,5.6,ScrollUp,ScrollDown,Orange.png,3,Positive,Incongruent,,,,,0,0,0,0,,,,,,,,,,,,,,,,,,,,,0,2,2,2,,,,,,,,,,,,,,,,,,,,,,,,,,,,,,,,,,,,,,,,,,,,,,,,,,,,,,,,,,,,,,,,,,,,,,,,,1.5956790149211884,1.0540753000000223,345.1216995,None,ScrollUp,정답입니다,345.1216995,None,345.1216995,None,345.1216995,None,345.1216995,None,346.0411425000002,None,346.0411425000002,346.5501460999999,,,,,,,,,,,,,,,,232,2022-06-10_14h12.24.310,FishGame,2022.1.1,60.006252651601926,
,4,넌 논리적이야,2,Green,A,5.666666666666666,4.633333333333334,ScrollDown,ScrollUp,Green.png,3,Positive,Congruent,,,,,0,0,0,0,,,,,,,,,,,,,,,,,,,,,0,3,3,3,,,,,,,,,,,,,,,,,,,,,,,,,,,,,,,,,,,,,,,,,,,,,,,,,,,,,,,,,,,,,,,,,,,,,,,,,1.3611111069718995,0.8482170000002043,347.19830420000017,None,ScrollDown,정답입니다,347.19830420000017,None,347.19830420000017,None,347.19830420000017,None,347.19830420000017,None,347.91929040000014,None,347.91929040000014,348.4334312000001,,,,,,,,,,,,,,,,232,2022-06-10_14h12.24.310,FishGame,2022.1.1,60.006252651601926,
,5,넌 과묵해,3,Green,A,3.875,4.4,ScrollDown,ScrollUp,Green.png,3,Neutral,Neutral,,,,,0,0,0,0,,,,,,,,,,,,,,,,,,,,,0,4,4,4,,,,,,,,,,,,,,,,,,,,,,,,,,,,,,,,,,,,,,,,,,,,,,,,,,,,,,,,,,,,,,,,,,,,,,,,,1.4135802499949932,0.7491062000003694,349.07985400000007,None,ScrollDown,정답입니다,349.07985400000007,None,349.07985400000007,None,349.07985400000007,None,349.07985400000007,None,349.70283849999987,None,349.70283849999987,350.216367,,,,,,,,,,,,,,,,232,2022-06-10_14h12.24.310,FishGame,2022.1.1,60.006252651601926,
,6,나를 데려가줘,6,Orange,B,0,0,ScrollDown,ScrollUp,Orange.png,3,NonTarget,NonTarget,,,,,0,0,0,0,,,,,,,,,,,,,,,,,,,,,0,5,5,5,,,,,,,,,,,,,,,,,,,,,,,,,,,,,,,,,,,,,,,,,,,,,,,,,,,,,,,,,,,,,,,,,,,,,,,,,1.1990740795930226,1.651116600000023,350.86390530000017,None,ScrollDown,정답입니다,350.86390530000017,None,350.86390530000017,None,350.86390530000017,None,350.86390530000017,None,352.38758199999984,None,352.38758199999984,352.8994226,,,,,,,,,,,,,,,,232,2022-06-10_14h12.24.310,FishGame,2022.1.1,60.006252651601926,
,7,넌 미숙해,4,Orange,B,3,3,ScrollUp,ScrollDown,Orange.png,3,Negative,Congruent,,,,,0,0,0,0,,,,,,,,,,,,,,,,,,,,,0,6,6,6,,,,,,,,,,,,,,,,,,,,,,,,,,,,,,,,,,,,,,,,,,,,,,,,,,,,,,,,,,,,,,,,,,,,,,,,,1.6820987711350122,0.9015908000001218,353.5444338000002,None,ScrollUp,정답입니다,353.5444338000002,None,353.5444338000002,None,353.5444338000002,None,353.5444338000002,None,354.3215479999999,None,354.3215479999999,354.83248289999983,,,,,,,,,,,,,,,,232,2022-06-10_14h12.24.310,FishGame,2022.1.1,60.006252651601926,
,8,나를 보내줘,6,Green,A,0,0,ScrollUp,ScrollDown,Green.png,3,NonTarget,NonTarget,,,,,0,0,0,0,,,,,,,,,,,,,,,,,,,,,0,7,7,7,,,,,,,,,,,,,,,,,,,,,,,,,,,,,,,,,,,,,,,,,,,,,,,,,,,,,,,,,,,,,,,,,,,,,,,,,1.6944444452722869,1.0115835999999945,355.47319890000017,None,ScrollUp,정답입니다,355.47319890000017,None,355.47319890000017,None,355.47319890000017,None,355.47319890000017,None,356.3626210000002,None,356.3626210000002,356.86570500000016,,,,,,,,,,,,,,,,232,2022-06-10_14h12.24.310,FishGame,2022.1.1,60.006252651601926,
,9,넌 자신만만해,3,Orange,B,4.833333333333334,4.333333333333333,ScrollUp,ScrollDown,Orange.png,3,Neutral,Neutral,,,,,0,0,0,0,,,,,,,,,,,,,,,,,,,,,0,8,8,8,,,,,,,,,,,,,,,,,,,,,,,,,,,,,,,,,,,,,,,,,,,,,,,,,,,,,,,,,,,,,,,,,,,,,,,,,1.594135800997416,1.0544034000004103,357.50988180000013,None,ScrollUp,정답입니다,357.50988180000013,None,357.50988180000013,None,357.50988180000013,None,357.50988180000013,None,358.43996719999996,None,358.43996719999996,358.94861649999984,,,,,,,,,,,,,,,,232,2022-06-10_14h12.24.310,FishGame,2022.1.1,60.006252651601926,
,10,넌 탐욕스러워,5,Green,A,2.25,2.1,ScrollDown,ScrollUp,Green.png,3,Negative,Incongruent,,,,,0,0,0,0,,,,,,,,,,,,,,,,,,,,,0,9,9,9,,,,,,,,,,,,,,,,,,,,,,,,,,,,,,,,,,,,,,,,,,,,,,,,,,,,,,,,,,,,,,,,,,,,,,,,,1.160493830839793,1.5728056999996625,359.59894399999985,None,ScrollDown,정답입니다,359.59894399999985,None,359.59894399999985,None,359.59894399999985,None,359.59894399999985,None,361.0412458999999,None,361.0412458999999,361.54830730000003,,,,,,,,,,,,,,,,232,2022-06-10_14h12.24.310,FishGame,2022.1.1,60.006252651601926,
,11,넌 인기있어,2,Green,A,5.458333333333333,4.5,ScrollDown,ScrollUp,Green.png,3,Positive,Congruent,,,,,0,0,0,0,,,,,,,,,,,,,,,,,,,,,0,10,10,10,,,,,,,,,,,,,,,,,,,,,,,,,,,,,,,,,,,,,,,,,,,,,,,,,,,,,,,,,,,,,,,,,,,,,,,,,1.1589506169160206,0.9375420000001213,362.1878163000001,None,ScrollDown,정답입니다,362.1878163000001,None,362.1878163000001,None,362.1878163000001,None,362.1878163000001,None,363.0057133999999,None,363.0057133999999,363.5148389000001,,,,,,,,,,,,,,,,232,2022-06-10_14h12.24.310,FishGame,2022.1.1,60.006252651601926,
,12,나를 데려가줘,6,Orange,B,0,0,ScrollDown,ScrollUp,Orange.png,3,NonTarget,NonTarget,,,,,0,0,0,0,,,,,,,,,,,,,,,,,,,,,0,11,11,11,,,,,,,,,,,,,,,,,,,,,,,,,,,,,,,,,,,,,,,,,,,,,,,,,,,,,,,,,,,,,,,,,,,,,,,,,1.0679012437661488,1.115026299999954,364.1592402000001,None,ScrollDown,정답입니다,364.1592402000001,None,364.1592402000001,None,364.1592402000001,None,364.1592402000001,None,365.15041139999994,None,365.15041139999994,365.66443990000016,,,,,,,,,,,,,,,,232,2022-06-10_14h12.24.310,FishGame,2022.1.1,60.006252651601926,
,13,넌 뛰어나,2,Orange,B,6.166666666666667,4,ScrollUp,ScrollDown,Orange.png,3,Positive,Incongruent,,,,,0,0,0,0,,,,,,,,,,,,,,,,,,,,,0,12,12,12,,,,,,,,,,,,,,,,,,,,,,,,,,,,,,,,,,,,,,,,,,,,,,,,,,,,,,,,,,,,,,,,,,,,,,,,,1.702160490055879,0.9489824000002045,366.3186719999999,None,ScrollUp,정답입니다,366.3186719999999,None,366.3186719999999,None,366.3186719999999,None,366.3186719999999,None,367.1343442000002,None,367.1343442000002,367.64761899999985,,,,,,,,,,,,,,,,232,2022-06-10_14h12.24.310,FishGame,2022.1.1,60.006252651601926,
,14,넌 낙관적이야,1,Green,A,5.75,5.8,ScrollDown,ScrollUp,Green.png,3,Positive,Congruent,,,,,0,0,0,0,,,,,,,,,,,,,,,,,,,,,0,13,13,13,,,,,,,,,,,,,,,,,,,,,,,,,,,,,,,,,,,,,,,,,,,,,,,,,,,,,,,,,,,,,,,,,,,,,,,,,1.2175925970077515,0.8771517000000131,368.2975786000002,None,ScrollDown,정답입니다,368.2975786000002,None,368.2975786000002,None,368.2975786000002,None,368.2975786000002,None,369.0471499,None,369.0471499,369.5472270999999,,,,,,,,,,,,,,,,232,2022-06-10_14h12.24.310,FishGame,2022.1.1,60.006252651601926,
,15,넌 산만해,4,Orange,B,2.695652173913043,3.033333333333333,ScrollUp,ScrollDown,Orange.png,3,Negative,Congruent,,,,,0,0,0,0,,,,,,,,,,,,,,,,,,,,,0,14,14,14,,,,,,,,,,,,,,,,,,,,,,,,,,,,,,,,,,,,,,,,,,,,,,,,,,,,,,,,,,,,,,,,,,,,,,,,,1.6388888930281005,0.8345006999998077,370.1984845000002,None,ScrollUp,정답입니다,370.1984845000002,None,370.1984845000002,None,370.1984845000002,None,370.1984845000002,None,370.9019333000001,None,370.9019333000001,371.4138349,,,,,,,,,,,,,,,,232,2022-06-10_14h12.24.310,FishGame,2022.1.1,60.006252651601926,
,16,나를 보내줘,6,Green,A,0,0,ScrollUp,ScrollDown,Green.png,3,NonTarget,NonTarget,,,,,0,0,0,0,,,,,,,,,,,,,,,,,,,,,0,15,15,15,,,,,,,,,,,,,,,,,,,,,,,,,,,,,,,,,,,,,,,,,,,,,,,,,,,,,,,,,,,,,,,,,,,,,,,,,1.7592592686414719,1.0108738999997513,372.0531538,None,ScrollUp,정답입니다,372.0531538,None,372.0531538,None,372.0531538,None,372.0531538,None,372.9469632999999,None,372.9469632999999,373.44679610000003,,,,,,,,,,,,,,,,232,2022-06-10_14h12.24.310,FishGame,2022.1.1,60.006252651601926,
,17,넌 교활해,5,Orange,B,2.333333333333333,2.133333333333333,ScrollUp,ScrollDown,Orange.png,3,Negative,Congruent,,,,,0,0,0,0,,,,,,,,,,,,,,,,,,,,,0,16,16,16,,,,,,,,,,,,,,,,,,,,,,,,,,,,,,,,,,,,,,,,,,,,,,,,,,,,,,,,,,,,,,,,,,,,,,,,,1.7623456716537476,0.9316227999997864,374.09302909999997,None,ScrollUp,정답입니다,374.09302909999997,None,374.09302909999997,None,374.09302909999997,None,374.09302909999997,None,374.90031009999984,None,374.90031009999984,375.41324110000005,,,,,,,,,,,,,,,,232,2022-06-10_14h12.24.310,FishGame,2022.1.1,60.006252651601926,
,18,나를 보내줘,6,Green,A,0,0,ScrollUp,ScrollDown,Green.png,3,NonTarget,NonTarget,,,,,0,0,0,0,,,,,,,,,,,,,,,,,,,,,0,17,17,17,,,,,,,,,,,,,,,,,,,,,,,,,,,,,,,,,,,,,,,,,,,,,,,,,,,,,,,,,,,,,,,,,,,,,,,,,1.8765432039896648,1.0565458000000945,376.05229169999984,None,ScrollUp,정답입니다,376.05229169999984,None,376.05229169999984,None,376.05229169999984,None,376.05229169999984,None,376.98916659999986,None,376.98916659999986,377.4964611999999,,,,,,,,,,,,,,,,232,2022-06-10_14h12.24.310,FishGame,2022.1.1,60.006252651601926,
,19,넌 불친절해,5,Orange,B,2.208333333333333,2.033333333333333,ScrollUp,ScrollDown,Orange.png,3,Negative,Congruent,,,,,0,0,0,0,,,,,,,,,,,,,,,,,,,,,0,18,18,18,,,,,,,,,,,,,,,,,,,,,,,,,,,,,,,,,,,,,,,,,,,,,,,,,,,,,,,,,,,,,,,,,,,,,,,,,1.8148148208856583,0.9455405000003339,378.1533955,None,ScrollUp,정답입니다,378.1533955,None,378.1533955,None,378.1533955,None,378.1533955,None,378.96286680000003,None,378.96286680000003,379.4626609000002,,,,,,,,,,,,,,,,232,2022-06-10_14h12.24.310,FishGame,2022.1.1,60.006252651601926,
,20,넌 지적이야,2,Orange,B,5.75,4.366666666666666,ScrollUp,ScrollDown,Orange.png,3,Positive,Incongruent,,,,,0,0,0,0,,,,,,,,,,,,,,,,,,,,,0,19,19,19,,,,,,,,,,,,,,,,,,,,,,,,,,,,,,,,,,,,,,,,,,,,,,,,,,,,,,,,,,,,,,,,,,,,,,,,,1.7160493781169257,0.8205164999999397,380.1091703000002,None,ScrollUp,정답입니다,380.1091703000002,None,380.1091703000002,None,380.1091703000002,None,380.1091703000002,None,380.80377750000025,None,380.80377750000025,381.3125863999999,,,,,,,,,,,,,,,,232,2022-06-10_14h12.24.310,FishGame,2022.1.1,60.006252651601926,
,21,넌 우유부단해,4,Green,A,2.666666666666667,3.166666666666667,ScrollDown,ScrollUp,Green.png,3,Negative,Incongruent,,,,,0,0,0,0,,,,,,,,,,,,,,,,,,,,,0,20,20,20,,,,,,,,,,,,,,,,,,,,,,,,,,,,,,,,,,,,,,,,,,,,,,,,,,,,,,,,,,,,,,,,,,,,,,,,,1.297839509944121,0.9193560999997317,381.9619496999999,None,ScrollDown,정답입니다,381.9619496999999,None,381.9619496999999,None,381.9619496999999,None,381.9619496999999,None,382.75135050000017,None,382.75135050000017,383.2623146000001,,,,,,,,,,,,,,,,232,2022-06-10_14h12.24.310,FishGame,2022.1.1,60.006252651601926,
,22,나를 데려가줘,6,Orange,B,0,0,ScrollDown,ScrollUp,Orange.png,3,NonTarget,NonTarget,,,,,0,0,0,0,,,,,,,,,,,,,,,,,,,,,0,21,21,21,,,,,,,,,,,,,,,,,,,,,,,,,,,,,,,,,,,,,,,,,,,,,,,,,,,,,,,,,,,,,,,,,,,,,,,,,1.2422839452823002,1.0324181000000863,383.90868439999986,None,ScrollDown,정답입니다,383.90868439999986,None,383.90868439999986,None,383.90868439999986,None,383.90868439999986,None,384.8159224000001,None,384.8159224000001,385.3287178999999,,,,,,,,,,,,,,,,232,2022-06-10_14h12.24.310,FishGame,2022.1.1,60.006252651601926,
,23,넌 성실해,1,Orange,B,6.041666666666666,5.7,ScrollUp,ScrollDown,Orange.png,3,Positive,Incongruent,,,,,0,0,0,0,,,,,,,,,,,,,,,,,,,,,0,22,22,22,,,,,,,,,,,,,,,,,,,,,,,,,,,,,,,,,,,,,,,,,,,,,,,,,,,,,,,,,,,,,,,,,,,,,,,,,1.7685185273488362,0.9514016000002812,385.97545100000025,None,ScrollUp,정답입니다,385.97545100000025,None,385.97545100000025,None,385.97545100000025,None,385.97545100000025,None,386.7999485,None,386.7999485,387.31180730000005,,,,,,,,,,,,,,,,232,2022-06-10_14h12.24.310,FishGame,2022.1.1,60.006252651601926,
,24,넌 현실주의적이야,3,Green,A,4.625,4.4,ScrollDown,ScrollUp,Green.png,3,Neutral,Neutral,,,,,0,0,0,0,,,,,,,,,,,,,,,,,,,,,0,23,23,23,,,,,,,,,,,,,,,,,,,,,,,,,,,,,,,,,,,,,,,,,,,,,,,,,,,,,,,,,,,,,,,,,,,,,,,,,1.3024691392978034,0.7771420999997645,387.9528955999999,None,ScrollDown,정답입니다,387.9528955999999,None,387.9528955999999,None,387.9528955999999,None,387.9528955999999,None,388.6079771999998,None,388.6079771999998,389.11160689999997,,,,,,,,,,,,,,,,232,2022-06-10_14h12.24.310,FishGame,2022.1.1,60.006252651601926,
,25,넌 진실돼,1,Green,A,6.625,5.566666666666666,ScrollDown,ScrollUp,Green.png,3,Positive,Congruent,,,,,0,0,0,0,,,,,,,,,,,,,,,,,,,,,0,24,24,24,,,,,,,,,,,,,,,,,,,,,,,,,,,,,,,,,,,,,,,,,,,,,,,,,,,,,,,,,,,,,,,,,,,,,,,,,1.2222222139437993,0.8450724999997874,389.75607230000014,None,ScrollDown,정답입니다,389.75607230000014,None,389.75607230000014,None,389.75607230000014,None,389.75607230000014,None,390.4778759000001,None,390.4778759000001,390.9780888999999,,,,,,,,,,,,,,,,232,2022-06-10_14h12.24.310,FishGame,2022.1.1,60.006252651601926,
,26,넌 천진난만해,3,Orange,B,4.958333333333334,4.833333333333333,ScrollUp,ScrollDown,Orange.png,3,Neutral,Neutral,,,,,0,0,0,0,,,,,,,,,,,,,,,,,,,,,0,25,25,25,,,,,,,,,,,,,,,,,,,,,,,,,,,,,,,,,,,,,,,,,,,,,,,,,,,,,,,,,,,,,,,,,,,,,,,,,1.7314814925193787,0.8778399000002537,391.62609729999986,None,ScrollUp,정답입니다,391.62609729999986,None,391.62609729999986,None,391.62609729999986,None,391.62609729999986,None,392.3743669999999,None,392.3743669999999,392.87786890000007,,,,,,,,,,,,,,,,232,2022-06-10_14h12.24.310,FishGame,2022.1.1,60.006252651601926,
,27,넌 교양없어,5,Green,A,2.416666666666667,2.2,ScrollDown,ScrollUp,Green.png,3,Negative,Incongruent,,,,,0,0,0,0,,,,,,,,,,,,,,,,,,,,,0,26,26,26,,,,,,,,,,,,,,,,,,,,,,,,,,,,,,,,,,,,,,,,,,,,,,,,,,,,,,,,,,,,,,,,,,,,,,,,,1.3070987686514854,1.5050756000000547,393.5230504000001,None,ScrollDown,정답입니다,393.5230504000001,None,393.5230504000001,None,393.5230504000001,None,393.5230504000001,None,394.9032161,None,394.9032161,395.4107677000002,,,,,,,,,,,,,,,,232,2022-06-10_14h12.24.310,FishGame,2022.1.1,60.006252651601926,
,28,나를 보내줘,6,Green,A,0,0,ScrollUp,ScrollDown,Green.png,3,NonTarget,NonTarget,,,,,0,0,0,0,,,,,,,,,,,,,,,,,,,,,0,27,27,27,,,,,,,,,,,,,,,,,,,,,,,,,,,,,,,,,,,,,,,,,,,,,,,,,,,,,,,,,,,,,,,,,,,,,,,,,1.7916666616996129,0.9770619000000806,396.05033950000006,None,ScrollUp,정답입니다,396.05033950000006,None,396.05033950000006,None,396.05033950000006,None,396.05033950000006,None,396.9106256,None,396.9106256,397.41058729999986,,,,,,,,,,,,,,,,232,2022-06-10_14h12.24.310,FishGame,2022.1.1,60.006252651601926,
,29,넌 엉뚱스러워,3,Green,A,4.166666666666667,4.133333333333334,ScrollDown,ScrollUp,Green.png,3,Neutral,Neutral,,,,,0,0,0,0,,,,,,,,,,,,,,,,,,,,,0,28,28,28,,,,,,,,,,,,,,,,,,,,,,,,,,,,,,,,,,,,,,,,,,,,,,,,,,,,,,,,,,,,,,,,,,,,,,,,,1.0632716019948323,1.405203899999833,398.0574510000001,None,ScrollDown,정답입니다,398.0574510000001,None,398.0574510000001,None,398.0574510000001,None,398.0574510000001,None,399.3362407999998,None,399.3362407999998,399.84353450000026,,,,,,,,,,,,,,,,232,2022-06-10_14h12.24.310,FishGame,2022.1.1,60.006252651601926,
,30,넌 무지해,4,Orange,B,2.541666666666667,3.066666666666667,ScrollUp,ScrollDown,Orange.png,3,Negative,Congruent,,,,,0,0,0,0,,,,,,,,,,,,,,,,,,,,,0,29,29,29,,,,,,,,,,,,,,,,,,,,,,,,,,,,,,,,,,,,,,,,,,,,,,,,,,,,,,,,,,,,,,,,,,,,,,,,,1.743827154239019,1.038954200000262,400.48337790000005,None,ScrollUp,정답입니다,400.48337790000005,None,400.48337790000005,None,400.48337790000005,None,400.48337790000005,None,401.4023621000001,None,401.4023621000001,401.9100036,,,,,,,,,,,,,,,,232,2022-06-10_14h12.24.310,FishGame,2022.1.1,60.006252651601926,
,31,넌 음울해,5,Orange,B,2.25,2.233333333333333,ScrollUp,ScrollDown,Orange.png,3,Negative,Congruent,,,,,0,0,0,0,,,,,,,,,,,,,,,,,,,,,0,30,30,30,,,,,,,,,,,,,,,,,,,,,,,,,,,,,,,,,,,,,,,,,,,,,,,,,,,,,,,,,,,,,,,,,,,,,,,,,1.8302469104528427,0.9213230000000294,402.5652685,None,ScrollUp,정답입니다,402.5652685,None,402.5652685,None,402.5652685,None,402.5652685,None,403.3512203,None,403.3512203,403.8597576000002,,,,,,,,,,,,,,,,232,2022-06-10_14h12.24.310,FishGame,2022.1.1,60.006252651601926,
,32,넌 냉소적이야,5,Green,A,2.916666666666667,2.4,ScrollDown,ScrollUp,Green.png,3,Negative,Incongruent,,,,,0,0,0,0,,,,,,,,,,,,,,,,,,,,,0,31,31,31,,,,,,,,,,,,,,,,,,,,,,,,,,,,,,,,,,,,,,,,,,,,,,,,,,,,,,,,,,,,,,,,,,,,,,,,,1.233024686574936,0.8221426000000065,404.5026238999999,None,ScrollDown,정답입니다,404.5026238999999,None,404.5026238999999,None,404.5026238999999,None,404.5026238999999,None,405.20205829999986,None,405.20205829999986,405.7094594,,,,,,,,,,,,,,,,232,2022-06-10_14h12.24.310,FishGame,2022.1.1,60.006252651601926,
,33,나를 데려가줘,6,Orange,B,0,0,ScrollDown,ScrollUp,Orange.png,3,NonTarget,NonTarget,,,,,0,0,0,0,,,,,,,,,,,,,,,,,,,,,0,32,32,32,,,,,,,,,,,,,,,,,,,,,,,,,,,,,,,,,,,,,,,,,,,,,,,,,,,,,,,,,,,,,,,,,,,,,,,,,1,1.0883103999999548,406.3560570999998,None,ScrollDown,정답입니다,406.3560570999998,None,406.3560570999998,None,406.3560570999998,None,406.3560570999998,None,407.3173049000002,None,407.3173049000002,407.82580659999985,,,,,,,,,,,,,,,,232,2022-06-10_14h12.24.310,FishGame,2022.1.1,60.006252651601926,
,34,넌 쾌활해,1,Green,A,5.541666666666666,5.733333333333333,ScrollDown,ScrollUp,Green.png,3,Positive,Congruent,,,,,0,0,0,0,,,,,,,,,,,,,,,,,,,,,0,33,33,33,,,,,,,,,,,,,,,,,,,,,,,,,,,,,,,,,,,,,,,,,,,,,,,,,,,,,,,,,,,,,,,,,,,,,,,,,1.2407407313585281,0.9293477000001076,408.46963229999983,None,ScrollDown,정답입니다,408.46963229999983,None,408.46963229999983,None,408.46963229999983,None,408.46963229999983,None,409.27575960000013,None,409.27575960000013,409.7754570000002,,,,,,,,,,,,,,,,232,2022-06-10_14h12.24.310,FishGame,2022.1.1,60.006252651601926,
,35,나를 보내줘,6,Green,A,0,0,ScrollUp,ScrollDown,Green.png,3,NonTarget,NonTarget,,,,,0,0,0,0,,,,,,,,,,,,,,,,,,,,,0,34,34,34,,,,,,,,,,,,,,,,,,,,,,,,,,,,,,,,,,,,,,,,,,,,,,,,,,,,,,,,,,,,,,,,,,,,,,,,,1.7885802586873372,1.2718239000000722,410.4170051000001,None,ScrollUp,정답입니다,410.4170051000001,None,410.4170051000001,None,410.4170051000001,None,410.4170051000001,None,411.56789560000016,None,411.56789560000016,412.0753169999998,,,,,,,,,,,,,,,,232,2022-06-10_14h12.24.310,FishGame,2022.1.1,60.006252651601926,
,36,넌 명랑해,1,Orange,B,5.739130434782609,5.666666666666667,ScrollUp,ScrollDown,Orange.png,3,Positive,Incongruent,,,,,0,0,0,0,,,,,,,,,,,,,,,,,,,,,0,35,35,35,,,,,,,,,,,,,,,,,,,,,,,,,,,,,,,,,,,,,,,,,,,,,,,,,,,,,,,,,,,,,,,,,,,,,,,,,1.7808641890684764,1.0259304000001066,412.7255736000002,None,ScrollUp,정답입니다,412.7255736000002,None,412.7255736000002,None,412.7255736000002,None,412.7255736000002,None,413.62481160000016,None,413.62481160000016,414.1251652000001,,,,,,,,,,,,,,,,232,2022-06-10_14h12.24.310,FishGame,2022.1.1,60.006252651601926,
,37,넌 멍해,4,Green,A,2.833333333333333,3.4,ScrollDown,ScrollUp,Green.png,3,Negative,Incongruent,,,,,0,0,0,0,,,,,,,,,,,,,,,,,,,,,0,36,36,36,,,,,,,,,,,,,,,,,,,,,,,,,,,,,,,,,,,,,,,,,,,,,,,,,,,,,,,,,,,,,,,,,,,,,,,,,1.0740740497907002,0.9607809999997698,414.7722646000002,None,ScrollDown,정답입니다,414.7722646000002,None,414.7722646000002,None,414.7722646000002,None,414.7722646000002,None,415.6081829,None,415.6081829,416.10817529999986,,,,,,,,,,,,,,,,232,2022-06-10_14h12.24.310,FishGame,2022.1.1,60.006252651601926,
,38,나를 데려가줘,6,Orange,B,0,0,ScrollDown,ScrollUp,Orange.png,3,NonTarget,NonTarget,,,,,0,0,0,0,,,,,,,,,,,,,,,,,,,,,0,37,37,37,,,,,,,,,,,,,,,,,,,,,,,,,,,,,,,,,,,,,,,,,,,,,,,,,,,,,,,,,,,,,,,,,,,,,,,,,1.0185184975465138,1.0056517000002714,416.75519710000026,None,ScrollDown,정답입니다,416.75519710000026,None,416.75519710000026,None,416.75519710000026,None,416.75519710000026,None,417.63367359999984,None,417.63367359999984,418.1413262000001,,,,,,,,,,,,,,,,232,2022-06-10_14h12.24.310,FishGame,2022.1.1,60.006252651601926,
,39,넌 현명해,2,Green,A,6.541666666666666,4.533333333333333,ScrollDown,ScrollUp,Green.png,3,Positive,Congruent,,,,,0,0,0,0,,,,,,,,,,,,,,,,,,,,,0,38,38,38,,,,,,,,,,,,,,,,,,,,,,,,,,,,,,,,,,,,,,,,,,,,,,,,,,,,,,,,,,,,,,,,,,,,,,,,,1.0462962985038757,0.9829915999998775,418.78169819999994,None,ScrollDown,정답입니다,418.78169819999994,None,418.78169819999994,None,418.78169819999994,None,418.78169819999994,None,419.645176,None,419.645176,420.15741479999997,,,,,,,,,,,,,,,,232,2022-06-10_14h12.24.310,FishGame,2022.1.1,60.006252651601926,
,40,넌 수줍어,3,Orange,B,3.541666666666666,4.366666666666666,ScrollUp,ScrollDown,Orange.png,3,Neutral,Neutral,,,,,0,0,0,0,,,,,,,,,,,,,,,,,,,,,0,39,39,39,,,,,,,,,,,,,,,,,,,,,,,,,,,,,,,,,,,,,,,,,,,,,,,,,,,,,,,,,,,,,,,,,,,,,,,,,1.7608024577299755,1.0388252000002467,420.8080568999999,None,ScrollUp,정답입니다,420.8080568999999,None,420.8080568999999,None,420.8080568999999,None,420.8080568999999,None,421.7158844999999,None,421.7158844999999,422.2240141000002,,,,,,,,,,,,,,,,232,2022-06-10_14h12.24.310,FishGame,2022.1.1,60.006252651601926,
,41,나를 데려가줘,6,Orange,B,0,0,ScrollDown,ScrollUp,Orange.png,3,NonTarget,NonTarget,,,,,0,0,0,0,,,,,,,,,,,,,,,,,,,,,0,40,40,40,,,,,,,,,,,,,,,,,,,,,,,,,,,,,,,,,,,,,,,,,,,,,,,,,,,,,,,,,,,,,,,,,,,,,,,,,1.2793209801117578,1.0126760000002832,422.8683059,None,ScrollDown,정답입니다,422.8683059,None,422.8683059,None,422.8683059,None,422.8683059,None,423.7586729999998,None,423.7586729999998,424.27378750000025,,,,,,,,,,,,,,,,232,2022-06-10_14h12.24.310,FishGame,2022.1.1,60.006252651601926,
,42,넌 성숙해,2,Orange,B,5.833333333333333,4.533333333333333,ScrollUp,ScrollDown,Orange.png,3,Positive,Incongruent,,,,,0,0,0,0,,,,,,,,,,,,,,,,,,,,,0,41,41,41,,,,,,,,,,,,,,,,,,,,,,,,,,,,,,,,,,,,,,,,,,,,,,,,,,,,,,,,,,,,,,,,,,,,,,,,,1.7592592686414719,0.9387017999997624,424.91378780000014,None,ScrollUp,정답입니다,424.91378780000014,None,424.91378780000014,None,424.91378780000014,None,424.91378780000014,None,425.7325765999999,None,425.7325765999999,426.2401451999999,,,,,,,,,,,,,,,,232,2022-06-10_14h12.24.310,FishGame,2022.1.1,60.006252651601926,
,1,넌 매력적이야,2,Orange,B,6.125,4.666666666666667,ScrollUp,ScrollDown,Orange.png,4,Positive,Incongruent,,,,,0,0,0,0,,,,,,,,,,,,,,,,,,,,,,,,,0,0,0,0,,,,,,,,,,,,,,,,,,,,,,,,,,,,459.65311900000006,461.1525706000002,461.18581870000025,462.13571649999994,462.1857089,463.13549190000003,463.13549190000003,None,,,,,,,,,,,,,,,,,,,,,,,,,,,,,,,,,,1.7546296268701553,1.0658032000001185,464.31584380000004,None,ScrollUp,정답입니다,464.31584380000004,None,464.31584380000004,None,464.31584380000004,None,464.31584380000004,None,465.21184459999995,None,465.21184459999995,465.71840169999996,426.74006929999996,None,426.74006929999996,None,0.19537038,-0.14629629,1,0,0,0.016135180000219407,None,456.75299559999985,None,,,232,2022-06-10_14h12.24.310,FishGame,2022.1.1,60.006252651601926,
,2,나를 보내줘,6,Green,A,0,0,ScrollUp,ScrollDown,Green.png,4,NonTarget,NonTarget,,,,,0,0,0,0,,,,,,,,,,,,,,,,,,,,,,,,,0,1,1,1,,,,,,,,,,,,,,,,,,,,,,,,,,,,,,,,,,,,,,,,,,,,,,,,,,,,,,,,,,,,,,,,,,,,,1.7206790198882422,1.0641224999999395,466.3599113,None,ScrollUp,정답입니다,466.3599113,None,466.3599113,None,466.3599113,None,466.3599113,None,467.30579309999985,None,467.30579309999985,467.8183002999999,,,,,,,,,,,,,,,,232,2022-06-10_14h12.24.310,FishGame,2022.1.1,60.006252651601926,
,3,넌 조심스러워,3,Green,A,4.791666666666666,4.666666666666667,ScrollDown,ScrollUp,Green.png,4,Neutral,Neutral,,,,,0,0,0,0,,,,,,,,,,,,,,,,,,,,,,,,,0,2,2,2,,,,,,,,,,,,,,,,,,,,,,,,,,,,,,,,,,,,,,,,,,,,,,,,,,,,,,,,,,,,,,,,,,,,,1.0879629751046498,0.9218267999999625,468.4583424000002,None,ScrollDown,정답입니다,468.4583424000002,None,468.4583424000002,None,468.4583424000002,None,468.4583424000002,None,469.2597722999999,None,469.2597722999999,469.76783239999986,,,,,,,,,,,,,,,,232,2022-06-10_14h12.24.310,FishGame,2022.1.1,60.006252651601926,
,4,넌 철학적이야,3,Orange,B,4.5,4.266666666666667,ScrollUp,ScrollDown,Orange.png,4,Neutral,Neutral,,,,,0,0,0,0,,,,,,,,,,,,,,,,,,,,,,,,,0,3,3,3,,,,,,,,,,,,,,,,,,,,,,,,,,,,,,,,,,,,,,,,,,,,,,,,,,,,,,,,,,,,,,,,,,,,,1.7777777860562007,1.0284613000003446,470.42157899999984,None,ScrollUp,정답입니다,470.42157899999984,None,470.42157899999984,None,470.42157899999984,None,470.42157899999984,None,471.31767690000015,None,471.31767690000015,471.8177774999999,,,,,,,,,,,,,,,,232,2022-06-10_14h12.24.310,FishGame,2022.1.1,60.006252651601926,
,5,넌 쩨쩨해,5,Green,A,2.375,2.133333333333333,ScrollDown,ScrollUp,Green.png,4,Negative,Incongruent,,,,,0,0,0,0,,,,,,,,,,,,,,,,,,,,,,,,,0,4,4,4,,,,,,,,,,,,,,,,,,,,,,,,,,,,,,,,,,,,,,,,,,,,,,,,,,,,,,,,,,,,,,,,,,,,,1.1388888855775197,0.883664299999964,472.46166570000014,None,ScrollDown,정답입니다,472.46166570000014,None,472.46166570000014,None,472.46166570000014,None,472.46166570000014,None,473.22238070000003,None,473.22238070000003,473.7341707999999,,,,,,,,,,,,,,,,232,2022-06-10_14h12.24.310,FishGame,2022.1.1,60.006252651601926,
,6,나를 데려가줘,6,Orange,B,0,0,ScrollDown,ScrollUp,Orange.png,4,NonTarget,NonTarget,,,,,0,0,0,0,,,,,,,,,,,,,,,,,,,,,,,,,0,5,5,5,,,,,,,,,,,,,,,,,,,,,,,,,,,,,,,,,,,,,,,,,,,,,,,,,,,,,,,,,,,,,,,,,,,,,1.0246913532416027,1.3043255000002318,474.37399700000014,None,ScrollDown,정답입니다,474.37399700000014,None,474.37399700000014,None,474.37399700000014,None,474.37399700000014,None,475.55762330000016,None,475.55762330000016,476.0671876000001,,,,,,,,,,,,,,,,232,2022-06-10_14h12.24.310,FishGame,2022.1.1,60.006252651601926,
,7,넌 고집불통이야,5,Orange,B,2.875,2,ScrollUp,ScrollDown,Orange.png,4,Negative,Congruent,,,,,0,0,0,0,,,,,,,,,,,,,,,,,,,,,,,,,0,6,6,6,,,,,,,,,,,,,,,,,,,,,,,,,,,,,,,,,,,,,,,,,,,,,,,,,,,,,,,,,,,,,,,,,,,,,1.8672839452823002,0.8537701000000197,476.7227358,None,ScrollUp,정답입니다,476.7227358,None,476.7227358,None,476.7227358,None,476.7227358,None,477.4401001000001,None,477.4401001000001,477.95004400000016,,,,,,,,,,,,,,,,232,2022-06-10_14h12.24.310,FishGame,2022.1.1,60.006252651601926,
,8,넌 무심해,4,Green,A,2.875,3.2,ScrollDown,ScrollUp,Green.png,4,Negative,Incongruent,,,,,0,0,0,0,,,,,,,,,,,,,,,,,,,,,,,,,0,7,7,7,,,,,,,,,,,,,,,,,,,,,,,,,,,,,,,,,,,,,,,,,,,,,,,,,,,,,,,,,,,,,,,,,,,,,1.0817901194095612,0.8885301000000254,478.5916880999998,None,ScrollDown,정답입니다,478.5916880999998,None,478.5916880999998,None,478.5916880999998,None,478.5916880999998,None,479.3583929000001,None,479.3583929000001,479.86690120000003,,,,,,,,,,,,,,,,232,2022-06-10_14h12.24.310,FishGame,2022.1.1,60.006252651601926,
,9,넌 정겨워,1,Green,A,5.791666666666667,5.666666666666667,ScrollDown,ScrollUp,Green.png,4,Positive,Congruent,,,,,0,0,0,0,,,,,,,,,,,,,,,,,,,,,,,,,0,8,8,8,,,,,,,,,,,,,,,,,,,,,,,,,,,,,,,,,,,,,,,,,,,,,,,,,,,,,,,,,,,,,,,,,,,,,1.0262345671653748,0.8783508999999867,480.5122676000001,None,ScrollDown,정답입니다,480.5122676000001,None,480.5122676000001,None,480.5122676000001,None,480.5122676000001,None,481.26650340000015,None,481.26650340000015,481.76643090000016,,,,,,,,,,,,,,,,232,2022-06-10_14h12.24.310,FishGame,2022.1.1,60.006252651601926,
,10,나를 데려가줘,6,Orange,B,0,0,ScrollDown,ScrollUp,Orange.png,4,NonTarget,NonTarget,,,,,0,0,0,0,,,,,,,,,,,,,,,,,,,,,,,,,0,9,9,9,,,,,,,,,,,,,,,,,,,,,,,,,,,,,,,,,,,,,,,,,,,,,,,,,,,,,,,,,,,,,,,,,,,,,1,1.031537500000013,482.40951270000005,None,ScrollDown,정답입니다,482.40951270000005,None,482.40951270000005,None,482.40951270000005,None,482.40951270000005,None,483.31904110000005,None,483.31904110000005,483.8326627000001,,,,,,,,,,,,,,,,232,2022-06-10_14h12.24.310,FishGame,2022.1.1,60.006252651601926,
,11,넌 체제순응적이야,4,Orange,B,3,3.6,ScrollUp,ScrollDown,Orange.png,4,Negative,Congruent,,,,,0,0,0,0,,,,,,,,,,,,,,,,,,,,,,,,,0,10,10,10,,,,,,,,,,,,,,,,,,,,,,,,,,,,,,,,,,,,,,,,,,,,,,,,,,,,,,,,,,,,,,,,,,,,,1.807098776102066,0.9387909000001855,484.4923205,None,ScrollUp,정답입니다,484.4923205,None,484.4923205,None,484.4923205,None,484.4923205,None,485.29094729999997,None,485.29094729999997,485.7991271000001,,,,,,,,,,,,,,,,232,2022-06-10_14h12.24.310,FishGame,2022.1.1,60.006252651601926,
,12,나를 보내줘,6,Green,A,0,0,ScrollUp,ScrollDown,Green.png,4,NonTarget,NonTarget,,,,,0,0,0,0,,,,,,,,,,,,,,,,,,,,,,,,,0,11,11,11,,,,,,,,,,,,,,,,,,,,,,,,,,,,,,,,,,,,,,,,,,,,,,,,,,,,,,,,,,,,,,,,,,,,,1.8765432039896648,1.0762033999999403,486.4415721999999,None,ScrollUp,정답입니다,486.4415721999999,None,486.4415721999999,None,486.4415721999999,None,486.4415721999999,None,487.39897789999986,None,487.39897789999986,487.8990136000002,,,,,,,,,,,,,,,,232,2022-06-10_14h12.24.310,FishGame,2022.1.1,60.006252651601926,
,13,넌 박식해,2,Green,A,5.625,3.933333333333333,ScrollDown,ScrollUp,Green.png,4,Positive,Congruent,,,,,0,0,0,0,,,,,,,,,,,,,,,,,,,,,,,,,0,12,12,12,,,,,,,,,,,,,,,,,,,,,,,,,,,,,,,,,,,,,,,,,,,,,,,,,,,,,,,,,,,,,,,,,,,,,1.0756172637144725,0.9559744999996838,488.5453252000002,None,ScrollDown,정답입니다,488.5453252000002,None,488.5453252000002,None,488.5453252000002,None,488.5453252000002,None,489.3747655000002,None,489.3747655000002,489.8819865999999,,,,,,,,,,,,,,,,232,2022-06-10_14h12.24.310,FishGame,2022.1.1,60.006252651601926,
,14,나를 보내줘,6,Green,A,0,0,ScrollUp,ScrollDown,Green.png,4,NonTarget,NonTarget,,,,,0,0,0,0,,,,,,,,,,,,,,,,,,,,,,,,,0,13,13,13,,,,,,,,,,,,,,,,,,,,,,,,,,,,,,,,,,,,,,,,,,,,,,,,,,,,,,,,,,,,,,,,,,,,,1.7978395173947017,0.9550570999999763,490.5176285000002,None,ScrollUp,정답입니다,490.5176285000002,None,490.5176285000002,None,490.5176285000002,None,490.5176285000002,None,491.35728400000016,None,491.35728400000016,491.8650649000001,,,,,,,,,,,,,,,,232,2022-06-10_14h12.24.310,FishGame,2022.1.1,60.006252651601926,
,15,넌 침착해,1,Orange,B,5.458333333333333,5.566666666666666,ScrollUp,ScrollDown,Orange.png,4,Positive,Incongruent,,,,,0,0,0,0,,,,,,,,,,,,,,,,,,,,,,,,,0,14,14,14,,,,,,,,,,,,,,,,,,,,,,,,,,,,,,,,,,,,,,,,,,,,,,,,,,,,,,,,,,,,,,,,,,,,,1.8749999900658925,0.9637872999996944,492.51914350000015,None,ScrollUp,정답입니다,492.51914350000015,None,492.51914350000015,None,492.51914350000015,None,492.51914350000015,None,493.3498617,None,493.3498617,493.86486430000014,,,,,,,,,,,,,,,,232,2022-06-10_14h12.24.310,FishGame,2022.1.1,60.006252651601926,
,16,나를 데려가줘,6,Orange,B,0,0,ScrollDown,ScrollUp,Orange.png,4,NonTarget,NonTarget,,,,,0,0,0,0,,,,,,,,,,,,,,,,,,,,,,,,,0,15,15,15,,,,,,,,,,,,,,,,,,,,,,,,,,,,,,,,,,,,,,,,,,,,,,,,,,,,,,,,,,,,,,,,,,,,,1.0787036915620167,1.2065050999999585,494.5104196000002,None,ScrollDown,정답입니다,494.5104196000002,None,494.5104196000002,None,494.5104196000002,None,494.5104196000002,None,495.59068879999995,None,495.59068879999995,496.09786600000007,,,,,,,,,,,,,,,,232,2022-06-10_14h12.24.310,FishGame,2022.1.1,60.006252651601926,
,17,넌 행복해,1,Green,A,6.416666666666666,6.166666666666667,ScrollDown,ScrollUp,Green.png,4,Positive,Congruent,,,,,0,0,0,0,,,,,,,,,,,,,,,,,,,,,,,,,0,16,16,16,,,,,,,,,,,,,,,,,,,,,,,,,,,,,,,,,,,,,,,,,,,,,,,,,,,,,,,,,,,,,,,,,,,,,1.192901223897934,0.9604377999999087,496.74591610000016,None,ScrollDown,정답입니다,496.74591610000016,None,496.74591610000016,None,496.74591610000016,None,496.74591610000016,None,497.58086890000004,None,497.58086890000004,498.0808013999999,,,,,,,,,,,,,,,,232,2022-06-10_14h12.24.310,FishGame,2022.1.1,60.006252651601926,
,18,넌 겸손해,2,Orange,B,5.791666666666667,4.766666666666667,ScrollUp,ScrollDown,Orange.png,4,Positive,Incongruent,,,,,0,0,0,0,,,,,,,,,,,,,,,,,,,,,,,,,0,17,17,17,,,,,,,,,,,,,,,,,,,,,,,,,,,,,,,,,,,,,,,,,,,,,,,,,,,,,,,,,,,,,,,,,,,,,1.663580241302649,0.8781855000001997,498.7343406,None,ScrollUp,정답입니다,498.7343406,None,498.7343406,None,498.7343406,None,498.7343406,None,499.4807412,None,499.4807412,499.98074099999985,,,,,,,,,,,,,,,,232,2022-06-10_14h12.24.310,FishGame,2022.1.1,60.006252651601926,
,19,나를 보내줘,6,Green,A,0,0,ScrollUp,ScrollDown,Green.png,4,NonTarget,NonTarget,,,,,0,0,0,0,,,,,,,,,,,,,,,,,,,,,,,,,0,18,18,18,,,,,,,,,,,,,,,,,,,,,,,,,,,,,,,,,,,,,,,,,,,,,,,,,,,,,,,,,,,,,,,,,,,,,1.7978395173947017,1.0120805999999902,500.61944870000025,None,ScrollUp,정답입니다,500.61944870000025,None,500.61944870000025,None,500.61944870000025,None,500.61944870000025,None,501.5136418000002,None,501.5136418000002,502.0137325999999,,,,,,,,,,,,,,,,232,2022-06-10_14h12.24.310,FishGame,2022.1.1,60.006252651601926,
,20,넌 의심없어,3,Green,A,4.166666666666667,4.6,ScrollDown,ScrollUp,Green.png,4,Neutral,Neutral,,,,,0,0,0,0,,,,,,,,,,,,,,,,,,,,,,,,,0,19,19,19,,,,,,,,,,,,,,,,,,,,,,,,,,,,,,,,,,,,,,,,,,,,,,,,,,,,,,,,,,,,,,,,,,,,,1.080246905485789,0.8676534000001084,502.65615519999983,None,ScrollDown,정답입니다,502.65615519999983,None,502.65615519999983,None,502.65615519999983,None,502.65615519999983,None,503.4017770999999,None,503.4017770999999,503.91368710000006,,,,,,,,,,,,,,,,232,2022-06-10_14h12.24.310,FishGame,2022.1.1,60.006252651601926,
,21,넌 시시해,4,Green,A,2.666666666666667,2.966666666666667,ScrollDown,ScrollUp,Green.png,4,Negative,Incongruent,,,,,0,0,0,0,,,,,,,,,,,,,,,,,,,,,,,,,0,20,20,20,,,,,,,,,,,,,,,,,,,,,,,,,,,,,,,,,,,,,,,,,,,,,,,,,,,,,,,,,,,,,,,,,,,,,1.2098765522241592,0.8449384999998983,504.55395690000023,None,ScrollDown,정답입니다,504.55395690000023,None,504.55395690000023,None,504.55395690000023,None,504.55395690000023,None,505.28058150000015,None,505.28058150000015,505.77992440000025,,,,,,,,,,,,,,,,232,2022-06-10_14h12.24.310,FishGame,2022.1.1,60.006252651601926,
,22,나를 데려가줘,6,Orange,B,0,0,ScrollDown,ScrollUp,Orange.png,4,NonTarget,NonTarget,,,,,0,0,0,0,,,,,,,,,,,,,,,,,,,,,,,,,0,21,21,21,,,,,,,,,,,,,,,,,,,,,,,,,,,,,,,,,,,,,,,,,,,,,,,,,,,,,,,,,,,,,,,,,,,,,1.10030863682429,1.0087917000000743,506.42357100000027,None,ScrollDown,정답입니다,506.42357100000027,None,506.42357100000027,None,506.42357100000027,None,506.42357100000027,None,507.31308279999985,None,507.31308279999985,507.8130799999999,,,,,,,,,,,,,,,,232,2022-06-10_14h12.24.310,FishGame,2022.1.1,60.006252651601926,
,23,넌 무정해,5,Green,A,2.5,2.2,ScrollDown,ScrollUp,Green.png,4,Negative,Incongruent,,,,,0,0,0,0,,,,,,,,,,,,,,,,,,,,,,,,,0,22,22,22,,,,,,,,,,,,,,,,,,,,,,,,,,,,,,,,,,,,,,,,,,,,,,,,,,,,,,,,,,,,,,,,,,,,,1.1126543233791988,0.844443400000273,508.4536747000002,None,ScrollDown,정답입니다,508.4536747000002,None,508.4536747000002,None,508.4536747000002,None,508.4536747000002,None,509.1796131000001,None,509.1796131000001,509.6794106000002,,,,,,,,,,,,,,,,232,2022-06-10_14h12.24.310,FishGame,2022.1.1,60.006252651601926,
,24,넌 긍정적이야,1,Orange,B,6.041666666666667,6.066666666666666,ScrollUp,ScrollDown,Orange.png,4,Positive,Incongruent,,,,,0,0,0,0,,,,,,,,,,,,,,,,,,,,,,,,,0,23,23,23,,,,,,,,,,,,,,,,,,,,,,,,,,,,,,,,,,,,,,,,,,,,,,,,,,,,,,,,,,,,,,,,,,,,,1.6867284004886947,1.0391695999996955,510.3337240000001,None,ScrollUp,정답입니다,510.3337240000001,None,510.3337240000001,None,510.3337240000001,None,510.3337240000001,None,511.2383239999999,None,511.2383239999999,511.74577720000025,,,,,,,,,,,,,,,,232,2022-06-10_14h12.24.310,FishGame,2022.1.1,60.006252651601926,
,25,나를 보내줘,6,Green,A,0,0,ScrollUp,ScrollDown,Green.png,4,NonTarget,NonTarget,,,,,0,0,0,0,,,,,,,,,,,,,,,,,,,,,,,,,0,24,24,24,,,,,,,,,,,,,,,,,,,,,,,,,,,,,,,,,,,,,,,,,,,,,,,,,,,,,,,,,,,,,,,,,,,,,1.8024691343307495,1.0116509999998016,512.3855741000002,None,ScrollUp,정답입니다,512.3855741000002,None,512.3855741000002,None,512.3855741000002,None,512.3855741000002,None,513.2790003,None,513.2790003,513.7791121999999,,,,,,,,,,,,,,,,232,2022-06-10_14h12.24.310,FishGame,2022.1.1,60.006252651601926,
,26,넌 시기심이 많아,5,Orange,B,2.458333333333333,2.233333333333333,ScrollUp,ScrollDown,Orange.png,4,Negative,Congruent,,,,,0,0,0,0,,,,,,,,,,,,,,,,,,,,,,,,,0,25,25,25,,,,,,,,,,,,,,,,,,,,,,,,,,,,,,,,,,,,,,,,,,,,,,,,,,,,,,,,,,,,,,,,,,,,,1.7700617164373398,0.9664767999997821,514.4296856000001,None,ScrollUp,정답입니다,514.4296856000001,None,514.4296856000001,None,514.4296856000001,None,514.4296856000001,None,515.2663702999998,None,515.2663702999998,515.7787334999998,,,,,,,,,,,,,,,,232,2022-06-10_14h12.24.310,FishGame,2022.1.1,60.006252651601926,
,27,넌 탁월해,2,Green,A,5.708333333333334,4.5,ScrollDown,ScrollUp,Green.png,4,Positive,Congruent,,,,,0,0,0,0,,,,,,,,,,,,,,,,,,,,,,,,,0,26,26,26,,,,,,,,,,,,,,,,,,,,,,,,,,,,,,,,,,,,,,,,,,,,,,,,,,,,,,,,,,,,,,,,,,,,,1.2376543283462524,0.8902619000000414,516.426168,None,ScrollDown,정답입니다,516.426168,None,516.426168,None,516.426168,None,516.426168,None,517.1952670999999,None,517.1952670999999,517.6951638,,,,,,,,,,,,,,,,232,2022-06-10_14h12.24.310,FishGame,2022.1.1,60.006252651601926,
,28,나를 데려가줘,6,Orange,B,0,0,ScrollDown,ScrollUp,Orange.png,4,NonTarget,NonTarget,,,,,0,0,0,0,,,,,,,,,,,,,,,,,,,,,,,,,0,27,27,27,,,,,,,,,,,,,,,,,,,,,,,,,,,,,,,,,,,,,,,,,,,,,,,,,,,,,,,,,,,,,,,,,,,,,1.1188271542390187,0.960822300000018,518.3430905999999,None,ScrollDown,정답입니다,518.3430905999999,None,518.3430905999999,None,518.3430905999999,None,518.3430905999999,None,519.1781652,None,519.1781652,519.6782874,,,,,,,,,,,,,,,,232,2022-06-10_14h12.24.310,FishGame,2022.1.1,60.006252651601926,
,29,넌 조용해,3,Orange,B,4.333333333333333,4.166666666666667,ScrollUp,ScrollDown,Orange.png,4,Neutral,Neutral,,,,,0,0,0,0,,,,,,,,,,,,,,,,,,,,,,,,,0,28,28,28,,,,,,,,,,,,,,,,,,,,,,,,,,,,,,,,,,,,,,,,,,,,,,,,,,,,,,,,,,,,,,,,,,,,,1.658950611948967,0.9175543000001198,520.3270563000001,None,ScrollUp,정답입니다,520.3270563000001,None,520.3270563000001,None,520.3270563000001,None,520.3270563000001,None,521.1167444000002,None,521.1167444000002,521.6280597999998,,,,,,,,,,,,,,,,232,2022-06-10_14h12.24.310,FishGame,2022.1.1,60.006252651601926,
,30,넌 다정해,1,Green,A,5.833333333333334,5.7,ScrollDown,ScrollUp,Green.png,4,Positive,Congruent,,,,,0,0,0,0,,,,,,,,,,,,,,,,,,,,,,,,,0,29,29,29,,,,,,,,,,,,,,,,,,,,,,,,,,,,,,,,,,,,,,,,,,,,,,,,,,,,,,,,,,,,,,,,,,,,,1.080246905485789,0.7775849999998172,522.2683677999999,None,ScrollDown,정답입니다,522.2683677999999,None,522.2683677999999,None,522.2683677999999,None,522.2683677999999,None,522.9278973,None,522.9278973,523.4277729999999,,,,,,,,,,,,,,,,232,2022-06-10_14h12.24.310,FishGame,2022.1.1,60.006252651601926,
,31,넌 능력있어,2,Orange,B,6.166666666666666,4.6,ScrollUp,ScrollDown,Orange.png,4,Positive,Incongruent,,,,,0,0,0,0,,,,,,,,,,,,,,,,,,,,,,,,,0,30,30,30,,,,,,,,,,,,,,,,,,,,,,,,,,,,,,,,,,,,,,,,,,,,,,,,,,,,,,,,,,,,,,,,,,,,,1.733024681607882,1.0058936000000358,524.0743149,None,ScrollUp,정답입니다,524.0743149,None,524.0743149,None,524.0743149,None,524.0743149,None,524.9534718,None,524.9534718,525.4607860000001,,,,,,,,,,,,,,,,232,2022-06-10_14h12.24.310,FishGame,2022.1.1,60.006252651601926,
,32,넌 불쾌해,5,Green,A,2.125,1.933333333333333,ScrollDown,ScrollUp,Green.png,4,Negative,Incongruent,,,,,0,0,0,0,,,,,,,,,,,,,,,,,,,,,,,,,0,31,31,31,,,,,,,,,,,,,,,,,,,,,,,,,,,,,,,,,,,,,,,,,,,,,,,,,,,,,,,,,,,,,,,,,,,,,1.0154321193695068,1.0006478999998762,526.1022389999998,None,ScrollDown,정답입니다,526.1022389999998,None,526.1022389999998,None,526.1022389999998,None,526.1022389999998,None,526.9821519000002,None,526.9821519000002,527.4937841999999,,,,,,,,,,,,,,,,232,2022-06-10_14h12.24.310,FishGame,2022.1.1,60.006252651601926,
,33,나를 데려가줘,6,Orange,B,0,0,ScrollDown,ScrollUp,Orange.png,4,NonTarget,NonTarget,,,,,0,0,0,0,,,,,,,,,,,,,,,,,,,,,,,,,0,32,32,32,,,,,,,,,,,,,,,,,,,,,,,,,,,,,,,,,,,,,,,,,,,,,,,,,,,,,,,,,,,,,,,,,,,,,1.1435185273488362,0.9787484000003133,528.1388494000003,None,ScrollDown,정답입니다,528.1388494000003,None,528.1388494000003,None,528.1388494000003,None,528.1388494000003,None,528.9937973000001,None,528.9937973000001,529.4935832000001,,,,,,,,,,,,,,,,232,2022-06-10_14h12.24.310,FishGame,2022.1.1,60.006252651601926,
,34,넌 유순해,3,Green,A,4.458333333333333,5,ScrollDown,ScrollUp,Green.png,4,Neutral,Neutral,,,,,0,0,0,0,,,,,,,,,,,,,,,,,,,,,,,,,0,33,33,33,,,,,,,,,,,,,,,,,,,,,,,,,,,,,,,,,,,,,,,,,,,,,,,,,,,,,,,,,,,,,,,,,,,,,1.2098765522241592,0.8380988999997498,530.1304899000002,None,ScrollDown,정답입니다,530.1304899000002,None,530.1304899000002,None,530.1304899000002,None,530.1304899000002,None,530.8525908000001,None,530.8525908000001,531.3602725999999,,,,,,,,,,,,,,,,232,2022-06-10_14h12.24.310,FishGame,2022.1.1,60.006252651601926,
,35,넌 근심스러워,4,Orange,B,2.708333333333333,3.133333333333333,ScrollUp,ScrollDown,Orange.png,4,Negative,Congruent,,,,,0,0,0,0,,,,,,,,,,,,,,,,,,,,,,,,,0,34,34,34,,,,,,,,,,,,,,,,,,,,,,,,,,,,,,,,,,,,,,,,,,,,,,,,,,,,,,,,,,,,,,,,,,,,,1.8549382835626602,0.9380314999998518,532.0126398000002,None,ScrollUp,정답입니다,532.0126398000002,None,532.0126398000002,None,532.0126398000002,None,532.0126398000002,None,532.8176874999999,None,532.8176874999999,533.3265295000001,,,,,,,,,,,,,,,,232,2022-06-10_14h12.24.310,FishGame,2022.1.1,60.006252651601926,
,36,넌 세련되었어,2,Green,A,5.5,4.6,ScrollDown,ScrollUp,Green.png,4,Positive,Congruent,,,,,0,0,0,0,,,,,,,,,,,,,,,,,,,,,,,,,0,35,35,35,,,,,,,,,,,,,,,,,,,,,,,,,,,,,,,,,,,,,,,,,,,,,,,,,,,,,,,,,,,,,,,,,,,,,1.212962955236435,0.9286591000000044,533.9802797000002,None,ScrollDown,정답입니다,533.9802797000002,None,533.9802797000002,None,533.9802797000002,None,533.9802797000002,None,534.7764078999999,None,534.7764078999999,535.2761776000002,,,,,,,,,,,,,,,,232,2022-06-10_14h12.24.310,FishGame,2022.1.1,60.006252651601926,
,37,나를 보내줘,6,Green,A,0,0,ScrollUp,ScrollDown,Green.png,4,NonTarget,NonTarget,,,,,0,0,0,0,,,,,,,,,,,,,,,,,,,,,,,,,0,36,36,36,,,,,,,,,,,,,,,,,,,,,,,,,,,,,,,,,,,,,,,,,,,,,,,,,,,,,,,,,,,,,,,,,,,,,1.7145061641931534,0.9365321999998741,535.9146372999999,None,ScrollUp,정답입니다,535.9146372999999,None,535.9146372999999,None,535.9146372999999,None,535.9146372999999,None,536.7324306,None,536.7324306,537.2424346000003,,,,,,,,,,,,,,,,232,2022-06-10_14h12.24.310,FishGame,2022.1.1,60.006252651601926,
,38,넌 확고해,3,Orange,B,4.708333333333334,4.566666666666666,ScrollUp,ScrollDown,Orange.png,4,Neutral,Neutral,,,,,0,0,0,0,,,,,,,,,,,,,,,,,,,,,,,,,0,37,37,37,,,,,,,,,,,,,,,,,,,,,,,,,,,,,,,,,,,,,,,,,,,,,,,,,,,,,,,,,,,,,,,,,,,,,1.702160490055879,0.9651149999999689,537.8923746999999,None,ScrollUp,정답입니다,537.8923746999999,None,537.8923746999999,None,537.8923746999999,None,537.8923746999999,None,538.7290139000002,None,538.7290139000002,539.2424059999998,,,,,,,,,,,,,,,,232,2022-06-10_14h12.24.310,FishGame,2022.1.1,60.006252651601926,
,39,넌 이해심이 많아,1,Orange,B,6.041666666666668,5.533333333333333,ScrollUp,ScrollDown,Orange.png,4,Positive,Incongruent,,,,,0,0,0,0,,,,,,,,,,,,,,,,,,,,,,,,,0,38,38,38,,,,,,,,,,,,,,,,,,,,,,,,,,,,,,,,,,,,,,,,,,,,,,,,,,,,,,,,,,,,,,,,,,,,,1.723765422900518,0.7813046999999642,539.8888118,None,ScrollUp,정답입니다,539.8888118,None,539.8888118,None,539.8888118,None,539.8888118,None,540.5445731999998,None,540.5445731999998,541.0588573,,,,,,,,,,,,,,,,232,2022-06-10_14h12.24.310,FishGame,2022.1.1,60.006252651601926,
,40,나를 보내줘,6,Green,A,0,0,ScrollUp,ScrollDown,Green.png,4,NonTarget,NonTarget,,,,,0,0,0,0,,,,,,,,,,,,,,,,,,,,,,,,,0,39,39,39,,,,,,,,,,,,,,,,,,,,,,,,,,,,,,,,,,,,,,,,,,,,,,,,,,,,,,,,,,,,,,,,,,,,,1.4845679011195898,0.9269985000000815,541.6990249,None,NoResponse,무응답입니다,541.6990249,None,541.6990249,None,541.6990249,None,541.6990249,None,542.5037453999998,None,542.5037453999998,543.0085159999999,,,,,,,,,,,,,,,,232,2022-06-10_14h12.24.310,FishGame,2022.1.1,60.006252651601926,
,41,넌 거칠어,4,Green,A,2.625,3.033333333333333,ScrollDown,ScrollUp,Green.png,4,Negative,Incongruent,,,,,0,0,0,0,,,,,,,,,,,,,,,,,,,,,,,,,0,40,40,40,,,,,,,,,,,,,,,,,,,,,,,,,,,,,,,,,,,,,,,,,,,,,,,,,,,,,,,,,,,,,,,,,,,,,1.1543209999799728,0.9451594000001933,543.6542749999999,None,ScrollDown,정답입니다,543.6542749999999,None,543.6542749999999,None,543.6542749999999,None,543.6542749999999,None,544.4711262999999,None,544.4711262999999,544.9750337,,,,,,,,,,,,,,,,232,2022-06-10_14h12.24.310,FishGame,2022.1.1,60.006252651601926,
,42,넌 변덕맞아,5,Orange,B,2.75,2.166666666666667,ScrollUp,ScrollDown,Orange.png,4,Negative,Congruent,,,,,0,0,0,0,,,,,,,,,,,,,,,,,,,,,,,,,0,41,41,41,,,,,,,,,,,,,,,,,,,,,,,,,,,,,,,,,,,,,,,,,,,,,,,,,,,,,,,,,,,,,,,,,,,,,1.7283950646718345,1.1455019999998513,545.6260625,None,ScrollUp,정답입니다,545.6260625,None,545.6260625,None,545.6260625,None,545.6260625,None,546.6415502999998,None,546.6415502999998,547.1414242999999,,,,,,,,,,,,,,,,232,2022-06-10_14h12.24.310,FishGame,2022.1.1,60.006252651601926,
,43,나를 데려가줘,6,Orange,B,0,0,ScrollDown,ScrollUp,Orange.png,4,NonTarget,NonTarget,,,,,0,0,0,0,,,,,,,,,,,,,,,,,,,,,,,,,0,42,42,42,,,,,,,,,,,,,,,,,,,,,,,,,,,,,,,,,,,,,,,,,,,,,,,,,,,,,,,,,,,,,,,,,,,,,1,1.072403099999974,547.7876322000002,None,ScrollDown,정답입니다,547.7876322000002,None,547.7876322000002,None,547.7876322000002,None,547.7876322000002,None,548.7330901999999,None,548.7330901999999,549.2410470999998,,,,,,,,,,,,,,,,232,2022-06-10_14h12.24.310,FishGame,2022.1.1,60.006252651601926,
,44,넌 외로워,4,Orange,B,2.833333333333333,3.3,ScrollUp,ScrollDown,Orange.png,4,Negative,Congruent,,,,,0,0,0,0,,,,,,,,,,,,,,,,,,,,,,,,,0,43,43,43,,,,,,,,,,,,,,,,,,,,,,,,,,,,,,,,,,,,,,,,,,,,,,,,,,,,,,,,,,,,,,,,,,,,,1.7222222338120141,0.98405750000029,549.8953842999999,None,ScrollUp,정답입니다,549.8953842999999,None,549.8953842999999,None,549.8953842999999,None,549.8953842999999,None,550.7456898,None,550.7456898,551.2574451999999,,,,,,,,,,,,,,,,232,2022-06-10_14h12.24.310,FishGame,2022.1.1,60.006252651601926,
,1,넌 불평스러워,5,Green,A,2.25,2.066666666666667,ScrollDown,ScrollUp,Green.png,5,Negative,Incongruent,,,,,0,0,0,0,,,,,,,,,,,,,,,,,,,,,,,,,,,,,0,0,0,0,,,,,,,,,,,,,,,,,,,,,,,,582.9036396000001,584.4032793000001,584.4367393000002,585.3865550999999,585.4366851999998,586.3863916,586.3863916,None,,,,,,,,,,,,,,,,,,,,,,,,,,,,,,,,,,1.1836419651905696,0.9765910999999505,587.5589786,None,ScrollDown,정답입니다,587.5589786,None,587.5589786,None,587.5589786,None,587.5589786,None,588.3721455,None,588.3721455,588.8861167999999,551.7574414000001,None,551.7574414000001,None,0.024074074,-0.055555556,1,0,0,0.016243479999957344,None,581.7536445000001,None,,,232,2022-06-10_14h12.24.310,FishGame,2022.1.1,60.006252651601926,
,2,나를 보내줘,6,Green,A,0,0,ScrollUp,ScrollDown,Green.png,5,NonTarget,NonTarget,,,,,0,0,0,0,,,,,,,,,,,,,,,,,,,,,,,,,,,,,0,1,1,1,,,,,,,,,,,,,,,,,,,,,,,,,,,,,,,,,,,,,,,,,,,,,,,,,,,,,,,,,,,,,,,,,1.8225308656692505,1.0337007999996786,589.5280443000001,None,ScrollUp,정답입니다,589.5280443000001,None,589.5280443000001,None,589.5280443000001,None,589.5280443000001,None,590.4404589999999,None,590.4404589999999,590.9524795000002,,,,,,,,,,,,,,,,232,2022-06-10_14h12.24.310,FishGame,2022.1.1,60.006252651601926,
,3,넌 다재다능해,2,Orange,B,6.208333333333333,4.5,ScrollUp,ScrollDown,Orange.png,5,Positive,Incongruent,,,,,0,0,0,0,,,,,,,,,,,,,,,,,,,,,,,,,,,,,0,2,2,2,,,,,,,,,,,,,,,,,,,,,,,,,,,,,,,,,,,,,,,,,,,,,,,,,,,,,,,,,,,,,,,,,1.7978395173947017,0.9010240000002341,591.6005451000001,None,ScrollUp,정답입니다,591.6005451000001,None,591.6005451000001,None,591.6005451000001,None,591.6005451000001,None,592.3739894,None,592.3739894,592.8856163,,,,,,,,,,,,,,,,232,2022-06-10_14h12.24.310,FishGame,2022.1.1,60.006252651601926,
,4,넌 과감해,3,Green,A,4.833333333333334,4.6,ScrollDown,ScrollUp,Green.png,5,Neutral,Neutral,,,,,0,0,0,0,,,,,,,,,,,,,,,,,,,,,,,,,,,,,0,3,3,3,,,,,,,,,,,,,,,,,,,,,,,,,,,,,,,,,,,,,,,,,,,,,,,,,,,,,,,,,,,,,,,,,1.0895061641931534,0.7565638999999464,593.5246230000002,None,ScrollDown,정답입니다,593.5246230000002,None,593.5246230000002,None,593.5246230000002,None,593.5246230000002,None,594.1617329999999,None,594.1617329999999,594.6687348999999,,,,,,,,,,,,,,,,232,2022-06-10_14h12.24.310,FishGame,2022.1.1,60.006252651601926,
,5,넌 고분고분해,3,Orange,B,3.75,4.033333333333333,ScrollUp,ScrollDown,Orange.png,5,Neutral,Neutral,,,,,0,0,0,0,,,,,,,,,,,,,,,,,,,,,,,,,,,,,0,4,4,4,,,,,,,,,,,,,,,,,,,,,,,,,,,,,,,,,,,,,,,,,,,,,,,,,,,,,,,,,,,,,,,,,1.7206790198882422,0.7845371999997042,595.3189593000002,None,ScrollUp,정답입니다,595.3189593000002,None,595.3189593000002,None,595.3189593000002,None,595.3189593000002,None,595.9732744000003,None,595.9732744000003,596.4851153,,,,,,,,,,,,,,,,232,2022-06-10_14h12.24.310,FishGame,2022.1.1,60.006252651601926,
,6,나를 보내줘,6,Green,A,0,0,ScrollUp,ScrollDown,Green.png,5,NonTarget,NonTarget,,,,,0,0,0,0,,,,,,,,,,,,,,,,,,,,,,,,,,,,,0,5,5,5,,,,,,,,,,,,,,,,,,,,,,,,,,,,,,,,,,,,,,,,,,,,,,,,,,,,,,,,,,,,,,,,,1.7561728407939274,1.0171625000002678,597.1278450999998,None,ScrollUp,정답입니다,597.1278450999998,None,597.1278450999998,None,597.1278450999998,None,597.1278450999998,None,598.0228400000001,None,598.0228400000001,598.5348755,,,,,,,,,,,,,,,,232,2022-06-10_14h12.24.310,FishGame,2022.1.1,60.006252651601926,
,7,넌 잘 잊어,4,Green,A,3,3.7,ScrollDown,ScrollUp,Green.png,5,Negative,Incongruent,,,,,0,0,0,0,,,,,,,,,,,,,,,,,,,,,,,,,,,,,0,6,6,6,,,,,,,,,,,,,,,,,,,,,,,,,,,,,,,,,,,,,,,,,,,,,,,,,,,,,,,,,,,,,,,,,1.0787036915620167,1.043345600000066,599.1848937999998,None,ScrollDown,정답입니다,599.1848937999998,None,599.1848937999998,None,599.1848937999998,None,599.1848937999998,None,600.1013179000001,None,600.1013179000001,600.6013372000002,,,,,,,,,,,,,,,,232,2022-06-10_14h12.24.310,FishGame,2022.1.1,60.006252651601926,
,8,넌 탐구심이없어,4,Orange,B,2.833333333333333,3.066666666666667,ScrollUp,ScrollDown,Orange.png,5,Negative,Congruent,,,,,0,0,0,0,,,,,,,,,,,,,,,,,,,,,,,,,,,,,0,7,7,7,,,,,,,,,,,,,,,,,,,,,,,,,,,,,,,,,,,,,,,,,,,,,,,,,,,,,,,,,,,,,,,,,1.746913582086563,0.8892435000002479,601.2553247000001,None,ScrollUp,정답입니다,601.2553247000001,None,601.2553247000001,None,601.2553247000001,None,601.2553247000001,None,602.0104062,None,602.0104062,602.5177475,,,,,,,,,,,,,,,,232,2022-06-10_14h12.24.310,FishGame,2022.1.1,60.006252651601926,
,9,나를 데려가줘,6,Orange,B,0,0,ScrollDown,ScrollUp,Orange.png,5,NonTarget,NonTarget,,,,,0,0,0,0,,,,,,,,,,,,,,,,,,,,,,,,,,,,,0,8,8,8,,,,,,,,,,,,,,,,,,,,,,,,,,,,,,,,,,,,,,,,,,,,,,,,,,,,,,,,,,,,,,,,,1,1.0995742000000064,603.1670969000002,None,ScrollDown,정답입니다,603.1670969000002,None,603.1670969000002,None,603.1670969000002,None,603.1670969000002,None,604.1383083000001,None,604.1383083000001,604.6508318000001,,,,,,,,,,,,,,,,232,2022-06-10_14h12.24.310,FishGame,2022.1.1,60.006252651601926,
,10,넌 참되어,2,Green,A,6.041666666666664,4.733333333333333,ScrollDown,ScrollUp,Green.png,5,Positive,Congruent,,,,,0,0,0,0,,,,,,,,,,,,,,,,,,,,,,,,,,,,,0,9,9,9,,,,,,,,,,,,,,,,,,,,,,,,,,,,,,,,,,,,,,,,,,,,,,,,,,,,,,,,,,,,,,,,,1,1.0434335999998439,605.2985334,None,ScrollDown,정답입니다,605.2985334,None,605.2985334,None,605.2985334,None,605.2985334,None,606.2172879,None,606.2172879,606.7172089000001,,,,,,,,,,,,,,,,232,2022-06-10_14h12.24.310,FishGame,2022.1.1,60.006252651601926,
,11,넌 생기있어,1,Orange,B,5.875,5.633333333333334,ScrollUp,ScrollDown,Orange.png,5,Positive,Incongruent,,,,,0,0,0,0,,,,,,,,,,,,,,,,,,,,,,,,,,,,,0,10,10,10,,,,,,,,,,,,,,,,,,,,,,,,,,,,,,,,,,,,,,,,,,,,,,,,,,,,,,,,,,,,,,,,,1.859567900498708,0.9503073999999287,607.3683037000001,None,ScrollUp,정답입니다,607.3683037000001,None,607.3683037000001,None,607.3683037000001,None,607.3683037000001,None,608.1879039,None,608.1879039,608.7003174000001,,,,,,,,,,,,,,,,232,2022-06-10_14h12.24.310,FishGame,2022.1.1,60.006252651601926,
,12,넌 비사교적이야,4,Orange,B,2.875,2.9,ScrollUp,ScrollDown,Orange.png,5,Negative,Congruent,,,,,0,0,0,0,,,,,,,,,,,,,,,,,,,,,,,,,,,,,0,11,11,11,,,,,,,,,,,,,,,,,,,,,,,,,,,,,,,,,,,,,,,,,,,,,,,,,,,,,,,,,,,,,,,,,1.8040123482545216,1.0451932000000852,609.3478264,None,ScrollUp,정답입니다,609.3478264,None,609.3478264,None,609.3478264,None,609.3478264,None,610.2665145999999,None,610.2665145999999,610.766529,,,,,,,,,,,,,,,,232,2022-06-10_14h12.24.310,FishGame,2022.1.1,60.006252651601926,
,13,나를 데려가줘,6,Orange,B,0,0,ScrollDown,ScrollUp,Orange.png,5,NonTarget,NonTarget,,,,,0,0,0,0,,,,,,,,,,,,,,,,,,,,,,,,,,,,,0,12,12,12,,,,,,,,,,,,,,,,,,,,,,,,,,,,,,,,,,,,,,,,,,,,,,,,,,,,,,,,,,,,,,,,,1,1.0000608000000284,611.4131661000001,None,ScrollDown,정답입니다,611.4131661000001,None,611.4131661000001,None,611.4131661000001,None,611.4131661000001,None,612.2869522999999,None,612.2869522999999,612.7997894,,,,,,,,,,,,,,,,232,2022-06-10_14h12.24.310,FishGame,2022.1.1,60.006252651601926,
,14,넌 고독해,4,Green,A,2.916666666666667,3.233333333333333,ScrollDown,ScrollUp,Green.png,5,Negative,Incongruent,,,,,0,0,0,0,,,,,,,,,,,,,,,,,,,,,,,,,,,,,0,13,13,13,,,,,,,,,,,,,,,,,,,,,,,,,,,,,,,,,,,,,,,,,,,,,,,,,,,,,,,,,,,,,,,,,1,0.7876366999998936,613.4376456,None,ScrollDown,정답입니다,613.4376456,None,613.4376456,None,613.4376456,None,613.4376456,None,614.1068565,None,614.1068565,614.6161427000002,,,,,,,,,,,,,,,,232,2022-06-10_14h12.24.310,FishGame,2022.1.1,60.006252651601926,
,15,넌 신경질적이야,5,Orange,B,2.375,2.233333333333333,ScrollUp,ScrollDown,Orange.png,5,Negative,Congruent,,,,,0,0,0,0,,,,,,,,,,,,,,,,,,,,,,,,,,,,,0,14,14,14,,,,,,,,,,,,,,,,,,,,,,,,,,,,,,,,,,,,,,,,,,,,,,,,,,,,,,,,,,,,,,,,,1.7962963034709294,0.9020201000002999,615.2728792000003,None,ScrollUp,정답입니다,615.2728792000003,None,615.2728792000003,None,615.2728792000003,None,615.2728792000003,None,616.038329,None,616.038329,616.5494377999999,,,,,,,,,,,,,,,,232,2022-06-10_14h12.24.310,FishGame,2022.1.1,60.006252651601926,
,16,넌 똑똑해,2,Orange,B,5.666666666666667,3.966666666666667,ScrollUp,ScrollDown,Orange.png,5,Positive,Incongruent,,,,,0,0,0,0,,,,,,,,,,,,,,,,,,,,,,,,,,,,,0,15,15,15,,,,,,,,,,,,,,,,,,,,,,,,,,,,,,,,,,,,,,,,,,,,,,,,,,,,,,,,,,,,,,,,,1.8009259204069774,0.9859916999998859,617.2035555000002,None,ScrollUp,정답입니다,617.2035555000002,None,617.2035555000002,None,617.2035555000002,None,617.2035555000002,None,618.0544595000001,None,618.0544595000001,618.5655108999999,,,,,,,,,,,,,,,,232,2022-06-10_14h12.24.310,FishGame,2022.1.1,60.006252651601926,
,17,나를 보내줘,6,Green,A,0,0,ScrollUp,ScrollDown,Green.png,5,NonTarget,NonTarget,,,,,0,0,0,0,,,,,,,,,,,,,,,,,,,,,,,,,,,,,0,16,16,16,,,,,,,,,,,,,,,,,,,,,,,,,,,,,,,,,,,,,,,,,,,,,,,,,,,,,,,,,,,,,,,,,1.723765422900518,1.0297295000000304,619.2037421,None,ScrollUp,정답입니다,619.2037421,None,619.2037421,None,619.2037421,None,619.2037421,None,620.1158,None,620.1158,620.6154357,,,,,,,,,,,,,,,,232,2022-06-10_14h12.24.310,FishGame,2022.1.1,60.006252651601926,
,18,넌 협조적이야,1,Green,A,5.625,5.666666666666667,ScrollDown,ScrollUp,Green.png,5,Positive,Congruent,,,,,0,0,0,0,,,,,,,,,,,,,,,,,,,,,,,,,,,,,0,17,17,17,,,,,,,,,,,,,,,,,,,,,,,,,,,,,,,,,,,,,,,,,,,,,,,,,,,,,,,,,,,,,,,,,1.0339506367842357,0.9990913999999975,621.2536297000001,None,ScrollDown,정답입니다,621.2536297000001,None,621.2536297000001,None,621.2536297000001,None,621.2536297000001,None,622.1363813000003,None,622.1363813000003,622.648295,,,,,,,,,,,,,,,,232,2022-06-10_14h12.24.310,FishGame,2022.1.1,60.006252651601926,
,19,나를 데려가줘,6,Orange,B,0,0,ScrollDown,ScrollUp,Orange.png,5,NonTarget,NonTarget,,,,,0,0,0,0,,,,,,,,,,,,,,,,,,,,,,,,,,,,,0,18,18,18,,,,,,,,,,,,,,,,,,,,,,,,,,,,,,,,,,,,,,,,,,,,,,,,,,,,,,,,,,,,,,,,,1,1.0323714000001019,623.3002194000001,None,ScrollDown,정답입니다,623.3002194000001,None,623.3002194000001,None,623.3002194000001,None,623.3002194000001,None,624.2012721000001,None,624.2012721000001,624.7148941999999,,,,,,,,,,,,,,,,232,2022-06-10_14h12.24.310,FishGame,2022.1.1,60.006252651601926,
,20,넌 몰인정해,5,Orange,B,2.541666666666667,2.066666666666667,ScrollUp,ScrollDown,Orange.png,5,Negative,Congruent,,,,,0,0,0,0,,,,,,,,,,,,,,,,,,,,,,,,,,,,,0,19,19,19,,,,,,,,,,,,,,,,,,,,,,,,,,,,,,,,,,,,,,,,,,,,,,,,,,,,,,,,,,,,,,,,,1.817901223897934,0.8990949999997611,625.3711736999999,None,ScrollUp,정답입니다,625.3711736999999,None,625.3711736999999,None,625.3711736999999,None,625.3711736999999,None,626.1344732000002,None,626.1344732000002,626.6479709,,,,,,,,,,,,,,,,232,2022-06-10_14h12.24.310,FishGame,2022.1.1,60.006252651601926,
,21,나를 데려가줘,6,Orange,B,0,0,ScrollDown,ScrollUp,Orange.png,5,NonTarget,NonTarget,,,,,0,0,0,0,,,,,,,,,,,,,,,,,,,,,,,,,,,,,0,20,20,20,,,,,,,,,,,,,,,,,,,,,,,,,,,,,,,,,,,,,,,,,,,,,,,,,,,,,,,,,,,,,,,,,1,1.1696698000000652,627.2907141000001,None,ScrollDown,정답입니다,627.2907141000001,None,627.2907141000001,None,627.2907141000001,None,627.2907141000001,None,628.3368829000001,None,628.3368829000001,628.8475715,,,,,,,,,,,,,,,,232,2022-06-10_14h12.24.310,FishGame,2022.1.1,60.006252651601926,
,22,넌 순진해,3,Orange,B,4.125,4.166666666666667,ScrollUp,ScrollDown,Orange.png,5,Neutral,Neutral,,,,,0,0,0,0,,,,,,,,,,,,,,,,,,,,,,,,,,,,,0,21,21,21,,,,,,,,,,,,,,,,,,,,,,,,,,,,,,,,,,,,,,,,,,,,,,,,,,,,,,,,,,,,,,,,,1.817901223897934,0.8498601999999664,629.4865221999999,None,ScrollUp,정답입니다,629.4865221999999,None,629.4865221999999,None,629.4865221999999,None,629.4865221999999,None,630.2185192000002,None,630.2185192000002,630.7306707000002,,,,,,,,,,,,,,,,232,2022-06-10_14h12.24.310,FishGame,2022.1.1,60.006252651601926,
,23,넌 신뢰할만해,1,Green,A,6.625,5.533333333333333,ScrollDown,ScrollUp,Green.png,5,Positive,Congruent,,,,,0,0,0,0,,,,,,,,,,,,,,,,,,,,,,,,,,,,,0,22,22,22,,,,,,,,,,,,,,,,,,,,,,,,,,,,,,,,,,,,,,,,,,,,,,,,,,,,,,,,,,,,,,,,,1.0833333333333333,0.9184264999998959,631.3809326999999,None,ScrollDown,정답입니다,631.3809326999999,None,631.3809326999999,None,631.3809326999999,None,631.3809326999999,None,632.1689233000002,None,632.1689233000002,632.6806262,,,,,,,,,,,,,,,,232,2022-06-10_14h12.24.310,FishGame,2022.1.1,60.006252651601926,
