name,TrialNum,Word,WordCategory,FishType,WordList,WordValence,WordReputation,CorrectResp,IncorrectResp,FishTypeFile,Round,WordType,Condition,LoopforOrange.thisRepN,LoopforOrange.thisTrialN,LoopforOrange.thisN,LoopforOrange.thisIndex,OrangeInstLoop.thisRepN,OrangeInstLoop.thisTrialN,OrangeInstLoop.thisN,OrangeInstLoop.thisIndex,OrangePrac.thisRepN,OrangePrac.thisTrialN,OrangePrac.thisN,OrangePrac.thisIndex,temp1.thisRepN,temp1.thisTrialN,temp1.thisN,temp1.thisIndex,OrangeRound1.thisRepN,OrangeRound1.thisTrialN,OrangeRound1.thisN,OrangeRound1.thisIndex,OrangeRound2.thisRepN,OrangeRound2.thisTrialN,OrangeRound2.thisN,OrangeRound2.thisIndex,OrangeRound3.thisRepN,OrangeRound3.thisTrialN,OrangeRound3.thisN,OrangeRound3.thisIndex,OrangeRound4.thisRepN,OrangeRound4.thisTrialN,OrangeRound4.thisN,OrangeRound4.thisIndex,OrangeRound5.thisRepN,OrangeRound5.thisTrialN,OrangeRound5.thisN,OrangeRound5.thisIndex,LoopForGreen.thisRepN,LoopForGreen.thisTrialN,LoopForGreen.thisN,LoopForGreen.thisIndex,text_2.started,text_2.stopped,text_3.started,text_3.stopped,key_resp.keys,key_resp.rt,key_resp.started,key_resp.stopped,PassI_2.started,PassI_2.stopped,PassInst_2.keys,PassInst_2.rt,PassInst_2.started,PassInst_2.stopped,mouse_2.x,mouse_2.y,mouse_2.leftButton,mouse_2.midButton,mouse_2.rightButton,mouse_2.started,mouse_2.stopped,image.started,image.stopped,text_5.started,text_5.stopped,text_6.started,text_6.stopped,text_7.started,text_7.stopped,text_8.started,text_8.stopped,slider_2.response,slider_2.rt,slider_2.started,slider_2.stopped,Response_2,Feedback_2,BackGround_2.started,BackGround_2.stopped,Fish_2.started,Fish_2.stopped,WordBox_2.started,WordBox_2.stopped,Words_2.started,Words_2.stopped,BackGround_Feedback_2.started,BackGround_Feedback_2.stopped,Feedbacks_2.started,Feedbacks_2.stopped,Continue_or_not.keys,Continue_or_not.rt,Continue_or_not.started,Continue_or_not.stopped,image_3.started,image_3.stopped,mouse_3.x,mouse_3.y,mouse_3.leftButton,mouse_3.midButton,mouse_3.rightButton,mouse_3.started,mouse_3.stopped,startmain.started,startmain.stopped,slider.response,slider.rt,slider.started,slider.stopped,Response,Feedback,BackGround.started,BackGround.stopped,Fish.started,Fish.stopped,WordBox.started,WordBox.stopped,Words.started,Words.stopped,BackGround_Feedback.started,BackGround_Feedback.stopped,Feedbacks.started,Feedbacks.stopped,text.started,text.stopped,break_interval.started,break_interval.stopped,mouse.x,mouse.y,mouse.leftButton,mouse.midButton,mouse.rightButton,mouse.started,mouse.stopped,stratnextround.started,stratnextround.stopped,endgame.started,endgame.stopped,participant,date,expName,psychopyVersion,frameRate,
,,,,,,,,,,,,,,,,,,,,,,,,,,,,,,,,,,,,,,,,,,,,,,,,,,,,,,19.97311500000069,None,19.97311500000069,None,space,2.771748899999693,20.445756700000857,None,,,,,,,,,,,,,,,,,,,,,,,,,,,,,,,,,,,,,,,,,,,,,,,,,,,,,,,,,,,,,,,,,,,,,,,,,,,,,,,,,,,,,,,,,,233,2022-06-13_18h07.37.337,FishGame,2022.1.1,60.0154719886983,
물고기과제_instruction(참가자용)OrangeVersion.mp4,,,,,,,,,,,,,,0,0,0,0,0,0,0,0,,,,,,,,,,,,,,,,,,,,,,,,,,,,,,,,,,,,,,,,,90.06808770000043,None,n,4.60869939999975,90.06808770000043,None,,,,,,,,,,,,,,,,,,,,,,,,,,,,,,,,,,,,,,,,,,,,,,,,,,,,,,,,,,,,,,,,,,,,,,,,,,,,,,,,,,,,233,2022-06-13_18h07.37.337,FishGame,2022.1.1,60.0154719886983,
,1,넌 교활해,5,Green,B,2.333333333333333,2.133333333333333,ScrollUp,ScrollDown,Green.png,practice,,,0,0,0,0,,,,,0,0,0,0,0,0,0,0,,,,,,,,,,,,,,,,,,,,,,,,,,,,,,,,,,,,,,,0.12222222,-0.22222222,1,0,0,0.5136075600003096,None,94.70262160000038,None,98.58559409999998,100.08520300000055,100.1185886000003,101.06844040000033,101.11850240000058,102.06829140000082,102.06829140000082,None,2,2.70413120000012,103.26538419999997,None,ScrollUp,정답입니다,103.26538419999997,None,103.26538419999997,None,103.26538419999997,None,103.26538419999997,None,105.79316170000038,None,105.79316170000038,106.30106360000082,,,,,,,,,,,,,,,,,,,,,,,,,,,,,,,,,,,,,,,,,,,,,,,,,233,2022-06-13_18h07.37.337,FishGame,2022.1.1,60.0154719886983,
,2,넌 슬기로워,2,Orange,A,6.166666666666667,4.1,ScrollDown,ScrollUp,Orange.png,practice,,,0,0,0,0,,,,,0,0,0,0,0,1,1,1,,,,,,,,,,,,,,,,,,,,,,,,,,,,,,,,,,,,,,,,,,,,,,,,,,,,,,,,1,2.033235599999898,106.95428430000084,None,ScrollDown,정답입니다,106.95428430000084,None,106.95428430000084,None,106.95428430000084,None,106.95428430000084,None,108.8409786000002,None,108.8409786000002,109.35073869999997,,,,,,,,,,,,,,,,,,,,,,,,,,,,,,,,,,,,,,,,,,,,,,,,,233,2022-06-13_18h07.37.337,FishGame,2022.1.1,60.0154719886983,
,3,나를 보내줘,6,Orange,A,0,0,ScrollUp,ScrollDown,Orange.png,practice,,,0,0,0,0,,,,,0,0,0,0,0,2,2,2,,,,,,,,,,,,,,,,,,,,,,,,,,,,,,,,,,,,,,,,,,,,,,,,,,,,,,,,2,2.40510119999999,110.00416170000062,None,ScrollUp,정답입니다,110.00416170000062,None,110.00416170000062,None,110.00416170000062,None,110.00416170000062,None,112.28382890000012,None,112.28382890000012,112.78358470000057,,,,,,,,,,,,,,,,,,,,,,,,,,,,,,,,,,,,,,,,,,,,,,,,,233,2022-06-13_18h07.37.337,FishGame,2022.1.1,60.0154719886983,
,4,나를 데려가줘,6,Green,B,0,0,ScrollDown,ScrollUp,Green.png,practice,,,0,0,0,0,,,,,0,0,0,0,0,3,3,3,,,,,,,,,,,,,,,,,,,,,,,,,,,,,,,,,,,,,,,,,,,,,,,,,,,,,,,,1,1.7596737000003486,113.43518740000036,None,ScrollDown,정답입니다,113.43518740000036,None,113.43518740000036,None,113.43518740000036,None,113.43518740000036,None,115.0668641000002,None,115.0668641000002,115.56662960000085,,,,,,,,,,,,,,,,,,,,,,,,,,,,,,,,,,,,,,,,,,,,,,,,,233,2022-06-13_18h07.37.337,FishGame,2022.1.1,60.0154719886983,
,1,넌 교활해,5,Green,B,2.333333333333333,2.133333333333333,ScrollUp,ScrollDown,Green.png,practice,,,0,0,0,0,,,,,0,0,0,0,,,,,,,,,,,,,,,,,,,,,,,,,,,,,,,,,,,,,,,,,,,,,,,,,,,,,,,,,,,,,,,,,,,,,,,,,,,,,,n,4.326788000000306,116.06647940000039,None,116.06647940000039,None,,,,,,,,,,,,,,,,,,,,,,,,,,,,,,,,,,,,,,,,,,,233,2022-06-13_18h07.37.337,FishGame,2022.1.1,60.0154719886983,
,1,넌 따뜻해,1,Green,B,6.083333333333333,5.6,ScrollUp,ScrollDown,Green.png,1,Positive,Incongruent,0,0,0,0,,,,,,,,,,,,,0,0,0,0,,,,,,,,,,,,,,,,,,,,,,,,,,,,,,,,,,,,,,,,,,,,122.29914660000031,123.79898730000059,123.83217650000006,124.78201160000026,124.83210020000024,125.78185070000018,125.78185070000018,None,,,,,,,,,,,,,,,,,,,,,,,,,0.18148148,-0.16574074,1,0,0,0.31364426000072854,None,120.41597410000031,None,2,2.0411794999999984,126.98531640000056,None,ScrollUp,정답입니다,126.98531640000056,None,126.98531640000056,None,126.98531640000056,None,126.98531640000056,None,128.83885069999997,None,128.83885069999997,129.3481294000003,,,,,,,,,,,,,,,,233,2022-06-13_18h07.37.337,FishGame,2022.1.1,60.0154719886983,
,2,넌 기품있어,2,Green,B,5.791666666666668,4.5,ScrollUp,ScrollDown,Green.png,1,Positive,Incongruent,0,0,0,0,,,,,,,,,,,,,0,1,1,1,,,,,,,,,,,,,,,,,,,,,,,,,,,,,,,,,,,,,,,,,,,,,,,,,,,,,,,,,,,,,,,,,,,,,,,,,,,,,,,,,,,,,2,1.8668897999996261,130.0320816000003,None,ScrollUp,정답입니다,130.0320816000003,None,130.0320816000003,None,130.0320816000003,None,130.0320816000003,None,131.73693320000075,None,131.73693320000075,132.24816720000035,,,,,,,,,,,,,,,,233,2022-06-13_18h07.37.337,FishGame,2022.1.1,60.0154719886983,
,3,나를 보내줘,6,Orange,A,0,0,ScrollUp,ScrollDown,Orange.png,1,NonTarget,NonTarget,0,0,0,0,,,,,,,,,,,,,0,2,2,2,,,,,,,,,,,,,,,,,,,,,,,,,,,,,,,,,,,,,,,,,,,,,,,,,,,,,,,,,,,,,,,,,,,,,,,,,,,,,,,,,,,,,2,1.8219522999997935,132.91918710000027,None,ScrollUp,정답입니다,132.91918710000027,None,132.91918710000027,None,132.91918710000027,None,132.91918710000027,None,134.59757010000067,None,134.59757010000067,135.0973251000005,,,,,,,,,,,,,,,,233,2022-06-13_18h07.37.337,FishGame,2022.1.1,60.0154719886983,
,4,넌 수동적이야,4,Orange,A,2.833333333333333,2.933333333333333,ScrollDown,ScrollUp,Orange.png,1,Negative,Incongruent,0,0,0,0,,,,,,,,,,,,,0,3,3,3,,,,,,,,,,,,,,,,,,,,,,,,,,,,,,,,,,,,,,,,,,,,,,,,,,,,,,,,,,,,,,,,,,,,,,,,,,,,,,,,,,,,,1,1.398857400000452,135.77784060000067,None,ScrollDown,정답입니다,135.77784060000067,None,135.77784060000067,None,135.77784060000067,None,135.77784060000067,None,137.0217459000005,None,137.0217459000005,137.53033760000017,,,,,,,,,,,,,,,,233,2022-06-13_18h07.37.337,FishGame,2022.1.1,60.0154719886983,
,5,넌 사심이 없어,3,Green,B,4.916666666666666,4.333333333333333,ScrollUp,ScrollDown,Green.png,1,Neutral,Neutral,0,0,0,0,,,,,,,,,,,,,0,4,4,4,,,,,,,,,,,,,,,,,,,,,,,,,,,,,,,,,,,,,,,,,,,,,,,,,,,,,,,,,,,,,,,,,,,,,,,,,,,,,,,,,,,,,2,1.6520583999999872,138.19409160000032,None,ScrollUp,정답입니다,138.19409160000032,None,138.19409160000032,None,138.19409160000032,None,138.19409160000032,None,139.70484920000035,None,139.70484920000035,140.21341610000036,,,,,,,,,,,,,,,,233,2022-06-13_18h07.37.337,FishGame,2022.1.1,60.0154719886983,
,6,넌 헤퍼,5,Orange,A,2.458333333333334,2.233333333333333,ScrollDown,ScrollUp,Orange.png,1,Negative,Incongruent,0,0,0,0,,,,,,,,,,,,,0,5,5,5,,,,,,,,,,,,,,,,,,,,,,,,,,,,,,,,,,,,,,,,,,,,,,,,,,,,,,,,,,,,,,,,,,,,,,,,,,,,,,,,,,,,,1,1.7495780999997805,140.8784613000007,None,ScrollDown,정답입니다,140.8784613000007,None,140.8784613000007,None,140.8784613000007,None,140.8784613000007,None,142.48706660000062,None,142.48706660000062,142.99634090000018,,,,,,,,,,,,,,,,233,2022-06-13_18h07.37.337,FishGame,2022.1.1,60.0154719886983,
,7,넌 말쑥해,3,Orange,A,4.833333333333334,4.333333333333333,ScrollDown,ScrollUp,Orange.png,1,Neutral,Neutral,0,0,0,0,,,,,,,,,,,,,0,6,6,6,,,,,,,,,,,,,,,,,,,,,,,,,,,,,,,,,,,,,,,,,,,,,,,,,,,,,,,,,,,,,,,,,,,,,,,,,,,,,,,,,,,,,1,1.7090900000002875,143.66044030000012,None,ScrollDown,정답입니다,143.66044030000012,None,143.66044030000012,None,143.66044030000012,None,143.66044030000012,None,145.22934050000003,None,145.22934050000003,145.72938650000015,,,,,,,,,,,,,,,,233,2022-06-13_18h07.37.337,FishGame,2022.1.1,60.0154719886983,
,8,넌 투덜거려,5,Green,B,2.541666666666667,2.266666666666667,ScrollUp,ScrollDown,Green.png,1,Negative,Congruent,0,0,0,0,,,,,,,,,,,,,0,7,7,7,,,,,,,,,,,,,,,,,,,,,,,,,,,,,,,,,,,,,,,,,,,,,,,,,,,,,,,,,,,,,,,,,,,,,,,,,,,,,,,,,,,,,2,1.4931186000003436,146.39969530000053,None,ScrollUp,정답입니다,146.39969530000053,None,146.39969530000053,None,146.39969530000053,None,146.39969530000053,None,147.74602870000035,None,147.74602870000035,148.24573260000034,,,,,,,,,,,,,,,,233,2022-06-13_18h07.37.337,FishGame,2022.1.1,60.0154719886983,
,9,넌 적극적이야,1,Orange,A,5.708333333333333,5.533333333333333,ScrollDown,ScrollUp,Orange.png,1,Positive,Congruent,0,0,0,0,,,,,,,,,,,,,0,8,8,8,,,,,,,,,,,,,,,,,,,,,,,,,,,,,,,,,,,,,,,,,,,,,,,,,,,,,,,,,,,,,,,,,,,,,,,,,,,,,,,,,,,,,1,1.5161960999994335,148.91440910000074,None,ScrollDown,정답입니다,148.91440910000074,None,148.91440910000074,None,148.91440910000074,None,148.91440910000074,None,150.28576010000052,None,150.28576010000052,150.79538150000008,,,,,,,,,,,,,,,,233,2022-06-13_18h07.37.337,FishGame,2022.1.1,60.0154719886983,
,10,넌 재미없어,4,Green,B,2.625,2.966666666666667,ScrollUp,ScrollDown,Green.png,1,Negative,Congruent,0,0,0,0,,,,,,,,,,,,,0,9,9,9,,,,,,,,,,,,,,,,,,,,,,,,,,,,,,,,,,,,,,,,,,,,,,,,,,,,,,,,,,,,,,,,,,,,,,,,,,,,,,,,,,,,,2,1.532336799999939,151.4540353000002,None,ScrollUp,정답입니다,151.4540353000002,None,151.4540353000002,None,151.4540353000002,None,151.4540353000002,None,152.8515933000008,None,152.8515933000008,153.36166120000053,,,,,,,,,,,,,,,,233,2022-06-13_18h07.37.337,FishGame,2022.1.1,60.0154719886983,
,11,넌 명석해,2,Orange,A,5.875,4.033333333333333,ScrollDown,ScrollUp,Orange.png,1,Positive,Congruent,0,0,0,0,,,,,,,,,,,,,0,10,10,10,,,,,,,,,,,,,,,,,,,,,,,,,,,,,,,,,,,,,,,,,,,,,,,,,,,,,,,,,,,,,,,,,,,,,,,,,,,,,,,,,,,,,1,1.2106944999995903,154.02581110000028,None,ScrollDown,정답입니다,154.02581110000028,None,154.02581110000028,None,154.02581110000028,None,154.02581110000028,None,155.0954438000008,None,155.0954438000008,155.5947231,,,,,,,,,,,,,,,,233,2022-06-13_18h07.37.337,FishGame,2022.1.1,60.0154719886983,
,12,나를 데려가줘,6,Green,B,0,0,ScrollDown,ScrollUp,Green.png,1,NonTarget,NonTarget,0,0,0,0,,,,,,,,,,,,,0,11,11,11,,,,,,,,,,,,,,,,,,,,,,,,,,,,,,,,,,,,,,,,,,,,,,,,,,,,,,,,,,,,,,,,,,,,,,,,,,,,,,,,,,,,,1,2.415398200000709,156.2547172000004,None,ScrollDown,정답입니다,156.2547172000004,None,156.2547172000004,None,156.2547172000004,None,156.2547172000004,None,158.53461070000048,None,158.53461070000048,159.04456570000002,,,,,,,,,,,,,,,,233,2022-06-13_18h07.37.337,FishGame,2022.1.1,60.0154719886983,
,13,넌 소심해,4,Orange,A,3,3.1,ScrollDown,ScrollUp,Orange.png,1,Negative,Incongruent,0,0,0,0,,,,,,,,,,,,,0,12,12,12,,,,,,,,,,,,,,,,,,,,,,,,,,,,,,,,,,,,,,,,,,,,,,,,,,,,,,,,,,,,,,,,,,,,,,,,,,,,,,,,,,,,,1,1.3925584999997227,159.69869430000017,None,ScrollDown,정답입니다,159.69869430000017,None,159.69869430000017,None,159.69869430000017,None,159.69869430000017,None,160.96116970000003,None,160.96116970000003,161.46059910000076,,,,,,,,,,,,,,,,233,2022-06-13_18h07.37.337,FishGame,2022.1.1,60.0154719886983,
,14,넌 합리적이야,2,Orange,A,5.583333333333333,4.733333333333333,ScrollDown,ScrollUp,Orange.png,1,Positive,Congruent,0,0,0,0,,,,,,,,,,,,,0,13,13,13,,,,,,,,,,,,,,,,,,,,,,,,,,,,,,,,,,,,,,,,,,,,,,,,,,,,,,,,,,,,,,,,,,,,,,,,,,,,,,,,,,,,,1,1.2928835000002437,162.13325480000003,None,ScrollDown,정답입니다,162.13325480000003,None,162.13325480000003,None,162.13325480000003,None,162.13325480000003,None,163.2772057000002,None,163.2772057000002,163.7769332000007,,,,,,,,,,,,,,,,233,2022-06-13_18h07.37.337,FishGame,2022.1.1,60.0154719886983,
,15,넌 무자비해,5,Green,B,2.333333333333333,2.1,ScrollUp,ScrollDown,Green.png,1,Negative,Congruent,0,0,0,0,,,,,,,,,,,,,0,14,14,14,,,,,,,,,,,,,,,,,,,,,,,,,,,,,,,,,,,,,,,,,,,,,,,,,,,,,,,,,,,,,,,,,,,,,,,,,,,,,,,,,,,,,2,1.4109722000002876,164.43803210000078,None,ScrollUp,정답입니다,164.43803210000078,None,164.43803210000078,None,164.43803210000078,None,164.43803210000078,None,165.71042100000068,None,165.71042100000068,166.20997410000018,,,,,,,,,,,,,,,,233,2022-06-13_18h07.37.337,FishGame,2022.1.1,60.0154719886983,
,16,나를 보내줘,6,Orange,A,0,0,ScrollUp,ScrollDown,Orange.png,1,NonTarget,NonTarget,0,0,0,0,,,,,,,,,,,,,0,15,15,15,,,,,,,,,,,,,,,,,,,,,,,,,,,,,,,,,,,,,,,,,,,,,,,,,,,,,,,,,,,,,,,,,,,,,,,,,,,,,,,,,,,,,2,1.3504024000003483,166.86841530000038,None,ScrollUp,정답입니다,166.86841530000038,None,166.86841530000038,None,166.86841530000038,None,166.86841530000038,None,168.08301110000048,None,168.08301110000048,168.59301420000065,,,,,,,,,,,,,,,,233,2022-06-13_18h07.37.337,FishGame,2022.1.1,60.0154719886983,
,17,넌 현실적이야,3,Green,B,4.608695652173913,4.766666666666667,ScrollUp,ScrollDown,Green.png,1,Neutral,Neutral,0,0,0,0,,,,,,,,,,,,,0,16,16,16,,,,,,,,,,,,,,,,,,,,,,,,,,,,,,,,,,,,,,,,,,,,,,,,,,,,,,,,,,,,,,,,,,,,,,,,,,,,,,,,,,,,,2,1.8810772000006182,169.2537996000001,None,ScrollUp,정답입니다,169.2537996000001,None,169.2537996000001,None,169.2537996000001,None,169.2537996000001,None,170.99776850000035,None,170.99776850000035,171.5094551000002,,,,,,,,,,,,,,,,233,2022-06-13_18h07.37.337,FishGame,2022.1.1,60.0154719886983,
,18,넌 의리있어,1,Green,B,5.833333333333334,5.633333333333334,ScrollUp,ScrollDown,Green.png,1,Positive,Incongruent,0,0,0,0,,,,,,,,,,,,,0,17,17,17,,,,,,,,,,,,,,,,,,,,,,,,,,,,,,,,,,,,,,,,,,,,,,,,,,,,,,,,,,,,,,,,,,,,,,,,,,,,,,,,,,,,,2,1.5071545999999216,172.1670221000004,None,ScrollUp,정답입니다,172.1670221000004,None,172.1670221000004,None,172.1670221000004,None,172.1670221000004,None,173.54231430000073,None,173.54231430000073,174.04236860000037,,,,,,,,,,,,,,,,233,2022-06-13_18h07.37.337,FishGame,2022.1.1,60.0154719886983,
,19,넌 신경과민이야,5,Orange,A,2.541666666666667,2.166666666666667,ScrollDown,ScrollUp,Orange.png,1,Negative,Incongruent,0,0,0,0,,,,,,,,,,,,,0,18,18,18,,,,,,,,,,,,,,,,,,,,,,,,,,,,,,,,,,,,,,,,,,,,,,,,,,,,,,,,,,,,,,,,,,,,,,,,,,,,,,,,,,,,,1,2.7658799000000727,174.7242436000006,None,ScrollDown,정답입니다,174.7242436000006,None,174.7242436000006,None,174.7242436000006,None,174.7242436000006,None,177.3311803000006,None,177.3311803000006,177.84191320000082,,,,,,,,,,,,,,,,233,2022-06-13_18h07.37.337,FishGame,2022.1.1,60.0154719886983,
,20,넌 편안해,1,Orange,A,5.916666666666666,5.866666666666666,ScrollDown,ScrollUp,Orange.png,1,Positive,Congruent,0,0,0,0,,,,,,,,,,,,,0,19,19,19,,,,,,,,,,,,,,,,,,,,,,,,,,,,,,,,,,,,,,,,,,,,,,,,,,,,,,,,,,,,,,,,,,,,,,,,,,,,,,,,,,,,,1,1.2255399999994552,178.50675430000047,None,ScrollDown,정답입니다,178.50675430000047,None,178.50675430000047,None,178.50675430000047,None,178.50675430000047,None,179.5915281000007,None,179.5915281000007,180.09162690000085,,,,,,,,,,,,,,,,233,2022-06-13_18h07.37.337,FishGame,2022.1.1,60.0154719886983,
,21,넌 품위있어,2,Green,B,5.291666666666666,4.466666666666667,ScrollUp,ScrollDown,Green.png,1,Positive,Incongruent,0,0,0,0,,,,,,,,,,,,,0,20,20,20,,,,,,,,,,,,,,,,,,,,,,,,,,,,,,,,,,,,,,,,,,,,,,,,,,,,,,,,,,,,,,,,,,,,,,,,,,,,,,,,,,,,,2,1.0566864999991594,180.74723640000047,None,ScrollUp,정답입니다,180.74723640000047,None,180.74723640000047,None,180.74723640000047,None,180.74723640000047,None,181.6745735000004,None,181.6745735000004,182.1747163,,,,,,,,,,,,,,,,233,2022-06-13_18h07.37.337,FishGame,2022.1.1,60.0154719886983,
,22,넌 빈틈없어,3,Orange,A,4.833333333333333,3.966666666666667,ScrollDown,ScrollUp,Orange.png,1,Neutral,Neutral,0,0,0,0,,,,,,,,,,,,,0,21,21,21,,,,,,,,,,,,,,,,,,,,,,,,,,,,,,,,,,,,,,,,,,,,,,,,,,,,,,,,,,,,,,,,,,,,,,,,,,,,,,,,,,,,,1,1.2501582000004419,182.84343080000053,None,ScrollDown,정답입니다,182.84343080000053,None,182.84343080000053,None,182.84343080000053,None,182.84343080000053,None,183.9478510000008,None,183.9478510000008,184.45765870000014,,,,,,,,,,,,,,,,233,2022-06-13_18h07.37.337,FishGame,2022.1.1,60.0154719886983,
,23,넌 상상력없어,4,Green,B,2.833333333333333,3.133333333333333,ScrollUp,ScrollDown,Green.png,1,Negative,Congruent,0,0,0,0,,,,,,,,,,,,,0,22,22,22,,,,,,,,,,,,,,,,,,,,,,,,,,,,,,,,,,,,,,,,,,,,,,,,,,,,,,,,,,,,,,,,,,,,,,,,,,,,,,,,,,,,,2,1.1067715999997745,185.11815340000066,None,ScrollUp,정답입니다,185.11815340000066,None,185.11815340000066,None,185.11815340000066,None,185.11815340000066,None,186.0909311000005,None,186.0909311000005,186.59078150000005,,,,,,,,,,,,,,,,233,2022-06-13_18h07.37.337,FishGame,2022.1.1,60.0154719886983,
,24,넌 지혜로워,2,Green,B,6.333333333333334,4.633333333333334,ScrollUp,ScrollDown,Green.png,1,Positive,Incongruent,0,0,0,0,,,,,,,,,,,,,0,23,23,23,,,,,,,,,,,,,,,,,,,,,,,,,,,,,,,,,,,,,,,,,,,,,,,,,,,,,,,,,,,,,,,,,,,,,,,,,,,,,,,,,,,,,2,1.248008800000207,187.2539282000007,None,ScrollUp,정답입니다,187.2539282000007,None,187.2539282000007,None,187.2539282000007,None,187.2539282000007,None,188.36337900000035,None,188.36337900000035,188.8737527000003,,,,,,,,,,,,,,,,233,2022-06-13_18h07.37.337,FishGame,2022.1.1,60.0154719886983,
,25,넌 시끄러워,4,Orange,A,2.833333333333333,3.033333333333333,ScrollDown,ScrollUp,Orange.png,1,Negative,Incongruent,0,0,0,0,,,,,,,,,,,,,0,24,24,24,,,,,,,,,,,,,,,,,,,,,,,,,,,,,,,,,,,,,,,,,,,,,,,,,,,,,,,,,,,,,,,,,,,,,,,,,,,,,,,,,,,,,1,1.498598099999981,189.54671159999998,None,ScrollDown,정답입니다,189.54671159999998,None,189.54671159999998,None,189.54671159999998,None,189.54671159999998,None,190.89653760000056,None,190.89653760000056,191.4068414000003,,,,,,,,,,,,,,,,233,2022-06-13_18h07.37.337,FishGame,2022.1.1,60.0154719886983,
,26,넌 만사태평이야,3,Green,B,4,4.333333333333333,ScrollUp,ScrollDown,Green.png,1,Neutral,Neutral,0,0,0,0,,,,,,,,,,,,,0,25,25,25,,,,,,,,,,,,,,,,,,,,,,,,,,,,,,,,,,,,,,,,,,,,,,,,,,,,,,,,,,,,,,,,,,,,,,,,,,,,,,,,,,,,,2,1.4179534999993848,192.0713080000005,None,ScrollUp,정답입니다,192.0713080000005,None,192.0713080000005,None,192.0713080000005,None,192.0713080000005,None,193.34630460000062,None,193.34630460000062,193.85657160000028,,,,,,,,,,,,,,,,233,2022-06-13_18h07.37.337,FishGame,2022.1.1,60.0154719886983,
,27,넌 붙임성있어,1,Orange,A,5.708333333333333,5.633333333333334,ScrollDown,ScrollUp,Orange.png,1,Positive,Congruent,0,0,0,0,,,,,,,,,,,,,0,26,26,26,,,,,,,,,,,,,,,,,,,,,,,,,,,,,,,,,,,,,,,,,,,,,,,,,,,,,,,,,,,,,,,,,,,,,,,,,,,,,,,,,,,,,1,1.0993011000000479,194.5268328000002,None,ScrollDown,정답입니다,194.5268328000002,None,194.5268328000002,None,194.5268328000002,None,194.5268328000002,None,195.47970390000046,None,195.47970390000046,195.98967810000067,,,,,,,,,,,,,,,,233,2022-06-13_18h07.37.337,FishGame,2022.1.1,60.0154719886983,
,28,넌 영리해,2,Orange,A,6,4.033333333333333,ScrollDown,ScrollUp,Orange.png,1,Positive,Congruent,0,0,0,0,,,,,,,,,,,,,0,27,27,27,,,,,,,,,,,,,,,,,,,,,,,,,,,,,,,,,,,,,,,,,,,,,,,,,,,,,,,,,,,,,,,,,,,,,,,,,,,,,,,,,,,,,1,1.0242652999995698,196.64319539999997,None,ScrollDown,정답입니다,196.64319539999997,None,196.64319539999997,None,196.64319539999997,None,196.64319539999997,None,197.5398195000007,None,197.5398195000007,198.0392784000005,,,,,,,,,,,,,,,,233,2022-06-13_18h07.37.337,FishGame,2022.1.1,60.0154719886983,
,29,넌 열심이야,1,Green,B,6.041666666666667,5.833333333333333,ScrollUp,ScrollDown,Green.png,1,Positive,Incongruent,0,0,0,0,,,,,,,,,,,,,0,28,28,28,,,,,,,,,,,,,,,,,,,,,,,,,,,,,,,,,,,,,,,,,,,,,,,,,,,,,,,,,,,,,,,,,,,,,,,,,,,,,,,,,,,,,2,1.0574474000004557,198.6962396000008,None,ScrollUp,정답입니다,198.6962396000008,None,198.6962396000008,None,198.6962396000008,None,198.6962396000008,None,199.62248420000014,None,199.62248420000014,200.12234200000057,,,,,,,,,,,,,,,,233,2022-06-13_18h07.37.337,FishGame,2022.1.1,60.0154719886983,
,30,넌 인기없어,4,Green,B,3,3.3,ScrollUp,ScrollDown,Green.png,1,Negative,Congruent,0,0,0,0,,,,,,,,,,,,,0,29,29,29,,,,,,,,,,,,,,,,,,,,,,,,,,,,,,,,,,,,,,,,,,,,,,,,,,,,,,,,,,,,,,,,,,,,,,,,,,,,,,,,,,,,,2,1.3725305999996635,200.78220480000073,None,ScrollUp,정답입니다,200.78220480000073,None,200.78220480000073,None,200.78220480000073,None,200.78220480000073,None,202.02234510000017,None,202.02234510000017,202.52210750000086,,,,,,,,,,,,,,,,233,2022-06-13_18h07.37.337,FishGame,2022.1.1,60.0154719886983,
,31,넌 익살스러워,3,Orange,A,4.708333333333334,4.833333333333333,ScrollDown,ScrollUp,Orange.png,1,Neutral,Neutral,0,0,0,0,,,,,,,,,,,,,0,30,30,30,,,,,,,,,,,,,,,,,,,,,,,,,,,,,,,,,,,,,,,,,,,,,,,,,,,,,,,,,,,,,,,,,,,,,,,,,,,,,,,,,,,,,1,1.2333090000001903,203.19142230000034,None,ScrollDown,정답입니다,203.19142230000034,None,203.19142230000034,None,203.19142230000034,None,203.19142230000034,None,204.27864900000077,None,204.27864900000077,204.78837980000026,,,,,,,,,,,,,,,,233,2022-06-13_18h07.37.337,FishGame,2022.1.1,60.0154719886983,
,32,넌 이기적이야,5,Green,B,2.291666666666667,2.333333333333333,ScrollUp,ScrollDown,Green.png,1,Negative,Congruent,0,0,0,0,,,,,,,,,,,,,0,31,31,31,,,,,,,,,,,,,,,,,,,,,,,,,,,,,,,,,,,,,,,,,,,,,,,,,,,,,,,,,,,,,,,,,,,,,,,,,,,,,,,,,,,,,2,1.176255399999718,205.43997920000038,None,ScrollUp,정답입니다,205.43997920000038,None,205.43997920000038,None,205.43997920000038,None,205.43997920000038,None,206.48818540000048,None,206.48818540000048,206.98814660000062,,,,,,,,,,,,,,,,233,2022-06-13_18h07.37.337,FishGame,2022.1.1,60.0154719886983,
,33,나를 데려가줘,6,Green,B,0,0,ScrollDown,ScrollUp,Green.png,1,NonTarget,NonTarget,0,0,0,0,,,,,,,,,,,,,0,32,32,32,,,,,,,,,,,,,,,,,,,,,,,,,,,,,,,,,,,,,,,,,,,,,,,,,,,,,,,,,,,,,,,,,,,,,,,,,,,,,,,,,,,,,1,1.0430520999998407,207.6393431000006,None,ScrollDown,정답입니다,207.6393431000006,None,207.6393431000006,None,207.6393431000006,None,207.6393431000006,None,208.55437400000028,None,208.55437400000028,209.05449690000023,,,,,,,,,,,,,,,,233,2022-06-13_18h07.37.337,FishGame,2022.1.1,60.0154719886983,
,34,넌 기회주의자야,5,Orange,A,2.875,2.133333333333333,ScrollDown,ScrollUp,Orange.png,1,Negative,Incongruent,0,0,0,0,,,,,,,,,,,,,0,33,33,33,,,,,,,,,,,,,,,,,,,,,,,,,,,,,,,,,,,,,,,,,,,,,,,,,,,,,,,,,,,,,,,,,,,,,,,,,,,,,,,,,,,,,1,1.0014502999993056,209.7219085000006,None,ScrollDown,정답입니다,209.7219085000006,None,209.7219085000006,None,209.7219085000006,None,209.7219085000006,None,210.58021850000023,None,210.58021850000023,211.08756820000053,,,,,,,,,,,,,,,,233,2022-06-13_18h07.37.337,FishGame,2022.1.1,60.0154719886983,
,1,넌 미성숙해,4,Orange,A,3,3.2,ScrollDown,ScrollUp,Orange.png,2,Negative,Incongruent,0,0,0,0,,,,,,,,,,,,,,,,,0,0,0,0,,,,,,,,,,,,,,,,,,,,,,,,,,,,,,,,,,,,,,,,243.35019009999996,244.84996440000032,244.88329750000048,245.83314600000085,245.88314310000078,246.83310730000085,246.83310730000085,None,,,,,,,,,,,,,,,,,,,,,,,,,,,,,,,,,,1,1.4370457000004535,248.0371477000008,None,ScrollDown,정답입니다,248.0371477000008,None,248.0371477000008,None,248.0371477000008,None,248.0371477000008,None,249.28727730000082,None,249.28727730000082,249.7992718000005,211.58751780000057,None,211.58751780000057,None,0.0787037,-0.21111111,1,0,0,0.016053159999501077,None,241.60032030000002,None,,,233,2022-06-13_18h07.37.337,FishGame,2022.1.1,60.0154719886983,
,2,넌 반사회적이야,5,Green,B,2.416666666666667,2.033333333333333,ScrollUp,ScrollDown,Green.png,2,Negative,Congruent,0,0,0,0,,,,,,,,,,,,,,,,,0,1,1,1,,,,,,,,,,,,,,,,,,,,,,,,,,,,,,,,,,,,,,,,,,,,,,,,,,,,,,,,,,,,,,,,,,,,,,,,,,,,,,,,,2,1.261008800000127,250.45550900000035,None,ScrollUp,정답입니다,250.45550900000035,None,250.45550900000035,None,250.45550900000035,None,250.45550900000035,None,251.58261680000032,None,251.58261680000032,252.0822951,,,,,,,,,,,,,,,,233,2022-06-13_18h07.37.337,FishGame,2022.1.1,60.0154719886983,
,3,넌 유능해,2,Orange,A,6.208333333333333,4.433333333333334,ScrollDown,ScrollUp,Orange.png,2,Positive,Congruent,0,0,0,0,,,,,,,,,,,,,,,,,0,2,2,2,,,,,,,,,,,,,,,,,,,,,,,,,,,,,,,,,,,,,,,,,,,,,,,,,,,,,,,,,,,,,,,,,,,,,,,,,,,,,,,,,1,1.266174299999875,252.74808230000053,None,ScrollDown,정답입니다,252.74808230000053,None,252.74808230000053,None,252.74808230000053,None,252.74808230000053,None,253.87379820000024,None,253.87379820000024,254.38203880000037,,,,,,,,,,,,,,,,233,2022-06-13_18h07.37.337,FishGame,2022.1.1,60.0154719886983,
,4,넌 능숙해,2,Green,B,5.666666666666667,4.733333333333333,ScrollUp,ScrollDown,Green.png,2,Positive,Incongruent,0,0,0,0,,,,,,,,,,,,,,,,,0,3,3,3,,,,,,,,,,,,,,,,,,,,,,,,,,,,,,,,,,,,,,,,,,,,,,,,,,,,,,,,,,,,,,,,,,,,,,,,,,,,,,,,,2,0.9239738999995097,255.03417750000062,None,ScrollUp,정답입니다,255.03417750000062,None,255.03417750000062,None,255.03417750000062,None,255.03417750000062,None,255.83208840000043,None,255.83208840000043,256.3317526000001,,,,,,,,,,,,,,,,233,2022-06-13_18h07.37.337,FishGame,2022.1.1,60.0154719886983,
,5,넌 진부해,4,Green,B,2.458333333333333,3.166666666666667,ScrollUp,ScrollDown,Green.png,2,Negative,Congruent,0,0,0,0,,,,,,,,,,,,,,,,,0,4,4,4,,,,,,,,,,,,,,,,,,,,,,,,,,,,,,,,,,,,,,,,,,,,,,,,,,,,,,,,,,,,,,,,,,,,,,,,,,,,,,,,,2,1.165476299999682,256.99212440000065,None,ScrollUp,정답입니다,256.99212440000065,None,256.99212440000065,None,256.99212440000065,None,256.99212440000065,None,258.02090020000014,None,258.02090020000014,258.53147570000056,,,,,,,,,,,,,,,,233,2022-06-13_18h07.37.337,FishGame,2022.1.1,60.0154719886983,
,6,나를 보내줘,6,Orange,A,0,0,ScrollUp,ScrollDown,Orange.png,2,NonTarget,NonTarget,0,0,0,0,,,,,,,,,,,,,,,,,0,5,5,5,,,,,,,,,,,,,,,,,,,,,,,,,,,,,,,,,,,,,,,,,,,,,,,,,,,,,,,,,,,,,,,,,,,,,,,,,,,,,,,,,2,1.4625606999998126,259.18891730000087,None,ScrollUp,정답입니다,259.18891730000087,None,259.18891730000087,None,259.18891730000087,None,259.18891730000087,None,260.51904770000056,None,260.51904770000056,261.031113,,,,,,,,,,,,,,,,233,2022-06-13_18h07.37.337,FishGame,2022.1.1,60.0154719886983,
,7,넌 엄격해,3,Orange,A,4.166666666666666,4.1,ScrollDown,ScrollUp,Orange.png,2,Neutral,Neutral,0,0,0,0,,,,,,,,,,,,,,,,,0,6,6,6,,,,,,,,,,,,,,,,,,,,,,,,,,,,,,,,,,,,,,,,,,,,,,,,,,,,,,,,,,,,,,,,,,,,,,,,,,,,,,,,,1,1.1245733999994627,261.6970377000007,None,ScrollDown,정답입니다,261.6970377000007,None,261.6970377000007,None,261.6970377000007,None,261.6970377000007,None,262.6808699000003,None,262.6808699000003,263.1809064000008,,,,,,,,,,,,,,,,233,2022-06-13_18h07.37.337,FishGame,2022.1.1,60.0154719886983,
,8,나를 보내줘,6,Orange,A,0,0,ScrollUp,ScrollDown,Orange.png,2,NonTarget,NonTarget,0,0,0,0,,,,,,,,,,,,,,,,,0,7,7,7,,,,,,,,,,,,,,,,,,,,,,,,,,,,,,,,,,,,,,,,,,,,,,,,,,,,,,,,,,,,,,,,,,,,,,,,,,,,,,,,,2,1.2245307000002867,263.84025870000005,None,ScrollUp,정답입니다,263.84025870000005,None,263.84025870000005,None,263.84025870000005,None,263.84025870000005,None,264.9306312000008,None,264.9306312000008,265.43063770000026,,,,,,,,,,,,,,,,233,2022-06-13_18h07.37.337,FishGame,2022.1.1,60.0154719886983,
,9,넌 대담해,3,Green,B,4.875,4.866666666666666,ScrollUp,ScrollDown,Green.png,2,Neutral,Neutral,0,0,0,0,,,,,,,,,,,,,,,,,0,8,8,8,,,,,,,,,,,,,,,,,,,,,,,,,,,,,,,,,,,,,,,,,,,,,,,,,,,,,,,,,,,,,,,,,,,,,,,,,,,,,,,,,2,1.241076499999508,266.08877780000057,None,ScrollUp,정답입니다,266.08877780000057,None,266.08877780000057,None,266.08877780000057,None,266.08877780000057,None,267.1969009000004,None,267.1969009000004,267.6969510000008,,,,,,,,,,,,,,,,233,2022-06-13_18h07.37.337,FishGame,2022.1.1,60.0154719886983,
,10,넌 꾸준해,1,Orange,A,5.916666666666668,5.8,ScrollDown,ScrollUp,Orange.png,2,Positive,Congruent,0,0,0,0,,,,,,,,,,,,,,,,,0,9,9,9,,,,,,,,,,,,,,,,,,,,,,,,,,,,,,,,,,,,,,,,,,,,,,,,,,,,,,,,,,,,,,,,,,,,,,,,,,,,,,,,,1,1.1516515000002983,268.3618712000007,None,ScrollDown,정답입니다,268.3618712000007,None,268.3618712000007,None,268.3618712000007,None,268.3618712000007,None,269.37248270000055,None,269.37248270000055,269.8800084000004,,,,,,,,,,,,,,,,233,2022-06-13_18h07.37.337,FishGame,2022.1.1,60.0154719886983,
,11,나를 데려가줘,6,Green,B,0,0,ScrollDown,ScrollUp,Green.png,2,NonTarget,NonTarget,0,0,0,0,,,,,,,,,,,,,,,,,0,10,10,10,,,,,,,,,,,,,,,,,,,,,,,,,,,,,,,,,,,,,,,,,,,,,,,,,,,,,,,,,,,,,,,,,,,,,,,,,,,,,,,,,1,1.5178399999995236,270.5326765,None,ScrollDown,정답입니다,270.5326765,None,270.5326765,None,270.5326765,None,270.5326765,None,271.92216890000054,None,271.92216890000054,272.4296727000001,,,,,,,,,,,,,,,,233,2022-06-13_18h07.37.337,FishGame,2022.1.1,60.0154719886983,
,12,넌 독선적이야,5,Orange,A,2.458333333333333,1.933333333333333,ScrollDown,ScrollUp,Orange.png,2,Negative,Incongruent,0,0,0,0,,,,,,,,,,,,,,,,,0,11,11,11,,,,,,,,,,,,,,,,,,,,,,,,,,,,,,,,,,,,,,,,,,,,,,,,,,,,,,,,,,,,,,,,,,,,,,,,,,,,,,,,,1,1.2328525000002628,273.0974793000005,None,ScrollDown,정답입니다,273.0974793000005,None,273.0974793000005,None,273.0974793000005,None,273.0974793000005,None,274.1865966000005,None,274.1865966000005,274.69608380000045,,,,,,,,,,,,,,,,233,2022-06-13_18h07.37.337,FishGame,2022.1.1,60.0154719886983,
,13,나를 보내줘,6,Orange,A,0,0,ScrollUp,ScrollDown,Orange.png,2,NonTarget,NonTarget,0,0,0,0,,,,,,,,,,,,,,,,,0,12,12,12,,,,,,,,,,,,,,,,,,,,,,,,,,,,,,,,,,,,,,,,,,,,,,,,,,,,,,,,,,,,,,,,,,,,,,,,,,,,,,,,,2,1.1821149999996123,275.35367380000025,None,ScrollUp,정답입니다,275.35367380000025,None,275.35367380000025,None,275.35367380000025,None,275.35367380000025,None,276.40252280000004,None,276.40252280000004,276.9124203000001,,,,,,,,,,,,,,,,233,2022-06-13_18h07.37.337,FishGame,2022.1.1,60.0154719886983,
,14,넌 책임감있어,1,Green,B,6.347826086956522,6,ScrollUp,ScrollDown,Green.png,2,Positive,Incongruent,0,0,0,0,,,,,,,,,,,,,,,,,0,13,13,13,,,,,,,,,,,,,,,,,,,,,,,,,,,,,,,,,,,,,,,,,,,,,,,,,,,,,,,,,,,,,,,,,,,,,,,,,,,,,,,,,1,1.0999301000001651,277.57221370000025,None,ScrollDown,오답입니다,277.57221370000025,None,277.57221370000025,None,277.57221370000025,None,277.57221370000025,None,278.54685230000086,None,278.54685230000086,279.0622004000006,,,,,,,,,,,,,,,,233,2022-06-13_18h07.37.337,FishGame,2022.1.1,60.0154719886983,
,15,넌 문학적이야,3,Orange,A,4.708333333333334,4.333333333333333,ScrollDown,ScrollUp,Orange.png,2,Neutral,Neutral,0,0,0,0,,,,,,,,,,,,,,,,,0,14,14,14,,,,,,,,,,,,,,,,,,,,,,,,,,,,,,,,,,,,,,,,,,,,,,,,,,,,,,,,,,,,,,,,,,,,,,,,,,,,,,,,,1,1.4022649999997157,279.7104979000005,None,ScrollDown,정답입니다,279.7104979000005,None,279.7104979000005,None,279.7104979000005,None,279.7104979000005,None,280.97335250000015,None,280.97335250000015,281.4785160000001,,,,,,,,,,,,,,,,233,2022-06-13_18h07.37.337,FishGame,2022.1.1,60.0154719886983,
,16,넌 재미있어,1,Green,B,5.875,5.7,ScrollUp,ScrollDown,Green.png,2,Positive,Incongruent,0,0,0,0,,,,,,,,,,,,,,,,,0,15,15,15,,,,,,,,,,,,,,,,,,,,,,,,,,,,,,,,,,,,,,,,,,,,,,,,,,,,,,,,,,,,,,,,,,,,,,,,,,,,,,,,,2,1.3227776999992784,282.1272428000002,None,ScrollUp,정답입니다,282.1272428000002,None,282.1272428000002,None,282.1272428000002,None,282.1272428000002,None,283.3284001000002,None,283.3284001000002,283.8281898000005,,,,,,,,,,,,,,,,233,2022-06-13_18h07.37.337,FishGame,2022.1.1,60.0154719886983,
,17,나를 데려가줘,6,Green,B,0,0,ScrollDown,ScrollUp,Green.png,2,NonTarget,NonTarget,0,0,0,0,,,,,,,,,,,,,,,,,0,16,16,16,,,,,,,,,,,,,,,,,,,,,,,,,,,,,,,,,,,,,,,,,,,,,,,,,,,,,,,,,,,,,,,,,,,,,,,,,,,,,,,,,1,1.4094622000002346,284.4793193000005,None,ScrollDown,정답입니다,284.4793193000005,None,284.4793193000005,None,284.4793193000005,None,284.4793193000005,None,285.7612054000001,None,285.7612054000001,286.2612265000007,,,,,,,,,,,,,,,,233,2022-06-13_18h07.37.337,FishGame,2022.1.1,60.0154719886983,
,18,넌 협력적이야,1,Orange,A,5.625,5.633333333333334,ScrollDown,ScrollUp,Orange.png,2,Positive,Congruent,0,0,0,0,,,,,,,,,,,,,,,,,0,17,17,17,,,,,,,,,,,,,,,,,,,,,,,,,,,,,,,,,,,,,,,,,,,,,,,,,,,,,,,,,,,,,,,,,,,,,,,,,,,,,,,,,1,1.1599457000002076,286.9296806000002,None,ScrollDown,정답입니다,286.9296806000002,None,286.9296806000002,None,286.9296806000002,None,286.9296806000002,None,287.9439190000003,None,287.9439190000003,288.44428660000085,,,,,,,,,,,,,,,,233,2022-06-13_18h07.37.337,FishGame,2022.1.1,60.0154719886983,
,19,넌 평범해,3,Green,B,4.333333333333332,4.233333333333333,ScrollUp,ScrollDown,Green.png,2,Neutral,Neutral,0,0,0,0,,,,,,,,,,,,,,,,,0,18,18,18,,,,,,,,,,,,,,,,,,,,,,,,,,,,,,,,,,,,,,,,,,,,,,,,,,,,,,,,,,,,,,,,,,,,,,,,,,,,,,,,,2,2.6387439999998605,289.10027380000065,None,ScrollUp,정답입니다,289.10027380000065,None,289.10027380000065,None,289.10027380000065,None,289.10027380000065,None,291.61039920000076,None,291.61039920000076,292.1104647000002,,,,,,,,,,,,,,,,233,2022-06-13_18h07.37.337,FishGame,2022.1.1,60.0154719886983,
,20,넌 오만해,5,Orange,A,2.333333333333333,2,ScrollDown,ScrollUp,Orange.png,2,Negative,Incongruent,0,0,0,0,,,,,,,,,,,,,,,,,0,19,19,19,,,,,,,,,,,,,,,,,,,,,,,,,,,,,,,,,,,,,,,,,,,,,,,,,,,,,,,,,,,,,,,,,,,,,,,,,,,,,,,,,1,1.2592384999998103,292.77297740000085,None,ScrollDown,정답입니다,292.77297740000085,None,292.77297740000085,None,292.77297740000085,None,292.77297740000085,None,293.88825540000016,None,293.88825540000016,294.39350320000085,,,,,,,,,,,,,,,,233,2022-06-13_18h07.37.337,FishGame,2022.1.1,60.0154719886983,
,21,넌 운이없어,4,Green,B,3,3.466666666666667,ScrollUp,ScrollDown,Green.png,2,Negative,Congruent,0,0,0,0,,,,,,,,,,,,,,,,,0,20,20,20,,,,,,,,,,,,,,,,,,,,,,,,,,,,,,,,,,,,,,,,,,,,,,,,,,,,,,,,,,,,,,,,,,,,,,,,,,,,,,,,,2,1.3070545999999013,295.05118460000085,None,ScrollUp,정답입니다,295.05118460000085,None,295.05118460000085,None,295.05118460000085,None,295.05118460000085,None,296.2266825000006,None,296.2266825000006,296.7265634000005,,,,,,,,,,,,,,,,233,2022-06-13_18h07.37.337,FishGame,2022.1.1,60.0154719886983,
,22,넌 창조적이야,2,Green,B,6.125,4.633333333333334,ScrollUp,ScrollDown,Green.png,2,Positive,Incongruent,0,0,0,0,,,,,,,,,,,,,,,,,0,21,21,21,,,,,,,,,,,,,,,,,,,,,,,,,,,,,,,,,,,,,,,,,,,,,,,,,,,,,,,,,,,,,,,,,,,,,,,,,,,,,,,,,2,1.8625547000001461,297.3870044000005,None,ScrollUp,정답입니다,297.3870044000005,None,297.3870044000005,None,297.3870044000005,None,297.3870044000005,None,299.1139924000008,None,299.1139924000008,299.62616080000043,,,,,,,,,,,,,,,,233,2022-06-13_18h07.37.337,FishGame,2022.1.1,60.0154719886983,
,23,나를 보내줘,6,Orange,A,0,0,ScrollUp,ScrollDown,Orange.png,2,NonTarget,NonTarget,0,0,0,0,,,,,,,,,,,,,,,,,0,22,22,22,,,,,,,,,,,,,,,,,,,,,,,,,,,,,,,,,,,,,,,,,,,,,,,,,,,,,,,,,,,,,,,,,,,,,,,,,,,,,,,,,2,1.27774860000045,300.2829520000005,None,ScrollUp,정답입니다,300.2829520000005,None,300.2829520000005,None,300.2829520000005,None,300.2829520000005,None,301.4284417000008,None,301.4284417000008,301.94258340000033,,,,,,,,,,,,,,,,233,2022-06-13_18h07.37.337,FishGame,2022.1.1,60.0154719886983,
,24,넌 통찰력있어,2,Orange,A,6.5,4.8,ScrollDown,ScrollUp,Orange.png,2,Positive,Congruent,0,0,0,0,,,,,,,,,,,,,,,,,0,23,23,23,,,,,,,,,,,,,,,,,,,,,,,,,,,,,,,,,,,,,,,,,,,,,,,,,,,,,,,,,,,,,,,,,,,,,,,,,,,,,,,,,1,1.0835134999997535,302.60788440000033,None,ScrollDown,정답입니다,302.60788440000033,None,302.60788440000033,None,302.60788440000033,None,302.60788440000033,None,303.54917280000063,None,303.54917280000063,304.05889860000025,,,,,,,,,,,,,,,,233,2022-06-13_18h07.37.337,FishGame,2022.1.1,60.0154719886983,
,25,넌 경솔해,5,Green,B,2.458333333333333,2.266666666666667,ScrollUp,ScrollDown,Green.png,2,Negative,Congruent,0,0,0,0,,,,,,,,,,,,,,,,,0,24,24,24,,,,,,,,,,,,,,,,,,,,,,,,,,,,,,,,,,,,,,,,,,,,,,,,,,,,,,,,,,,,,,,,,,,,,,,,,,,,,,,,,2,1.3376029999999446,304.7162978000006,None,ScrollUp,정답입니다,304.7162978000006,None,304.7162978000006,None,304.7162978000006,None,304.7162978000006,None,305.9254066000003,None,305.9254066000003,306.4253241000006,,,,,,,,,,,,,,,,233,2022-06-13_18h07.37.337,FishGame,2022.1.1,60.0154719886983,
,26,넌 초조해,4,Orange,A,2.916666666666667,3.133333333333333,ScrollDown,ScrollUp,Orange.png,2,Negative,Incongruent,0,0,0,0,,,,,,,,,,,,,,,,,0,25,25,25,,,,,,,,,,,,,,,,,,,,,,,,,,,,,,,,,,,,,,,,,,,,,,,,,,,,,,,,,,,,,,,,,,,,,,,,,,,,,,,,,1,1.1428062000004502,307.08656730000075,None,ScrollDown,정답입니다,307.08656730000075,None,307.08656730000075,None,307.08656730000075,None,307.08656730000075,None,308.091668,None,308.091668,308.5917537000005,,,,,,,,,,,,,,,,233,2022-06-13_18h07.37.337,FishGame,2022.1.1,60.0154719886983,
,27,넌 무관심해,4,Green,B,2.833333333333333,2.9,ScrollUp,ScrollDown,Green.png,2,Negative,Congruent,0,0,0,0,,,,,,,,,,,,,,,,,0,26,26,26,,,,,,,,,,,,,,,,,,,,,,,,,,,,,,,,,,,,,,,,,,,,,,,,,,,,,,,,,,,,,,,,,,,,,,,,,,,,,,,,,2,0.9256869000000734,309.2505282000002,None,ScrollUp,정답입니다,309.2505282000002,None,309.2505282000002,None,309.2505282000002,None,309.2505282000002,None,310.0419933000003,None,310.0419933000003,310.5414494000006,,,,,,,,,,,,,,,,233,2022-06-13_18h07.37.337,FishGame,2022.1.1,60.0154719886983,
,28,넌 감성적이야,3,Green,B,4.125,4.166666666666667,ScrollUp,ScrollDown,Green.png,2,Neutral,Neutral,0,0,0,0,,,,,,,,,,,,,,,,,0,27,27,27,,,,,,,,,,,,,,,,,,,,,,,,,,,,,,,,,,,,,,,,,,,,,,,,,,,,,,,,,,,,,,,,,,,,,,,,,,,,,,,,,2,1.3216329000006226,311.1952626000002,None,ScrollUp,정답입니다,311.1952626000002,None,311.1952626000002,None,311.1952626000002,None,311.1952626000002,None,312.39158210000005,None,312.39158210000005,312.89116660000036,,,,,,,,,,,,,,,,233,2022-06-13_18h07.37.337,FishGame,2022.1.1,60.0154719886983,
,29,넌 배려심있어,1,Orange,A,6.083333333333333,5.5,ScrollDown,ScrollUp,Orange.png,2,Positive,Congruent,0,0,0,0,,,,,,,,,,,,,,,,,0,28,28,28,,,,,,,,,,,,,,,,,,,,,,,,,,,,,,,,,,,,,,,,,,,,,,,,,,,,,,,,,,,,,,,,,,,,,,,,,,,,,,,,,1,1.1511516999999003,313.5547049000006,None,ScrollDown,정답입니다,313.5547049000006,None,313.5547049000006,None,313.5547049000006,None,313.5547049000006,None,314.5665946000008,None,314.5665946000008,315.0742506000006,,,,,,,,,,,,,,,,233,2022-06-13_18h07.37.337,FishGame,2022.1.1,60.0154719886983,
,30,넌 숨김없어,3,Orange,A,4.5,4.933333333333334,ScrollDown,ScrollUp,Orange.png,2,Neutral,Neutral,0,0,0,0,,,,,,,,,,,,,,,,,0,29,29,29,,,,,,,,,,,,,,,,,,,,,,,,,,,,,,,,,,,,,,,,,,,,,,,,,,,,,,,,,,,,,,,,,,,,,,,,,,,,,,,,,1,1.0796950999992987,315.74531110000044,None,ScrollDown,정답입니다,315.74531110000044,None,315.74531110000044,None,315.74531110000044,None,315.74531110000044,None,316.67926700000044,None,316.67926700000044,317.19062080000003,,,,,,,,,,,,,,,,233,2022-06-13_18h07.37.337,FishGame,2022.1.1,60.0154719886983,
,31,넌 훌륭해,2,Green,B,5.916666666666667,4.033333333333333,ScrollUp,ScrollDown,Green.png,2,Positive,Incongruent,0,0,0,0,,,,,,,,,,,,,,,,,0,30,30,30,,,,,,,,,,,,,,,,,,,,,,,,,,,,,,,,,,,,,,,,,,,,,,,,,,,,,,,,,,,,,,,,,,,,,,,,,,,,,,,,,2,1.2405631999999969,317.8488113000003,None,ScrollUp,정답입니다,317.8488113000003,None,317.8488113000003,None,317.8488113000003,None,317.8488113000003,None,318.95716280000033,None,318.95716280000033,319.45700060000036,,,,,,,,,,,,,,,,233,2022-06-13_18h07.37.337,FishGame,2022.1.1,60.0154719886983,
,32,넌 슬기로워,2,Orange,A,6.166666666666667,4.1,ScrollDown,ScrollUp,Orange.png,2,Positive,Congruent,0,0,0,0,,,,,,,,,,,,,,,,,0,31,31,31,,,,,,,,,,,,,,,,,,,,,,,,,,,,,,,,,,,,,,,,,,,,,,,,,,,,,,,,,,,,,,,,,,,,,,,,,,,,,,,,,1,1.0756955999995625,320.11596700000064,None,ScrollDown,정답입니다,320.11596700000064,None,320.11596700000064,None,320.11596700000064,None,320.11596700000064,None,321.0568938000006,None,321.0568938000006,321.5567509000002,,,,,,,,,,,,,,,,233,2022-06-13_18h07.37.337,FishGame,2022.1.1,60.0154719886983,
,33,넌 냉혹해,5,Orange,A,2.583333333333333,2.1,ScrollDown,ScrollUp,Orange.png,2,Negative,Incongruent,0,0,0,0,,,,,,,,,,,,,,,,,0,32,32,32,,,,,,,,,,,,,,,,,,,,,,,,,,,,,,,,,,,,,,,,,,,,,,,,,,,,,,,,,,,,,,,,,,,,,,,,,,,,,,,,,1,1.1633066000003964,322.22138300000006,None,ScrollDown,정답입니다,322.22138300000006,None,322.22138300000006,None,322.22138300000006,None,322.22138300000006,None,323.24471540000013,None,323.24471540000013,323.7564968000006,,,,,,,,,,,,,,,,233,2022-06-13_18h07.37.337,FishGame,2022.1.1,60.0154719886983,
,34,나를 데려가줘,6,Green,B,0,0,ScrollDown,ScrollUp,Green.png,2,NonTarget,NonTarget,0,0,0,0,,,,,,,,,,,,,,,,,0,33,33,33,,,,,,,,,,,,,,,,,,,,,,,,,,,,,,,,,,,,,,,,,,,,,,,,,,,,,,,,,,,,,,,,,,,,,,,,,,,,,,,,,1.0416666567325592,1.5021025000005466,324.40206260000014,None,ScrollDown,정답입니다,324.40206260000014,None,324.40206260000014,None,324.40206260000014,None,324.40206260000014,None,325.7827128000008,None,325.7827128000008,326.28942150000057,,,,,,,,,,,,,,,,233,2022-06-13_18h07.37.337,FishGame,2022.1.1,60.0154719886983,
,35,넌 편파적이야,5,Green,B,2.125,2,ScrollUp,ScrollDown,Green.png,2,Negative,Congruent,0,0,0,0,,,,,,,,,,,,,,,,,0,34,34,34,,,,,,,,,,,,,,,,,,,,,,,,,,,,,,,,,,,,,,,,,,,,,,,,,,,,,,,,,,,,,,,,,,,,,,,,,,,,,,,,,2,1.464476499999364,326.9491897000007,None,ScrollUp,정답입니다,326.9491897000007,None,326.9491897000007,None,326.9491897000007,None,326.9491897000007,None,328.2780214000004,None,328.2780214000004,328.7891189000002,,,,,,,,,,,,,,,,233,2022-06-13_18h07.37.337,FishGame,2022.1.1,60.0154719886983,
,36,넌 슬퍼,4,Orange,A,2.583333333333333,3.066666666666667,ScrollDown,ScrollUp,Orange.png,2,Negative,Incongruent,0,0,0,0,,,,,,,,,,,,,,,,,0,35,35,35,,,,,,,,,,,,,,,,,,,,,,,,,,,,,,,,,,,,,,,,,,,,,,,,,,,,,,,,,,,,,,,,,,,,,,,,,,,,,,,,,1,0.9833328999993682,329.4449202000005,None,ScrollDown,정답입니다,329.4449202000005,None,329.4449202000005,None,329.4449202000005,None,329.4449202000005,None,330.2959245000002,None,330.2959245000002,330.80548160000035,,,,,,,,,,,,,,,,233,2022-06-13_18h07.37.337,FishGame,2022.1.1,60.0154719886983,
,37,나를 데려가줘,6,Green,B,0,0,ScrollDown,ScrollUp,Green.png,2,NonTarget,NonTarget,0,0,0,0,,,,,,,,,,,,,,,,,0,36,36,36,,,,,,,,,,,,,,,,,,,,,,,,,,,,,,,,,,,,,,,,,,,,,,,,,,,,,,,,,,,,,,,,,,,,,,,,,,,,,,,,,1.0138889054457347,1.5850571999999374,331.4574820000007,None,ScrollDown,정답입니다,331.4574820000007,None,331.4574820000007,None,331.4574820000007,None,331.4574820000007,None,332.91398240000035,None,332.91398240000035,333.4218038000008,,,,,,,,,,,,,,,,233,2022-06-13_18h07.37.337,FishGame,2022.1.1,60.0154719886983,
,38,넌 친절해,1,Green,B,6.041666666666667,5.533333333333333,ScrollUp,ScrollDown,Green.png,2,Positive,Incongruent,0,0,0,0,,,,,,,,,,,,,,,,,0,37,37,37,,,,,,,,,,,,,,,,,,,,,,,,,,,,,,,,,,,,,,,,,,,,,,,,,,,,,,,,,,,,,,,,,,,,,,,,,,,,,,,,,2,1.4051214000000982,334.0889452000001,None,ScrollUp,정답입니다,334.0889452000001,None,334.0889452000001,None,334.0889452000001,None,334.0889452000001,None,335.3550642,None,335.3550642,335.85488350000014,,,,,,,,,,,,,,,,233,2022-06-13_18h07.37.337,FishGame,2022.1.1,60.0154719886983,
,1,넌 엉성해,4,Orange,A,3,3.3,ScrollDown,ScrollUp,Orange.png,3,Negative,Incongruent,0,0,0,0,,,,,,,,,,,,,,,,,,,,,0,0,0,0,,,,,,,,,,,,,,,,,,,,,,,,,,,,,,,,,,,,369.5176502000004,371.01723949999996,371.05059730000085,372.00025750000077,372.05036440000003,373.00021240000024,373.00021240000024,None,,,,,,,,,,,,,,,,,,,,,,,,,,,,,,,,,,1,1.4731215000001612,374.18811189999997,None,ScrollDown,정답입니다,374.18811189999997,None,374.18811189999997,None,374.18811189999997,None,374.18811189999997,None,375.48333920000005,None,375.48333920000005,375.98296650000066,336.3548083000005,None,336.3548083000005,None,0.25,-0.107407406,1,0,0,0.01615756000046531,None,366.3678890000001,None,,,233,2022-06-13_18h07.37.337,FishGame,2022.1.1,60.0154719886983,
,2,나를 보내줘,6,Orange,A,0,0,ScrollUp,ScrollDown,Orange.png,3,NonTarget,NonTarget,0,0,0,0,,,,,,,,,,,,,,,,,,,,,0,1,1,1,,,,,,,,,,,,,,,,,,,,,,,,,,,,,,,,,,,,,,,,,,,,,,,,,,,,,,,,,,,,,,,,,,,,,,,,,,,,,2,1.1233695000000807,376.6420912000003,None,ScrollUp,정답입니다,376.6420912000003,None,376.6420912000003,None,376.6420912000003,None,376.6420912000003,None,377.6327166000001,None,377.6327166000001,378.1327540000002,,,,,,,,,,,,,,,,233,2022-06-13_18h07.37.337,FishGame,2022.1.1,60.0154719886983,
,3,넌 활발해,1,Green,B,5.666666666666667,5.6,ScrollUp,ScrollDown,Green.png,3,Positive,Incongruent,0,0,0,0,,,,,,,,,,,,,,,,,,,,,0,2,2,2,,,,,,,,,,,,,,,,,,,,,,,,,,,,,,,,,,,,,,,,,,,,,,,,,,,,,,,,,,,,,,,,,,,,,,,,,,,,,2,1.3080909000000247,378.7971509000008,None,ScrollUp,정답입니다,378.7971509000008,None,378.7971509000008,None,378.7971509000008,None,378.7971509000008,None,379.9660537,None,379.9660537,380.4657440000001,,,,,,,,,,,,,,,,233,2022-06-13_18h07.37.337,FishGame,2022.1.1,60.0154719886983,
,4,넌 논리적이야,2,Orange,A,5.666666666666666,4.633333333333334,ScrollDown,ScrollUp,Orange.png,3,Positive,Congruent,0,0,0,0,,,,,,,,,,,,,,,,,,,,,0,3,3,3,,,,,,,,,,,,,,,,,,,,,,,,,,,,,,,,,,,,,,,,,,,,,,,,,,,,,,,,,,,,,,,,,,,,,,,,,,,,,1,1.1415164000000004,381.1365974,None,ScrollDown,정답입니다,381.1365974,None,381.1365974,None,381.1365974,None,381.1365974,None,382.13247820000015,None,382.13247820000015,382.63216869999997,,,,,,,,,,,,,,,,233,2022-06-13_18h07.37.337,FishGame,2022.1.1,60.0154719886983,
,5,넌 과묵해,3,Orange,A,3.875,4.4,ScrollDown,ScrollUp,Orange.png,3,Neutral,Neutral,0,0,0,0,,,,,,,,,,,,,,,,,,,,,0,4,4,4,,,,,,,,,,,,,,,,,,,,,,,,,,,,,,,,,,,,,,,,,,,,,,,,,,,,,,,,,,,,,,,,,,,,,,,,,,,,,1,0.9602224999998725,383.2934154000004,None,ScrollDown,정답입니다,383.2934154000004,None,383.2934154000004,None,383.2934154000004,None,383.2934154000004,None,384.1180772000007,None,384.1180772000007,384.63188700000046,,,,,,,,,,,,,,,,233,2022-06-13_18h07.37.337,FishGame,2022.1.1,60.0154719886983,
,6,나를 데려가줘,6,Green,B,0,0,ScrollDown,ScrollUp,Green.png,3,NonTarget,NonTarget,0,0,0,0,,,,,,,,,,,,,,,,,,,,,0,5,5,5,,,,,,,,,,,,,,,,,,,,,,,,,,,,,,,,,,,,,,,,,,,,,,,,,,,,,,,,,,,,,,,,,,,,,,,,,,,,,1,1.2349293999996007,385.28415740000037,None,ScrollDown,정답입니다,385.28415740000037,None,385.28415740000037,None,385.28415740000037,None,385.28415740000037,None,386.390977,None,386.390977,386.89830190000066,,,,,,,,,,,,,,,,233,2022-06-13_18h07.37.337,FishGame,2022.1.1,60.0154719886983,
,7,넌 미숙해,4,Green,B,3,3,ScrollUp,ScrollDown,Green.png,3,Negative,Congruent,0,0,0,0,,,,,,,,,,,,,,,,,,,,,0,6,6,6,,,,,,,,,,,,,,,,,,,,,,,,,,,,,,,,,,,,,,,,,,,,,,,,,,,,,,,,,,,,,,,,,,,,,,,,,,,,,1,1.2499315999993996,387.54780910000045,None,ScrollDown,오답입니다,387.54780910000045,None,387.54780910000045,None,387.54780910000045,None,387.54780910000045,None,388.6740726000007,None,388.6740726000007,389.18126400000074,,,,,,,,,,,,,,,,233,2022-06-13_18h07.37.337,FishGame,2022.1.1,60.0154719886983,
,8,나를 보내줘,6,Orange,A,0,0,ScrollUp,ScrollDown,Orange.png,3,NonTarget,NonTarget,0,0,0,0,,,,,,,,,,,,,,,,,,,,,0,7,7,7,,,,,,,,,,,,,,,,,,,,,,,,,,,,,,,,,,,,,,,,,,,,,,,,,,,,,,,,,,,,,,,,,,,,,,,,,,,,,2,1.3102295999997295,389.83863590000055,None,ScrollUp,정답입니다,389.83863590000055,None,389.83863590000055,None,389.83863590000055,None,389.83863590000055,None,391.01422320000074,None,391.01422320000074,391.5143284000005,,,,,,,,,,,,,,,,233,2022-06-13_18h07.37.337,FishGame,2022.1.1,60.0154719886983,
,9,넌 자신만만해,3,Green,B,4.833333333333334,4.333333333333333,ScrollUp,ScrollDown,Green.png,3,Neutral,Neutral,0,0,0,0,,,,,,,,,,,,,,,,,,,,,0,8,8,8,,,,,,,,,,,,,,,,,,,,,,,,,,,,,,,,,,,,,,,,,,,,,,,,,,,,,,,,,,,,,,,,,,,,,,,,,,,,,2,1.1891394000003856,392.1665593000007,None,ScrollUp,정답입니다,392.1665593000007,None,392.1665593000007,None,392.1665593000007,None,392.1665593000007,None,393.23104630000034,None,393.23104630000034,393.7307199000006,,,,,,,,,,,,,,,,233,2022-06-13_18h07.37.337,FishGame,2022.1.1,60.0154719886983,
,10,넌 탐욕스러워,5,Orange,A,2.25,2.1,ScrollDown,ScrollUp,Orange.png,3,Negative,Incongruent,0,0,0,0,,,,,,,,,,,,,,,,,,,,,0,9,9,9,,,,,,,,,,,,,,,,,,,,,,,,,,,,,,,,,,,,,,,,,,,,,,,,,,,,,,,,,,,,,,,,,,,,,,,,,,,,,1,1.0589440000003378,394.39698210000006,None,ScrollDown,정답입니다,394.39698210000006,None,394.39698210000006,None,394.39698210000006,None,394.39698210000006,None,395.31566790000034,None,395.31566790000034,395.83048600000075,,,,,,,,,,,,,,,,233,2022-06-13_18h07.37.337,FishGame,2022.1.1,60.0154719886983,
,11,넌 인기있어,2,Orange,A,5.458333333333333,4.5,ScrollDown,ScrollUp,Orange.png,3,Positive,Congruent,0,0,0,0,,,,,,,,,,,,,,,,,,,,,0,10,10,10,,,,,,,,,,,,,,,,,,,,,,,,,,,,,,,,,,,,,,,,,,,,,,,,,,,,,,,,,,,,,,,,,,,,,,,,,,,,,1.0432098706563313,1.3770154000003458,396.4883013000008,None,ScrollDown,정답입니다,396.4883013000008,None,396.4883013000008,None,396.4883013000008,None,396.4883013000008,None,397.7302337000001,None,397.7302337000001,398.23019400000067,,,,,,,,,,,,,,,,233,2022-06-13_18h07.37.337,FishGame,2022.1.1,60.0154719886983,
,12,나를 데려가줘,6,Green,B,0,0,ScrollDown,ScrollUp,Green.png,3,NonTarget,NonTarget,0,0,0,0,,,,,,,,,,,,,,,,,,,,,0,11,11,11,,,,,,,,,,,,,,,,,,,,,,,,,,,,,,,,,,,,,,,,,,,,,,,,,,,,,,,,,,,,,,,,,,,,,,,,,,,,,1.0910493781169255,1.1604579000004378,398.8808794000006,None,ScrollDown,정답입니다,398.8808794000006,None,398.8808794000006,None,398.8808794000006,None,398.8808794000006,None,399.9131945000008,None,399.9131945000008,400.4132040000004,,,,,,,,,,,,,,,,233,2022-06-13_18h07.37.337,FishGame,2022.1.1,60.0154719886983,
,13,넌 뛰어나,2,Green,B,6.166666666666667,4,ScrollUp,ScrollDown,Green.png,3,Positive,Incongruent,0,0,0,0,,,,,,,,,,,,,,,,,,,,,0,12,12,12,,,,,,,,,,,,,,,,,,,,,,,,,,,,,,,,,,,,,,,,,,,,,,,,,,,,,,,,,,,,,,,,,,,,,,,,,,,,,2,1.1944548999999824,401.07890190000035,None,ScrollUp,정답입니다,401.07890190000035,None,401.07890190000035,None,401.07890190000035,None,401.07890190000035,None,402.13003070000013,None,402.13003070000013,402.6295196000001,,,,,,,,,,,,,,,,233,2022-06-13_18h07.37.337,FishGame,2022.1.1,60.0154719886983,
,14,넌 낙관적이야,1,Orange,A,5.75,5.8,ScrollDown,ScrollUp,Orange.png,3,Positive,Congruent,0,0,0,0,,,,,,,,,,,,,,,,,,,,,0,13,13,13,,,,,,,,,,,,,,,,,,,,,,,,,,,,,,,,,,,,,,,,,,,,,,,,,,,,,,,,,,,,,,,,,,,,,,,,,,,,,1,1.1577449999995224,403.2942877000005,None,ScrollDown,정답입니다,403.2942877000005,None,403.2942877000005,None,403.2942877000005,None,403.2942877000005,None,404.31269970000085,None,404.31269970000085,404.81266610000057,,,,,,,,,,,,,,,,233,2022-06-13_18h07.37.337,FishGame,2022.1.1,60.0154719886983,
,15,넌 산만해,4,Green,B,2.695652173913043,3.033333333333333,ScrollUp,ScrollDown,Green.png,3,Negative,Congruent,0,0,0,0,,,,,,,,,,,,,,,,,,,,,0,14,14,14,,,,,,,,,,,,,,,,,,,,,,,,,,,,,,,,,,,,,,,,,,,,,,,,,,,,,,,,,,,,,,,,,,,,,,,,,,,,,1.9922839502493541,1.1496680999998716,405.4695291000007,None,ScrollUp,정답입니다,405.4695291000007,None,405.4695291000007,None,405.4695291000007,None,405.4695291000007,None,406.48515320000024,None,406.48515320000024,406.9956335000006,,,,,,,,,,,,,,,,233,2022-06-13_18h07.37.337,FishGame,2022.1.1,60.0154719886983,
,16,나를 보내줘,6,Orange,A,0,0,ScrollUp,ScrollDown,Orange.png,3,NonTarget,NonTarget,0,0,0,0,,,,,,,,,,,,,,,,,,,,,0,15,15,15,,,,,,,,,,,,,,,,,,,,,,,,,,,,,,,,,,,,,,,,,,,,,,,,,,,,,,,,,,,,,,,,,,,,,,,,,,,,,2,1.9598878000006152,407.64970990000074,None,ScrollUp,정답입니다,407.64970990000074,None,407.64970990000074,None,407.64970990000074,None,407.64970990000074,None,409.4807943000005,None,409.4807943000005,409.9952746000008,,,,,,,,,,,,,,,,233,2022-06-13_18h07.37.337,FishGame,2022.1.1,60.0154719886983,
,17,넌 교활해,5,Green,B,2.333333333333333,2.133333333333333,ScrollUp,ScrollDown,Green.png,3,Negative,Congruent,0,0,0,0,,,,,,,,,,,,,,,,,,,,,0,16,16,16,,,,,,,,,,,,,,,,,,,,,,,,,,,,,,,,,,,,,,,,,,,,,,,,,,,,,,,,,,,,,,,,,,,,,,,,,,,,,2,1.832718499999828,410.65157700000054,None,ScrollUp,정답입니다,410.65157700000054,None,410.65157700000054,None,410.65157700000054,None,410.65157700000054,None,412.3518388000002,None,412.3518388000002,412.8615987000003,,,,,,,,,,,,,,,,233,2022-06-13_18h07.37.337,FishGame,2022.1.1,60.0154719886983,
,18,나를 보내줘,6,Orange,A,0,0,ScrollUp,ScrollDown,Orange.png,3,NonTarget,NonTarget,0,0,0,0,,,,,,,,,,,,,,,,,,,,,0,17,17,17,,,,,,,,,,,,,,,,,,,,,,,,,,,,,,,,,,,,,,,,,,,,,,,,,,,,,,,,,,,,,,,,,,,,,,,,,,,,,1.8935185074806213,1.2196296000001894,413.51662020000003,None,ScrollUp,정답입니다,413.51662020000003,None,413.51662020000003,None,413.51662020000003,None,413.51662020000003,None,414.6112270000003,None,414.6112270000003,415.11134870000024,,,,,,,,,,,,,,,,233,2022-06-13_18h07.37.337,FishGame,2022.1.1,60.0154719886983,
,19,넌 불친절해,5,Green,B,2.208333333333333,2.033333333333333,ScrollUp,ScrollDown,Green.png,3,Negative,Congruent,0,0,0,0,,,,,,,,,,,,,,,,,,,,,0,18,18,18,,,,,,,,,,,,,,,,,,,,,,,,,,,,,,,,,,,,,,,,,,,,,,,,,,,,,,,,,,,,,,,,,,,,,,,,,,,,,2,1.265291900000193,415.77196080000067,None,ScrollUp,정답입니다,415.77196080000067,None,415.77196080000067,None,415.77196080000067,None,415.77196080000067,None,416.90102490000027,None,416.90102490000027,417.4109814000003,,,,,,,,,,,,,,,,233,2022-06-13_18h07.37.337,FishGame,2022.1.1,60.0154719886983,
,20,넌 지적이야,2,Green,B,5.75,4.366666666666666,ScrollUp,ScrollDown,Green.png,3,Positive,Incongruent,0,0,0,0,,,,,,,,,,,,,,,,,,,,,0,19,19,19,,,,,,,,,,,,,,,,,,,,,,,,,,,,,,,,,,,,,,,,,,,,,,,,,,,,,,,,,,,,,,,,,,,,,,,,,,,,,2,1.25925880000068,418.06855950000045,None,ScrollUp,정답입니다,418.06855950000045,None,418.06855950000045,None,418.06855950000045,None,418.06855950000045,None,419.1957134000004,None,419.1957134000004,419.71069270000044,,,,,,,,,,,,,,,,233,2022-06-13_18h07.37.337,FishGame,2022.1.1,60.0154719886983,
,21,넌 우유부단해,4,Orange,A,2.666666666666667,3.166666666666667,ScrollDown,ScrollUp,Orange.png,3,Negative,Incongruent,0,0,0,0,,,,,,,,,,,,,,,,,,,,,0,20,20,20,,,,,,,,,,,,,,,,,,,,,,,,,,,,,,,,,,,,,,,,,,,,,,,,,,,,,,,,,,,,,,,,,,,,,,,,,,,,,1,1.1005398999996032,420.37567580000086,None,ScrollDown,정답입니다,420.37567580000086,None,420.37567580000086,None,420.37567580000086,None,420.37567580000086,None,421.3337668000004,None,421.3337668000004,421.8437090000007,,,,,,,,,,,,,,,,233,2022-06-13_18h07.37.337,FishGame,2022.1.1,60.0154719886983,
,22,나를 데려가줘,6,Green,B,0,0,ScrollDown,ScrollUp,Green.png,3,NonTarget,NonTarget,0,0,0,0,,,,,,,,,,,,,,,,,,,,,0,21,21,21,,,,,,,,,,,,,,,,,,,,,,,,,,,,,,,,,,,,,,,,,,,,,,,,,,,,,,,,,,,,,,,,,,,,,,,,,,,,,2,1.0762440999997125,422.49682100000064,None,ScrollUp,오답입니다,422.49682100000064,None,422.49682100000064,None,422.49682100000064,None,422.49682100000064,None,423.4444222000002,None,423.4444222000002,423.9434441000003,,,,,,,,,,,,,,,,233,2022-06-13_18h07.37.337,FishGame,2022.1.1,60.0154719886983,
,23,넌 성실해,1,Green,B,6.041666666666666,5.7,ScrollUp,ScrollDown,Green.png,3,Positive,Incongruent,0,0,0,0,,,,,,,,,,,,,,,,,,,,,0,22,22,22,,,,,,,,,,,,,,,,,,,,,,,,,,,,,,,,,,,,,,,,,,,,,,,,,,,,,,,,,,,,,,,,,,,,,,,,,,,,,2,1.4923195000001215,424.5956906000001,None,ScrollUp,정답입니다,424.5956906000001,None,424.5956906000001,None,424.5956906000001,None,424.5956906000001,None,425.95494000000053,None,425.95494000000053,426.45984080000017,,,,,,,,,,,,,,,,233,2022-06-13_18h07.37.337,FishGame,2022.1.1,60.0154719886983,
,24,넌 현실주의적이야,3,Orange,A,4.625,4.4,ScrollDown,ScrollUp,Orange.png,3,Neutral,Neutral,0,0,0,0,,,,,,,,,,,,,,,,,,,,,0,23,23,23,,,,,,,,,,,,,,,,,,,,,,,,,,,,,,,,,,,,,,,,,,,,,,,,,,,,,,,,,,,,,,,,,,,,,,,,,,,,,1,1.2437731999998505,427.1211965000002,None,ScrollDown,정답입니다,427.1211965000002,None,427.1211965000002,None,427.1211965000002,None,427.1211965000002,None,428.2261803000001,None,428.2261803000001,428.7261864000002,,,,,,,,,,,,,,,,233,2022-06-13_18h07.37.337,FishGame,2022.1.1,60.0154719886983,
,25,넌 진실돼,1,Orange,A,6.625,5.566666666666666,ScrollDown,ScrollUp,Orange.png,3,Positive,Congruent,0,0,0,0,,,,,,,,,,,,,,,,,,,,,0,24,24,24,,,,,,,,,,,,,,,,,,,,,,,,,,,,,,,,,,,,,,,,,,,,,,,,,,,,,,,,,,,,,,,,,,,,,,,,,,,,,1,1.1527906000001167,429.38915690000067,None,ScrollDown,정답입니다,429.38915690000067,None,429.38915690000067,None,429.38915690000067,None,429.38915690000067,None,430.4020451000006,None,430.4020451000006,430.9092988000002,,,,,,,,,,,,,,,,233,2022-06-13_18h07.37.337,FishGame,2022.1.1,60.0154719886983,
,26,넌 천진난만해,3,Green,B,4.958333333333334,4.833333333333333,ScrollUp,ScrollDown,Green.png,3,Neutral,Neutral,0,0,0,0,,,,,,,,,,,,,,,,,,,,,0,25,25,25,,,,,,,,,,,,,,,,,,,,,,,,,,,,,,,,,,,,,,,,,,,,,,,,,,,,,,,,,,,,,,,,,,,,,,,,,,,,,2,1.1249451000003319,431.56998810000005,None,ScrollUp,정답입니다,431.56998810000005,None,431.56998810000005,None,431.56998810000005,None,431.56998810000005,None,432.5590391000005,None,432.5590391000005,433.0590286000006,,,,,,,,,,,,,,,,233,2022-06-13_18h07.37.337,FishGame,2022.1.1,60.0154719886983,
,27,넌 교양없어,5,Orange,A,2.416666666666667,2.2,ScrollDown,ScrollUp,Orange.png,3,Negative,Incongruent,0,0,0,0,,,,,,,,,,,,,,,,,,,,,0,26,26,26,,,,,,,,,,,,,,,,,,,,,,,,,,,,,,,,,,,,,,,,,,,,,,,,,,,,,,,,,,,,,,,,,,,,,,,,,,,,,1,1.3439808000002813,433.7239414000005,None,ScrollDown,정답입니다,433.7239414000005,None,433.7239414000005,None,433.7239414000005,None,433.7239414000005,None,434.9255240000002,None,434.9255240000002,435.4253870000002,,,,,,,,,,,,,,,,233,2022-06-13_18h07.37.337,FishGame,2022.1.1,60.0154719886983,
,28,나를 보내줘,6,Orange,A,0,0,ScrollUp,ScrollDown,Orange.png,3,NonTarget,NonTarget,0,0,0,0,,,,,,,,,,,,,,,,,,,,,0,27,27,27,,,,,,,,,,,,,,,,,,,,,,,,,,,,,,,,,,,,,,,,,,,,,,,,,,,,,,,,,,,,,,,,,,,,,,,,,,,,,2,1.1844004000004134,436.08353570000054,None,ScrollUp,정답입니다,436.08353570000054,None,436.08353570000054,None,436.08353570000054,None,436.08353570000054,None,437.1332837,None,437.1332837,437.6417336000004,,,,,,,,,,,,,,,,233,2022-06-13_18h07.37.337,FishGame,2022.1.1,60.0154719886983,
,29,넌 엉뚱스러워,3,Orange,A,4.166666666666667,4.133333333333334,ScrollDown,ScrollUp,Orange.png,3,Neutral,Neutral,0,0,0,0,,,,,,,,,,,,,,,,,,,,,0,28,28,28,,,,,,,,,,,,,,,,,,,,,,,,,,,,,,,,,,,,,,,,,,,,,,,,,,,,,,,,,,,,,,,,,,,,,,,,,,,,,1,1.2579749000005904,438.3034888000002,None,ScrollDown,정답입니다,438.3034888000002,None,438.3034888000002,None,438.3034888000002,None,438.3034888000002,None,439.4250899000008,None,439.4250899000008,439.9249333000007,,,,,,,,,,,,,,,,233,2022-06-13_18h07.37.337,FishGame,2022.1.1,60.0154719886983,
,30,넌 무지해,4,Green,B,2.541666666666667,3.066666666666667,ScrollUp,ScrollDown,Green.png,3,Negative,Congruent,0,0,0,0,,,,,,,,,,,,,,,,,,,,,0,29,29,29,,,,,,,,,,,,,,,,,,,,,,,,,,,,,,,,,,,,,,,,,,,,,,,,,,,,,,,,,,,,,,,,,,,,,,,,,,,,,2,0.9673148000001675,440.56975630000034,None,ScrollUp,정답입니다,440.56975630000034,None,440.56975630000034,None,440.56975630000034,None,440.56975630000034,None,441.41411490000064,None,441.41411490000064,441.9244948000005,,,,,,,,,,,,,,,,233,2022-06-13_18h07.37.337,FishGame,2022.1.1,60.0154719886983,
,31,넌 음울해,5,Green,B,2.25,2.233333333333333,ScrollUp,ScrollDown,Green.png,3,Negative,Congruent,0,0,0,0,,,,,,,,,,,,,,,,,,,,,0,30,30,30,,,,,,,,,,,,,,,,,,,,,,,,,,,,,,,,,,,,,,,,,,,,,,,,,,,,,,,,,,,,,,,,,,,,,,,,,,,,,2,1.4826278000000457,442.5827824000007,None,ScrollUp,정답입니다,442.5827824000007,None,442.5827824000007,None,442.5827824000007,None,442.5827824000007,None,443.93143000000055,None,443.93143000000055,444.4408591000001,,,,,,,,,,,,,,,,233,2022-06-13_18h07.37.337,FishGame,2022.1.1,60.0154719886983,
,32,넌 냉소적이야,5,Orange,A,2.916666666666667,2.4,ScrollDown,ScrollUp,Orange.png,3,Negative,Incongruent,0,0,0,0,,,,,,,,,,,,,,,,,,,,,0,31,31,31,,,,,,,,,,,,,,,,,,,,,,,,,,,,,,,,,,,,,,,,,,,,,,,,,,,,,,,,,,,,,,,,,,,,,,,,,,,,,1,1.6509269999996832,445.0977167000001,None,ScrollDown,정답입니다,445.0977167000001,None,445.0977167000001,None,445.0977167000001,None,445.0977167000001,None,446.6150256000001,None,446.6150256000001,447.12385059999997,,,,,,,,,,,,,,,,233,2022-06-13_18h07.37.337,FishGame,2022.1.1,60.0154719886983,
,33,나를 데려가줘,6,Green,B,0,0,ScrollDown,ScrollUp,Green.png,3,NonTarget,NonTarget,0,0,0,0,,,,,,,,,,,,,,,,,,,,,0,32,32,32,,,,,,,,,,,,,,,,,,,,,,,,,,,,,,,,,,,,,,,,,,,,,,,,,,,,,,,,,,,,,,,,,,,,,,,,,,,,,1.0756172637144725,1.2476644000007582,447.7797810000002,None,ScrollDown,정답입니다,447.7797810000002,None,447.7797810000002,None,447.7797810000002,None,447.7797810000002,None,448.8966438000007,None,448.8966438000007,449.4069081000007,,,,,,,,,,,,,,,,233,2022-06-13_18h07.37.337,FishGame,2022.1.1,60.0154719886983,
,34,넌 쾌활해,1,Orange,A,5.541666666666666,5.733333333333333,ScrollDown,ScrollUp,Orange.png,3,Positive,Congruent,0,0,0,0,,,,,,,,,,,,,,,,,,,,,0,33,33,33,,,,,,,,,,,,,,,,,,,,,,,,,,,,,,,,,,,,,,,,,,,,,,,,,,,,,,,,,,,,,,,,,,,,,,,,,,,,,1,1.5769895999992514,450.0722504000005,None,ScrollDown,정답입니다,450.0722504000005,None,450.0722504000005,None,450.0722504000005,None,450.0722504000005,None,451.50684210000054,None,451.50684210000054,452.00655430000006,,,,,,,,,,,,,,,,233,2022-06-13_18h07.37.337,FishGame,2022.1.1,60.0154719886983,
,35,나를 보내줘,6,Orange,A,0,0,ScrollUp,ScrollDown,Orange.png,3,NonTarget,NonTarget,0,0,0,0,,,,,,,,,,,,,,,,,,,,,0,34,34,34,,,,,,,,,,,,,,,,,,,,,,,,,,,,,,,,,,,,,,,,,,,,,,,,,,,,,,,,,,,,,,,,,,,,,,,,,,,,,2,1.782288299999891,452.6629630000007,None,ScrollUp,정답입니다,452.6629630000007,None,452.6629630000007,None,452.6629630000007,None,452.6629630000007,None,454.3125607000002,None,454.3125607000002,454.82285160000083,,,,,,,,,,,,,,,,233,2022-06-13_18h07.37.337,FishGame,2022.1.1,60.0154719886983,
,36,넌 명랑해,1,Green,B,5.739130434782609,5.666666666666667,ScrollUp,ScrollDown,Green.png,3,Positive,Incongruent,0,0,0,0,,,,,,,,,,,,,,,,,,,,,0,35,35,35,,,,,,,,,,,,,,,,,,,,,,,,,,,,,,,,,,,,,,,,,,,,,,,,,,,,,,,,,,,,,,,,,,,,,,,,,,,,,2,1.1154112000003806,455.47898670000086,None,ScrollUp,정답입니다,455.47898670000086,None,455.47898670000086,None,455.47898670000086,None,455.47898670000086,None,456.4619926000005,None,456.4619926000005,456.9725591000006,,,,,,,,,,,,,,,,233,2022-06-13_18h07.37.337,FishGame,2022.1.1,60.0154719886983,
,37,넌 멍해,4,Orange,A,2.833333333333333,3.4,ScrollDown,ScrollUp,Orange.png,3,Negative,Incongruent,0,0,0,0,,,,,,,,,,,,,,,,,,,,,0,36,36,36,,,,,,,,,,,,,,,,,,,,,,,,,,,,,,,,,,,,,,,,,,,,,,,,,,,,,,,,,,,,,,,,,,,,,,,,,,,,,1,1.5207705000002534,457.63323930000024,None,ScrollDown,정답입니다,457.63323930000024,None,457.63323930000024,None,457.63323930000024,None,457.63323930000024,None,459.02257420000024,None,459.02257420000024,459.5222605000008,,,,,,,,,,,,,,,,233,2022-06-13_18h07.37.337,FishGame,2022.1.1,60.0154719886983,
,38,나를 데려가줘,6,Green,B,0,0,ScrollDown,ScrollUp,Green.png,3,NonTarget,NonTarget,0,0,0,0,,,,,,,,,,,,,,,,,,,,,0,37,37,37,,,,,,,,,,,,,,,,,,,,,,,,,,,,,,,,,,,,,,,,,,,,,,,,,,,,,,,,,,,,,,,,,,,,,,,,,,,,,1,1.2606600999997681,460.1748154000006,None,ScrollDown,정답입니다,460.1748154000006,None,460.1748154000006,None,460.1748154000006,None,460.1748154000006,None,461.30535920000057,None,461.30535920000057,461.8052540000008,,,,,,,,,,,,,,,,233,2022-06-13_18h07.37.337,FishGame,2022.1.1,60.0154719886983,
,39,넌 현명해,2,Orange,A,6.541666666666666,4.533333333333333,ScrollDown,ScrollUp,Orange.png,3,Positive,Congruent,0,0,0,0,,,,,,,,,,,,,,,,,,,,,0,38,38,38,,,,,,,,,,,,,,,,,,,,,,,,,,,,,,,,,,,,,,,,,,,,,,,,,,,,,,,,,,,,,,,,,,,,,,,,,,,,,1,1.377960499999972,462.46307050000087,None,ScrollDown,정답입니다,462.46307050000087,None,462.46307050000087,None,462.46307050000087,None,462.46307050000087,None,463.7052831000001,None,463.7052831000001,464.2049631,,,,,,,,,,,,,,,,233,2022-06-13_18h07.37.337,FishGame,2022.1.1,60.0154719886983,
,40,넌 수줍어,3,Green,B,3.541666666666666,4.366666666666666,ScrollUp,ScrollDown,Green.png,3,Neutral,Neutral,0,0,0,0,,,,,,,,,,,,,,,,,,,,,0,39,39,39,,,,,,,,,,,,,,,,,,,,,,,,,,,,,,,,,,,,,,,,,,,,,,,,,,,,,,,,,,,,,,,,,,,,,,,,,,,,,2,1.1476093999999648,464.8627535000005,None,ScrollUp,정답입니다,464.8627535000005,None,464.8627535000005,None,464.8627535000005,None,464.8627535000005,None,465.8766652000004,None,465.8766652000004,466.38801200000034,,,,,,,,,,,,,,,,233,2022-06-13_18h07.37.337,FishGame,2022.1.1,60.0154719886983,
,41,나를 데려가줘,6,Green,B,0,0,ScrollDown,ScrollUp,Green.png,3,NonTarget,NonTarget,0,0,0,0,,,,,,,,,,,,,,,,,,,,,0,40,40,40,,,,,,,,,,,,,,,,,,,,,,,,,,,,,,,,,,,,,,,,,,,,,,,,,,,,,,,,,,,,,,,,,,,,,,,,,,,,,1,1.3591171000007307,467.0416133000008,None,ScrollDown,정답입니다,467.0416133000008,None,467.0416133000008,None,467.0416133000008,None,467.0416133000008,None,468.2715354000002,None,468.2715354000002,468.77106190000086,,,,,,,,,,,,,,,,233,2022-06-13_18h07.37.337,FishGame,2022.1.1,60.0154719886983,
,42,넌 성숙해,2,Green,B,5.833333333333333,4.533333333333333,ScrollUp,ScrollDown,Green.png,3,Positive,Incongruent,0,0,0,0,,,,,,,,,,,,,,,,,,,,,0,41,41,41,,,,,,,,,,,,,,,,,,,,,,,,,,,,,,,,,,,,,,,,,,,,,,,,,,,,,,,,,,,,,,,,,,,,,,,,,,,,,2,1.6048575000004348,469.42273960000057,None,ScrollUp,정답입니다,469.42273960000057,None,469.42273960000057,None,469.42273960000057,None,469.42273960000057,None,470.9044885000003,None,470.9044885000003,471.4040937,,,,,,,,,,,,,,,,233,2022-06-13_18h07.37.337,FishGame,2022.1.1,60.0154719886983,
,1,넌 매력적이야,2,Green,B,6.125,4.666666666666667,ScrollUp,ScrollDown,Green.png,4,Positive,Incongruent,0,0,0,0,,,,,,,,,,,,,,,,,,,,,,,,,0,0,0,0,,,,,,,,,,,,,,,,,,,,,,,,,,,,,,,,503.4999820000003,504.99978310000006,505.0331603000004,505.98303120000037,506.0330356000004,506.98287430000073,506.98287430000073,None,,,,,,,,,,,,,,,,,,,,,,,,,,,,,,,,,,2,1.3571689000000333,508.17433060000076,None,ScrollUp,정답입니다,508.17433060000076,None,508.17433060000076,None,508.17433060000076,None,508.17433060000076,None,509.3552322000005,None,509.3552322000005,509.86579000000074,471.90399080000043,None,471.90399080000043,None,0.44537038,0.09074074,1,0,0,0.016242859999692882,None,501.91679340000064,None,,,233,2022-06-13_18h07.37.337,FishGame,2022.1.1,60.0154719886983,
,2,나를 보내줘,6,Orange,A,0,0,ScrollUp,ScrollDown,Orange.png,4,NonTarget,NonTarget,0,0,0,0,,,,,,,,,,,,,,,,,,,,,,,,,0,1,1,1,,,,,,,,,,,,,,,,,,,,,,,,,,,,,,,,,,,,,,,,,,,,,,,,,,,,,,,,,,,,,,,,,,,,,,,,,2,1.1948228000001109,510.5180758000006,None,ScrollUp,정답입니다,510.5180758000006,None,510.5180758000006,None,510.5180758000006,None,510.5180758000006,None,511.5849582000001,None,511.5849582000001,512.0988777000002,,,,,,,,,,,,,,,,233,2022-06-13_18h07.37.337,FishGame,2022.1.1,60.0154719886983,
,3,넌 조심스러워,3,Orange,A,4.791666666666666,4.666666666666667,ScrollDown,ScrollUp,Orange.png,4,Neutral,Neutral,0,0,0,0,,,,,,,,,,,,,,,,,,,,,,,,,0,2,2,2,,,,,,,,,,,,,,,,,,,,,,,,,,,,,,,,,,,,,,,,,,,,,,,,,,,,,,,,,,,,,,,,,,,,,,,,,1,1.2672304999996413,512.7571040000003,None,ScrollDown,정답입니다,512.7571040000003,None,512.7571040000003,None,512.7571040000003,None,512.7571040000003,None,513.8899772000004,None,513.8899772000004,514.3985268000006,,,,,,,,,,,,,,,,233,2022-06-13_18h07.37.337,FishGame,2022.1.1,60.0154719886983,
,4,넌 철학적이야,3,Green,B,4.5,4.266666666666667,ScrollUp,ScrollDown,Green.png,4,Neutral,Neutral,0,0,0,0,,,,,,,,,,,,,,,,,,,,,,,,,0,3,3,3,,,,,,,,,,,,,,,,,,,,,,,,,,,,,,,,,,,,,,,,,,,,,,,,,,,,,,,,,,,,,,,,,,,,,,,,,2,1.3824574000000212,515.0569753,None,ScrollUp,정답입니다,515.0569753,None,515.0569753,None,515.0569753,None,515.0569753,None,516.3041325000004,None,516.3041325000004,516.8149887000009,,,,,,,,,,,,,,,,233,2022-06-13_18h07.37.337,FishGame,2022.1.1,60.0154719886983,
,5,넌 쩨쩨해,5,Orange,A,2.375,2.133333333333333,ScrollDown,ScrollUp,Orange.png,4,Negative,Incongruent,0,0,0,0,,,,,,,,,,,,,,,,,,,,,,,,,0,4,4,4,,,,,,,,,,,,,,,,,,,,,,,,,,,,,,,,,,,,,,,,,,,,,,,,,,,,,,,,,,,,,,,,,,,,,,,,,1,1.693975400000454,517.4739075000007,None,ScrollDown,정답입니다,517.4739075000007,None,517.4739075000007,None,517.4739075000007,None,517.4739075000007,None,519.0316175000007,None,519.0316175000007,519.5311895000004,,,,,,,,,,,,,,,,233,2022-06-13_18h07.37.337,FishGame,2022.1.1,60.0154719886983,
,6,나를 데려가줘,6,Green,B,0,0,ScrollDown,ScrollUp,Green.png,4,NonTarget,NonTarget,0,0,0,0,,,,,,,,,,,,,,,,,,,,,,,,,0,5,5,5,,,,,,,,,,,,,,,,,,,,,,,,,,,,,,,,,,,,,,,,,,,,,,,,,,,,,,,,,,,,,,,,,,,,,,,,,1.0864197611808777,1.4343140000000858,520.1775265000006,None,ScrollDown,정답입니다,520.1775265000006,None,520.1775265000006,None,520.1775265000006,None,520.1775265000006,None,521.4905213000002,None,521.4905213000002,521.9975795,,,,,,,,,,,,,,,,233,2022-06-13_18h07.37.337,FishGame,2022.1.1,60.0154719886983,
,7,넌 고집불통이야,5,Green,B,2.875,2,ScrollUp,ScrollDown,Green.png,4,Negative,Congruent,0,0,0,0,,,,,,,,,,,,,,,,,,,,,,,,,0,6,6,6,,,,,,,,,,,,,,,,,,,,,,,,,,,,,,,,,,,,,,,,,,,,,,,,,,,,,,,,,,,,,,,,,,,,,,,,,2,1.2950207999992926,522.6585931,None,ScrollUp,정답입니다,522.6585931,None,522.6585931,None,522.6585931,None,522.6585931,None,523.8176297,None,523.8176297,524.3306537000008,,,,,,,,,,,,,,,,233,2022-06-13_18h07.37.337,FishGame,2022.1.1,60.0154719886983,
,8,넌 무심해,4,Orange,A,2.875,3.2,ScrollDown,ScrollUp,Orange.png,4,Negative,Incongruent,0,0,0,0,,,,,,,,,,,,,,,,,,,,,,,,,0,7,7,7,,,,,,,,,,,,,,,,,,,,,,,,,,,,,,,,,,,,,,,,,,,,,,,,,,,,,,,,,,,,,,,,,,,,,,,,,1.0030864079793294,1.1766280000001643,524.9780958000001,None,ScrollDown,정답입니다,524.9780958000001,None,524.9780958000001,None,524.9780958000001,None,524.9780958000001,None,526.0307602000003,None,526.0307602000003,526.5303284000001,,,,,,,,,,,,,,,,233,2022-06-13_18h07.37.337,FishGame,2022.1.1,60.0154719886983,
,9,넌 정겨워,1,Orange,A,5.791666666666667,5.666666666666667,ScrollDown,ScrollUp,Orange.png,4,Positive,Congruent,0,0,0,0,,,,,,,,,,,,,,,,,,,,,,,,,0,8,8,8,,,,,,,,,,,,,,,,,,,,,,,,,,,,,,,,,,,,,,,,,,,,,,,,,,,,,,,,,,,,,,,,,,,,,,,,,1.141975313425064,1.05028510000011,527.1905620000007,None,ScrollDown,정답입니다,527.1905620000007,None,527.1905620000007,None,527.1905620000007,None,527.1905620000007,None,528.1067883000005,None,528.1067883000005,528.6136179000005,,,,,,,,,,,,,,,,233,2022-06-13_18h07.37.337,FishGame,2022.1.1,60.0154719886983,
,10,나를 데려가줘,6,Green,B,0,0,ScrollDown,ScrollUp,Green.png,4,NonTarget,NonTarget,0,0,0,0,,,,,,,,,,,,,,,,,,,,,,,,,0,9,9,9,,,,,,,,,,,,,,,,,,,,,,,,,,,,,,,,,,,,,,,,,,,,,,,,,,,,,,,,,,,,,,,,,,,,,,,,,1,1.000368800000615,529.2603300000001,None,ScrollDown,정답입니다,529.2603300000001,None,529.2603300000001,None,529.2603300000001,None,529.2603300000001,None,530.1388135000007,None,530.1388135000007,530.6464694000006,,,,,,,,,,,,,,,,233,2022-06-13_18h07.37.337,FishGame,2022.1.1,60.0154719886983,
,11,넌 체제순응적이야,4,Green,B,3,3.6,ScrollUp,ScrollDown,Green.png,4,Negative,Congruent,0,0,0,0,,,,,,,,,,,,,,,,,,,,,,,,,0,10,10,10,,,,,,,,,,,,,,,,,,,,,,,,,,,,,,,,,,,,,,,,,,,,,,,,,,,,,,,,,,,,,,,,,,,,,,,,,2,1.0829661000007036,531.3142300000009,None,ScrollUp,정답입니다,531.3142300000009,None,531.3142300000009,None,531.3142300000009,None,531.3142300000009,None,532.2530568000002,None,532.2530568000002,532.7627864000006,,,,,,,,,,,,,,,,233,2022-06-13_18h07.37.337,FishGame,2022.1.1,60.0154719886983,
,12,나를 보내줘,6,Orange,A,0,0,ScrollUp,ScrollDown,Orange.png,4,NonTarget,NonTarget,0,0,0,0,,,,,,,,,,,,,,,,,,,,,,,,,0,11,11,11,,,,,,,,,,,,,,,,,,,,,,,,,,,,,,,,,,,,,,,,,,,,,,,,,,,,,,,,,,,,,,,,,,,,,,,,,2,2.264951999999539,533.4186390000004,None,ScrollUp,정답입니다,533.4186390000004,None,533.4186390000004,None,533.4186390000004,None,533.4186390000004,None,535.5517472000001,None,535.5517472000001,536.0623967000001,,,,,,,,,,,,,,,,233,2022-06-13_18h07.37.337,FishGame,2022.1.1,60.0154719886983,
,13,넌 박식해,2,Orange,A,5.625,3.933333333333333,ScrollDown,ScrollUp,Orange.png,4,Positive,Congruent,0,0,0,0,,,,,,,,,,,,,,,,,,,,,,,,,0,12,12,12,,,,,,,,,,,,,,,,,,,,,,,,,,,,,,,,,,,,,,,,,,,,,,,,,,,,,,,,,,,,,,,,,,,,,,,,,1.1188271542390187,1.1710094000000026,536.7228318000007,None,ScrollDown,정답입니다,536.7228318000007,None,536.7228318000007,None,536.7228318000007,None,536.7228318000007,None,537.7625022000002,None,537.7625022000002,538.2620945000008,,,,,,,,,,,,,,,,233,2022-06-13_18h07.37.337,FishGame,2022.1.1,60.0154719886983,
,14,나를 보내줘,6,Orange,A,0,0,ScrollUp,ScrollDown,Orange.png,4,NonTarget,NonTarget,0,0,0,0,,,,,,,,,,,,,,,,,,,,,,,,,0,13,13,13,,,,,,,,,,,,,,,,,,,,,,,,,,,,,,,,,,,,,,,,,,,,,,,,,,,,,,,,,,,,,,,,,,,,,,,,,2,1.2207918000003701,538.9196387000002,None,ScrollUp,정답입니다,538.9196387000002,None,538.9196387000002,None,538.9196387000002,None,538.9196387000002,None,540.0120554000005,None,540.0120554000005,540.5118792000003,,,,,,,,,,,,,,,,233,2022-06-13_18h07.37.337,FishGame,2022.1.1,60.0154719886983,
,15,넌 침착해,1,Green,B,5.458333333333333,5.566666666666666,ScrollUp,ScrollDown,Green.png,4,Positive,Incongruent,0,0,0,0,,,,,,,,,,,,,,,,,,,,,,,,,0,14,14,14,,,,,,,,,,,,,,,,,,,,,,,,,,,,,,,,,,,,,,,,,,,,,,,,,,,,,,,,,,,,,,,,,,,,,,,,,2,1.2982062000000951,541.1718054000003,None,ScrollUp,정답입니다,541.1718054000003,None,541.1718054000003,None,541.1718054000003,None,541.1718054000003,None,542.3338738000002,None,542.3338738000002,542.8448363000007,,,,,,,,,,,,,,,,233,2022-06-13_18h07.37.337,FishGame,2022.1.1,60.0154719886983,
,16,나를 데려가줘,6,Green,B,0,0,ScrollDown,ScrollUp,Green.png,4,NonTarget,NonTarget,0,0,0,0,,,,,,,,,,,,,,,,,,,,,,,,,0,15,15,15,,,,,,,,,,,,,,,,,,,,,,,,,,,,,,,,,,,,,,,,,,,,,,,,,,,,,,,,,,,,,,,,,,,,,,,,,1,1.2010060999991765,543.4914316000004,None,ScrollDown,정답입니다,543.4914316000004,None,543.4914316000004,None,543.4914316000004,None,543.4914316000004,None,544.5707419,None,544.5707419,545.0779274000006,,,,,,,,,,,,,,,,233,2022-06-13_18h07.37.337,FishGame,2022.1.1,60.0154719886983,
,17,넌 행복해,1,Orange,A,6.416666666666666,6.166666666666667,ScrollDown,ScrollUp,Orange.png,4,Positive,Congruent,0,0,0,0,,,,,,,,,,,,,,,,,,,,,,,,,0,16,16,16,,,,,,,,,,,,,,,,,,,,,,,,,,,,,,,,,,,,,,,,,,,,,,,,,,,,,,,,,,,,,,,,,,,,,,,,,1.0524691541989644,0.9936124000005293,545.7419997000006,None,ScrollDown,정답입니다,545.7419997000006,None,545.7419997000006,None,545.7419997000006,None,545.7419997000006,None,546.5943039000003,None,546.5943039000003,547.0943047000001,,,,,,,,,,,,,,,,233,2022-06-13_18h07.37.337,FishGame,2022.1.1,60.0154719886983,
,18,넌 겸손해,2,Green,B,5.791666666666667,4.766666666666667,ScrollUp,ScrollDown,Green.png,4,Positive,Incongruent,0,0,0,0,,,,,,,,,,,,,,,,,,,,,,,,,0,17,17,17,,,,,,,,,,,,,,,,,,,,,,,,,,,,,,,,,,,,,,,,,,,,,,,,,,,,,,,,,,,,,,,,,,,,,,,,,2,1.140556800000013,547.7527856000006,None,ScrollUp,정답입니다,547.7527856000006,None,547.7527856000006,None,547.7527856000006,None,547.7527856000006,None,548.7606505000003,None,548.7606505000003,549.2607393000008,,,,,,,,,,,,,,,,233,2022-06-13_18h07.37.337,FishGame,2022.1.1,60.0154719886983,
,19,나를 보내줘,6,Orange,A,0,0,ScrollUp,ScrollDown,Orange.png,4,NonTarget,NonTarget,0,0,0,0,,,,,,,,,,,,,,,,,,,,,,,,,0,18,18,18,,,,,,,,,,,,,,,,,,,,,,,,,,,,,,,,,,,,,,,,,,,,,,,,,,,,,,,,,,,,,,,,,,,,,,,,,2,1.0927827000004982,549.9160565000002,None,ScrollUp,정답입니다,549.9160565000002,None,549.9160565000002,None,549.9160565000002,None,549.9160565000002,None,550.8772954000005,None,550.8772954000005,551.3770615000003,,,,,,,,,,,,,,,,233,2022-06-13_18h07.37.337,FishGame,2022.1.1,60.0154719886983,
,20,넌 의심없어,3,Orange,A,4.166666666666667,4.6,ScrollDown,ScrollUp,Orange.png,4,Neutral,Neutral,0,0,0,0,,,,,,,,,,,,,,,,,,,,,,,,,0,19,19,19,,,,,,,,,,,,,,,,,,,,,,,,,,,,,,,,,,,,,,,,,,,,,,,,,,,,,,,,,,,,,,,,,,,,,,,,,1.1543209999799728,0.9760188000000198,552.0277864,None,ScrollDown,정답입니다,552.0277864,None,552.0277864,None,552.0277864,None,552.0277864,None,552.8791081000008,None,552.8791081000008,553.3935477000005,,,,,,,,,,,,,,,,233,2022-06-13_18h07.37.337,FishGame,2022.1.1,60.0154719886983,
,21,넌 시시해,4,Orange,A,2.666666666666667,2.966666666666667,ScrollDown,ScrollUp,Orange.png,4,Negative,Incongruent,0,0,0,0,,,,,,,,,,,,,,,,,,,,,,,,,0,20,20,20,,,,,,,,,,,,,,,,,,,,,,,,,,,,,,,,,,,,,,,,,,,,,,,,,,,,,,,,,,,,,,,,,,,,,,,,,1,0.944527300000118,554.0576122000002,None,ScrollDown,정답입니다,554.0576122000002,None,554.0576122000002,None,554.0576122000002,None,554.0576122000002,None,554.8600904000004,None,554.8600904000004,555.3600248000002,,,,,,,,,,,,,,,,233,2022-06-13_18h07.37.337,FishGame,2022.1.1,60.0154719886983,
,22,나를 데려가줘,6,Green,B,0,0,ScrollDown,ScrollUp,Green.png,4,NonTarget,NonTarget,0,0,0,0,,,,,,,,,,,,,,,,,,,,,,,,,0,21,21,21,,,,,,,,,,,,,,,,,,,,,,,,,,,,,,,,,,,,,,,,,,,,,,,,,,,,,,,,,,,,,,,,,,,,,,,,,2,0.9594199000002845,556.0105812000002,None,ScrollUp,오답입니다,556.0105812000002,None,556.0105812000002,None,556.0105812000002,None,556.0105812000002,None,556.8427065000005,None,556.8427065000005,557.3431243000005,,,,,,,,,,,,,,,,233,2022-06-13_18h07.37.337,FishGame,2022.1.1,60.0154719886983,
,23,넌 무정해,5,Orange,A,2.5,2.2,ScrollDown,ScrollUp,Orange.png,4,Negative,Incongruent,0,0,0,0,,,,,,,,,,,,,,,,,,,,,,,,,0,22,22,22,,,,,,,,,,,,,,,,,,,,,,,,,,,,,,,,,,,,,,,,,,,,,,,,,,,,,,,,,,,,,,,,,,,,,,,,,1,1.4239152000000104,558.0008896000008,None,ScrollDown,정답입니다,558.0008896000008,None,558.0008896000008,None,558.0008896000008,None,558.0008896000008,None,559.2877375000007,None,559.2877375000007,559.7926449000006,,,,,,,,,,,,,,,,233,2022-06-13_18h07.37.337,FishGame,2022.1.1,60.0154719886983,
,24,넌 긍정적이야,1,Green,B,6.041666666666667,6.066666666666666,ScrollUp,ScrollDown,Green.png,4,Positive,Incongruent,0,0,0,0,,,,,,,,,,,,,,,,,,,,,,,,,0,23,23,23,,,,,,,,,,,,,,,,,,,,,,,,,,,,,,,,,,,,,,,,,,,,,,,,,,,,,,,,,,,,,,,,,,,,,,,,,1,1.6988508000004003,560.4536280000002,None,ScrollDown,오답입니다,560.4536280000002,None,560.4536280000002,None,560.4536280000002,None,560.4536280000002,None,562.0179611000003,None,562.0179611000003,562.5255850000003,,,,,,,,,,,,,,,,233,2022-06-13_18h07.37.337,FishGame,2022.1.1,60.0154719886983,
,25,나를 보내줘,6,Orange,A,0,0,ScrollUp,ScrollDown,Orange.png,4,NonTarget,NonTarget,0,0,0,0,,,,,,,,,,,,,,,,,,,,,,,,,0,24,24,24,,,,,,,,,,,,,,,,,,,,,,,,,,,,,,,,,,,,,,,,,,,,,,,,,,,,,,,,,,,,,,,,,,,,,,,,,2,1.5333957000002556,563.1844252000001,None,ScrollUp,정답입니다,563.1844252000001,None,563.1844252000001,None,563.1844252000001,None,563.1844252000001,None,564.5832393000001,None,564.5832393000001,565.0920843000004,,,,,,,,,,,,,,,,233,2022-06-13_18h07.37.337,FishGame,2022.1.1,60.0154719886983,
,26,넌 시기심이 많아,5,Green,B,2.458333333333333,2.233333333333333,ScrollUp,ScrollDown,Green.png,4,Negative,Congruent,0,0,0,0,,,,,,,,,,,,,,,,,,,,,,,,,0,25,25,25,,,,,,,,,,,,,,,,,,,,,,,,,,,,,,,,,,,,,,,,,,,,,,,,,,,,,,,,,,,,,,,,,,,,,,,,,2,2.0204289999992397,565.7532013,None,ScrollUp,정답입니다,565.7532013,None,565.7532013,None,565.7532013,None,565.7532013,None,567.6423293000007,None,567.6423293000007,568.1415634000005,,,,,,,,,,,,,,,,233,2022-06-13_18h07.37.337,FishGame,2022.1.1,60.0154719886983,
,27,넌 탁월해,2,Orange,A,5.708333333333334,4.5,ScrollDown,ScrollUp,Orange.png,4,Positive,Congruent,0,0,0,0,,,,,,,,,,,,,,,,,,,,,,,,,0,26,26,26,,,,,,,,,,,,,,,,,,,,,,,,,,,,,,,,,,,,,,,,,,,,,,,,,,,,,,,,,,,,,,,,,,,,,,,,,1,3.29870690000007,568.8056117000006,None,ScrollDown,정답입니다,568.8056117000006,None,568.8056117000006,None,568.8056117000006,None,568.8056117000006,None,571.9655072000005,None,571.9655072000005,572.4743665000005,,,,,,,,,,,,,,,,233,2022-06-13_18h07.37.337,FishGame,2022.1.1,60.0154719886983,
,28,나를 데려가줘,6,Green,B,0,0,ScrollDown,ScrollUp,Green.png,4,NonTarget,NonTarget,0,0,0,0,,,,,,,,,,,,,,,,,,,,,,,,,0,27,27,27,,,,,,,,,,,,,,,,,,,,,,,,,,,,,,,,,,,,,,,,,,,,,,,,,,,,,,,,,,,,,,,,,,,,,,,,,1,1.4258276999998998,573.1246544000005,None,ScrollDown,정답입니다,573.1246544000005,None,573.1246544000005,None,573.1246544000005,None,573.1246544000005,None,574.4244406000007,None,574.4244406000007,574.9241060000004,,,,,,,,,,,,,,,,233,2022-06-13_18h07.37.337,FishGame,2022.1.1,60.0154719886983,
,29,넌 조용해,3,Green,B,4.333333333333333,4.166666666666667,ScrollUp,ScrollDown,Green.png,4,Neutral,Neutral,0,0,0,0,,,,,,,,,,,,,,,,,,,,,,,,,0,28,28,28,,,,,,,,,,,,,,,,,,,,,,,,,,,,,,,,,,,,,,,,,,,,,,,,,,,,,,,,,,,,,,,,,,,,,,,,,2,3.07981270000073,575.5817728000002,None,ScrollUp,정답입니다,575.5817728000002,None,575.5817728000002,None,575.5817728000002,None,575.5817728000002,None,578.5288050000008,None,578.5288050000008,579.040234,,,,,,,,,,,,,,,,233,2022-06-13_18h07.37.337,FishGame,2022.1.1,60.0154719886983,
,30,넌 다정해,1,Orange,A,5.833333333333334,5.7,ScrollDown,ScrollUp,Orange.png,4,Positive,Congruent,0,0,0,0,,,,,,,,,,,,,,,,,,,,,,,,,0,29,29,29,,,,,,,,,,,,,,,,,,,,,,,,,,,,,,,,,,,,,,,,,,,,,,,,,,,,,,,,,,,,,,,,,,,,,,,,,1,1.3100738999992245,579.7018050000006,None,ScrollDown,정답입니다,579.7018050000006,None,579.7018050000006,None,579.7018050000006,None,579.7018050000006,None,580.8691309000005,None,580.8691309000005,581.3733025000001,,,,,,,,,,,,,,,,233,2022-06-13_18h07.37.337,FishGame,2022.1.1,60.0154719886983,
,31,넌 능력있어,2,Green,B,6.166666666666666,4.6,ScrollUp,ScrollDown,Green.png,4,Positive,Incongruent,0,0,0,0,,,,,,,,,,,,,,,,,,,,,,,,,0,30,30,30,,,,,,,,,,,,,,,,,,,,,,,,,,,,,,,,,,,,,,,,,,,,,,,,,,,,,,,,,,,,,,,,,,,,,,,,,2,1.1817108000004737,582.0262360000006,None,ScrollUp,정답입니다,582.0262360000006,None,582.0262360000006,None,582.0262360000006,None,582.0262360000006,None,583.0802014000001,None,583.0802014000001,583.5895552000002,,,,,,,,,,,,,,,,233,2022-06-13_18h07.37.337,FishGame,2022.1.1,60.0154719886983,
,32,넌 불쾌해,5,Orange,A,2.125,1.933333333333333,ScrollDown,ScrollUp,Orange.png,4,Negative,Incongruent,0,0,0,0,,,,,,,,,,,,,,,,,,,,,,,,,0,31,31,31,,,,,,,,,,,,,,,,,,,,,,,,,,,,,,,,,,,,,,,,,,,,,,,,,,,,,,,,,,,,,,,,,,,,,,,,,1,2.0262887999997474,584.2458225,None,ScrollDown,정답입니다,584.2458225,None,584.2458225,None,584.2458225,None,584.2458225,None,586.1396559000004,None,586.1396559000004,586.6391901000006,,,,,,,,,,,,,,,,233,2022-06-13_18h07.37.337,FishGame,2022.1.1,60.0154719886983,
,33,나를 데려가줘,6,Green,B,0,0,ScrollDown,ScrollUp,Green.png,4,NonTarget,NonTarget,0,0,0,0,,,,,,,,,,,,,,,,,,,,,,,,,0,32,32,32,,,,,,,,,,,,,,,,,,,,,,,,,,,,,,,,,,,,,,,,,,,,,,,,,,,,,,,,,,,,,,,,,,,,,,,,,1,1.3098650000001726,587.2913233000008,None,ScrollDown,정답입니다,587.2913233000008,None,587.2913233000008,None,587.2913233000008,None,587.2913233000008,None,588.4722415000006,None,588.4722415000006,588.9722974000006,,,,,,,,,,,,,,,,233,2022-06-13_18h07.37.337,FishGame,2022.1.1,60.0154719886983,
,34,넌 유순해,3,Orange,A,4.458333333333333,5,ScrollDown,ScrollUp,Orange.png,4,Neutral,Neutral,0,0,0,0,,,,,,,,,,,,,,,,,,,,,,,,,0,33,33,33,,,,,,,,,,,,,,,,,,,,,,,,,,,,,,,,,,,,,,,,,,,,,,,,,,,,,,,,,,,,,,,,,,,,,,,,,1,3.049518299999363,589.6242816000004,None,ScrollDown,정답입니다,589.6242816000004,None,589.6242816000004,None,589.6242816000004,None,589.6242816000004,None,592.5455900000006,None,592.5455900000006,593.0550437000002,,,,,,,,,,,,,,,,233,2022-06-13_18h07.37.337,FishGame,2022.1.1,60.0154719886983,
,35,넌 근심스러워,4,Green,B,2.708333333333333,3.133333333333333,ScrollUp,ScrollDown,Green.png,4,Negative,Congruent,0,0,0,0,,,,,,,,,,,,,,,,,,,,,,,,,0,34,34,34,,,,,,,,,,,,,,,,,,,,,,,,,,,,,,,,,,,,,,,,,,,,,,,,,,,,,,,,,,,,,,,,,,,,,,,,,2,1.2166151999999784,593.7140106000006,None,ScrollUp,정답입니다,593.7140106000006,None,593.7140106000006,None,593.7140106000006,None,593.7140106000006,None,594.7941916,None,594.7941916,595.3047908000008,,,,,,,,,,,,,,,,233,2022-06-13_18h07.37.337,FishGame,2022.1.1,60.0154719886983,
,36,넌 세련되었어,2,Orange,A,5.5,4.6,ScrollDown,ScrollUp,Orange.png,4,Positive,Congruent,0,0,0,0,,,,,,,,,,,,,,,,,,,,,,,,,0,35,35,35,,,,,,,,,,,,,,,,,,,,,,,,,,,,,,,,,,,,,,,,,,,,,,,,,,,,,,,,,,,,,,,,,,,,,,,,,1,1.028211800000463,595.9823444000003,None,ScrollDown,정답입니다,595.9823444000003,None,595.9823444000003,None,595.9823444000003,None,595.9823444000003,None,596.8549331000004,None,596.8549331000004,597.3544559000002,,,,,,,,,,,,,,,,233,2022-06-13_18h07.37.337,FishGame,2022.1.1,60.0154719886983,
,37,나를 보내줘,6,Orange,A,0,0,ScrollUp,ScrollDown,Orange.png,4,NonTarget,NonTarget,0,0,0,0,,,,,,,,,,,,,,,,,,,,,,,,,0,36,36,36,,,,,,,,,,,,,,,,,,,,,,,,,,,,,,,,,,,,,,,,,,,,,,,,,,,,,,,,,,,,,,,,,,,,,,,,,2,1.465744099999938,598.0041676000001,None,ScrollUp,정답입니다,598.0041676000001,None,598.0041676000001,None,598.0041676000001,None,598.0041676000001,None,599.3439945,None,599.3439945,599.8541599,,,,,,,,,,,,,,,,233,2022-06-13_18h07.37.337,FishGame,2022.1.1,60.0154719886983,
,38,넌 확고해,3,Green,B,4.708333333333334,4.566666666666666,ScrollUp,ScrollDown,Green.png,4,Neutral,Neutral,0,0,0,0,,,,,,,,,,,,,,,,,,,,,,,,,0,37,37,37,,,,,,,,,,,,,,,,,,,,,,,,,,,,,,,,,,,,,,,,,,,,,,,,,,,,,,,,,,,,,,,,,,,,,,,,,2,1.4993650999995225,600.5111895,None,ScrollUp,정답입니다,600.5111895,None,600.5111895,None,600.5111895,None,600.5111895,None,601.8765193000008,None,601.8765193000008,602.3871276,,,,,,,,,,,,,,,,233,2022-06-13_18h07.37.337,FishGame,2022.1.1,60.0154719886983,
,39,넌 이해심이 많아,1,Green,B,6.041666666666668,5.533333333333333,ScrollUp,ScrollDown,Green.png,4,Positive,Incongruent,0,0,0,0,,,,,,,,,,,,,,,,,,,,,,,,,0,38,38,38,,,,,,,,,,,,,,,,,,,,,,,,,,,,,,,,,,,,,,,,,,,,,,,,,,,,,,,,,,,,,,,,,,,,,,,,,2,0.9812137999997503,603.0396753000005,None,ScrollUp,정답입니다,603.0396753000005,None,603.0396753000005,None,603.0396753000005,None,603.0396753000005,None,603.8926084000004,None,603.8926084000004,604.4035522000004,,,,,,,,,,,,,,,,233,2022-06-13_18h07.37.337,FishGame,2022.1.1,60.0154719886983,
,40,나를 보내줘,6,Orange,A,0,0,ScrollUp,ScrollDown,Orange.png,4,NonTarget,NonTarget,0,0,0,0,,,,,,,,,,,,,,,,,,,,,,,,,0,39,39,39,,,,,,,,,,,,,,,,,,,,,,,,,,,,,,,,,,,,,,,,,,,,,,,,,,,,,,,,,,,,,,,,,,,,,,,,,2,1.0321130000002086,605.0572092000002,None,ScrollUp,정답입니다,605.0572092000002,None,605.0572092000002,None,605.0572092000002,None,605.0572092000002,None,605.9592402000007,None,605.9592402000007,606.4699458000005,,,,,,,,,,,,,,,,233,2022-06-13_18h07.37.337,FishGame,2022.1.1,60.0154719886983,
,41,넌 거칠어,4,Orange,A,2.625,3.033333333333333,ScrollDown,ScrollUp,Orange.png,4,Negative,Incongruent,0,0,0,0,,,,,,,,,,,,,,,,,,,,,,,,,0,40,40,40,,,,,,,,,,,,,,,,,,,,,,,,,,,,,,,,,,,,,,,,,,,,,,,,,,,,,,,,,,,,,,,,,,,,,,,,,1.1959876517454784,1.1020244000001185,607.1262190000007,None,ScrollDown,정답입니다,607.1262190000007,None,607.1262190000007,None,607.1262190000007,None,607.1262190000007,None,608.0949322000006,None,608.0949322000006,608.6030484000003,,,,,,,,,,,,,,,,233,2022-06-13_18h07.37.337,FishGame,2022.1.1,60.0154719886983,
,42,넌 변덕맞아,5,Green,B,2.75,2.166666666666667,ScrollUp,ScrollDown,Green.png,4,Negative,Congruent,0,0,0,0,,,,,,,,,,,,,,,,,,,,,,,,,0,41,41,41,,,,,,,,,,,,,,,,,,,,,,,,,,,,,,,,,,,,,,,,,,,,,,,,,,,,,,,,,,,,,,,,,,,,,,,,,1.9737654328346252,1.1259914000002027,609.2652289000007,None,ScrollUp,정답입니다,609.2652289000007,None,609.2652289000007,None,609.2652289000007,None,609.2652289000007,None,610.2528901000005,None,610.2528901000005,610.7528275000004,,,,,,,,,,,,,,,,233,2022-06-13_18h07.37.337,FishGame,2022.1.1,60.0154719886983,
,43,나를 데려가줘,6,Green,B,0,0,ScrollDown,ScrollUp,Green.png,4,NonTarget,NonTarget,0,0,0,0,,,,,,,,,,,,,,,,,,,,,,,,,0,42,42,42,,,,,,,,,,,,,,,,,,,,,,,,,,,,,,,,,,,,,,,,,,,,,,,,,,,,,,,,,,,,,,,,,,,,,,,,,1,1.5261685000004945,611.4051658000008,None,ScrollDown,정답입니다,611.4051658000008,None,611.4051658000008,None,611.4051658000008,None,611.4051658000008,None,612.8028130000002,None,612.8028130000002,613.3024361000007,,,,,,,,,,,,,,,,233,2022-06-13_18h07.37.337,FishGame,2022.1.1,60.0154719886983,
,44,넌 외로워,4,Green,B,2.833333333333333,3.3,ScrollUp,ScrollDown,Green.png,4,Negative,Congruent,0,0,0,0,,,,,,,,,,,,,,,,,,,,,,,,,0,43,43,43,,,,,,,,,,,,,,,,,,,,,,,,,,,,,,,,,,,,,,,,,,,,,,,,,,,,,,,,,,,,,,,,,,,,,,,,,2,1.1293487000002642,613.9599317000002,None,ScrollUp,정답입니다,613.9599317000002,None,613.9599317000002,None,613.9599317000002,None,613.9599317000002,None,614.9564319000001,None,614.9564319000001,615.4688688000006,,,,,,,,,,,,,,,,233,2022-06-13_18h07.37.337,FishGame,2022.1.1,60.0154719886983,
,1,넌 불평스러워,5,Orange,A,2.25,2.066666666666667,ScrollDown,ScrollUp,Orange.png,5,Negative,Incongruent,0,0,0,0,,,,,,,,,,,,,,,,,,,,,,,,,,,,,0,0,0,0,,,,,,,,,,,,,,,,,,,,,,,,,,,,647.4815377000004,648.9812745000008,649.0145606000006,649.9645645,650.0145360000006,650.9643482000001,650.9643482000001,None,,,,,,,,,,,,,,,,,,,,,,,,,,,,,,,,,,1.0231481393178303,1.209782200000518,652.1615439000007,None,ScrollDown,정답입니다,652.1615439000007,None,652.1615439000007,None,652.1615439000007,None,652.1615439000007,None,653.1914033000003,None,653.1914033000003,653.6972736000007,615.9687639000003,None,615.9687639000003,None,0.46388888,-0.18425927,1,0,0,0.01619626000046992,None,645.9649657,None,,,233,2022-06-13_18h07.37.337,FishGame,2022.1.1,60.0154719886983,
,2,나를 보내줘,6,Orange,A,0,0,ScrollUp,ScrollDown,Orange.png,5,NonTarget,NonTarget,0,0,0,0,,,,,,,,,,,,,,,,,,,,,,,,,,,,,0,1,1,1,,,,,,,,,,,,,,,,,,,,,,,,,,,,,,,,,,,,,,,,,,,,,,,,,,,,,,,,,,,,,,,,,,,,,2,1.1978610999994999,654.3703313000005,None,ScrollUp,정답입니다,654.3703313000005,None,654.3703313000005,None,654.3703313000005,None,654.3703313000005,None,655.4190194000003,None,655.4190194000003,655.9302769000005,,,,,,,,,,,,,,,,233,2022-06-13_18h07.37.337,FishGame,2022.1.1,60.0154719886983,
,3,넌 다재다능해,2,Green,B,6.208333333333333,4.5,ScrollUp,ScrollDown,Green.png,5,Positive,Incongruent,0,0,0,0,,,,,,,,,,,,,,,,,,,,,,,,,,,,,0,2,2,2,,,,,,,,,,,,,,,,,,,,,,,,,,,,,,,,,,,,,,,,,,,,,,,,,,,,,,,,,,,,,,,,,,,,,2,1.205670199999986,656.5756788000008,None,ScrollUp,정답입니다,656.5756788000008,None,656.5756788000008,None,656.5756788000008,None,656.5756788000008,None,657.6638749000003,None,657.6638749000003,658.163509,,,,,,,,,,,,,,,,233,2022-06-13_18h07.37.337,FishGame,2022.1.1,60.0154719886983,
,4,넌 과감해,3,Orange,A,4.833333333333334,4.6,ScrollDown,ScrollUp,Orange.png,5,Neutral,Neutral,0,0,0,0,,,,,,,,,,,,,,,,,,,,,,,,,,,,,0,3,3,3,,,,,,,,,,,,,,,,,,,,,,,,,,,,,,,,,,,,,,,,,,,,,,,,,,,,,,,,,,,,,,,,,,,,,1,1.115646199999901,658.8135696000008,None,ScrollDown,정답입니다,658.8135696000008,None,658.8135696000008,None,658.8135696000008,None,658.8135696000008,None,659.8038115000008,None,659.8038115000008,660.3130364000008,,,,,,,,,,,,,,,,233,2022-06-13_18h07.37.337,FishGame,2022.1.1,60.0154719886983,
,5,넌 고분고분해,3,Green,B,3.75,4.033333333333333,ScrollUp,ScrollDown,Green.png,5,Neutral,Neutral,0,0,0,0,,,,,,,,,,,,,,,,,,,,,,,,,,,,,0,4,4,4,,,,,,,,,,,,,,,,,,,,,,,,,,,,,,,,,,,,,,,,,,,,,,,,,,,,,,,,,,,,,,,,,,,,,1.9182098805904388,1.0591075000002093,660.9717679000005,None,ScrollUp,정답입니다,660.9717679000005,None,660.9717679000005,None,660.9717679000005,None,660.9717679000005,None,661.8961818000007,None,661.8961818000007,662.3961160000008,,,,,,,,,,,,,,,,233,2022-06-13_18h07.37.337,FishGame,2022.1.1,60.0154719886983,
,6,나를 보내줘,6,Orange,A,0,0,ScrollUp,ScrollDown,Orange.png,5,NonTarget,NonTarget,0,0,0,0,,,,,,,,,,,,,,,,,,,,,,,,,,,,,0,5,5,5,,,,,,,,,,,,,,,,,,,,,,,,,,,,,,,,,,,,,,,,,,,,,,,,,,,,,,,,,,,,,,,,,,,,,1.8749999900658925,1.3945202000004429,663.0538265000005,None,ScrollUp,정답입니다,663.0538265000005,None,663.0538265000005,None,663.0538265000005,None,663.0538265000005,None,664.3128413000004,None,664.3128413000004,664.8124928000007,,,,,,,,,,,,,,,,233,2022-06-13_18h07.37.337,FishGame,2022.1.1,60.0154719886983,
,7,넌 잘 잊어,4,Orange,A,3,3.7,ScrollDown,ScrollUp,Orange.png,5,Negative,Incongruent,0,0,0,0,,,,,,,,,,,,,,,,,,,,,,,,,,,,,0,6,6,6,,,,,,,,,,,,,,,,,,,,,,,,,,,,,,,,,,,,,,,,,,,,,,,,,,,,,,,,,,,,,,,,,,,,,1.0030864079793294,1.2097240000002785,665.4766276,None,ScrollDown,정답입니다,665.4766276,None,665.4766276,None,665.4766276,None,665.4766276,None,666.5455499,None,666.5455499,667.0455222,,,,,,,,,,,,,,,,233,2022-06-13_18h07.37.337,FishGame,2022.1.1,60.0154719886983,
,8,넌 탐구심이없어,4,Green,B,2.833333333333333,3.066666666666667,ScrollUp,ScrollDown,Green.png,5,Negative,Congruent,0,0,0,0,,,,,,,,,,,,,,,,,,,,,,,,,,,,,0,7,7,7,,,,,,,,,,,,,,,,,,,,,,,,,,,,,,,,,,,,,,,,,,,,,,,,,,,,,,,,,,,,,,,,,,,,,1.9891975224018097,0.9769337999996424,667.7042475000007,None,ScrollUp,정답입니다,667.7042475000007,None,667.7042475000007,None,667.7042475000007,None,667.7042475000007,None,668.5484597000004,None,668.5484597000004,669.0618731000004,,,,,,,,,,,,,,,,233,2022-06-13_18h07.37.337,FishGame,2022.1.1,60.0154719886983,
,9,나를 데려가줘,6,Green,B,0,0,ScrollDown,ScrollUp,Green.png,5,NonTarget,NonTarget,0,0,0,0,,,,,,,,,,,,,,,,,,,,,,,,,,,,,0,8,8,8,,,,,,,,,,,,,,,,,,,,,,,,,,,,,,,,,,,,,,,,,,,,,,,,,,,,,,,,,,,,,,,,,,,,,1,1.4502130000000761,669.7162991000005,None,ScrollDown,정답입니다,669.7162991000005,None,669.7162991000005,None,669.7162991000005,None,669.7162991000005,None,671.0355154000008,None,671.0355154000008,671.5449217000005,,,,,,,,,,,,,,,,233,2022-06-13_18h07.37.337,FishGame,2022.1.1,60.0154719886983,
,10,넌 참되어,2,Orange,A,6.041666666666664,4.733333333333333,ScrollDown,ScrollUp,Orange.png,5,Positive,Congruent,0,0,0,0,,,,,,,,,,,,,,,,,,,,,,,,,,,,,0,9,9,9,,,,,,,,,,,,,,,,,,,,,,,,,,,,,,,,,,,,,,,,,,,,,,,,,,,,,,,,,,,,,,,,,,,,,1.0570987462997437,1.060401499999898,672.2073241000007,None,ScrollDown,정답입니다,672.2073241000007,None,672.2073241000007,None,672.2073241000007,None,672.2073241000007,None,673.1282902000003,None,673.1282902000003,673.6280131000003,,,,,,,,,,,,,,,,233,2022-06-13_18h07.37.337,FishGame,2022.1.1,60.0154719886983,
,11,넌 생기있어,1,Green,B,5.875,5.633333333333334,ScrollUp,ScrollDown,Green.png,5,Positive,Incongruent,0,0,0,0,,,,,,,,,,,,,,,,,,,,,,,,,,,,,0,10,10,10,,,,,,,,,,,,,,,,,,,,,,,,,,,,,,,,,,,,,,,,,,,,,,,,,,,,,,,,,,,,,,,,,,,,,2,1.094136300000173,674.3126852000005,None,ScrollUp,정답입니다,674.3126852000005,None,674.3126852000005,None,674.3126852000005,None,674.3126852000005,None,675.2448937000008,None,675.2448937000008,675.7444965000004,,,,,,,,,,,,,,,,233,2022-06-13_18h07.37.337,FishGame,2022.1.1,60.0154719886983,
,12,넌 비사교적이야,4,Green,B,2.875,2.9,ScrollUp,ScrollDown,Green.png,5,Negative,Congruent,0,0,0,0,,,,,,,,,,,,,,,,,,,,,,,,,,,,,0,11,11,11,,,,,,,,,,,,,,,,,,,,,,,,,,,,,,,,,,,,,,,,,,,,,,,,,,,,,,,,,,,,,,,,,,,,,2,1.365276499999709,676.4038761000002,None,ScrollUp,정답입니다,676.4038761000002,None,676.4038761000002,None,676.4038761000002,None,676.4038761000002,None,677.6344290000006,None,677.6344290000006,678.1441747000008,,,,,,,,,,,,,,,,233,2022-06-13_18h07.37.337,FishGame,2022.1.1,60.0154719886983,
,13,나를 데려가줘,6,Green,B,0,0,ScrollDown,ScrollUp,Green.png,5,NonTarget,NonTarget,0,0,0,0,,,,,,,,,,,,,,,,,,,,,,,,,,,,,0,12,12,12,,,,,,,,,,,,,,,,,,,,,,,,,,,,,,,,,,,,,,,,,,,,,,,,,,,,,,,,,,,,,,,,,,,,,1.0231481393178303,1.119229500000074,678.8012181000004,None,ScrollDown,정답입니다,678.8012181000004,None,678.8012181000004,None,678.8012181000004,None,678.8012181000004,None,679.7882411,None,679.7882411,680.2939173000004,,,,,,,,,,,,,,,,233,2022-06-13_18h07.37.337,FishGame,2022.1.1,60.0154719886983,
,14,넌 고독해,4,Orange,A,2.916666666666667,3.233333333333333,ScrollDown,ScrollUp,Orange.png,5,Negative,Incongruent,0,0,0,0,,,,,,,,,,,,,,,,,,,,,,,,,,,,,0,13,13,13,,,,,,,,,,,,,,,,,,,,,,,,,,,,,,,,,,,,,,,,,,,,,,,,,,,,,,,,,,,,,,,,,,,,,1,1.1179767000003267,680.9531252000006,None,ScrollDown,정답입니다,680.9531252000006,None,680.9531252000006,None,680.9531252000006,None,680.9531252000006,None,681.9344238000003,None,681.9344238000003,682.4435407000001,,,,,,,,,,,,,,,,233,2022-06-13_18h07.37.337,FishGame,2022.1.1,60.0154719886983,
,15,넌 신경질적이야,5,Green,B,2.375,2.233333333333333,ScrollUp,ScrollDown,Green.png,5,Negative,Congruent,0,0,0,0,,,,,,,,,,,,,,,,,,,,,,,,,,,,,0,14,14,14,,,,,,,,,,,,,,,,,,,,,,,,,,,,,,,,,,,,,,,,,,,,,,,,,,,,,,,,,,,,,,,,,,,,,2,1.0100210999999035,683.1097629000005,None,ScrollUp,정답입니다,683.1097629000005,None,683.1097629000005,None,683.1097629000005,None,683.1097629000005,None,683.9769327000004,None,683.9769327000004,684.4765619,,,,,,,,,,,,,,,,233,2022-06-13_18h07.37.337,FishGame,2022.1.1,60.0154719886983,
,16,넌 똑똑해,2,Green,B,5.666666666666667,3.966666666666667,ScrollUp,ScrollDown,Green.png,5,Positive,Incongruent,0,0,0,0,,,,,,,,,,,,,,,,,,,,,,,,,,,,,0,15,15,15,,,,,,,,,,,,,,,,,,,,,,,,,,,,,,,,,,,,,,,,,,,,,,,,,,,,,,,,,,,,,,,,,,,,,1.9876543084780376,1.0139200000003257,685.1316844000003,None,ScrollUp,정답입니다,685.1316844000003,None,685.1316844000003,None,685.1316844000003,None,685.1316844000003,None,686.0144967000006,None,686.0144967000006,686.5264224000002,,,,,,,,,,,,,,,,233,2022-06-13_18h07.37.337,FishGame,2022.1.1,60.0154719886983,
,17,나를 보내줘,6,Orange,A,0,0,ScrollUp,ScrollDown,Orange.png,5,NonTarget,NonTarget,0,0,0,0,,,,,,,,,,,,,,,,,,,,,,,,,,,,,0,16,16,16,,,,,,,,,,,,,,,,,,,,,,,,,,,,,,,,,,,,,,,,,,,,,,,,,,,,,,,,,,,,,,,,,,,,,1.9891975224018097,1.5016521999996257,687.1812929000007,None,ScrollUp,정답입니다,687.1812929000007,None,687.1812929000007,None,687.1812929000007,None,687.1812929000007,None,688.5490306000002,None,688.5490306000002,689.0593636000003,,,,,,,,,,,,,,,,233,2022-06-13_18h07.37.337,FishGame,2022.1.1,60.0154719886983,
,18,넌 협조적이야,1,Orange,A,5.625,5.666666666666667,ScrollDown,ScrollUp,Orange.png,5,Positive,Congruent,0,0,0,0,,,,,,,,,,,,,,,,,,,,,,,,,,,,,0,17,17,17,,,,,,,,,,,,,,,,,,,,,,,,,,,,,,,,,,,,,,,,,,,,,,,,,,,,,,,,,,,,,,,,,,,,,1,1.0063073999999688,689.7181578,None,ScrollDown,정답입니다,689.7181578,None,689.7181578,None,689.7181578,None,689.7181578,None,690.5928780000004,None,690.5928780000004,691.0924196000005,,,,,,,,,,,,,,,,233,2022-06-13_18h07.37.337,FishGame,2022.1.1,60.0154719886983,
,19,나를 데려가줘,6,Green,B,0,0,ScrollDown,ScrollUp,Green.png,5,NonTarget,NonTarget,0,0,0,0,,,,,,,,,,,,,,,,,,,,,,,,,,,,,0,18,18,18,,,,,,,,,,,,,,,,,,,,,,,,,,,,,,,,,,,,,,,,,,,,,,,,,,,,,,,,,,,,,,,,,,,,,1,1.1336510999999518,691.7452881000008,None,ScrollDown,정답입니다,691.7452881000008,None,691.7452881000008,None,691.7452881000008,None,691.7452881000008,None,692.7509469000006,None,692.7509469000006,693.2588365000001,,,,,,,,,,,,,,,,233,2022-06-13_18h07.37.337,FishGame,2022.1.1,60.0154719886983,
,20,넌 몰인정해,5,Green,B,2.541666666666667,2.066666666666667,ScrollUp,ScrollDown,Green.png,5,Negative,Congruent,0,0,0,0,,,,,,,,,,,,,,,,,,,,,,,,,,,,,0,19,19,19,,,,,,,,,,,,,,,,,,,,,,,,,,,,,,,,,,,,,,,,,,,,,,,,,,,,,,,,,,,,,,,,,,,,,2,1.2014673000003313,693.9127973000004,None,ScrollUp,정답입니다,693.9127973000004,None,693.9127973000004,None,693.9127973000004,None,693.9127973000004,None,694.9834358000007,None,694.9834358000007,695.4919042000001,,,,,,,,,,,,,,,,233,2022-06-13_18h07.37.337,FishGame,2022.1.1,60.0154719886983,
,21,나를 데려가줘,6,Green,B,0,0,ScrollDown,ScrollUp,Green.png,5,NonTarget,NonTarget,0,0,0,0,,,,,,,,,,,,,,,,,,,,,,,,,,,,,0,20,20,20,,,,,,,,,,,,,,,,,,,,,,,,,,,,,,,,,,,,,,,,,,,,,,,,,,,,,,,,,,,,,,,,,,,,,2,1.2014541999997164,696.1446497000006,None,ScrollUp,오답입니다,696.1446497000006,None,696.1446497000006,None,696.1446497000006,None,696.1446497000006,None,697.2184966000004,None,697.2184966000004,697.7249011000004,,,,,,,,,,,,,,,,233,2022-06-13_18h07.37.337,FishGame,2022.1.1,60.0154719886983,
,22,넌 순진해,3,Green,B,4.125,4.166666666666667,ScrollUp,ScrollDown,Green.png,5,Neutral,Neutral,0,0,0,0,,,,,,,,,,,,,,,,,,,,,,,,,,,,,0,21,21,21,,,,,,,,,,,,,,,,,,,,,,,,,,,,,,,,,,,,,,,,,,,,,,,,,,,,,,,,,,,,,,,,,,,,,2,1.4926717000007557,698.3758449000006,None,ScrollUp,정답입니다,698.3758449000006,None,698.3758449000006,None,698.3758449000006,None,698.3758449000006,None,699.7366820000007,None,699.7366820000007,700.2412175000009,,,,,,,,,,,,,,,,233,2022-06-13_18h07.37.337,FishGame,2022.1.1,60.0154719886983,
,23,넌 신뢰할만해,1,Orange,A,6.625,5.533333333333333,ScrollDown,ScrollUp,Orange.png,5,Positive,Congruent,0,0,0,0,,,,,,,,,,,,,,,,,,,,,,,,,,,,,0,22,22,22,,,,,,,,,,,,,,,,,,,,,,,,,,,,,,,,,,,,,,,,,,,,,,,,,,,,,,,,,,,,,,,,,,,,,1,1.026458299999831,700.9131878000007,None,ScrollDown,정답입니다,700.9131878000007,None,700.9131878000007,None,700.9131878000007,None,700.9131878000007,None,701.7950640000008,None,701.7950640000008,702.3076250000004,,,,,,,,,,,,,,,,233,2022-06-13_18h07.37.337,FishGame,2022.1.1,60.0154719886983,
,24,나를 보내줘,6,Orange,A,0,0,ScrollUp,ScrollDown,Orange.png,5,NonTarget,NonTarget,0,0,0,0,,,,,,,,,,,,,,,,,,,,,,,,,,,,,0,23,23,23,,,,,,,,,,,,,,,,,,,,,,,,,,,,,,,,,,,,,,,,,,,,,,,,,,,,,,,,,,,,,,,,,,,,,1.9799382885297139,1.166877999999997,702.9633462000002,None,ScrollUp,정답입니다,702.9633462000002,None,702.9633462000002,None,702.9633462000002,None,702.9633462000002,None,703.9972462000005,None,703.9972462000005,704.5073920000004,,,,,,,,,,,,,,,,233,2022-06-13_18h07.37.337,FishGame,2022.1.1,60.0154719886983,
,25,넌 인색해,5,Orange,A,2.625,2.233333333333333,ScrollDown,ScrollUp,Orange.png,5,Negative,Incongruent,0,0,0,0,,,,,,,,,,,,,,,,,,,,,,,,,,,,,0,24,24,24,,,,,,,,,,,,,,,,,,,,,,,,,,,,,,,,,,,,,,,,,,,,,,,,,,,,,,,,,,,,,,,,,,,,,1,1.0331394000004366,705.1709910000009,None,ScrollDown,정답입니다,705.1709910000009,None,705.1709910000009,None,705.1709910000009,None,705.1709910000009,None,706.0653061000003,None,706.0653061000003,706.5738371000007,,,,,,,,,,,,,,,,233,2022-06-13_18h07.37.337,FishGame,2022.1.1,60.0154719886983,
,26,넌 유쾌해,1,Green,B,5.833333333333333,5.766666666666667,ScrollUp,ScrollDown,Green.png,5,Positive,Incongruent,0,0,0,0,,,,,,,,,,,,,,,,,,,,,,,,,,,,,0,25,25,25,,,,,,,,,,,,,,,,,,,,,,,,,,,,,,,,,,,,,,,,,,,,,,,,,,,,,,,,,,,,,,,,,,,,,2,1.0729019000000335,707.2238776000004,None,ScrollUp,정답입니다,707.2238776000004,None,707.2238776000004,None,707.2238776000004,None,707.2238776000004,None,708.1737873000002,None,708.1737873000002,708.6735461000007,,,,,,,,,,,,,,,,233,2022-06-13_18h07.37.337,FishGame,2022.1.1,60.0154719886983,
,27,나를 보내줘,6,Orange,A,0,0,ScrollUp,ScrollDown,Orange.png,5,NonTarget,NonTarget,0,0,0,0,,,,,,,,,,,,,,,,,,,,,,,,,,,,,0,26,26,26,,,,,,,,,,,,,,,,,,,,,,,,,,,,,,,,,,,,,,,,,,,,,,,,,,,,,,,,,,,,,,,,,,,,,2,1.2647015000002284,709.3448356000008,None,ScrollUp,정답입니다,709.3448356000008,None,709.3448356000008,None,709.3448356000008,None,709.3448356000008,None,710.4611856000001,None,710.4611856000001,710.9732583000005,,,,,,,,,,,,,,,,233,2022-06-13_18h07.37.337,FishGame,2022.1.1,60.0154719886983,
,28,넌 창의력있어,2,Orange,A,5.916666666666667,4.8,ScrollDown,ScrollUp,Orange.png,5,Positive,Congruent,0,0,0,0,,,,,,,,,,,,,,,,,,,,,,,,,,,,,0,27,27,27,,,,,,,,,,,,,,,,,,,,,,,,,,,,,,,,,,,,,,,,,,,,,,,,,,,,,,,,,,,,,,,,,,,,,1,1.2283917000004294,711.6266289000005,None,ScrollDown,정답입니다,711.6266289000005,None,711.6266289000005,None,711.6266289000005,None,711.6266289000005,None,712.7240043000002,None,712.7240043000002,713.2395474000004,,,,,,,,,,,,,,,,233,2022-06-13_18h07.37.337,FishGame,2022.1.1,60.0154719886983,
