target,distractor,set,ans1,ans2,total_experiment.thisRepN,total_experiment.thisTrialN,total_experiment.thisN,total_experiment.thisIndex,boat.thisRepN,boat.thisTrialN,boat.thisN,boat.thisIndex,fl_rep_loop2.thisRepN,fl_rep_loop2.thisTrialN,fl_rep_loop2.thisN,fl_rep_loop2.thisIndex,flanker_prac_loop.thisRepN,flanker_prac_loop.thisTrialN,flanker_prac_loop.thisN,flanker_prac_loop.thisIndex,flanker_main_loop.thisRepN,flanker_main_loop.thisTrialN,flanker_main_loop.thisN,flanker_main_loop.thisIndex,flanker_rest.thisRepN,flanker_rest.thisTrialN,flanker_rest.thisN,flanker_rest.thisIndex,para.thisRepN,para.thisTrialN,para.thisN,para.thisIndex,para_rep_loop.thisRepN,para_rep_loop.thisTrialN,para_rep_loop.thisN,para_rep_loop.thisIndex,para_prac_loop.thisRepN,para_prac_loop.thisTrialN,para_prac_loop.thisN,para_prac_loop.thisIndex,para_main_loop.thisRepN,para_main_loop.thisTrialN,para_main_loop.thisN,para_main_loop.thisIndex,para_rest.thisRepN,para_rest.thisTrialN,para_rest.thisN,para_rest.thisIndex,fl_starter_back.started,fl_starter.started,fl_starter_text.started,fl_starter.keys,fl_starter.rt,fl_inst_resp.keys,fl_inst_resp.rt,fl_back.started,fl_mouse_prac.started,fl_mouse_prac.x,fl_mouse_prac.y,fl_mouse_prac.leftButton,fl_mouse_prac.midButton,fl_mouse_prac.rightButton,back_2.started,main_prac,fl_cold,fl_colt,fl_set,fl_dcond,fl_tcond,fl_fix.started,j_button.started,k_button.started,l_button.started,targ.started,fl_fix.stopped,fl_ans,fl_res,fl_corr,fl_rt,j_button2.started,k_button2.started,l_button2.started,j_button2.stopped,k_button2.stopped,l_button2.stopped,fl_mainback.started,fl_mouse_m.started,fl_key_resp.keys,fl_key_resp.rt,fl_mouse_m.x,fl_mouse_m.y,fl_mouse_m.leftButton,fl_mouse_m.midButton,fl_mouse_m.rightButton,rest_text.started,rest_key.started,rest_inst_text.started,rest_time.started,rest_key.keys,exp_end_key.started,exp_end_back.started,exp_end_text.started,exp_end_key.keys,exp_end_key.rt,para_starter.started,para_starter_key.started,para_starter_key.keys,para_starter_key.rt,para_inst_sound.started,para_inst_key.keys,para_inst_key.rt,para_inst_image.started,para_prac_back.started,para_prac_text.started,para_fix_back.started,para_fix_2.started,para_back.started,st_ans,st_res,st_corr,st_rt,st2_resp.keys,st2_resp.corr,para_main_back.started,para_main_text.started,para_mouse.started,para_mouse.x,para_mouse.y,para_mouse.leftButton,para_mouse.midButton,para_mouse.rightButton,para_mouse.clicked_name,rest_text.stopped,rest_key.stopped,rest_inst_text.stopped,rest_time.stopped,total_end_text.started,id*,date,expName,psychopyVersion,frameRate,
,,,,,0,0,0,0,0,0,0,0,0,0,0,0,,,,,,,,,,,,,,,,,,,,,,,,,,,,,,,,,54.07347789999994,54.07347789999994,56.00064250000014,space,4.831783799999812,space,56.14855469999975,116.13281849999976,,,,,,,,,,,,,,,,,,,,,,,,,,,,,,,,,,,,,,,,,,,,,,,,,,,,,,,,,,,,,,,,,,,,,,,,,,,,,,,,,,302,2022-10-07_11h18.57.018,Main,2022.2.2,60.03745136224678,
negative,positive,2,j,l,0,0,0,0,0,0,0,0,,,,,0,0,0,15,,,,,,,,,,,,,,,,,,,,,,,,,,,,,,,,,,,,,0.005048500000157219,-0.03981481481481482,-0.22407407407407406,0,0,0,121.0559247000001,prac,2,2,2,positive,negative,123.31640900000002,123.31640900000002,123.31640900000002,123.31640900000002,124.28065719999995,124.35029649999979,j,j,1,4.8304754000000685,129.13066230000004,129.13066230000004,129.13066230000004,130.17740219999996,130.17740219999996,130.17740219999996,,,,,,,,,,,,,,,,,,,,,,,,,,,,,,,,,,,,,,,,,,,,,,,,,,,,,302,2022-10-07_11h18.57.018,Main,2022.2.2,60.03745136224678,
negative,neutral,2,j,l,0,0,0,0,0,0,0,0,,,,,0,1,1,12,,,,,,,,,,,,,,,,,,,,,,,,,,,,,,,,,,,,,,,,,,,,prac,1,1,2,neutral,negative,130.17740219999996,130.17740219999996,130.17740219999996,130.17740219999996,131.17426109999997,131.20544040000004,j,j,1,1.7578048999998828,132.90414009999995,132.90414009999995,132.90414009999995,133.95966550000003,133.95966550000003,133.95966550000003,,,,,,,,,,,,,,,,,,,,,,,,,,,,,,,,,,,,,,,,,,,,,,,,,,,,,302,2022-10-07_11h18.57.018,Main,2022.2.2,60.03745136224678,
neutral,positive,1,k,k,0,0,0,0,0,0,0,0,,,,,0,2,2,4,,,,,,,,,,,,,,,,,,,,,,,,,,,,,,,,,,,,,,,,,,,,prac,2,2,1,positive,neutral,133.95966550000003,133.95966550000003,133.95966550000003,133.95966550000003,134.93871959999979,135.00792049999973,k,k,1,1.6749758999999358,136.58545279999998,136.58545279999998,136.58545279999998,137.6305342999999,137.6305342999999,137.6305342999999,,,,,,,,,,,,,,,,,,,,,,,,,,,,,,,,,,,,,,,,,,,,,,,,,,,,,302,2022-10-07_11h18.57.018,Main,2022.2.2,60.03745136224678,
negative,negative,2,j,l,0,0,0,0,0,0,0,0,,,,,0,3,3,9,,,,,,,,,,,,,,,,,,,,,,,,,,,,,,,,,,,,,,,,,,,,prac,1,1,2,negative,negative,137.6305342999999,137.6305342999999,137.6305342999999,137.6305342999999,138.6041792000001,138.66807689999996,j,j,1,1.6631246000001738,140.26790419999998,140.26790419999998,140.26790419999998,141.30815810000013,141.30815810000013,141.30815810000013,,,,,,,,,,,,,,,,,,,,,,,,,,,,,,,,,,,,,,,,,,,,,,,,,,,,,302,2022-10-07_11h18.57.018,Main,2022.2.2,60.03745136224678,
positive,positive,2,l,j,0,0,0,0,0,0,0,0,,,,,0,4,4,11,,,,,,,,,,,,,,,,,,,,,,,,,,,,,,,,,,,,,,,,,,,,prac,2,2,2,positive,positive,141.30815810000013,141.30815810000013,141.30815810000013,141.30815810000013,142.2865222999999,142.3528206000001,l,l,1,1.4671462000001156,143.79359859999977,143.79359859999977,143.79359859999977,143.79359859999977,143.79359859999977,143.79359859999977,,,,,,,,,,,,,,,,,,,,,,,,,,,,,,,,,,,,,,,,,,,,,,,,,,,,,302,2022-10-07_11h18.57.018,Main,2022.2.2,60.03745136224678,
neutral,neutral,2,k,k,0,0,0,0,0,0,0,0,,,,,0,5,5,10,,,,,,,,,,,,,,,,,,,,,,,,,,,,,,,,,,,,,,,,,,,,prac,2,2,2,neutral,neutral,143.79359859999977,143.79359859999977,143.79359859999977,143.79359859999977,144.77014759999975,144.83268139999973,k,k,1,1.9699015999999574,146.74353029999975,146.74353029999975,146.74353029999975,147.77341849999993,147.77341849999993,147.77341849999993,,,,,,,,,,,,,,,,,,,,,,,,,,,,,,,,,,,,,,,,,,,,,,,,,,,,,302,2022-10-07_11h18.57.018,Main,2022.2.2,60.03745136224678,
positive,negative,1,l,j,0,0,0,0,0,0,0,0,,,,,0,6,6,5,,,,,,,,,,,,,,,,,,,,,,,,,,,,,,,,,,,,,,,,,,,,prac,1,1,1,negative,positive,147.77341849999993,147.77341849999993,147.77341849999993,147.77341849999993,148.76942169999984,148.79977629999985,l,l,1,1.460916200000156,150.24073409999983,150.24073409999983,150.24073409999983,150.24073409999983,150.24073409999983,150.24073409999983,,,,,,,,,,,,,,,,,,,,,,,,,,,,,,,,,,,,,,,,,,,,,,,,,,,,,302,2022-10-07_11h18.57.018,Main,2022.2.2,60.03745136224678,
neutral,negative,2,k,k,0,0,0,0,0,0,0,0,,,,,0,7,7,16,,,,,,,,,,,,,,,,,,,,,,,,,,,,,,,,,,,,,,,,,,,,prac,2,2,2,negative,neutral,150.24073409999983,150.24073409999983,150.24073409999983,150.24073409999983,151.22797009999977,151.2642840999997,k,k,1,1.920227800000248,153.1373083999997,153.1373083999997,153.1373083999997,154.16733739999972,154.16733739999972,154.16733739999972,,,,,,,,,,,,,,,,,,,,,,,,,,,,,,,,,,,,,,,,,,,,,,,,,,,,,302,2022-10-07_11h18.57.018,Main,2022.2.2,60.03745136224678,
negative,positive,1,j,l,0,0,0,0,0,0,0,0,,,,,0,8,8,6,,,,,,,,,,,,,,,,,,,,,,,,,,,,,,,,,,,,,,,,,,,,prac,2,2,1,positive,negative,154.16733739999972,154.16733739999972,154.16733739999972,154.16733739999972,155.14732520000007,155.22041219999983,j,j,1,1.5478907000001527,156.69141889999992,156.69141889999992,156.69141889999992,157.73952000000008,157.73952000000008,157.73952000000008,,,,,,,,,,,,,,,,,,,,,,,,,,,,,,,,,,,,,,,,,,,,,,,,,,,,,302,2022-10-07_11h18.57.018,Main,2022.2.2,60.03745136224678,
positive,negative,2,l,j,0,0,0,0,0,0,0,0,,,,,0,9,9,14,,,,,,,,,,,,,,,,,,,,,,,,,,,,,,,,,,,,,,,,,,,,prac,1,1,2,negative,positive,157.73952000000008,157.73952000000008,157.73952000000008,157.73952000000008,158.7291396999999,158.75932299999977,l,l,1,1.4103940999998485,160.14799459999995,160.14799459999995,160.14799459999995,160.14799459999995,160.14799459999995,160.14799459999995,,,,,,,,,,,,,,,,,,,,,,,,,,,,,,,,,,,,,,,,,,,,,,,,,,,,,302,2022-10-07_11h18.57.018,Main,2022.2.2,60.03745136224678,
negative,negative,1,j,l,0,0,0,0,0,0,0,0,,,,,0,10,10,0,,,,,,,,,,,,,,,,,,,,,,,,,,,,,,,,,,,,,,,,,,,,prac,2,2,1,negative,negative,160.14799459999995,160.14799459999995,160.14799459999995,160.14799459999995,161.1342764000001,161.16321289999996,j,j,1,1.5240787000002456,162.64817319999975,162.64817319999975,162.64817319999975,163.68395729999975,163.68395729999975,163.68395729999975,,,,,,,,,,,,,,,,,,,,,,,,,,,,,,,,,,,,,,,,,,,,,,,,,,,,,302,2022-10-07_11h18.57.018,Main,2022.2.2,60.03745136224678,
neutral,negative,1,k,k,0,0,0,0,0,0,0,0,,,,,0,11,11,7,,,,,,,,,,,,,,,,,,,,,,,,,,,,,,,,,,,,,,,,,,,,prac,1,1,1,negative,neutral,163.68395729999975,163.68395729999975,163.68395729999975,163.68395729999975,164.6742521000001,164.70387329999994,k,k,1,1.5471216000000823,166.20730689999982,166.20730689999982,166.20730689999982,167.24685020000015,167.24685020000015,167.24685020000015,,,,,,,,,,,,,,,,,,,,,,,,,,,,,,,,,,,,,,,,,,,,,,,,,,,,,302,2022-10-07_11h18.57.018,Main,2022.2.2,60.03745136224678,
positive,positive,1,l,j,0,0,0,0,0,0,0,0,,,,,0,12,12,2,,,,,,,,,,,,,,,,,,,,,,,,,,,,,,,,,,,,,,,,,,,,prac,2,2,1,positive,positive,167.24685020000015,167.24685020000015,167.24685020000015,167.24685020000015,168.24770039999976,168.27786969999988,l,l,1,1.4657234000001154,169.75249380000014,169.75249380000014,169.75249380000014,169.75249380000014,169.75249380000014,169.75249380000014,,,,,,,,,,,,,,,,,,,,,,,,,,,,,,,,,,,,,,,,,,,,,,,,,,,,,302,2022-10-07_11h18.57.018,Main,2022.2.2,60.03745136224678,
neutral,neutral,1,k,k,0,0,0,0,0,0,0,0,,,,,0,13,13,1,,,,,,,,,,,,,,,,,,,,,,,,,,,,,,,,,,,,,,,,,,,,prac,2,2,1,neutral,neutral,169.75249380000014,169.75249380000014,169.75249380000014,169.75249380000014,170.69348209999998,170.78717849999975,k,k,1,1.7436799000001884,172.44208889999982,172.44208889999982,172.44208889999982,173.4726055000001,173.4726055000001,173.4726055000001,,,,,,,,,,,,,,,,,,,,,,,,,,,,,,,,,,,,,,,,,,,,,,,,,,,,,302,2022-10-07_11h18.57.018,Main,2022.2.2,60.03745136224678,
positive,neutral,2,l,j,0,0,0,0,0,0,0,0,,,,,0,14,14,17,,,,,,,,,,,,,,,,,,,,,,,,,,,,,,,,,,,,,,,,,,,,prac,1,1,2,neutral,positive,173.4726055000001,173.4726055000001,173.4726055000001,173.4726055000001,174.4447970000001,174.5131707999999,l,l,1,1.2721747999999025,175.751933,175.751933,175.751933,175.751933,175.751933,175.751933,,,,,,,,,,,,,,,,,,,,,,,,,,,,,,,,,,,,,,,,,,,,,,,,,,,,,302,2022-10-07_11h18.57.018,Main,2022.2.2,60.03745136224678,
neutral,positive,2,k,k,0,0,0,0,0,0,0,0,,,,,0,15,15,13,,,,,,,,,,,,,,,,,,,,,,,,,,,,,,,,,,,,,,,,,,,,prac,2,2,2,positive,neutral,175.751933,175.751933,175.751933,175.751933,176.75195329999997,176.78194649999978,k,k,1,1.506804099999954,178.23361549999981,178.23361549999981,178.23361549999981,179.27700539999978,179.27700539999978,179.27700539999978,,,,,,,,,,,,,,,,,,,,,,,,,,,,,,,,,,,,,,,,,,,,,,,,,,,,,302,2022-10-07_11h18.57.018,Main,2022.2.2,60.03745136224678,
negative,neutral,1,j,l,0,0,0,0,0,0,0,0,,,,,0,16,16,3,,,,,,,,,,,,,,,,,,,,,,,,,,,,,,,,,,,,,,,,,,,,prac,2,2,1,neutral,negative,179.27700539999978,179.27700539999978,179.27700539999978,179.27700539999978,180.25602470000013,180.32246510000004,j,j,1,1.3155689999998685,181.6028369999999,181.6028369999999,181.6028369999999,181.6028369999999,181.6028369999999,181.6028369999999,,,,,,,,,,,,,,,,,,,,,,,,,,,,,,,,,,,,,,,,,,,,,,,,,,,,,302,2022-10-07_11h18.57.018,Main,2022.2.2,60.03745136224678,
positive,neutral,1,l,j,0,0,0,0,0,0,0,0,,,,,0,17,17,8,,,,,,,,,,,,,,,,,,,,,,,,,,,,,,,,,,,,,,,,,,,,prac,2,2,1,neutral,positive,181.6028369999999,181.6028369999999,181.6028369999999,181.6028369999999,182.6017023999998,182.64041499999985,l,l,1,1.595109400000183,184.1759204,184.1759204,184.1759204,185.22347630000013,185.22347630000013,185.22347630000013,,,,,,,,,,,,,,,,,,,,,,,,,,,,,,,,,,,,,,,,,,,,,,,,,,,,,302,2022-10-07_11h18.57.018,Main,2022.2.2,60.03745136224678,
negative,neutral,1,j,l,0,0,0,0,0,0,0,0,,,,,1,0,18,3,,,,,,,,,,,,,,,,,,,,,,,,,,,,,,,,,,,,,,,,,,,,prac,2,2,1,neutral,negative,185.22347630000013,185.22347630000013,185.22347630000013,185.22347630000013,186.1982121000001,186.26459130000012,j,j,1,1.4990575000001627,187.71901260000004,187.71901260000004,187.71901260000004,187.71901260000004,187.71901260000004,187.71901260000004,,,,,,,,,,,,,,,,,,,,,,,,,,,,,,,,,,,,,,,,,,,,,,,,,,,,,302,2022-10-07_11h18.57.018,Main,2022.2.2,60.03745136224678,
positive,negative,2,l,j,0,0,0,0,0,0,0,0,,,,,1,1,19,14,,,,,,,,,,,,,,,,,,,,,,,,,,,,,,,,,,,,,,,,,,,,prac,2,2,2,negative,positive,187.71901260000004,187.71901260000004,187.71901260000004,187.71901260000004,188.70184699999982,188.74045660000002,l,l,1,2.0250138999999763,190.72119900000007,190.72119900000007,190.72119900000007,191.74879669999973,191.74879669999973,191.74879669999973,,,,,,,,,,,,,,,,,,,,,,,,,,,,,,,,,,,,,,,,,,,,,,,,,,,,,302,2022-10-07_11h18.57.018,Main,2022.2.2,60.03745136224678,
neutral,negative,1,k,k,0,0,0,0,0,0,0,0,,,,,1,2,20,7,,,,,,,,,,,,,,,,,,,,,,,,,,,,,,,,,,,,,,,,,,,,prac,1,1,1,negative,neutral,191.74879669999973,191.74879669999973,191.74879669999973,191.74879669999973,192.72640869999987,192.78691530000015,k,k,1,2.396469100000104,195.12075490000007,195.12075490000007,195.12075490000007,196.1794964999999,196.1794964999999,196.1794964999999,,,,,,,,,,,,,,,,,,,,,,,,,,,,,,,,,,,,,,,,,,,,,,,,,,,,,302,2022-10-07_11h18.57.018,Main,2022.2.2,60.03745136224678,
neutral,negative,2,k,k,0,0,0,0,0,0,0,0,,,,,1,3,21,16,,,,,,,,,,,,,,,,,,,,,,,,,,,,,,,,,,,,,,,,,,,,prac,2,2,2,negative,neutral,196.1794964999999,196.1794964999999,196.1794964999999,196.1794964999999,197.14401719999978,197.20567789999996,k,k,1,1.5397907999999916,198.68005110000013,198.68005110000013,198.68005110000013,199.7203559999998,199.7203559999998,199.7203559999998,,,,,,,,,,,,,,,,,,,,,,,,,,,,,,,,,,,,,,,,,,,,,,,,,,,,,302,2022-10-07_11h18.57.018,Main,2022.2.2,60.03745136224678,
neutral,positive,2,k,k,0,0,0,0,0,0,0,0,,,,,1,4,22,13,,,,,,,,,,,,,,,,,,,,,,,,,,,,,,,,,,,,,,,,,,,,prac,2,2,2,positive,neutral,199.7203559999998,199.7203559999998,199.7203559999998,199.7203559999998,200.71279730000015,200.74791219999997,k,k,1,1.263617300000078,201.99215060000006,201.99215060000006,201.99215060000006,201.99215060000006,201.99215060000006,201.99215060000006,,,,,,,,,,,,,,,,,,,,,,,,,,,,,,,,,,,,,,,,,,,,,,,,,,,,,302,2022-10-07_11h18.57.018,Main,2022.2.2,60.03745136224678,
neutral,neutral,2,k,k,0,0,0,0,0,0,0,0,,,,,1,5,23,10,,,,,,,,,,,,,,,,,,,,,,,,,,,,,,,,,,,,,,,,,,,,prac,2,2,2,neutral,neutral,201.99215060000006,201.99215060000006,201.99215060000006,201.99215060000006,202.99152520000007,203.0228514999999,k,k,1,1.2410115000002406,204.2339065000001,204.2339065000001,204.2339065000001,204.2339065000001,204.2339065000001,204.2339065000001,,,,,,,,,,,,,,,,,,,,,,,,,,,,,,,,,,,,,,,,,,,,,,,,,,,,,302,2022-10-07_11h18.57.018,Main,2022.2.2,60.03745136224678,
negative,negative,1,j,l,0,0,0,0,0,0,0,0,,,,,1,6,24,0,,,,,,,,,,,,,,,,,,,,,,,,,,,,,,,,,,,,,,,,,,,,prac,2,2,1,negative,negative,204.2339065000001,204.2339065000001,204.2339065000001,204.2339065000001,205.2377974000001,205.2731829999998,j,j,1,1.5018655999997463,206.7115491999998,206.7115491999998,206.7115491999998,207.74583699999994,207.74583699999994,207.74583699999994,,,,,,,,,,,,,,,,,,,,,,,,,,,,,,,,,,,,,,,,,,,,,,,,,,,,,302,2022-10-07_11h18.57.018,Main,2022.2.2,60.03745136224678,
negative,neutral,2,j,l,0,0,0,0,0,0,0,0,,,,,1,7,25,12,,,,,,,,,,,,,,,,,,,,,,,,,,,,,,,,,,,,,,,,,,,,prac,1,1,2,neutral,negative,207.74583699999994,207.74583699999994,207.74583699999994,207.74583699999994,208.72921799999995,208.7599626000001,j,j,1,1.2509086000000025,210.00696179999977,210.00696179999977,210.00696179999977,210.00696179999977,210.00696179999977,210.00696179999977,,,,,,,,,,,,,,,,,,,,,,,,,,,,,,,,,,,,,,,,,,,,,,,,,,,,,302,2022-10-07_11h18.57.018,Main,2022.2.2,60.03745136224678,
positive,positive,1,l,j,0,0,0,0,0,0,0,0,,,,,1,8,26,2,,,,,,,,,,,,,,,,,,,,,,,,,,,,,,,,,,,,,,,,,,,,prac,1,1,1,positive,positive,210.00696179999977,210.00696179999977,210.00696179999977,210.00696179999977,210.99028150000004,211.0242849000001,l,l,1,1.2568943999999647,212.26801079999996,212.26801079999996,212.26801079999996,212.26801079999996,212.26801079999996,212.26801079999996,,,,,,,,,,,,,,,,,,,,,,,,,,,,,,,,,,,,,,,,,,,,,,,,,,,,,302,2022-10-07_11h18.57.018,Main,2022.2.2,60.03745136224678,
neutral,neutral,1,k,k,0,0,0,0,0,0,0,0,,,,,1,9,27,1,,,,,,,,,,,,,,,,,,,,,,,,,,,,,,,,,,,,,,,,,,,,prac,1,1,1,neutral,neutral,212.26801079999996,212.26801079999996,212.26801079999996,212.26801079999996,213.2529512000001,213.28826159999971,k,k,1,0.9096325000000434,214.17024020000008,214.17024020000008,214.17024020000008,214.17024020000008,214.17024020000008,214.17024020000008,,,,,,,,,,,,,,,,,,,,,,,,,,,,,,,,,,,,,,,,,,,,,,,,,,,,,302,2022-10-07_11h18.57.018,Main,2022.2.2,60.03745136224678,
positive,neutral,2,l,j,0,0,0,0,0,0,0,0,,,,,1,10,28,17,,,,,,,,,,,,,,,,,,,,,,,,,,,,,,,,,,,,,,,,,,,,prac,1,1,2,neutral,positive,214.17024020000008,214.17024020000008,214.17024020000008,214.17024020000008,,,l,k,0,-0.6723651999996036,214.50276519999989,214.50276519999989,214.50276519999989,217.5496331999998,217.5496331999998,217.5496331999998,,,,,,,,,,,,,,,,,,,,,,,,,,,,,,,,,,,,,,,,,,,,,,,,,,,,,302,2022-10-07_11h18.57.018,Main,2022.2.2,60.03745136224678,
negative,positive,2,j,l,0,0,0,0,0,0,0,0,,,,,1,11,29,15,,,,,,,,,,,,,,,,,,,,,,,,,,,,,,,,,,,,,,,,,,,,prac,2,2,2,positive,negative,217.5496331999998,217.5496331999998,217.5496331999998,217.5496331999998,218.5391300000001,218.56781790000014,j,j,1,1.3166034999999283,219.8663388,219.8663388,219.8663388,219.8663388,219.8663388,219.8663388,,,,,,,,,,,,,,,,,,,,,,,,,,,,,,,,,,,,,,,,,,,,,,,,,,,,,302,2022-10-07_11h18.57.018,Main,2022.2.2,60.03745136224678,
negative,negative,2,j,l,0,0,0,0,0,0,0,0,,,,,1,12,30,9,,,,,,,,,,,,,,,,,,,,,,,,,,,,,,,,,,,,,,,,,,,,prac,1,1,2,negative,negative,219.8663388,219.8663388,219.8663388,219.8663388,220.84936259999995,220.87933729999986,j,j,1,1.166828599999917,222.03853299999992,222.03853299999992,222.03853299999992,222.03853299999992,222.03853299999992,222.03853299999992,,,,,,,,,,,,,,,,,,,,,,,,,,,,,,,,,,,,,,,,,,,,,,,,,,,,,302,2022-10-07_11h18.57.018,Main,2022.2.2,60.03745136224678,
positive,negative,1,l,j,0,0,0,0,0,0,0,0,,,,,1,13,31,5,,,,,,,,,,,,,,,,,,,,,,,,,,,,,,,,,,,,,,,,,,,,prac,2,2,1,negative,positive,222.03853299999992,222.03853299999992,222.03853299999992,222.03853299999992,223.04503909999994,223.08284649999996,l,l,1,1.4526977999998962,224.4992416,224.4992416,224.4992416,224.4992416,224.4992416,224.4992416,,,,,,,,,,,,,,,,,,,,,,,,,,,,,,,,,,,,,,,,,,,,,,,,,,,,,302,2022-10-07_11h18.57.018,Main,2022.2.2,60.03745136224678,
positive,positive,2,l,j,0,0,0,0,0,0,0,0,,,,,1,14,32,11,,,,,,,,,,,,,,,,,,,,,,,,,,,,,,,,,,,,,,,,,,,,prac,1,1,2,positive,positive,224.4992416,224.4992416,224.4992416,224.4992416,225.4677283000001,225.53989159999992,l,l,1,1.1649376999998822,226.67443419999972,226.67443419999972,226.67443419999972,226.67443419999972,226.67443419999972,226.67443419999972,,,,,,,,,,,,,,,,,,,,,,,,,,,,,,,,,,,,,,,,,,,,,,,,,,,,,302,2022-10-07_11h18.57.018,Main,2022.2.2,60.03745136224678,
positive,neutral,1,l,j,0,0,0,0,0,0,0,0,,,,,1,15,33,8,,,,,,,,,,,,,,,,,,,,,,,,,,,,,,,,,,,,,,,,,,,,prac,2,2,1,neutral,positive,226.67443419999972,226.67443419999972,226.67443419999972,226.67443419999972,227.66604619999998,227.70291629999974,l,l,1,1.194694199999958,228.86530839999978,228.86530839999978,228.86530839999978,228.86530839999978,228.86530839999978,228.86530839999978,,,,,,,,,,,,,,,,,,,,,,,,,,,,,,,,,,,,,,,,,,,,,,,,,,,,,302,2022-10-07_11h18.57.018,Main,2022.2.2,60.03745136224678,
negative,positive,1,j,l,0,0,0,0,0,0,0,0,,,,,1,16,34,6,,,,,,,,,,,,,,,,,,,,,,,,,,,,,,,,,,,,,,,,,,,,prac,1,1,1,positive,negative,228.86530839999978,228.86530839999978,228.86530839999978,228.86530839999978,229.86195569999973,229.89657069999976,j,j,1,1.336769699999877,231.20332409999992,231.20332409999992,231.20332409999992,231.20332409999992,231.20332409999992,231.20332409999992,,,,,,,,,,,,,,,,,,,,,,,,,,,,,,,,,,,,,,,,,,,,,,,,,,,,,302,2022-10-07_11h18.57.018,Main,2022.2.2,60.03745136224678,
neutral,positive,1,k,k,0,0,0,0,0,0,0,0,,,,,1,17,35,4,,,,,,,,,,,,,,,,,,,,,,,,,,,,,,,,,,,,,,,,,,,,prac,1,1,1,positive,neutral,231.20332409999992,231.20332409999992,231.20332409999992,231.20332409999992,232.20095469999978,232.2384963999998,k,k,1,1.1052561999999853,233.30377850000013,233.30377850000013,233.30377850000013,233.30377850000013,233.30377850000013,233.30377850000013,,,,,,,,,,,,,,,,,,,,,,,,,,,,,,,,,,,,,,,,,,,,,,,,,,,,,302,2022-10-07_11h18.57.018,Main,2022.2.2,60.03745136224678,
neutral,negative,1,k,k,0,0,0,0,0,0,0,0,,,,,,,,,0,0,0,7,,,,,,,,,,,,,,,,,,,,,,,,,,,,,,,,,,,,,,,242.23794129999987,main,2,2,1,negative,neutral,244.2872643999999,244.2872643999999,244.2872643999999,244.2872643999999,245.26694599999973,245.32918800000016,k,k,1,1.4370672999998533,246.7404607999997,246.7404607999997,246.7404607999997,246.7404607999997,246.7404607999997,246.7404607999997,233.30377850000013,0.0002988999999615771,space,8.891349300000002,0.6722222222222223,-0.32314814814814813,0,0,0,,,,,,,,,,,,,,,,,,,,,,,,,,,,,,,,,,,,,,,,,,,,302,2022-10-07_11h18.57.018,Main,2022.2.2,60.03745136224678,
negative,positive,1,j,l,0,0,0,0,0,0,0,0,,,,,,,,,0,1,1,6,,,,,,,,,,,,,,,,,,,,,,,,,,,,,,,,,,,,,,,,main,1,1,1,positive,negative,246.7404607999997,246.7404607999997,246.7404607999997,246.7404607999997,247.7310392999998,247.77152579999984,j,j,1,1.1772571000001335,248.9140754,248.9140754,248.9140754,248.9140754,248.9140754,248.9140754,,,,,,,,,,,,,,,,,,,,,,,,,,,,,,,,,,,,,,,,,,,,,,,,,,,,,302,2022-10-07_11h18.57.018,Main,2022.2.2,60.03745136224678,
positive,positive,2,l,j,0,0,0,0,0,0,0,0,,,,,,,,,0,2,2,11,,,,,,,,,,,,,,,,,,,,,,,,,,,,,,,,,,,,,,,,main,1,1,2,positive,positive,248.9140754,248.9140754,248.9140754,248.9140754,249.90016689999993,249.9299774000001,l,l,1,1.1814518000001044,251.09339309999996,251.09339309999996,251.09339309999996,251.09339309999996,251.09339309999996,251.09339309999996,,,,,,,,,,,,,,,,,,,,,,,,,,,,,,,,,,,,,,,,,,,,,,,,,,,,,302,2022-10-07_11h18.57.018,Main,2022.2.2,60.03745136224678,
positive,negative,2,l,j,0,0,0,0,0,0,0,0,,,,,,,,,0,3,3,14,,,,,,,,,,,,,,,,,,,,,,,,,,,,,,,,,,,,,,,,main,1,1,2,negative,positive,251.09339309999996,251.09339309999996,251.09339309999996,251.09339309999996,252.06856160000007,252.13397029999987,l,l,1,1.1134342000000288,253.21091089999982,253.21091089999982,253.21091089999982,253.21091089999982,253.21091089999982,253.21091089999982,,,,,,,,,,,,,,,,,,,,,,,,,,,,,,,,,,,,,,,,,,,,,,,,,,,,,302,2022-10-07_11h18.57.018,Main,2022.2.2,60.03745136224678,
positive,neutral,2,l,j,0,0,0,0,0,0,0,0,,,,,,,,,0,4,4,17,,,,,,,,,,,,,,,,,,,,,,,,,,,,,,,,,,,,,,,,main,2,2,2,neutral,positive,253.21091089999982,253.21091089999982,253.21091089999982,253.21091089999982,254.20256599999993,254.2340710999997,l,l,1,1.109692399999858,255.32985659999986,255.32985659999986,255.32985659999986,255.32985659999986,255.32985659999986,255.32985659999986,,,,,,,,,,,,,,,,,,,,,,,,,,,,,,,,,,,,,,,,,,,,,,,,,,,,,302,2022-10-07_11h18.57.018,Main,2022.2.2,60.03745136224678,
neutral,positive,1,k,k,0,0,0,0,0,0,0,0,,,,,,,,,0,5,5,4,,,,,,,,,,,,,,,,,,,,,,,,,,,,,,,,,,,,,,,,main,2,2,1,positive,neutral,255.32985659999986,255.32985659999986,255.32985659999986,255.32985659999986,256.3040754999997,256.3655736999999,k,k,1,1.3200716999999713,257.6472171999999,257.6472171999999,257.6472171999999,257.6472171999999,257.6472171999999,257.6472171999999,,,,,,,,,,,,,,,,,,,,,,,,,,,,,,,,,,,,,,,,,,,,,,,,,,,,,302,2022-10-07_11h18.57.018,Main,2022.2.2,60.03745136224678,
neutral,neutral,2,k,k,0,0,0,0,0,0,0,0,,,,,,,,,0,6,6,10,,,,,,,,,,,,,,,,,,,,,,,,,,,,,,,,,,,,,,,,main,1,1,2,neutral,neutral,257.6472171999999,257.6472171999999,257.6472171999999,257.6472171999999,258.62942239999984,258.69131830000015,k,,0,1.043011899999783,259.679854,259.679854,259.679854,260.71343279999974,260.71343279999974,260.71343279999974,,,,,,,,,,,,,,,,,,,,,,,,,,,,,,,,,,,,,,,,,,,,,,,,,,,,,302,2022-10-07_11h18.57.018,Main,2022.2.2,60.03745136224678,
negative,neutral,1,j,l,0,0,0,0,0,0,0,0,,,,,,,,,0,7,7,3,,,,,,,,,,,,,,,,,,,,,,,,,,,,,,,,,,,,,,,,main,2,2,1,neutral,negative,260.71343279999974,260.71343279999974,260.71343279999974,260.71343279999974,261.72229830000015,261.7525264000001,j,,0,1.1899873000002117,262.88402959999985,262.88402959999985,262.88402959999985,263.93368550000014,263.93368550000014,263.93368550000014,,,,,,,,,,,,,,,,,,,,,,,,,,,,,,,,,,,,,,,,,,,,,,,,,,,,,302,2022-10-07_11h18.57.018,Main,2022.2.2,60.03745136224678,
negative,negative,1,j,l,0,0,0,0,0,0,0,0,,,,,,,,,0,8,8,0,,,,,,,,,,,,,,,,,,,,,,,,,,,,,,,,,,,,,,,,main,2,2,1,negative,negative,263.93368550000014,263.93368550000014,263.93368550000014,263.93368550000014,264.93017599999985,264.96392860000014,j,j,1,1.2146677999999156,266.1542750999997,266.1542750999997,266.1542750999997,266.1542750999997,266.1542750999997,266.1542750999997,,,,,,,,,,,,,,,,,,,,,,,,,,,,,,,,,,,,,,,,,,,,,,,,,,,,,302,2022-10-07_11h18.57.018,Main,2022.2.2,60.03745136224678,
positive,positive,1,l,j,0,0,0,0,0,0,0,0,,,,,,,,,0,9,9,2,,,,,,,,,,,,,,,,,,,,,,,,,,,,,,,,,,,,,,,,main,2,2,1,positive,positive,266.1542750999997,266.1542750999997,266.1542750999997,266.1542750999997,267.13593679999985,267.2035044999998,l,l,1,1.3290917999997873,268.4888249999999,268.4888249999999,268.4888249999999,268.4888249999999,268.4888249999999,268.4888249999999,,,,,,,,,,,,,,,,,,,,,,,,,,,,,,,,,,,,,,,,,,,,,,,,,,,,,302,2022-10-07_11h18.57.018,Main,2022.2.2,60.03745136224678,
positive,neutral,1,l,j,0,0,0,0,0,0,0,0,,,,,,,,,0,10,10,8,,,,,,,,,,,,,,,,,,,,,,,,,,,,,,,,,,,,,,,,main,2,2,1,neutral,positive,268.4888249999999,268.4888249999999,268.4888249999999,268.4888249999999,269.4781174,269.5092998,l,l,1,1.2014366999997037,270.6972249999999,270.6972249999999,270.6972249999999,270.6972249999999,270.6972249999999,270.6972249999999,,,,,,,,,,,,,,,,,,,,,,,,,,,,,,,,,,,,,,,,,,,,,,,,,,,,,302,2022-10-07_11h18.57.018,Main,2022.2.2,60.03745136224678,
negative,positive,2,j,l,0,0,0,0,0,0,0,0,,,,,,,,,0,11,11,15,,,,,,,,,,,,,,,,,,,,,,,,,,,,,,,,,,,,,,,,main,1,1,2,positive,negative,270.6972249999999,270.6972249999999,270.6972249999999,270.6972249999999,271.69397359999994,271.72666789999994,j,j,1,1.2500079999999798,272.9443437,272.9443437,272.9443437,272.9443437,272.9443437,272.9443437,,,,,,,,,,,,,,,,,,,,,,,,,,,,,,,,,,,,,,,,,,,,,,,,,,,,,302,2022-10-07_11h18.57.018,Main,2022.2.2,60.03745136224678,
negative,neutral,2,j,l,0,0,0,0,0,0,0,0,,,,,,,,,0,12,12,12,,,,,,,,,,,,,,,,,,,,,,,,,,,,,,,,,,,,,,,,main,2,2,2,neutral,negative,272.9443437,272.9443437,272.9443437,272.9443437,273.9335723999998,273.9651242,j,j,1,1.1568051000003834,275.10471240000015,275.10471240000015,275.10471240000015,275.10471240000015,275.10471240000015,275.10471240000015,,,,,,,,,,,,,,,,,,,,,,,,,,,,,,,,,,,,,,,,,,,,,,,,,,,,,302,2022-10-07_11h18.57.018,Main,2022.2.2,60.03745136224678,
negative,negative,2,j,l,0,0,0,0,0,0,0,0,,,,,,,,,0,13,13,9,,,,,,,,,,,,,,,,,,,,,,,,,,,,,,,,,,,,,,,,main,2,2,2,negative,negative,275.10471240000015,275.10471240000015,275.10471240000015,275.10471240000015,276.0843638000001,276.14761880000015,j,j,1,1.1086356000000706,277.2166179000001,277.2166179000001,277.2166179000001,277.2166179000001,277.2166179000001,277.2166179000001,,,,,,,,,,,,,,,,,,,,,,,,,,,,,,,,,,,,,,,,,,,,,,,,,,,,,302,2022-10-07_11h18.57.018,Main,2022.2.2,60.03745136224678,
neutral,neutral,1,k,k,0,0,0,0,0,0,0,0,,,,,,,,,0,14,14,1,,,,,,,,,,,,,,,,,,,,,,,,,,,,,,,,,,,,,,,,main,2,2,1,neutral,neutral,277.2166179000001,277.2166179000001,277.2166179000001,277.2166179000001,278.1886337000001,278.2599743999999,k,k,1,1.5116030999997747,279.7033415000001,279.7033415000001,279.7033415000001,280.73450809999986,280.73450809999986,280.73450809999986,,,,,,,,,,,,,,,,,,,,,,,,,,,,,,,,,,,,,,,,,,,,,,,,,,,,,302,2022-10-07_11h18.57.018,Main,2022.2.2,60.03745136224678,
neutral,positive,2,k,k,0,0,0,0,0,0,0,0,,,,,,,,,0,15,15,13,,,,,,,,,,,,,,,,,,,,,,,,,,,,,,,,,,,,,,,,main,2,2,2,positive,neutral,280.73450809999986,280.73450809999986,280.73450809999986,280.73450809999986,281.7217559999999,281.7548649999999,k,k,1,1.2504822000000786,282.9953443999998,282.9953443999998,282.9953443999998,282.9953443999998,282.9953443999998,282.9953443999998,,,,,,,,,,,,,,,,,,,,,,,,,,,,,,,,,,,,,,,,,,,,,,,,,,,,,302,2022-10-07_11h18.57.018,Main,2022.2.2,60.03745136224678,
neutral,negative,2,k,k,0,0,0,0,0,0,0,0,,,,,,,,,0,16,16,16,,,,,,,,,,,,,,,,,,,,,,,,,,,,,,,,,,,,,,,,main,1,1,2,negative,neutral,282.9953443999998,282.9953443999998,282.9953443999998,282.9953443999998,283.9761223999999,284.03987000000006,k,k,1,1.5611710000002859,285.5354202999997,285.5354202999997,285.5354202999997,286.58228180000015,286.58228180000015,286.58228180000015,,,,,,,,,,,,,,,,,,,,,,,,,,,,,,,,,,,,,,,,,,,,,,,,,,,,,302,2022-10-07_11h18.57.018,Main,2022.2.2,60.03745136224678,
positive,negative,1,l,j,0,0,0,0,0,0,0,0,,,,,,,,,0,17,17,5,,,,,,,,,,,,,,,,,,,,,,,,,,,,,,,,,,,,,,,,main,1,1,1,negative,positive,286.58228180000015,286.58228180000015,286.58228180000015,286.58228180000015,287.57561699999997,287.60680360000015,l,l,1,1.3673131999998986,288.9641729,288.9641729,288.9641729,288.9641729,288.9641729,288.9641729,,,,,,,,,,,,,,,,,,,,,,,,,,,,,,,,,,,,,,,,,,,,,,,,,,,,,302,2022-10-07_11h18.57.018,Main,2022.2.2,60.03745136224678,
negative,negative,2,j,l,0,0,0,0,0,0,0,0,,,,,,,,,1,0,18,9,,,,,,,,,,,,,,,,,,,,,,,,,,,,,,,,,,,,,,,,main,2,2,2,negative,negative,288.9641729,288.9641729,288.9641729,288.9641729,289.9296267999998,289.9932080999997,j,l,0,1.6839890999999625,291.6295608999999,291.6295608999999,291.6295608999999,292.66162140000006,292.66162140000006,292.66162140000006,,,,,,,,,,,,,,,,,,,,,,,,,,,,,,,,,,,,,,,,,,,,,,,,,,,,,302,2022-10-07_11h18.57.018,Main,2022.2.2,60.03745136224678,
positive,negative,2,l,j,0,0,0,0,0,0,0,0,,,,,,,,,1,1,19,14,,,,,,,,,,,,,,,,,,,,,,,,,,,,,,,,,,,,,,,,main,2,2,2,negative,positive,292.66162140000006,292.66162140000006,292.66162140000006,292.66162140000006,293.64558239999997,293.6819854999999,l,l,1,1.214168399999835,294.88516100000015,294.88516100000015,294.88516100000015,294.88516100000015,294.88516100000015,294.88516100000015,,,,,,,,,,,,,,,,,,,,,,,,,,,,,,,,,,,,,,,,,,,,,,,,,,,,,302,2022-10-07_11h18.57.018,Main,2022.2.2,60.03745136224678,
positive,negative,1,l,j,0,0,0,0,0,0,0,0,,,,,,,,,1,2,20,5,,,,,,,,,,,,,,,,,,,,,,,,,,,,,,,,,,,,,,,,main,2,2,1,negative,positive,294.88516100000015,294.88516100000015,294.88516100000015,294.88516100000015,295.88043340000013,295.91426090000004,l,l,1,1.2523478000002797,297.1432544999998,297.1432544999998,297.1432544999998,297.1432544999998,297.1432544999998,297.1432544999998,,,,,,,,,,,,,,,,,,,,,,,,,,,,,,,,,,,,,,,,,,,,,,,,,,,,,302,2022-10-07_11h18.57.018,Main,2022.2.2,60.03745136224678,
neutral,negative,2,k,k,0,0,0,0,0,0,0,0,,,,,,,,,1,3,21,16,,,,,,,,,,,,,,,,,,,,,,,,,,,,,,,,,,,,,,,,main,1,1,2,negative,neutral,297.1432544999998,297.1432544999998,297.1432544999998,297.1432544999998,298.13966889999983,298.1778064,k,k,1,1.608708100000058,299.7310855999999,299.7310855999999,299.7310855999999,300.7610126999998,300.7610126999998,300.7610126999998,,,,,,,,,,,,,,,,,,,,,,,,,,,,,,,,,,,,,,,,,,,,,,,,,,,,,302,2022-10-07_11h18.57.018,Main,2022.2.2,60.03745136224678,
negative,positive,2,j,l,0,0,0,0,0,0,0,0,,,,,,,,,1,4,22,15,,,,,,,,,,,,,,,,,,,,,,,,,,,,,,,,,,,,,,,,main,1,1,2,positive,negative,300.7610126999998,300.7610126999998,300.7610126999998,300.7610126999998,301.76845730000014,301.80142579999983,j,j,1,1.6942102000002706,303.43399869999985,303.43399869999985,303.43399869999985,304.46754039999996,304.46754039999996,304.46754039999996,,,,,,,,,,,,,,,,,,,,,,,,,,,,,,,,,,,,,,,,,,,,,,,,,,,,,302,2022-10-07_11h18.57.018,Main,2022.2.2,60.03745136224678,
negative,positive,1,j,l,0,0,0,0,0,0,0,0,,,,,,,,,1,5,23,6,,,,,,,,,,,,,,,,,,,,,,,,,,,,,,,,,,,,,,,,main,2,2,1,positive,negative,304.46754039999996,304.46754039999996,304.46754039999996,304.46754039999996,305.46619250000003,305.49541769999996,j,j,1,1.726347799999985,307.1748484999998,307.1748484999998,307.1748484999998,308.2493273,308.2493273,308.2493273,,,,,,,,,,,,,,,,,,,,,,,,,,,,,,,,,,,,,,,,,,,,,,,,,,,,,302,2022-10-07_11h18.57.018,Main,2022.2.2,60.03745136224678,
neutral,negative,1,k,k,0,0,0,0,0,0,0,0,,,,,,,,,1,6,24,7,,,,,,,,,,,,,,,,,,,,,,,,,,,,,,,,,,,,,,,,main,2,2,1,negative,neutral,308.2493273,308.2493273,308.2493273,308.2493273,309.2296624999999,309.2971693999998,k,k,1,1.601089100000081,310.8097339000001,310.8097339000001,310.8097339000001,311.8501885999999,311.8501885999999,311.8501885999999,,,,,,,,,,,,,,,,,,,,,,,,,,,,,,,,,,,,,,,,,,,,,,,,,,,,,302,2022-10-07_11h18.57.018,Main,2022.2.2,60.03745136224678,
negative,negative,1,j,l,0,0,0,0,0,0,0,0,,,,,,,,,1,7,25,0,,,,,,,,,,,,,,,,,,,,,,,,,,,,,,,,,,,,,,,,main,2,2,1,negative,negative,311.8501885999999,311.8501885999999,311.8501885999999,311.8501885999999,312.83352190000005,312.86574500000006,j,j,1,1.180649199999607,314.0359758999998,314.0359758999998,314.0359758999998,314.0359758999998,314.0359758999998,314.0359758999998,,,,,,,,,,,,,,,,,,,,,,,,,,,,,,,,,,,,,,,,,,,,,,,,,,,,,302,2022-10-07_11h18.57.018,Main,2022.2.2,60.03745136224678,
neutral,positive,1,k,k,0,0,0,0,0,0,0,0,,,,,,,,,1,8,26,4,,,,,,,,,,,,,,,,,,,,,,,,,,,,,,,,,,,,,,,,main,1,1,1,positive,neutral,314.0359758999998,314.0359758999998,314.0359758999998,314.0359758999998,315.0332205999998,315.06344020000006,k,k,1,1.6950035999998363,316.7080409,316.7080409,316.7080409,317.7553147999997,317.7553147999997,317.7553147999997,,,,,,,,,,,,,,,,,,,,,,,,,,,,,,,,,,,,,,,,,,,,,,,,,,,,,302,2022-10-07_11h18.57.018,Main,2022.2.2,60.03745136224678,
negative,neutral,1,j,l,0,0,0,0,0,0,0,0,,,,,,,,,1,9,27,3,,,,,,,,,,,,,,,,,,,,,,,,,,,,,,,,,,,,,,,,main,1,1,1,neutral,negative,317.7553147999997,317.7553147999997,317.7553147999997,317.7553147999997,318.7431692,318.77660560000004,j,j,1,1.181395699999939,319.9490495,319.9490495,319.9490495,319.9490495,319.9490495,319.9490495,,,,,,,,,,,,,,,,,,,,,,,,,,,,,,,,,,,,,,,,,,,,,,,,,,,,,302,2022-10-07_11h18.57.018,Main,2022.2.2,60.03745136224678,
neutral,positive,2,k,k,0,0,0,0,0,0,0,0,,,,,,,,,1,10,28,13,,,,,,,,,,,,,,,,,,,,,,,,,,,,,,,,,,,,,,,,main,1,1,2,positive,neutral,319.9490495,319.9490495,319.9490495,319.9490495,320.9382258999999,320.97503659999984,k,k,1,1.4959177000000636,322.4435275000001,322.4435275000001,322.4435275000001,322.4435275000001,322.4435275000001,322.4435275000001,,,,,,,,,,,,,,,,,,,,,,,,,,,,,,,,,,,,,,,,,,,,,,,,,,,,,302,2022-10-07_11h18.57.018,Main,2022.2.2,60.03745136224678,
positive,positive,2,l,j,0,0,0,0,0,0,0,0,,,,,,,,,1,11,29,11,,,,,,,,,,,,,,,,,,,,,,,,,,,,,,,,,,,,,,,,main,2,2,2,positive,positive,322.4435275000001,322.4435275000001,322.4435275000001,322.4435275000001,323.4238700000001,323.4899912000001,l,l,1,1.1592092000000775,324.6037017999997,324.6037017999997,324.6037017999997,324.6037017999997,324.6037017999997,324.6037017999997,,,,,,,,,,,,,,,,,,,,,,,,,,,,,,,,,,,,,,,,,,,,,,,,,,,,,302,2022-10-07_11h18.57.018,Main,2022.2.2,60.03745136224678,
positive,positive,1,l,j,0,0,0,0,0,0,0,0,,,,,,,,,1,12,30,2,,,,,,,,,,,,,,,,,,,,,,,,,,,,,,,,,,,,,,,,main,2,2,1,positive,positive,324.6037017999997,324.6037017999997,324.6037017999997,324.6037017999997,325.57533030000013,325.6338083999999,l,l,1,1.2824779000002309,326.89230629999975,326.89230629999975,326.89230629999975,326.89230629999975,326.89230629999975,326.89230629999975,,,,,,,,,,,,,,,,,,,,,,,,,,,,,,,,,,,,,,,,,,,,,,,,,,,,,302,2022-10-07_11h18.57.018,Main,2022.2.2,60.03745136224678,
neutral,neutral,1,k,k,0,0,0,0,0,0,0,0,,,,,,,,,1,13,31,1,,,,,,,,,,,,,,,,,,,,,,,,,,,,,,,,,,,,,,,,main,1,1,1,neutral,neutral,326.89230629999975,326.89230629999975,326.89230629999975,326.89230629999975,327.8893401999999,327.9203763999999,k,k,1,1.3179756999998062,329.20917039999995,329.20917039999995,329.20917039999995,329.20917039999995,329.20917039999995,329.20917039999995,,,,,,,,,,,,,,,,,,,,,,,,,,,,,,,,,,,,,,,,,,,,,,,,,,,,,302,2022-10-07_11h18.57.018,Main,2022.2.2,60.03745136224678,
negative,neutral,2,j,l,0,0,0,0,0,0,0,0,,,,,,,,,1,14,32,12,,,,,,,,,,,,,,,,,,,,,,,,,,,,,,,,,,,,,,,,main,1,1,2,neutral,negative,329.20917039999995,329.20917039999995,329.20917039999995,329.20917039999995,330.20189230000005,330.2364447,j,j,1,1.6023792999999387,331.79338929999994,331.79338929999994,331.79338929999994,332.8252262000001,332.8252262000001,332.8252262000001,,,,,,,,,,,,,,,,,,,,,,,,,,,,,,,,,,,,,,,,,,,,,,,,,,,,,302,2022-10-07_11h18.57.018,Main,2022.2.2,60.03745136224678,
positive,neutral,2,l,j,0,0,0,0,0,0,0,0,,,,,,,,,1,15,33,17,,,,,,,,,,,,,,,,,,,,,,,,,,,,,,,,,,,,,,,,main,1,1,2,neutral,positive,332.8252262000001,332.8252262000001,332.8252262000001,332.8252262000001,333.79346269999996,333.8555207999998,l,l,1,1.2576444999999694,335.09344680000004,335.09344680000004,335.09344680000004,335.09344680000004,335.09344680000004,335.09344680000004,,,,,,,,,,,,,,,,,,,,,,,,,,,,,,,,,,,,,,,,,,,,,,,,,,,,,302,2022-10-07_11h18.57.018,Main,2022.2.2,60.03745136224678,
positive,neutral,1,l,j,0,0,0,0,0,0,0,0,,,,,,,,,1,16,34,8,,,,,,,,,,,,,,,,,,,,,,,,,,,,,,,,,,,,,,,,main,2,2,1,neutral,positive,335.09344680000004,335.09344680000004,335.09344680000004,335.09344680000004,336.07083479999983,336.13186670000005,l,l,1,1.3641652000001159,337.4537283999998,337.4537283999998,337.4537283999998,337.4537283999998,337.4537283999998,337.4537283999998,,,,,,,,,,,,,,,,,,,,,,,,,,,,,,,,,,,,,,,,,,,,,,,,,,,,,302,2022-10-07_11h18.57.018,Main,2022.2.2,60.03745136224678,
neutral,neutral,2,k,k,0,0,0,0,0,0,0,0,,,,,,,,,1,17,35,10,,,,,,,,,,,,,,,,,,,,,,,,,,,,,,,,,,,,,,,,main,2,2,2,neutral,neutral,337.4537283999998,337.4537283999998,337.4537283999998,337.4537283999998,338.4570604999999,338.4883716999998,k,k,1,2.315904600000067,340.75098609999986,340.75098609999986,340.75098609999986,341.7912633000001,341.7912633000001,341.7912633000001,,,,,,,,,,,,,,,,,,,,,,,,,,,,,,,,,,,,,,,,,,,,,,,,,,,,,302,2022-10-07_11h18.57.018,Main,2022.2.2,60.03745136224678,
positive,positive,2,l,j,0,0,0,0,0,0,0,0,,,,,,,,,2,0,36,11,,,,,,,,,,,,,,,,,,,,,,,,,,,,,,,,,,,,,,,,main,2,2,2,positive,positive,341.7912633000001,341.7912633000001,341.7912633000001,341.7912633000001,342.77584769999976,342.8073273,l,l,1,1.8340149000000565,344.6070888999998,344.6070888999998,344.6070888999998,345.6420975000001,345.6420975000001,345.6420975000001,,,,,,,,,,,,,,,,,,,,,,,,,,,,,,,,,,,,,,,,,,,,,,,,,,,,,302,2022-10-07_11h18.57.018,Main,2022.2.2,60.03745136224678,
neutral,negative,1,k,k,0,0,0,0,0,0,0,0,,,,,,,,,2,1,37,7,,,,,,,,,,,,,,,,,,,,,,,,,,,,,,,,,,,,,,,,main,2,2,1,negative,neutral,345.6420975000001,345.6420975000001,345.6420975000001,345.6420975000001,346.6344515999999,346.66688939999995,k,k,1,1.7414048000000548,348.3611268999998,348.3611268999998,348.3611268999998,349.39420389999987,349.39420389999987,349.39420389999987,,,,,,,,,,,,,,,,,,,,,,,,,,,,,,,,,,,,,,,,,,,,,,,,,,,,,302,2022-10-07_11h18.57.018,Main,2022.2.2,60.03745136224678,
negative,neutral,1,j,l,0,0,0,0,0,0,0,0,,,,,,,,,2,2,38,3,,,,,,,,,,,,,,,,,,,,,,,,,,,,,,,,,,,,,,,,main,1,1,1,neutral,negative,349.39420389999987,349.39420389999987,349.39420389999987,349.39420389999987,350.3931555999998,350.42431339999985,j,j,1,1.310588899999857,351.71240119999993,351.71240119999993,351.71240119999993,351.71240119999993,351.71240119999993,351.71240119999993,,,,,,,,,,,,,,,,,,,,,,,,,,,,,,,,,,,,,,,,,,,,,,,,,,,,,302,2022-10-07_11h18.57.018,Main,2022.2.2,60.03745136224678,
positive,neutral,2,l,j,0,0,0,0,0,0,0,0,,,,,,,,,2,3,39,17,,,,,,,,,,,,,,,,,,,,,,,,,,,,,,,,,,,,,,,,main,1,1,2,neutral,positive,351.71240119999993,351.71240119999993,351.71240119999993,351.71240119999993,352.68397779999987,352.74529219999977,l,l,1,1.7235077000000274,354.4106041,354.4106041,354.4106041,355.45547959999976,355.45547959999976,355.45547959999976,,,,,,,,,,,,,,,,,,,,,,,,,,,,,,,,,,,,,,,,,,,,,,,,,,,,,302,2022-10-07_11h18.57.018,Main,2022.2.2,60.03745136224678,
neutral,negative,2,k,k,0,0,0,0,0,0,0,0,,,,,,,,,2,4,40,16,,,,,,,,,,,,,,,,,,,,,,,,,,,,,,,,,,,,,,,,main,2,2,2,negative,neutral,355.45547959999976,355.45547959999976,355.45547959999976,355.45547959999976,356.46430150000015,356.49605999999994,k,k,1,2.212096400000064,358.64546489999975,358.64546489999975,358.64546489999975,359.70963570000004,359.70963570000004,359.70963570000004,,,,,,,,,,,,,,,,,,,,,,,,,,,,,,,,,,,,,,,,,,,,,,,,,,,,,302,2022-10-07_11h18.57.018,Main,2022.2.2,60.03745136224678,
negative,neutral,2,j,l,0,0,0,0,0,0,0,0,,,,,,,,,2,5,41,12,,,,,,,,,,,,,,,,,,,,,,,,,,,,,,,,,,,,,,,,main,2,2,2,neutral,negative,359.70963570000004,359.70963570000004,359.70963570000004,359.70963570000004,360.68765619999976,360.7537573999998,j,j,1,1.4606026000001293,362.16676989999996,362.16676989999996,362.16676989999996,362.16676989999996,362.16676989999996,362.16676989999996,,,,,,,,,,,,,,,,,,,,,,,,,,,,,,,,,,,,,,,,,,,,,,,,,,,,,302,2022-10-07_11h18.57.018,Main,2022.2.2,60.03745136224678,
neutral,positive,1,k,k,0,0,0,0,0,0,0,0,,,,,,,,,2,6,42,4,,,,,,,,,,,,,,,,,,,,,,,,,,,,,,,,,,,,,,,,main,1,1,1,positive,neutral,362.16676989999996,362.16676989999996,362.16676989999996,362.16676989999996,363.15120769999976,363.18174409999983,k,k,1,1.4465116000001217,364.62445089999983,364.62445089999983,364.62445089999983,364.62445089999983,364.62445089999983,364.62445089999983,,,,,,,,,,,,,,,,,,,,,,,,,,,,,,,,,,,,,,,,,,,,,,,,,,,,,302,2022-10-07_11h18.57.018,Main,2022.2.2,60.03745136224678,
negative,negative,2,j,l,0,0,0,0,0,0,0,0,,,,,,,,,2,7,43,9,,,,,,,,,,,,,,,,,,,,,,,,,,,,,,,,,,,,,,,,main,1,1,2,negative,negative,364.62445089999983,364.62445089999983,364.62445089999983,364.62445089999983,365.596172,365.6570471,j,j,1,1.4403089000002183,367.0614851999999,367.0614851999999,367.0614851999999,367.0614851999999,367.0614851999999,367.0614851999999,,,,,,,,,,,,,,,,,,,,,,,,,,,,,,,,,,,,,,,,,,,,,,,,,,,,,302,2022-10-07_11h18.57.018,Main,2022.2.2,60.03745136224678,
neutral,neutral,2,k,k,0,0,0,0,0,0,0,0,,,,,,,,,2,8,44,10,,,,,,,,,,,,,,,,,,,,,,,,,,,,,,,,,,,,,,,,main,1,1,2,neutral,neutral,367.0614851999999,367.0614851999999,367.0614851999999,367.0614851999999,368.0456605999998,368.07661629999984,k,k,1,1.2151044000002003,369.27967320000016,369.27967320000016,369.27967320000016,369.27967320000016,369.27967320000016,369.27967320000016,,,,,,,,,,,,,,,,,,,,,,,,,,,,,,,,,,,,,,,,,,,,,,,,,,,,,302,2022-10-07_11h18.57.018,Main,2022.2.2,60.03745136224678,
positive,negative,1,l,j,0,0,0,0,0,0,0,0,,,,,,,,,2,9,45,5,,,,,,,,,,,,,,,,,,,,,,,,,,,,,,,,,,,,,,,,main,1,1,1,negative,positive,369.27967320000016,369.27967320000016,369.27967320000016,369.27967320000016,370.2580187999997,370.3181077999998,l,l,1,1.451610200000232,371.7346271000001,371.7346271000001,371.7346271000001,371.7346271000001,371.7346271000001,371.7346271000001,,,,,,,,,,,,,,,,,,,,,,,,,,,,,,,,,,,,,,,,,,,,,,,,,,,,,302,2022-10-07_11h18.57.018,Main,2022.2.2,60.03745136224678,
neutral,neutral,1,k,k,0,0,0,0,0,0,0,0,,,,,,,,,2,10,46,1,,,,,,,,,,,,,,,,,,,,,,,,,,,,,,,,,,,,,,,,main,2,2,1,neutral,neutral,371.7346271000001,371.7346271000001,371.7346271000001,371.7346271000001,372.7305916999999,372.76824829999987,k,l,0,2.1187370000002375,374.83526489999986,374.83526489999986,374.83526489999986,375.88478970000006,375.88478970000006,375.88478970000006,,,,,,,,,,,,,,,,,,,,,,,,,,,,,,,,,,,,,,,,,,,,,,,,,,,,,302,2022-10-07_11h18.57.018,Main,2022.2.2,60.03745136224678,
positive,positive,1,l,j,0,0,0,0,0,0,0,0,,,,,,,,,2,11,47,2,,,,,,,,,,,,,,,,,,,,,,,,,,,,,,,,,,,,,,,,main,2,2,1,positive,positive,375.88478970000006,375.88478970000006,375.88478970000006,375.88478970000006,376.87261069999977,376.9040332999998,l,l,1,1.2079502999999931,378.09990849999986,378.09990849999986,378.09990849999986,378.09990849999986,378.09990849999986,378.09990849999986,,,,,,,,,,,,,,,,,,,,,,,,,,,,,,,,,,,,,,,,,,,,,,,,,,,,,302,2022-10-07_11h18.57.018,Main,2022.2.2,60.03745136224678,
negative,positive,1,j,l,0,0,0,0,0,0,0,0,,,,,,,,,2,12,48,6,,,,,,,,,,,,,,,,,,,,,,,,,,,,,,,,,,,,,,,,main,1,1,1,positive,negative,378.09990849999986,378.09990849999986,378.09990849999986,378.09990849999986,379.1040503999998,379.1344574999998,j,j,1,1.4487217999999302,380.55109029999994,380.55109029999994,380.55109029999994,380.55109029999994,380.55109029999994,380.55109029999994,,,,,,,,,,,,,,,,,,,,,,,,,,,,,,,,,,,,,,,,,,,,,,,,,,,,,302,2022-10-07_11h18.57.018,Main,2022.2.2,60.03745136224678,
positive,neutral,1,l,j,0,0,0,0,0,0,0,0,,,,,,,,,2,13,49,8,,,,,,,,,,,,,,,,,,,,,,,,,,,,,,,,,,,,,,,,main,2,2,1,neutral,positive,380.55109029999994,380.55109029999994,380.55109029999994,380.55109029999994,381.53178309999976,381.6085340999998,l,l,1,1.4451339000002008,382.99470139999994,382.99470139999994,382.99470139999994,382.99470139999994,382.99470139999994,382.99470139999994,,,,,,,,,,,,,,,,,,,,,,,,,,,,,,,,,,,,,,,,,,,,,,,,,,,,,302,2022-10-07_11h18.57.018,Main,2022.2.2,60.03745136224678,
neutral,positive,2,k,k,0,0,0,0,0,0,0,0,,,,,,,,,2,14,50,13,,,,,,,,,,,,,,,,,,,,,,,,,,,,,,,,,,,,,,,,main,1,1,2,positive,neutral,382.99470139999994,382.99470139999994,382.99470139999994,382.99470139999994,383.98763800000006,384.0200537999999,k,k,1,1.5497292000000016,385.5262136000001,385.5262136000001,385.5262136000001,386.56162540000014,386.56162540000014,386.56162540000014,,,,,,,,,,,,,,,,,,,,,,,,,,,,,,,,,,,,,,,,,,,,,,,,,,,,,302,2022-10-07_11h18.57.018,Main,2022.2.2,60.03745136224678,
positive,negative,2,l,j,0,0,0,0,0,0,0,0,,,,,,,,,2,15,51,14,,,,,,,,,,,,,,,,,,,,,,,,,,,,,,,,,,,,,,,,main,2,2,2,negative,positive,386.56162540000014,386.56162540000014,386.56162540000014,386.56162540000014,387.54037500000004,387.6078351000001,l,l,1,1.6982325999997556,389.23847190000015,389.23847190000015,389.23847190000015,390.2791351999999,390.2791351999999,390.2791351999999,,,,,,,,,,,,,,,,,,,,,,,,,,,,,,,,,,,,,,,,,,,,,,,,,,,,,302,2022-10-07_11h18.57.018,Main,2022.2.2,60.03745136224678,
negative,positive,2,j,l,0,0,0,0,0,0,0,0,,,,,,,,,2,16,52,15,,,,,,,,,,,,,,,,,,,,,,,,,,,,,,,,,,,,,,,,main,2,2,2,positive,negative,390.2791351999999,390.2791351999999,390.2791351999999,390.2791351999999,391.25981980000006,391.3229956,j,j,1,1.3464130000002115,392.6332199999997,392.6332199999997,392.6332199999997,392.6332199999997,392.6332199999997,392.6332199999997,,,,,,,,,,,,,,,,,,,,,,,,,,,,,,,,,,,,,,,,,,,,,,,,,,,,,302,2022-10-07_11h18.57.018,Main,2022.2.2,60.03745136224678,
negative,negative,1,j,l,0,0,0,0,0,0,0,0,,,,,,,,,2,17,53,0,,,,,,,,,,,,,,,,,,,,,,,,,,,,,,,,,,,,,,,,main,2,2,1,negative,negative,392.6332199999997,392.6332199999997,392.6332199999997,392.6332199999997,393.6334563999999,393.66444969999975,j,j,1,1.4857962000000953,395.1268722,395.1268722,395.1268722,395.1268722,395.1268722,395.1268722,,,,,,,,,,,,,,,,,,,,,,,,,,,,,,,,,,,,,,,,,,,,,,,,,,,,,302,2022-10-07_11h18.57.018,Main,2022.2.2,60.03745136224678,
negative,neutral,1,j,l,0,0,0,0,0,0,0,0,,,,,,,,,3,0,54,3,,,,,,,,,,,,,,,,,,,,,,,,,,,,,,,,,,,,,,,,main,1,1,1,neutral,negative,395.1268722,395.1268722,395.1268722,395.1268722,396.11944319999975,396.14847929999996,j,j,1,1.4963056000001416,397.62564729999986,397.62564729999986,397.62564729999986,397.62564729999986,397.62564729999986,397.62564729999986,,,,,,,,,,,,,,,,,,,,,,,,,,,,,,,,,,,,,,,,,,,,,,,,,,,,,302,2022-10-07_11h18.57.018,Main,2022.2.2,60.03745136224678,
neutral,negative,2,k,k,0,0,0,0,0,0,0,0,,,,,,,,,3,1,55,16,,,,,,,,,,,,,,,,,,,,,,,,,,,,,,,,,,,,,,,,main,2,2,2,negative,neutral,397.62564729999986,397.62564729999986,397.62564729999986,397.62564729999986,398.61675920000016,398.6473722999999,k,k,1,1.729984599999625,400.3290057999998,400.3290057999998,400.3290057999998,401.36038400000007,401.36038400000007,401.36038400000007,,,,,,,,,,,,,,,,,,,,,,,,,,,,,,,,,,,,,,,,,,,,,,,,,,,,,302,2022-10-07_11h18.57.018,Main,2022.2.2,60.03745136224678,
neutral,neutral,2,k,k,0,0,0,0,0,0,0,0,,,,,,,,,3,2,56,10,,,,,,,,,,,,,,,,,,,,,,,,,,,,,,,,,,,,,,,,main,1,1,2,neutral,neutral,401.36038400000007,401.36038400000007,401.36038400000007,401.36038400000007,402.3483501999999,402.38034749999997,k,l,0,1.3550701999997727,403.69408870000007,403.69408870000007,403.69408870000007,404.7330919000001,404.7330919000001,404.7330919000001,,,,,,,,,,,,,,,,,,,,,,,,,,,,,,,,,,,,,,,,,,,,,,,,,,,,,302,2022-10-07_11h18.57.018,Main,2022.2.2,60.03745136224678,
negative,positive,2,j,l,0,0,0,0,0,0,0,0,,,,,,,,,3,3,57,15,,,,,,,,,,,,,,,,,,,,,,,,,,,,,,,,,,,,,,,,main,2,2,2,positive,negative,404.7330919000001,404.7330919000001,404.7330919000001,404.7330919000001,405.73309310000013,405.76254289999997,j,j,1,1.3394779000000199,407.0839925,407.0839925,407.0839925,407.0839925,407.0839925,407.0839925,,,,,,,,,,,,,,,,,,,,,,,,,,,,,,,,,,,,,,,,,,,,,,,,,,,,,302,2022-10-07_11h18.57.018,Main,2022.2.2,60.03745136224678,
positive,positive,2,l,j,0,0,0,0,0,0,0,0,,,,,,,,,3,4,58,11,,,,,,,,,,,,,,,,,,,,,,,,,,,,,,,,,,,,,,,,main,2,2,2,positive,positive,407.0839925,407.0839925,407.0839925,407.0839925,408.0880407999998,408.1191141999998,l,l,1,1.6592577999999776,409.71816420000005,409.71816420000005,409.71816420000005,410.7462433999999,410.7462433999999,410.7462433999999,,,,,,,,,,,,,,,,,,,,,,,,,,,,,,,,,,,,,,,,,,,,,,,,,,,,,302,2022-10-07_11h18.57.018,Main,2022.2.2,60.03745136224678,
neutral,neutral,1,k,k,0,0,0,0,0,0,0,0,,,,,,,,,3,5,59,1,,,,,,,,,,,,,,,,,,,,,,,,,,,,,,,,,,,,,,,,main,2,2,1,neutral,neutral,410.7462433999999,410.7462433999999,410.7462433999999,410.7462433999999,411.74535030000015,411.7772624999998,k,k,1,1.4523207000002003,413.2029784000001,413.2029784000001,413.2029784000001,413.2029784000001,413.2029784000001,413.2029784000001,,,,,,,,,,,,,,,,,,,,,,,,,,,,,,,,,,,,,,,,,,,,,,,,,,,,,302,2022-10-07_11h18.57.018,Main,2022.2.2,60.03745136224678,
negative,negative,2,j,l,0,0,0,0,0,0,0,0,,,,,,,,,3,6,60,9,,,,,,,,,,,,,,,,,,,,,,,,,,,,,,,,,,,,,,,,main,2,2,2,negative,negative,413.2029784000001,413.2029784000001,413.2029784000001,413.2029784000001,414.20038179999983,414.23115389999975,j,j,1,1.2411371000002873,415.44520349999993,415.44520349999993,415.44520349999993,415.44520349999993,415.44520349999993,415.44520349999993,,,,,,,,,,,,,,,,,,,,,,,,,,,,,,,,,,,,,,,,,,,,,,,,,,,,,302,2022-10-07_11h18.57.018,Main,2022.2.2,60.03745136224678,
neutral,negative,1,k,k,0,0,0,0,0,0,0,0,,,,,,,,,3,7,61,7,,,,,,,,,,,,,,,,,,,,,,,,,,,,,,,,,,,,,,,,main,1,1,1,negative,neutral,415.44520349999993,415.44520349999993,415.44520349999993,415.44520349999993,416.44252289999986,416.4777789,k,k,1,1.3714254000001347,417.8246730999999,417.8246730999999,417.8246730999999,417.8246730999999,417.8246730999999,417.8246730999999,,,,,,,,,,,,,,,,,,,,,,,,,,,,,,,,,,,,,,,,,,,,,,,,,,,,,302,2022-10-07_11h18.57.018,Main,2022.2.2,60.03745136224678,
positive,neutral,1,l,j,0,0,0,0,0,0,0,0,,,,,,,,,3,8,62,8,,,,,,,,,,,,,,,,,,,,,,,,,,,,,,,,,,,,,,,,main,1,1,1,neutral,positive,417.8246730999999,417.8246730999999,417.8246730999999,417.8246730999999,418.82211289999987,418.8522509999998,l,l,1,1.4017985999998928,420.2297899,420.2297899,420.2297899,420.2297899,420.2297899,420.2297899,,,,,,,,,,,,,,,,,,,,,,,,,,,,,,,,,,,,,,,,,,,,,,,,,,,,,302,2022-10-07_11h18.57.018,Main,2022.2.2,60.03745136224678,
positive,neutral,2,l,j,0,0,0,0,0,0,0,0,,,,,,,,,3,9,63,17,,,,,,,,,,,,,,,,,,,,,,,,,,,,,,,,,,,,,,,,main,1,1,2,neutral,positive,420.2297899,420.2297899,420.2297899,420.2297899,421.2272933999998,421.25894560000006,l,l,1,1.5980965999997352,422.8049203999999,422.8049203999999,422.8049203999999,423.85014649999994,423.85014649999994,423.85014649999994,,,,,,,,,,,,,,,,,,,,,,,,,,,,,,,,,,,,,,,,,,,,,,,,,,,,,302,2022-10-07_11h18.57.018,Main,2022.2.2,60.03745136224678,
positive,positive,1,l,j,0,0,0,0,0,0,0,0,,,,,,,,,3,10,64,2,,,,,,,,,,,,,,,,,,,,,,,,,,,,,,,,,,,,,,,,main,1,1,1,positive,positive,423.85014649999994,423.85014649999994,423.85014649999994,423.85014649999994,424.8304736,424.8907755,l,l,1,1.1997074000000794,426.06263290000015,426.06263290000015,426.06263290000015,426.06263290000015,426.06263290000015,426.06263290000015,,,,,,,,,,,,,,,,,,,,,,,,,,,,,,,,,,,,,,,,,,,,,,,,,,,,,302,2022-10-07_11h18.57.018,Main,2022.2.2,60.03745136224678,
positive,negative,1,l,j,0,0,0,0,0,0,0,0,,,,,,,,,3,11,65,5,,,,,,,,,,,,,,,,,,,,,,,,,,,,,,,,,,,,,,,,main,2,2,1,negative,positive,426.06263290000015,426.06263290000015,426.06263290000015,426.06263290000015,427.04531169999973,427.07582920000004,l,l,1,0.9970635999998194,428.06175010000015,428.06175010000015,428.06175010000015,428.06175010000015,428.06175010000015,428.06175010000015,,,,,,,,,,,,,,,,,,,,,,,,,,,,,,,,,,,,,,,,,,,,,,,,,,,,,302,2022-10-07_11h18.57.018,Main,2022.2.2,60.03745136224678,
negative,positive,1,j,l,0,0,0,0,0,0,0,0,,,,,,,,,3,12,66,6,,,,,,,,,,,,,,,,,,,,,,,,,,,,,,,,,,,,,,,,main,2,2,1,positive,negative,428.06175010000015,428.06175010000015,428.06175010000015,428.06175010000015,429.0540136999998,429.0855505999998,j,l,0,1.3904152000000067,430.43228850000014,430.43228850000014,430.43228850000014,431.4676344999998,431.4676344999998,431.4676344999998,,,,,,,,,,,,,,,,,,,,,,,,,,,,,,,,,,,,,,,,,,,,,,,,,,,,,302,2022-10-07_11h18.57.018,Main,2022.2.2,60.03745136224678,
negative,negative,1,j,l,0,0,0,0,0,0,0,0,,,,,,,,,3,13,67,0,,,,,,,,,,,,,,,,,,,,,,,,,,,,,,,,,,,,,,,,main,2,2,1,negative,negative,431.4676344999998,431.4676344999998,431.4676344999998,431.4676344999998,432.46367269999973,432.4996016,j,j,1,1.2186268000000382,433.69544159999987,433.69544159999987,433.69544159999987,433.69544159999987,433.69544159999987,433.69544159999987,,,,,,,,,,,,,,,,,,,,,,,,,,,,,,,,,,,,,,,,,,,,,,,,,,,,,302,2022-10-07_11h18.57.018,Main,2022.2.2,60.03745136224678,
neutral,positive,2,k,k,0,0,0,0,0,0,0,0,,,,,,,,,3,14,68,13,,,,,,,,,,,,,,,,,,,,,,,,,,,,,,,,,,,,,,,,main,1,1,2,positive,neutral,433.69544159999987,433.69544159999987,433.69544159999987,433.69544159999987,434.6859132999998,434.71811769999977,k,k,1,1.8081354999999348,436.48064699999986,436.48064699999986,436.48064699999986,437.5129329000001,437.5129329000001,437.5129329000001,,,,,,,,,,,,,,,,,,,,,,,,,,,,,,,,,,,,,,,,,,,,,,,,,,,,,302,2022-10-07_11h18.57.018,Main,2022.2.2,60.03745136224678,
negative,neutral,2,j,l,0,0,0,0,0,0,0,0,,,,,,,,,3,15,69,12,,,,,,,,,,,,,,,,,,,,,,,,,,,,,,,,,,,,,,,,main,2,2,2,neutral,negative,437.5129329000001,437.5129329000001,437.5129329000001,437.5129329000001,438.5108046999999,438.54362230000015,j,j,1,1.148862200000167,439.66914989999987,439.66914989999987,439.66914989999987,439.66914989999987,439.66914989999987,439.66914989999987,,,,,,,,,,,,,,,,,,,,,,,,,,,,,,,,,,,,,,,,,,,,,,,,,,,,,302,2022-10-07_11h18.57.018,Main,2022.2.2,60.03745136224678,
positive,negative,2,l,j,0,0,0,0,0,0,0,0,,,,,,,,,3,16,70,14,,,,,,,,,,,,,,,,,,,,,,,,,,,,,,,,,,,,,,,,main,2,2,2,negative,positive,439.66914989999987,439.66914989999987,439.66914989999987,439.66914989999987,440.64380949999986,440.702319,l,,0,1.8127144000000044,442.46058619999985,442.46058619999985,442.46058619999985,443.5092107999999,443.5092107999999,443.5092107999999,,,,,,,,,,,,,,,,,,,,,,,,,,,,,,,,,,,,,,,,,,,,,,,,,,,,,302,2022-10-07_11h18.57.018,Main,2022.2.2,60.03745136224678,
neutral,positive,1,k,k,0,0,0,0,0,0,0,0,,,,,,,,,3,17,71,4,,,,,,,,,,,,,,,,,,,,,,,,,,,,,,,,,,,,,,,,main,1,1,1,positive,neutral,443.5092107999999,443.5092107999999,443.5092107999999,443.5092107999999,444.5030529999999,444.5315949999999,k,k,1,1.3868296999999075,445.9028863999997,445.9028863999997,445.9028863999997,445.9028863999997,445.9028863999997,445.9028863999997,,,,,,,,,,,,,,,,,,,,,,,,,,,,,,,,,,,,,,,,,,,,,,,,,,,,,302,2022-10-07_11h18.57.018,Main,2022.2.2,60.03745136224678,
neutral,negative,1,k,k,0,0,0,0,0,0,0,0,,,,,,,,,4,0,72,7,,,,,,,,,,,,,,,,,,,,,,,,,,,,,,,,,,,,,,,,main,1,1,1,negative,neutral,445.9028863999997,445.9028863999997,445.9028863999997,445.9028863999997,446.8911715999998,446.92034669999975,k,k,1,1.5068828999997095,448.3919556000001,448.3919556000001,448.3919556000001,449.4331081,449.4331081,449.4331081,,,,,,,,,,,,,,,,,,,,,,,,,,,,,,,,,,,,,,,,,,,,,,,,,,,,,302,2022-10-07_11h18.57.018,Main,2022.2.2,60.03745136224678,
positive,neutral,2,l,j,0,0,0,0,0,0,0,0,,,,,,,,,4,1,73,17,,,,,,,,,,,,,,,,,,,,,,,,,,,,,,,,,,,,,,,,main,1,1,2,neutral,positive,449.4331081,449.4331081,449.4331081,449.4331081,450.4103116000001,450.4703549999999,l,l,1,2.3183578000002854,452.73244639999984,452.73244639999984,452.73244639999984,453.7822581999999,453.7822581999999,453.7822581999999,,,,,,,,,,,,,,,,,,,,,,,,,,,,,,,,,,,,,,,,,,,,,,,,,,,,,302,2022-10-07_11h18.57.018,Main,2022.2.2,60.03745136224678,
positive,positive,1,l,j,0,0,0,0,0,0,0,0,,,,,,,,,4,2,74,2,,,,,,,,,,,,,,,,,,,,,,,,,,,,,,,,,,,,,,,,main,1,1,1,positive,positive,453.7822581999999,453.7822581999999,453.7822581999999,453.7822581999999,454.7595160000001,454.81901830000015,l,l,1,2.752378399999998,457.51029130000006,457.51029130000006,457.51029130000006,458.5417784000001,458.5417784000001,458.5417784000001,,,,,,,,,,,,,,,,,,,,,,,,,,,,,,,,,,,,,,,,,,,,,,,,,,,,,302,2022-10-07_11h18.57.018,Main,2022.2.2,60.03745136224678,
positive,neutral,1,l,j,0,0,0,0,0,0,0,0,,,,,,,,,4,3,75,8,,,,,,,,,,,,,,,,,,,,,,,,,,,,,,,,,,,,,,,,main,2,2,1,neutral,positive,458.5417784000001,458.5417784000001,458.5417784000001,458.5417784000001,459.53460749999977,459.56777349999993,l,l,1,2.725683499999832,462.24213580000014,462.24213580000014,462.24213580000014,463.2789742,463.2789742,463.2789742,,,,,,,,,,,,,,,,,,,,,,,,,,,,,,,,,,,,,,,,,,,,,,,,,,,,,302,2022-10-07_11h18.57.018,Main,2022.2.2,60.03745136224678,
negative,neutral,1,j,l,0,0,0,0,0,0,0,0,,,,,,,,,4,4,76,3,,,,,,,,,,,,,,,,,,,,,,,,,,,,,,,,,,,,,,,,main,2,2,1,neutral,negative,463.2789742,463.2789742,463.2789742,463.2789742,464.2856474,464.3228355000001,j,j,1,1.220268600000054,465.50742630000013,465.50742630000013,465.50742630000013,465.50742630000013,465.50742630000013,465.50742630000013,,,,,,,,,,,,,,,,,,,,,,,,,,,,,,,,,,,,,,,,,,,,,,,,,,,,,302,2022-10-07_11h18.57.018,Main,2022.2.2,60.03745136224678,
positive,negative,1,l,j,0,0,0,0,0,0,0,0,,,,,,,,,4,5,77,5,,,,,,,,,,,,,,,,,,,,,,,,,,,,,,,,,,,,,,,,main,1,1,1,negative,positive,465.50742630000013,465.50742630000013,465.50742630000013,465.50742630000013,466.4856077999998,466.5490322999999,l,l,1,1.2504124000001866,467.75965429999997,467.75965429999997,467.75965429999997,467.75965429999997,467.75965429999997,467.75965429999997,,,,,,,,,,,,,,,,,,,,,,,,,,,,,,,,,,,,,,,,,,,,,,,,,,,,,302,2022-10-07_11h18.57.018,Main,2022.2.2,60.03745136224678,
negative,neutral,2,j,l,0,0,0,0,0,0,0,0,,,,,,,,,4,6,78,12,,,,,,,,,,,,,,,,,,,,,,,,,,,,,,,,,,,,,,,,main,1,1,2,neutral,negative,467.75965429999997,467.75965429999997,467.75965429999997,467.75965429999997,468.7496621999999,468.78147880000006,j,j,1,1.0905275999998594,469.85201879999977,469.85201879999977,469.85201879999977,469.85201879999977,469.85201879999977,469.85201879999977,,,,,,,,,,,,,,,,,,,,,,,,,,,,,,,,,,,,,,,,,,,,,,,,,,,,,302,2022-10-07_11h18.57.018,Main,2022.2.2,60.03745136224678,
negative,positive,1,j,l,0,0,0,0,0,0,0,0,,,,,,,,,4,7,79,6,,,,,,,,,,,,,,,,,,,,,,,,,,,,,,,,,,,,,,,,main,1,1,1,positive,negative,469.85201879999977,469.85201879999977,469.85201879999977,469.85201879999977,470.8421562999997,470.8725678999999,j,j,1,1.2156472000001486,472.07006580000007,472.07006580000007,472.07006580000007,472.07006580000007,472.07006580000007,472.07006580000007,,,,,,,,,,,,,,,,,,,,,,,,,,,,,,,,,,,,,,,,,,,,,,,,,,,,,302,2022-10-07_11h18.57.018,Main,2022.2.2,60.03745136224678,
positive,positive,2,l,j,0,0,0,0,0,0,0,0,,,,,,,,,4,8,80,11,,,,,,,,,,,,,,,,,,,,,,,,,,,,,,,,,,,,,,,,main,2,2,2,positive,positive,472.07006580000007,472.07006580000007,472.07006580000007,472.07006580000007,473.0645980999998,473.0966672999998,l,l,1,1.2419135000000097,474.3097107999997,474.3097107999997,474.3097107999997,474.3097107999997,474.3097107999997,474.3097107999997,,,,,,,,,,,,,,,,,,,,,,,,,,,,,,,,,,,,,,,,,,,,,,,,,,,,,302,2022-10-07_11h18.57.018,Main,2022.2.2,60.03745136224678,
neutral,neutral,1,k,k,0,0,0,0,0,0,0,0,,,,,,,,,4,9,81,1,,,,,,,,,,,,,,,,,,,,,,,,,,,,,,,,,,,,,,,,main,2,2,1,neutral,neutral,474.3097107999997,474.3097107999997,474.3097107999997,474.3097107999997,475.31286009999985,475.34355189999997,k,k,1,1.2874462999998286,476.6076029000001,476.6076029000001,476.6076029000001,476.6076029000001,476.6076029000001,476.6076029000001,,,,,,,,,,,,,,,,,,,,,,,,,,,,,,,,,,,,,,,,,,,,,,,,,,,,,302,2022-10-07_11h18.57.018,Main,2022.2.2,60.03745136224678,
neutral,positive,2,k,k,0,0,0,0,0,0,0,0,,,,,,,,,4,10,82,13,,,,,,,,,,,,,,,,,,,,,,,,,,,,,,,,,,,,,,,,main,1,1,2,positive,neutral,476.6076029000001,476.6076029000001,476.6076029000001,476.6076029000001,477.58304069999986,477.64923050000016,k,k,1,1.2506134000000202,478.86170889999994,478.86170889999994,478.86170889999994,478.86170889999994,478.86170889999994,478.86170889999994,,,,,,,,,,,,,,,,,,,,,,,,,,,,,,,,,,,,,,,,,,,,,,,,,,,,,302,2022-10-07_11h18.57.018,Main,2022.2.2,60.03745136224678,
negative,negative,2,j,l,0,0,0,0,0,0,0,0,,,,,,,,,4,11,83,9,,,,,,,,,,,,,,,,,,,,,,,,,,,,,,,,,,,,,,,,main,2,2,2,negative,negative,478.86170889999994,478.86170889999994,478.86170889999994,478.86170889999994,479.83676030000015,479.89915269999983,j,j,1,1.503595900000164,481.3461228000001,481.3461228000001,481.3461228000001,482.40230070000007,482.40230070000007,482.40230070000007,,,,,,,,,,,,,,,,,,,,,,,,,,,,,,,,,,,,,,,,,,,,,,,,,,,,,302,2022-10-07_11h18.57.018,Main,2022.2.2,60.03745136224678,
neutral,positive,1,k,k,0,0,0,0,0,0,0,0,,,,,,,,,4,12,84,4,,,,,,,,,,,,,,,,,,,,,,,,,,,,,,,,,,,,,,,,main,2,2,1,positive,neutral,482.40230070000007,482.40230070000007,482.40230070000007,482.40230070000007,483.3845225,483.4458381999998,k,k,1,1.1161455000001297,484.5244558999998,484.5244558999998,484.5244558999998,484.5244558999998,484.5244558999998,484.5244558999998,,,,,,,,,,,,,,,,,,,,,,,,,,,,,,,,,,,,,,,,,,,,,,,,,,,,,302,2022-10-07_11h18.57.018,Main,2022.2.2,60.03745136224678,
neutral,negative,2,k,k,0,0,0,0,0,0,0,0,,,,,,,,,4,13,85,16,,,,,,,,,,,,,,,,,,,,,,,,,,,,,,,,,,,,,,,,main,1,1,2,negative,neutral,484.5244558999998,484.5244558999998,484.5244558999998,484.5244558999998,485.50914639999974,485.53926869999987,k,l,0,1.3431354999997893,486.84377189999987,486.84377189999987,486.84377189999987,487.91288799999984,487.91288799999984,487.91288799999984,,,,,,,,,,,,,,,,,,,,,,,,,,,,,,,,,,,,,,,,,,,,,,,,,,,,,302,2022-10-07_11h18.57.018,Main,2022.2.2,60.03745136224678,
negative,negative,1,j,l,0,0,0,0,0,0,0,0,,,,,,,,,4,14,86,0,,,,,,,,,,,,,,,,,,,,,,,,,,,,,,,,,,,,,,,,main,1,1,1,negative,negative,487.91288799999984,487.91288799999984,487.91288799999984,487.91288799999984,488.8997513999998,488.93092509999997,j,j,1,1.1195042000003923,490.0262312,490.0262312,490.0262312,490.0262312,490.0262312,490.0262312,,,,,,,,,,,,,,,,,,,,,,,,,,,,,,,,,,,,,,,,,,,,,,,,,,,,,302,2022-10-07_11h18.57.018,Main,2022.2.2,60.03745136224678,
positive,negative,2,l,j,0,0,0,0,0,0,0,0,,,,,,,,,4,15,87,14,,,,,,,,,,,,,,,,,,,,,,,,,,,,,,,,,,,,,,,,main,1,1,2,negative,positive,490.0262312,490.0262312,490.0262312,490.0262312,491.00165979999974,491.06549719999975,l,l,1,1.3119626000002427,492.34057889999985,492.34057889999985,492.34057889999985,492.34057889999985,492.34057889999985,492.34057889999985,,,,,,,,,,,,,,,,,,,,,,,,,,,,,,,,,,,,,,,,,,,,,,,,,,,,,302,2022-10-07_11h18.57.018,Main,2022.2.2,60.03745136224678,
neutral,neutral,2,k,k,0,0,0,0,0,0,0,0,,,,,,,,,4,16,88,10,,,,,,,,,,,,,,,,,,,,,,,,,,,,,,,,,,,,,,,,main,1,1,2,neutral,neutral,492.34057889999985,492.34057889999985,492.34057889999985,492.34057889999985,493.3226282999999,493.3828567999999,k,k,1,2.114089000000149,495.4353006000001,495.4353006000001,495.4353006000001,496.4762603999998,496.4762603999998,496.4762603999998,,,,,,,,,,,,,,,,,,,,,,,,,,,,,,,,,,,,,,,,,,,,,,,,,,,,,302,2022-10-07_11h18.57.018,Main,2022.2.2,60.03745136224678,
negative,positive,2,j,l,0,0,0,0,0,0,0,0,,,,,,,,,4,17,89,15,,,,,,,,,,,,,,,,,,,,,,,,,,,,,,,,,,,,,,,,main,2,2,2,positive,negative,496.4762603999998,496.4762603999998,496.4762603999998,496.4762603999998,497.46016299999974,497.4907823999997,j,j,1,1.347344400000111,498.82890899999984,498.82890899999984,498.82890899999984,498.82890899999984,498.82890899999984,498.82890899999984,,,,,,,,,,,,,,,,,,,,,,,,,,,,,,,,,,,,,,,,,,,,,,,,,,,,,302,2022-10-07_11h18.57.018,Main,2022.2.2,60.03745136224678,
negative,negative,1,j,l,0,0,0,0,0,0,0,0,,,,,,,,,5,0,90,0,,,,,,,,,,,,,,,,,,,,,,,,,,,,,,,,,,,,,,,,main,1,1,1,negative,negative,498.82890899999984,498.82890899999984,498.82890899999984,498.82890899999984,499.8036871999998,499.86596009999994,j,j,1,2.273095100000319,502.07858940000006,502.07858940000006,502.07858940000006,503.1253136999999,503.1253136999999,503.1253136999999,,,,,,,,,,,,,,,,,,,,,,,,,,,,,,,,,,,,,,,,,,,,,,,,,,,,,302,2022-10-07_11h18.57.018,Main,2022.2.2,60.03745136224678,
negative,positive,2,j,l,0,0,0,0,0,0,0,0,,,,,,,,,5,1,91,15,,,,,,,,,,,,,,,,,,,,,,,,,,,,,,,,,,,,,,,,main,1,1,2,positive,negative,503.1253136999999,503.1253136999999,503.1253136999999,503.1253136999999,504.09737529999984,504.16238380000004,j,j,1,1.378363299999819,505.5070308999998,505.5070308999998,505.5070308999998,505.5070308999998,505.5070308999998,505.5070308999998,,,,,,,,,,,,,,,,,,,,,,,,,,,,,,,,,,,,,,,,,,,,,,,,,,,,,302,2022-10-07_11h18.57.018,Main,2022.2.2,60.03745136224678,
neutral,neutral,1,k,k,0,0,0,0,0,0,0,0,,,,,,,,,5,2,92,1,,,,,,,,,,,,,,,,,,,,,,,,,,,,,,,,,,,,,,,,main,2,2,1,neutral,neutral,505.5070308999998,505.5070308999998,505.5070308999998,505.5070308999998,506.50421589999996,506.5344599,k,k,1,1.967208799999753,508.4556137999998,508.4556137999998,508.4556137999998,509.4821317000001,509.4821317000001,509.4821317000001,,,,,,,,,,,,,,,,,,,,,,,,,,,,,,,,,,,,,,,,,,,,,,,,,,,,,302,2022-10-07_11h18.57.018,Main,2022.2.2,60.03745136224678,
negative,positive,1,j,l,0,0,0,0,0,0,0,0,,,,,,,,,5,3,93,6,,,,,,,,,,,,,,,,,,,,,,,,,,,,,,,,,,,,,,,,main,1,1,1,positive,negative,509.4821317000001,509.4821317000001,509.4821317000001,509.4821317000001,510.4583907000001,510.52154199999995,j,j,1,1.4604946999997992,511.94848999999977,511.94848999999977,511.94848999999977,511.94848999999977,511.94848999999977,511.94848999999977,,,,,,,,,,,,,,,,,,,,,,,,,,,,,,,,,,,,,,,,,,,,,,,,,,,,,302,2022-10-07_11h18.57.018,Main,2022.2.2,60.03745136224678,
neutral,positive,1,k,k,0,0,0,0,0,0,0,0,,,,,,,,,5,4,94,4,,,,,,,,,,,,,,,,,,,,,,,,,,,,,,,,,,,,,,,,main,1,1,1,positive,neutral,511.94848999999977,511.94848999999977,511.94848999999977,511.94848999999977,512.9431789,512.9742065,k,k,1,2.604280800000197,515.5325309999998,515.5325309999998,515.5325309999998,516.5731532999998,516.5731532999998,516.5731532999998,,,,,,,,,,,,,,,,,,,,,,,,,,,,,,,,,,,,,,,,,,,,,,,,,,,,,302,2022-10-07_11h18.57.018,Main,2022.2.2,60.03745136224678,
neutral,negative,1,k,k,0,0,0,0,0,0,0,0,,,,,,,,,5,5,95,7,,,,,,,,,,,,,,,,,,,,,,,,,,,,,,,,,,,,,,,,main,1,1,1,negative,neutral,516.5731532999998,516.5731532999998,516.5731532999998,516.5731532999998,517.5557048000001,517.5877921000001,k,k,1,1.1996997000001102,518.7852096000001,518.7852096000001,518.7852096000001,518.7852096000001,518.7852096000001,518.7852096000001,,,,,,,,,,,,,,,,,,,,,,,,,,,,,,,,,,,,,,,,,,,,,,,,,,,,,302,2022-10-07_11h18.57.018,Main,2022.2.2,60.03745136224678,
negative,neutral,1,j,l,0,0,0,0,0,0,0,0,,,,,,,,,5,6,96,3,,,,,,,,,,,,,,,,,,,,,,,,,,,,,,,,,,,,,,,,main,1,1,1,neutral,negative,518.7852096000001,518.7852096000001,518.7852096000001,518.7852096000001,519.759086,519.8241798999998,j,k,0,2.6964881999997488,522.4552835,522.4552835,522.4552835,523.4827200999998,523.4827200999998,523.4827200999998,,,,,,,,,,,,,,,,,,,,,,,,,,,,,,,,,,,,,,,,,,,,,,,,,,,,,302,2022-10-07_11h18.57.018,Main,2022.2.2,60.03745136224678,
positive,negative,1,l,j,0,0,0,0,0,0,0,0,,,,,,,,,5,7,97,5,,,,,,,,,,,,,,,,,,,,,,,,,,,,,,,,,,,,,,,,main,1,1,1,negative,positive,523.4827200999998,523.4827200999998,523.4827200999998,523.4827200999998,524.4834511999998,524.5147990999999,l,l,1,1.175206700000217,525.6667262000001,525.6667262000001,525.6667262000001,525.6667262000001,525.6667262000001,525.6667262000001,,,,,,,,,,,,,,,,,,,,,,,,,,,,,,,,,,,,,,,,,,,,,,,,,,,,,302,2022-10-07_11h18.57.018,Main,2022.2.2,60.03745136224678,
neutral,negative,2,k,k,0,0,0,0,0,0,0,0,,,,,,,,,5,8,98,16,,,,,,,,,,,,,,,,,,,,,,,,,,,,,,,,,,,,,,,,main,2,2,2,negative,neutral,525.6667262000001,525.6667262000001,525.6667262000001,525.6667262000001,526.6514480000001,526.6818718,k,k,1,1.279863700000078,527.9521577999999,527.9521577999999,527.9521577999999,527.9521577999999,527.9521577999999,527.9521577999999,,,,,,,,,,,,,,,,,,,,,,,,,,,,,,,,,,,,,,,,,,,,,,,,,,,,,302,2022-10-07_11h18.57.018,Main,2022.2.2,60.03745136224678,
negative,neutral,2,j,l,0,0,0,0,0,0,0,0,,,,,,,,,5,9,99,12,,,,,,,,,,,,,,,,,,,,,,,,,,,,,,,,,,,,,,,,main,2,2,2,neutral,negative,527.9521577999999,527.9521577999999,527.9521577999999,527.9521577999999,528.9387026999998,528.9683009999999,j,l,0,3.4116981000001942,532.3402821,532.3402821,532.3402821,533.3707758,533.3707758,533.3707758,,,,,,,,,,,,,,,,,,,,,,,,,,,,,,,,,,,,,,,,,,,,,,,,,,,,,302,2022-10-07_11h18.57.018,Main,2022.2.2,60.03745136224678,
negative,negative,2,j,l,0,0,0,0,0,0,0,0,,,,,,,,,5,10,100,9,,,,,,,,,,,,,,,,,,,,,,,,,,,,,,,,,,,,,,,,main,2,2,2,negative,negative,533.3707758,533.3707758,533.3707758,533.3707758,534.3562281999998,534.3874265999998,j,j,1,1.5169791000002988,535.865519,535.865519,535.865519,536.9114486999997,536.9114486999997,536.9114486999997,,,,,,,,,,,,,,,,,,,,,,,,,,,,,,,,,,,,,,,,,,,,,,,,,,,,,302,2022-10-07_11h18.57.018,Main,2022.2.2,60.03745136224678,
positive,neutral,1,l,j,0,0,0,0,0,0,0,0,,,,,,,,,5,11,101,8,,,,,,,,,,,,,,,,,,,,,,,,,,,,,,,,,,,,,,,,main,1,1,1,neutral,positive,536.9114486999997,536.9114486999997,536.9114486999997,536.9114486999997,537.8944428,537.9241443999999,l,l,1,1.502568699999756,539.3900405999998,539.3900405999998,539.3900405999998,540.4235629,540.4235629,540.4235629,,,,,,,,,,,,,,,,,,,,,,,,,,,,,,,,,,,,,,,,,,,,,,,,,,,,,302,2022-10-07_11h18.57.018,Main,2022.2.2,60.03745136224678,
positive,negative,2,l,j,0,0,0,0,0,0,0,0,,,,,,,,,5,12,102,14,,,,,,,,,,,,,,,,,,,,,,,,,,,,,,,,,,,,,,,,main,2,2,2,negative,positive,540.4235629,540.4235629,540.4235629,540.4235629,541.4098476999998,541.4413340000001,l,l,1,1.3187723000000915,542.7554787999998,542.7554787999998,542.7554787999998,542.7554787999998,542.7554787999998,542.7554787999998,,,,,,,,,,,,,,,,,,,,,,,,,,,,,,,,,,,,,,,,,,,,,,,,,,,,,302,2022-10-07_11h18.57.018,Main,2022.2.2,60.03745136224678,
neutral,positive,2,k,k,0,0,0,0,0,0,0,0,,,,,,,,,5,13,103,13,,,,,,,,,,,,,,,,,,,,,,,,,,,,,,,,,,,,,,,,main,2,2,2,positive,neutral,542.7554787999998,542.7554787999998,542.7554787999998,542.7554787999998,543.7320325999999,543.7968151999999,k,k,1,1.2009649999999965,544.9598689,544.9598689,544.9598689,544.9598689,544.9598689,544.9598689,,,,,,,,,,,,,,,,,,,,,,,,,,,,,,,,,,,,,,,,,,,,,,,,,,,,,302,2022-10-07_11h18.57.018,Main,2022.2.2,60.03745136224678,
positive,positive,1,l,j,0,0,0,0,0,0,0,0,,,,,,,,,5,14,104,2,,,,,,,,,,,,,,,,,,,,,,,,,,,,,,,,,,,,,,,,main,2,2,1,positive,positive,544.9598689,544.9598689,544.9598689,544.9598689,545.9321086,546.0032716000001,l,l,1,4.16405420000001,550.1034125000001,550.1034125000001,550.1034125000001,551.1293860000001,551.1293860000001,551.1293860000001,,,,,,,,,,,,,,,,,,,,,,,,,,,,,,,,,,,,,,,,,,,,,,,,,,,,,302,2022-10-07_11h18.57.018,Main,2022.2.2,60.03745136224678,
positive,positive,2,l,j,0,0,0,0,0,0,0,0,,,,,,,,,5,15,105,11,,,,,,,,,,,,,,,,,,,,,,,,,,,,,,,,,,,,,,,,main,2,2,2,positive,positive,551.1293860000001,551.1293860000001,551.1293860000001,551.1293860000001,552.1120565000001,552.1440856999998,l,l,1,1.0460022000002027,553.1871735,553.1871735,553.1871735,553.1871735,553.1871735,553.1871735,,,,,,,,,,,,,,,,,,,,,,,,,,,,,,,,,,,,,,,,,,,,,,,,,,,,,302,2022-10-07_11h18.57.018,Main,2022.2.2,60.03745136224678,
positive,neutral,2,l,j,0,0,0,0,0,0,0,0,,,,,,,,,5,16,106,17,,,,,,,,,,,,,,,,,,,,,,,,,,,,,,,,,,,,,,,,main,1,1,2,neutral,positive,553.1871735,553.1871735,553.1871735,553.1871735,554.1571582000001,554.2192452999998,l,l,1,1.1879102999996576,555.3831356999999,555.3831356999999,555.3831356999999,555.3831356999999,555.3831356999999,555.3831356999999,,,,,,,,,,,,,,,,,,,,,,,,,,,,,,,,,,,,,,,,,,,,,,,,,,,,,302,2022-10-07_11h18.57.018,Main,2022.2.2,60.03745136224678,
neutral,neutral,2,k,k,0,0,0,0,0,0,0,0,,,,,,,,,5,17,107,10,,,,,,,,,,,,,,,,,,,,,,,,,,,,,,,,,,,,,,,,main,1,1,2,neutral,neutral,555.3831356999999,555.3831356999999,555.3831356999999,555.3831356999999,556.3515938,556.4138662,k,k,1,1.9448714999998629,558.2977867,558.2977867,558.2977867,559.3560674,559.3560674,559.3560674,,,,,,,,,,,,,,,,,,,,,,,,,,,,,,,,,,,,,,,,,,,,,,,,,,,,,302,2022-10-07_11h18.57.018,Main,2022.2.2,60.03745136224678,
positive,positive,2,l,j,0,0,0,0,0,0,0,0,,,,,,,,,6,0,108,11,,,,,,,,,,,,,,,,,,,,,,,,,,,,,,,,,,,,,,,,main,2,2,2,positive,positive,559.3560674,559.3560674,559.3560674,559.3560674,560.3253610000002,560.3872370999998,l,l,1,2.836036200000308,563.1620680000001,563.1620680000001,563.1620680000001,564.2071510000001,564.2071510000001,564.2071510000001,,,,,,,,,,,,,,,,,,,,,,,,,,,,,,,,,,,,,,,,,,,,,,,,,,,,,302,2022-10-07_11h18.57.018,Main,2022.2.2,60.03745136224678,
positive,neutral,2,l,j,0,0,0,0,0,0,0,0,,,,,,,,,6,1,109,17,,,,,,,,,,,,,,,,,,,,,,,,,,,,,,,,,,,,,,,,main,1,1,2,neutral,positive,564.2071510000001,564.2071510000001,564.2071510000001,564.2071510000001,565.181094,565.2438216999999,l,l,1,1.5646150000002308,566.7528361999998,566.7528361999998,566.7528361999998,567.7820932999998,567.7820932999998,567.7820932999998,,,,,,,,,,,,,,,,,,,,,,,,,,,,,,,,,,,,,,,,,,,,,,,,,,,,,302,2022-10-07_11h18.57.018,Main,2022.2.2,60.03745136224678,
neutral,positive,1,k,k,0,0,0,0,0,0,0,0,,,,,,,,,6,2,110,4,,,,,,,,,,,,,,,,,,,,,,,,,,,,,,,,,,,,,,,,main,2,2,1,positive,neutral,567.7820932999998,567.7820932999998,567.7820932999998,567.7820932999998,568.7574672000001,568.8189868999998,k,,0,1.2590212000000065,570.0288648999999,570.0288648999999,570.0288648999999,571.0666035999998,571.0666035999998,571.0666035999998,,,,,,,,,,,,,,,,,,,,,,,,,,,,,,,,,,,,,,,,,,,,,,,,,,,,,302,2022-10-07_11h18.57.018,Main,2022.2.2,60.03745136224678,
negative,positive,2,j,l,0,0,0,0,0,0,0,0,,,,,,,,,6,3,111,15,,,,,,,,,,,,,,,,,,,,,,,,,,,,,,,,,,,,,,,,main,2,2,2,positive,negative,571.0666035999998,571.0666035999998,571.0666035999998,571.0666035999998,572.0507883,572.0811306,j,j,1,2.0407435000001897,574.0897240999998,574.0897240999998,574.0897240999998,575.1177972999999,575.1177972999999,575.1177972999999,,,,,,,,,,,,,,,,,,,,,,,,,,,,,,,,,,,,,,,,,,,,,,,,,,,,,302,2022-10-07_11h18.57.018,Main,2022.2.2,60.03745136224678,
neutral,neutral,2,k,k,0,0,0,0,0,0,0,0,,,,,,,,,6,4,112,10,,,,,,,,,,,,,,,,,,,,,,,,,,,,,,,,,,,,,,,,main,1,1,2,neutral,neutral,575.1177972999999,575.1177972999999,575.1177972999999,575.1177972999999,576.1067082999998,576.1383084999998,k,k,1,2.5414456000003156,578.6369765,578.6369765,578.6369765,579.6796264,579.6796264,579.6796264,,,,,,,,,,,,,,,,,,,,,,,,,,,,,,,,,,,,,,,,,,,,,,,,,,,,,302,2022-10-07_11h18.57.018,Main,2022.2.2,60.03745136224678,
positive,positive,1,l,j,0,0,0,0,0,0,0,0,,,,,,,,,6,5,113,2,,,,,,,,,,,,,,,,,,,,,,,,,,,,,,,,,,,,,,,,main,2,2,1,positive,positive,579.6796264,579.6796264,579.6796264,579.6796264,580.6774074,580.7092205999998,l,l,1,1.5292908000001262,582.1882114,582.1882114,582.1882114,583.2322899000001,583.2322899000001,583.2322899000001,,,,,,,,,,,,,,,,,,,,,,,,,,,,,,,,,,,,,,,,,,,,,,,,,,,,,302,2022-10-07_11h18.57.018,Main,2022.2.2,60.03745136224678,
neutral,negative,2,k,k,0,0,0,0,0,0,0,0,,,,,,,,,6,6,114,16,,,,,,,,,,,,,,,,,,,,,,,,,,,,,,,,,,,,,,,,main,2,2,2,negative,neutral,583.2322899000001,583.2322899000001,583.2322899000001,583.2322899000001,584.2082654999999,584.2733100999999,k,k,1,1.9295845000001464,586.1375585000001,586.1375585000001,586.1375585000001,587.1864894,587.1864894,587.1864894,,,,,,,,,,,,,,,,,,,,,,,,,,,,,,,,,,,,,,,,,,,,,,,,,,,,,302,2022-10-07_11h18.57.018,Main,2022.2.2,60.03745136224678,
negative,positive,1,j,l,0,0,0,0,0,0,0,0,,,,,,,,,6,7,115,6,,,,,,,,,,,,,,,,,,,,,,,,,,,,,,,,,,,,,,,,main,2,2,1,positive,negative,587.1864894,587.1864894,587.1864894,587.1864894,588.1879070999998,588.2183921999999,j,j,1,3.911634700000377,592.0743208999997,592.0743208999997,592.0743208999997,593.1081697999998,593.1081697999998,593.1081697999998,,,,,,,,,,,,,,,,,,,,,,,,,,,,,,,,,,,,,,,,,,,,,,,,,,,,,302,2022-10-07_11h18.57.018,Main,2022.2.2,60.03745136224678,
neutral,neutral,1,k,k,0,0,0,0,0,0,0,0,,,,,,,,,6,8,116,1,,,,,,,,,,,,,,,,,,,,,,,,,,,,,,,,,,,,,,,,main,2,2,1,neutral,neutral,593.1081697999998,593.1081697999998,593.1081697999998,593.1081697999998,594.0889853999997,594.1502084999997,k,k,1,2.7931640000001607,596.8854532,596.8854532,596.8854532,597.9364584999998,597.9364584999998,597.9364584999998,,,,,,,,,,,,,,,,,,,,,,,,,,,,,,,,,,,,,,,,,,,,,,,,,,,,,302,2022-10-07_11h18.57.018,Main,2022.2.2,60.03745136224678,
neutral,negative,1,k,k,0,0,0,0,0,0,0,0,,,,,,,,,6,9,117,7,,,,,,,,,,,,,,,,,,,,,,,,,,,,,,,,,,,,,,,,main,2,2,1,negative,neutral,597.9364584999998,597.9364584999998,597.9364584999998,597.9364584999998,598.9257708,598.9564052999999,k,k,1,1.3809864999998354,600.3195655999998,600.3195655999998,600.3195655999998,600.3195655999998,600.3195655999998,600.3195655999998,,,,,,,,,,,,,,,,,,,,,,,,,,,,,,,,,,,,,,,,,,,,,,,,,,,,,302,2022-10-07_11h18.57.018,Main,2022.2.2,60.03745136224678,
positive,negative,2,l,j,0,0,0,0,0,0,0,0,,,,,,,,,6,10,118,14,,,,,,,,,,,,,,,,,,,,,,,,,,,,,,,,,,,,,,,,main,2,2,2,negative,positive,600.3195655999998,600.3195655999998,600.3195655999998,600.3195655999998,601.3097377999998,601.3400588999998,l,l,1,3.3390407000001687,604.6351344,604.6351344,604.6351344,605.6905260999997,605.6905260999997,605.6905260999997,,,,,,,,,,,,,,,,,,,,,,,,,,,,,,,,,,,,,,,,,,,,,,,,,,,,,302,2022-10-07_11h18.57.018,Main,2022.2.2,60.03745136224678,
neutral,positive,2,k,k,0,0,0,0,0,0,0,0,,,,,,,,,6,11,119,13,,,,,,,,,,,,,,,,,,,,,,,,,,,,,,,,,,,,,,,,main,2,2,2,positive,neutral,605.6905260999997,605.6905260999997,605.6905260999997,605.6905260999997,606.6930431000001,606.7291817,k,k,1,1.4339381999998295,608.1292746999998,608.1292746999998,608.1292746999998,608.1292746999998,608.1292746999998,608.1292746999998,,,,,,,,,,,,,,,,,,,,,,,,,,,,,,,,,,,,,,,,,,,,,,,,,,,,,302,2022-10-07_11h18.57.018,Main,2022.2.2,60.03745136224678,
negative,neutral,2,j,l,0,0,0,0,0,0,0,0,,,,,,,,,6,12,120,12,,,,,,,,,,,,,,,,,,,,,,,,,,,,,,,,,,,,,,,,main,2,2,2,neutral,negative,608.1292746999998,608.1292746999998,608.1292746999998,608.1292746999998,609.1250642999998,609.1572252000001,j,j,1,2.450861199999963,611.5627086999998,611.5627086999998,611.5627086999998,612.6079626999999,612.6079626999999,612.6079626999999,,,,,,,,,,,,,,,,,,,,,,,,,,,,,,,,,,,,,,,,,,,,,,,,,,,,,302,2022-10-07_11h18.57.018,Main,2022.2.2,60.03745136224678,
negative,negative,1,j,l,0,0,0,0,0,0,0,0,,,,,,,,,6,13,121,0,,,,,,,,,,,,,,,,,,,,,,,,,,,,,,,,,,,,,,,,main,2,2,1,negative,negative,612.6079626999999,612.6079626999999,612.6079626999999,612.6079626999999,613.5989811,613.6311820999999,j,j,1,1.8109145999997054,615.3913284,615.3913284,615.3913284,616.4428819999998,616.4428819999998,616.4428819999998,,,,,,,,,,,,,,,,,,,,,,,,,,,,,,,,,,,,,,,,,,,,,,,,,,,,,302,2022-10-07_11h18.57.018,Main,2022.2.2,60.03745136224678,
positive,negative,1,l,j,0,0,0,0,0,0,0,0,,,,,,,,,6,14,122,5,,,,,,,,,,,,,,,,,,,,,,,,,,,,,,,,,,,,,,,,main,1,1,1,negative,positive,616.4428819999998,616.4428819999998,616.4428819999998,616.4428819999998,617.4306943000001,617.4628251999998,l,l,1,1.1915605999997751,618.6363553000001,618.6363553000001,618.6363553000001,618.6363553000001,618.6363553000001,618.6363553000001,,,,,,,,,,,,,,,,,,,,,,,,,,,,,,,,,,,,,,,,,,,,,,,,,,,,,302,2022-10-07_11h18.57.018,Main,2022.2.2,60.03745136224678,
positive,neutral,1,l,j,0,0,0,0,0,0,0,0,,,,,,,,,6,15,123,8,,,,,,,,,,,,,,,,,,,,,,,,,,,,,,,,,,,,,,,,main,1,1,1,neutral,positive,618.6363553000001,618.6363553000001,618.6363553000001,618.6363553000001,619.6304273999999,619.6631696999998,l,l,1,1.1254777999997714,620.7641880000001,620.7641880000001,620.7641880000001,620.7641880000001,620.7641880000001,620.7641880000001,,,,,,,,,,,,,,,,,,,,,,,,,,,,,,,,,,,,,,,,,,,,,,,,,,,,,302,2022-10-07_11h18.57.018,Main,2022.2.2,60.03745136224678,
negative,negative,2,j,l,0,0,0,0,0,0,0,0,,,,,,,,,6,16,124,9,,,,,,,,,,,,,,,,,,,,,,,,,,,,,,,,,,,,,,,,main,1,1,2,negative,negative,620.7641880000001,620.7641880000001,620.7641880000001,620.7641880000001,621.7581775999997,621.7957081999998,j,j,1,1.228742499999953,623.0029304999998,623.0029304999998,623.0029304999998,623.0029304999998,623.0029304999998,623.0029304999998,,,,,,,,,,,,,,,,,,,,,,,,,,,,,,,,,,,,,,,,,,,,,,,,,,,,,302,2022-10-07_11h18.57.018,Main,2022.2.2,60.03745136224678,
negative,neutral,1,j,l,0,0,0,0,0,0,0,0,,,,,,,,,6,17,125,3,,,,,,,,,,,,,,,,,,,,,,,,,,,,,,,,,,,,,,,,main,2,2,1,neutral,negative,623.0029304999998,623.0029304999998,623.0029304999998,623.0029304999998,623.9908842999998,624.0227351999997,j,j,1,1.7821146999999655,625.7656336999999,625.7656336999999,625.7656336999999,626.8155388999999,626.8155388999999,626.8155388999999,,,,,,,,,,,,,,,,,,,,,,,,,,,,,,,,,,,,,,,,,,,,,,,,,,,,,302,2022-10-07_11h18.57.018,Main,2022.2.2,60.03745136224678,
negative,neutral,1,j,l,0,0,0,0,0,0,0,0,,,,,,,,,7,0,126,3,,,,,,,,,,,,,,,,,,,,,,,,,,,,,,,,,,,,,,,,main,2,2,1,neutral,negative,626.8155388999999,626.8155388999999,626.8155388999999,626.8155388999999,627.799986,627.8306502999999,j,j,1,1.7602483999999095,629.5563557,629.5563557,629.5563557,630.5981886,630.5981886,630.5981886,,,,,,,,,,,,,,,,,,,,,,,,,,,,,,,,,,,,,,,,,,,,,,,,,,,,,302,2022-10-07_11h18.57.018,Main,2022.2.2,60.03745136224678,
neutral,negative,1,k,k,0,0,0,0,0,0,0,0,,,,,,,,,7,1,127,7,,,,,,,,,,,,,,,,,,,,,,,,,,,,,,,,,,,,,,,,main,2,2,1,negative,neutral,630.5981886,630.5981886,630.5981886,630.5981886,631.5946273999998,631.6311717999997,k,k,1,1.4791251999999986,633.0839786000001,633.0839786000001,633.0839786000001,633.0839786000001,633.0839786000001,633.0839786000001,,,,,,,,,,,,,,,,,,,,,,,,,,,,,,,,,,,,,,,,,,,,,,,,,,,,,302,2022-10-07_11h18.57.018,Main,2022.2.2,60.03745136224678,
neutral,positive,2,k,k,0,0,0,0,0,0,0,0,,,,,,,,,7,2,128,13,,,,,,,,,,,,,,,,,,,,,,,,,,,,,,,,,,,,,,,,main,2,2,2,positive,neutral,633.0839786000001,633.0839786000001,633.0839786000001,633.0839786000001,634.0694373000001,634.1048028999999,k,k,1,1.4182514999997693,635.5061323,635.5061323,635.5061323,635.5061323,635.5061323,635.5061323,,,,,,,,,,,,,,,,,,,,,,,,,,,,,,,,,,,,,,,,,,,,,,,,,,,,,302,2022-10-07_11h18.57.018,Main,2022.2.2,60.03745136224678,
positive,neutral,1,l,j,0,0,0,0,0,0,0,0,,,,,,,,,7,3,129,8,,,,,,,,,,,,,,,,,,,,,,,,,,,,,,,,,,,,,,,,main,2,2,1,neutral,positive,635.5061323,635.5061323,635.5061323,635.5061323,636.4912630999997,636.5251671000001,l,l,1,2.30919460000041,638.7987988,638.7987988,638.7987988,639.8293479999998,639.8293479999998,639.8293479999998,,,,,,,,,,,,,,,,,,,,,,,,,,,,,,,,,,,,,,,,,,,,,,,,,,,,,302,2022-10-07_11h18.57.018,Main,2022.2.2,60.03745136224678,
neutral,neutral,2,k,k,0,0,0,0,0,0,0,0,,,,,,,,,7,4,130,10,,,,,,,,,,,,,,,,,,,,,,,,,,,,,,,,,,,,,,,,main,1,1,2,neutral,neutral,639.8293479999998,639.8293479999998,639.8293479999998,639.8293479999998,640.8269964000001,640.8573674999998,k,k,1,1.3934358999999858,642.2313187,642.2313187,642.2313187,642.2313187,642.2313187,642.2313187,,,,,,,,,,,,,,,,,,,,,,,,,,,,,,,,,,,,,,,,,,,,,,,,,,,,,302,2022-10-07_11h18.57.018,Main,2022.2.2,60.03745136224678,
positive,neutral,2,l,j,0,0,0,0,0,0,0,0,,,,,,,,,7,5,131,17,,,,,,,,,,,,,,,,,,,,,,,,,,,,,,,,,,,,,,,,main,1,1,2,neutral,positive,642.2313187,642.2313187,642.2313187,642.2313187,643.2115868999999,643.2868045999999,l,l,1,6.781939599999987,649.9861661,649.9861661,649.9861661,651.0295442000001,651.0295442000001,651.0295442000001,,,,,,,,,,,,,,,,,,,,,,,,,,,,,,,,,,,,,,,,,,,,,,,,,,,,,302,2022-10-07_11h18.57.018,Main,2022.2.2,60.03745136224678,
neutral,neutral,1,k,k,0,0,0,0,0,0,0,0,,,,,,,,,7,6,132,1,,,,,,,,,,,,,,,,,,,,,,,,,,,,,,,,,,,,,,,,main,1,1,1,neutral,neutral,651.0295442000001,651.0295442000001,651.0295442000001,651.0295442000001,652.0248624000001,652.057511,k,k,1,1.3275849000001472,653.3666082,653.3666082,653.3666082,653.3666082,653.3666082,653.3666082,,,,,,,,,,,,,,,,,,,,,,,,,,,,,,,,,,,,,,,,,,,,,,,,,,,,,302,2022-10-07_11h18.57.018,Main,2022.2.2,60.03745136224678,
negative,positive,2,j,l,0,0,0,0,0,0,0,0,,,,,,,,,7,7,133,15,,,,,,,,,,,,,,,,,,,,,,,,,,,,,,,,,,,,,,,,main,2,2,2,positive,negative,653.3666082,653.3666082,653.3666082,653.3666082,654.3516654999999,654.3875837999999,j,j,1,1.3913650000004054,655.7616198999999,655.7616198999999,655.7616198999999,655.7616198999999,655.7616198999999,655.7616198999999,,,,,,,,,,,,,,,,,,,,,,,,,,,,,,,,,,,,,,,,,,,,,,,,,,,,,302,2022-10-07_11h18.57.018,Main,2022.2.2,60.03745136224678,
negative,neutral,2,j,l,0,0,0,0,0,0,0,0,,,,,,,,,7,8,134,12,,,,,,,,,,,,,,,,,,,,,,,,,,,,,,,,,,,,,,,,main,1,1,2,neutral,negative,655.7616198999999,655.7616198999999,655.7616198999999,655.7616198999999,656.7409426999998,656.8025339000001,j,j,1,1.0404191000002356,657.8047329999999,657.8047329999999,657.8047329999999,657.8047329999999,657.8047329999999,657.8047329999999,,,,,,,,,,,,,,,,,,,,,,,,,,,,,,,,,,,,,,,,,,,,,,,,,,,,,302,2022-10-07_11h18.57.018,Main,2022.2.2,60.03745136224678,
positive,negative,1,l,j,0,0,0,0,0,0,0,0,,,,,,,,,7,9,135,5,0,0,0,0,,,,,,,,,,,,,,,,,,,,,,,,,,,,,,,,,,,,main,1,1,1,negative,positive,657.8047329999999,657.8047329999999,657.8047329999999,657.8047329999999,658.8008495999998,658.8322002,l,j,0,2.29894749999994,661.0838091,661.0838091,661.0838091,662.1002296000001,662.1002296000001,662.1002296000001,,,,,,,,,,662.1002296000001,662.1002296000001,662.1002296000001,662.1002296000001,None,,,,,,,,,,,,,,,,,,,,,,,,,,,,,,,,,,,,,,,302,2022-10-07_11h18.57.018,Main,2022.2.2,60.03745136224678,
positive,negative,1,l,j,0,0,0,0,0,0,0,0,,,,,,,,,7,9,135,5,,,,,,,,,,,,,,,,,,,,,,,,,,,,,,,,,,,,,,,,,,,,,,,,,,,,,,,,,,,,,,,,,,,,,,,,,,,,,,,,,,,,,,,,,,,,,,,,,,,,,,,,,,,,,,,,,,302,2022-10-07_11h18.57.018,Main,2022.2.2,60.03745136224678,
neutral,positive,1,k,k,0,0,0,0,0,0,0,0,,,,,,,,,7,10,136,4,,,,,,,,,,,,,,,,,,,,,,,,,,,,,,,,,,,,,,,,main,1,1,1,positive,neutral,722.1372120999999,722.1372120999999,722.1372120999999,722.1372120999999,723.1175509,723.1810369999998,k,k,1,8.279656499999874,731.3931686000001,731.3931686000001,731.3931686000001,732.4388607000001,732.4388607000001,732.4388607000001,,,,,,,,,,,,,,,,,,,,,,,,,,,,,,,,,,,,,,,,,,,,,,,,,,,,,302,2022-10-07_11h18.57.018,Main,2022.2.2,60.03745136224678,
positive,positive,1,l,j,0,0,0,0,0,0,0,0,,,,,,,,,7,11,137,2,,,,,,,,,,,,,,,,,,,,,,,,,,,,,,,,,,,,,,,,main,2,2,1,positive,positive,732.4388607000001,732.4388607000001,732.4388607000001,732.4388607000001,733.4240724000001,733.4593105999998,l,l,1,1.238571999999749,734.6813038,734.6813038,734.6813038,734.6813038,734.6813038,734.6813038,,,,,,,,,,,,,,,,,,,,,,,,,,,,,,,,,,,,,,,,,,,,,,,,,,,,,302,2022-10-07_11h18.57.018,Main,2022.2.2,60.03745136224678,
negative,positive,1,j,l,0,0,0,0,0,0,0,0,,,,,,,,,7,12,138,6,,,,,,,,,,,,,,,,,,,,,,,,,,,,,,,,,,,,,,,,main,2,2,1,positive,negative,734.6813038,734.6813038,734.6813038,734.6813038,735.6712042999998,735.7014601999999,j,j,1,1.7163802999998552,737.3728299999998,737.3728299999998,737.3728299999998,738.3981266000001,738.3981266000001,738.3981266000001,,,,,,,,,,,,,,,,,,,,,,,,,,,,,,,,,,,,,,,,,,,,,,,,,,,,,302,2022-10-07_11h18.57.018,Main,2022.2.2,60.03745136224678,
positive,positive,2,l,j,0,0,0,0,0,0,0,0,,,,,,,,,7,13,139,11,,,,,,,,,,,,,,,,,,,,,,,,,,,,,,,,,,,,,,,,main,1,1,2,positive,positive,738.3981266000001,738.3981266000001,738.3981266000001,738.3981266000001,739.3777251000001,739.4375624999998,l,l,1,1.5181149000000005,740.8939442000001,740.8939442000001,740.8939442000001,741.9365414999997,741.9365414999997,741.9365414999997,,,,,,,,,,,,,,,,,,,,,,,,,,,,,,,,,,,,,,,,,,,,,,,,,,,,,302,2022-10-07_11h18.57.018,Main,2022.2.2,60.03745136224678,
neutral,negative,2,k,k,0,0,0,0,0,0,0,0,,,,,,,,,7,14,140,16,,,,,,,,,,,,,,,,,,,,,,,,,,,,,,,,,,,,,,,,main,1,1,2,negative,neutral,741.9365414999997,741.9365414999997,741.9365414999997,741.9365414999997,742.9272169999999,742.9587622999998,k,k,1,1.1408927000002222,744.0921709999998,744.0921709999998,744.0921709999998,744.0921709999998,744.0921709999998,744.0921709999998,,,,,,,,,,,,,,,,,,,,,,,,,,,,,,,,,,,,,,,,,,,,,,,,,,,,,302,2022-10-07_11h18.57.018,Main,2022.2.2,60.03745136224678,
negative,negative,2,j,l,0,0,0,0,0,0,0,0,,,,,,,,,7,15,141,9,,,,,,,,,,,,,,,,,,,,,,,,,,,,,,,,,,,,,,,,main,2,2,2,negative,negative,744.0921709999998,744.0921709999998,744.0921709999998,744.0921709999998,745.0757533999999,745.1134011999998,j,j,1,1.3552746000000297,746.4539341999998,746.4539341999998,746.4539341999998,746.4539341999998,746.4539341999998,746.4539341999998,,,,,,,,,,,,,,,,,,,,,,,,,,,,,,,,,,,,,,,,,,,,,,,,,,,,,302,2022-10-07_11h18.57.018,Main,2022.2.2,60.03745136224678,
positive,negative,2,l,j,0,0,0,0,0,0,0,0,,,,,,,,,7,16,142,14,,,,,,,,,,,,,,,,,,,,,,,,,,,,,,,,,,,,,,,,main,1,1,2,negative,positive,746.4539341999998,746.4539341999998,746.4539341999998,746.4539341999998,747.4358032999999,747.4992287999999,l,l,1,1.0095446999998785,748.4616452999999,748.4616452999999,748.4616452999999,748.4616452999999,748.4616452999999,748.4616452999999,,,,,,,,,,,,,,,,,,,,,,,,,,,,,,,,,,,,,,,,,,,,,,,,,,,,,302,2022-10-07_11h18.57.018,Main,2022.2.2,60.03745136224678,
negative,negative,1,j,l,0,0,0,0,0,0,0,0,,,,,,,,,7,17,143,0,,,,,,,,,,,,,,,,,,,,,,,,,,,,,,,,,,,,,,,,main,2,2,1,negative,negative,748.4616452999999,748.4616452999999,748.4616452999999,748.4616452999999,749.4542539999998,749.4856709000001,j,j,1,0.9340025999999853,750.4023852999999,750.4023852999999,750.4023852999999,750.4023852999999,750.4023852999999,750.4023852999999,,,,,,,,,,,,,,,,,,,,,,,,,,,,,,,,,,,,,,,,,,,,,,,,,,,,,302,2022-10-07_11h18.57.018,Main,2022.2.2,60.03745136224678,
neutral,neutral,1,k,k,0,0,0,0,0,0,0,0,,,,,,,,,8,0,144,1,,,,,,,,,,,,,,,,,,,,,,,,,,,,,,,,,,,,,,,,main,2,2,1,neutral,neutral,750.4023852999999,750.4023852999999,750.4023852999999,750.4023852999999,751.4014400000001,751.4328104000001,k,k,1,0.9204177999999956,752.3256118999998,752.3256118999998,752.3256118999998,752.3256118999998,752.3256118999998,752.3256118999998,,,,,,,,,,,,,,,,,,,,,,,,,,,,,,,,,,,,,,,,,,,,,,,,,,,,,302,2022-10-07_11h18.57.018,Main,2022.2.2,60.03745136224678,
neutral,positive,2,k,k,0,0,0,0,0,0,0,0,,,,,,,,,8,1,145,13,,,,,,,,,,,,,,,,,,,,,,,,,,,,,,,,,,,,,,,,main,2,2,2,positive,neutral,752.3256118999998,752.3256118999998,752.3256118999998,752.3256118999998,753.2998738000001,753.3637521,k,k,1,1.0837734000001547,754.41491,754.41491,754.41491,754.41491,754.41491,754.41491,,,,,,,,,,,,,,,,,,,,,,,,,,,,,,,,,,,,,,,,,,,,,,,,,,,,,302,2022-10-07_11h18.57.018,Main,2022.2.2,60.03745136224678,
neutral,positive,1,k,k,0,0,0,0,0,0,0,0,,,,,,,,,8,2,146,4,,,,,,,,,,,,,,,,,,,,,,,,,,,,,,,,,,,,,,,,main,1,1,1,positive,neutral,754.41491,754.41491,754.41491,754.41491,755.4052194000001,755.4366709000001,k,k,1,0.9644124000001284,756.3830973999998,756.3830973999998,756.3830973999998,756.3830973999998,756.3830973999998,756.3830973999998,,,,,,,,,,,,,,,,,,,,,,,,,,,,,,,,,,,,,,,,,,,,,,,,,,,,,302,2022-10-07_11h18.57.018,Main,2022.2.2,60.03745136224678,
positive,positive,1,l,j,0,0,0,0,0,0,0,0,,,,,,,,,8,3,147,2,,,,,,,,,,,,,,,,,,,,,,,,,,,,,,,,,,,,,,,,main,2,2,1,positive,positive,756.3830973999998,756.3830973999998,756.3830973999998,756.3830973999998,757.3718113,757.4040983,l,l,1,0.8248336000001473,758.2141892,758.2141892,758.2141892,758.2141892,758.2141892,758.2141892,,,,,,,,,,,,,,,,,,,,,,,,,,,,,,,,,,,,,,,,,,,,,,,,,,,,,302,2022-10-07_11h18.57.018,Main,2022.2.2,60.03745136224678,
neutral,negative,2,k,k,0,0,0,0,0,0,0,0,,,,,,,,,8,4,148,16,,,,,,,,,,,,,,,,,,,,,,,,,,,,,,,,,,,,,,,,main,2,2,2,negative,neutral,758.2141892,758.2141892,758.2141892,758.2141892,759.1863149000001,759.2464529999997,k,k,1,0.9716591999999764,760.1861175999998,760.1861175999998,760.1861175999998,760.1861175999998,760.1861175999998,760.1861175999998,,,,,,,,,,,,,,,,,,,,,,,,,,,,,,,,,,,,,,,,,,,,,,,,,,,,,302,2022-10-07_11h18.57.018,Main,2022.2.2,60.03745136224678,
negative,positive,1,j,l,0,0,0,0,0,0,0,0,,,,,,,,,8,5,149,6,,,,,,,,,,,,,,,,,,,,,,,,,,,,,,,,,,,,,,,,main,1,1,1,positive,negative,760.1861175999998,760.1861175999998,760.1861175999998,760.1861175999998,761.1744709,761.2039322,j,j,1,0.9092955999999504,762.0983575,762.0983575,762.0983575,762.0983575,762.0983575,762.0983575,,,,,,,,,,,,,,,,,,,,,,,,,,,,,,,,,,,,,,,,,,,,,,,,,,,,,302,2022-10-07_11h18.57.018,Main,2022.2.2,60.03745136224678,
positive,neutral,1,l,j,0,0,0,0,0,0,0,0,,,,,,,,,8,6,150,8,,,,,,,,,,,,,,,,,,,,,,,,,,,,,,,,,,,,,,,,main,2,2,1,neutral,positive,762.0983575,762.0983575,762.0983575,762.0983575,763.0958400999998,763.1291252000001,l,l,1,1.0095213999998123,764.1107652999999,764.1107652999999,764.1107652999999,764.1107652999999,764.1107652999999,764.1107652999999,,,,,,,,,,,,,,,,,,,,,,,,,,,,,,,,,,,,,,,,,,,,,,,,,,,,,302,2022-10-07_11h18.57.018,Main,2022.2.2,60.03745136224678,
positive,negative,2,l,j,0,0,0,0,0,0,0,0,,,,,,,,,8,7,151,14,,,,,,,,,,,,,,,,,,,,,,,,,,,,,,,,,,,,,,,,main,1,1,2,negative,positive,764.1107652999999,764.1107652999999,764.1107652999999,764.1107652999999,765.1022957999999,765.1318284999998,l,l,1,0.960310799999661,766.0744011000002,766.0744011000002,766.0744011000002,766.0744011000002,766.0744011000002,766.0744011000002,,,,,,,,,,,,,,,,,,,,,,,,,,,,,,,,,,,,,,,,,,,,,,,,,,,,,302,2022-10-07_11h18.57.018,Main,2022.2.2,60.03745136224678,
negative,neutral,1,j,l,0,0,0,0,0,0,0,0,,,,,,,,,8,8,152,3,,,,,,,,,,,,,,,,,,,,,,,,,,,,,,,,,,,,,,,,main,2,2,1,neutral,negative,766.0744011000002,766.0744011000002,766.0744011000002,766.0744011000002,767.0514757999999,767.1124771999998,j,j,1,1.0452751000002536,768.12021,768.12021,768.12021,768.12021,768.12021,768.12021,,,,,,,,,,,,,,,,,,,,,,,,,,,,,,,,,,,,,,,,,,,,,,,,,,,,,302,2022-10-07_11h18.57.018,Main,2022.2.2,60.03745136224678,
positive,neutral,2,l,j,0,0,0,0,0,0,0,0,,,,,,,,,8,9,153,17,,,,,,,,,,,,,,,,,,,,,,,,,,,,,,,,,,,,,,,,main,2,2,2,neutral,positive,768.12021,768.12021,768.12021,768.12021,769.0897145999998,769.1572934999999,l,l,1,0.8679533999998057,769.9941973999998,769.9941973999998,769.9941973999998,769.9941973999998,769.9941973999998,769.9941973999998,,,,,,,,,,,,,,,,,,,,,,,,,,,,,,,,,,,,,,,,,,,,,,,,,,,,,302,2022-10-07_11h18.57.018,Main,2022.2.2,60.03745136224678,
negative,negative,2,j,l,0,0,0,0,0,0,0,0,,,,,,,,,8,10,154,9,,,,,,,,,,,,,,,,,,,,,,,,,,,,,,,,,,,,,,,,main,1,1,2,negative,negative,769.9941973999998,769.9941973999998,769.9941973999998,769.9941973999998,770.9815487000001,771.0120504000001,j,j,1,1.0579757000000427,772.0541359999997,772.0541359999997,772.0541359999997,772.0541359999997,772.0541359999997,772.0541359999997,,,,,,,,,,,,,,,,,,,,,,,,,,,,,,,,,,,,,,,,,,,,,,,,,,,,,302,2022-10-07_11h18.57.018,Main,2022.2.2,60.03745136224678,
negative,positive,2,j,l,0,0,0,0,0,0,0,0,,,,,,,,,8,11,155,15,,,,,,,,,,,,,,,,,,,,,,,,,,,,,,,,,,,,,,,,main,2,2,2,positive,negative,772.0541359999997,772.0541359999997,772.0541359999997,772.0541359999997,773.051003,773.0822994999999,j,j,1,1.1944857999997112,774.2510652000001,774.2510652000001,774.2510652000001,774.2510652000001,774.2510652000001,774.2510652000001,,,,,,,,,,,,,,,,,,,,,,,,,,,,,,,,,,,,,,,,,,,,,,,,,,,,,302,2022-10-07_11h18.57.018,Main,2022.2.2,60.03745136224678,
negative,negative,1,j,l,0,0,0,0,0,0,0,0,,,,,,,,,8,12,156,0,,,,,,,,,,,,,,,,,,,,,,,,,,,,,,,,,,,,,,,,main,2,2,1,negative,negative,774.2510652000001,774.2510652000001,774.2510652000001,774.2510652000001,775.2225819999999,775.2843975999999,j,j,1,0.9552398000000721,776.2076954999998,776.2076954999998,776.2076954999998,776.2076954999998,776.2076954999998,776.2076954999998,,,,,,,,,,,,,,,,,,,,,,,,,,,,,,,,,,,,,,,,,,,,,,,,,,,,,302,2022-10-07_11h18.57.018,Main,2022.2.2,60.03745136224678,
negative,neutral,2,j,l,0,0,0,0,0,0,0,0,,,,,,,,,8,13,157,12,,,,,,,,,,,,,,,,,,,,,,,,,,,,,,,,,,,,,,,,main,2,2,2,neutral,negative,776.2076954999998,776.2076954999998,776.2076954999998,776.2076954999998,777.1888940999997,777.2506736,j,j,1,0.7856566000000385,777.9975399999998,777.9975399999998,777.9975399999998,777.9975399999998,777.9975399999998,777.9975399999998,,,,,,,,,,,,,,,,,,,,,,,,,,,,,,,,,,,,,,,,,,,,,,,,,,,,,302,2022-10-07_11h18.57.018,Main,2022.2.2,60.03745136224678,
neutral,negative,1,k,k,0,0,0,0,0,0,0,0,,,,,,,,,8,14,158,7,,,,,,,,,,,,,,,,,,,,,,,,,,,,,,,,,,,,,,,,main,2,2,1,negative,neutral,777.9975399999998,777.9975399999998,777.9975399999998,777.9975399999998,778.9685592000001,779.0295725000001,k,k,1,1.043448299999909,780.0461283999998,780.0461283999998,780.0461283999998,780.0461283999998,780.0461283999998,780.0461283999998,,,,,,,,,,,,,,,,,,,,,,,,,,,,,,,,,,,,,,,,,,,,,,,,,,,,,302,2022-10-07_11h18.57.018,Main,2022.2.2,60.03745136224678,
positive,negative,1,l,j,0,0,0,0,0,0,0,0,,,,,,,,,8,15,159,5,,,,,,,,,,,,,,,,,,,,,,,,,,,,,,,,,,,,,,,,main,1,1,1,negative,positive,780.0461283999998,780.0461283999998,780.0461283999998,780.0461283999998,781.043255,781.079369,l,l,1,1.0251507000002675,782.072236,782.072236,782.072236,782.072236,782.072236,782.072236,,,,,,,,,,,,,,,,,,,,,,,,,,,,,,,,,,,,,,,,,,,,,,,,,,,,,302,2022-10-07_11h18.57.018,Main,2022.2.2,60.03745136224678,
positive,positive,2,l,j,0,0,0,0,0,0,0,0,,,,,,,,,8,16,160,11,,,,,,,,,,,,,,,,,,,,,,,,,,,,,,,,,,,,,,,,main,1,1,2,positive,positive,782.072236,782.072236,782.072236,782.072236,783.0581251999997,783.0893599999999,l,l,1,0.9828883999998652,784.054431,784.054431,784.054431,784.054431,784.054431,784.054431,,,,,,,,,,,,,,,,,,,,,,,,,,,,,,,,,,,,,,,,,,,,,,,,,,,,,302,2022-10-07_11h18.57.018,Main,2022.2.2,60.03745136224678,
neutral,neutral,2,k,k,0,0,0,0,0,0,0,0,,,,,,,,,8,17,161,10,,,,,,,,,,,,,,,,,,,,,,,,,,,,,,,,,,,,,,,,main,1,1,2,neutral,neutral,784.054431,784.054431,784.054431,784.054431,785.0355197999997,785.0951595000001,k,k,1,1.0175665000001572,786.079221,786.079221,786.079221,786.079221,786.079221,786.079221,,,,,,,,,,,,,,,,,,,,,,,,,,,,,,,,,,,,,,,,,,,,,,,,,,,,,302,2022-10-07_11h18.57.018,Main,2022.2.2,60.03745136224678,
neutral,positive,1,k,k,0,0,0,0,0,0,0,0,,,,,,,,,9,0,162,4,,,,,,,,,,,,,,,,,,,,,,,,,,,,,,,,,,,,,,,,main,2,2,1,positive,neutral,786.079221,786.079221,786.079221,786.079221,787.0747866000002,787.1041528000001,k,k,1,1.1873368000001392,788.2660709000002,788.2660709000002,788.2660709000002,788.2660709000002,788.2660709000002,788.2660709000002,,,,,,,,,,,,,,,,,,,,,,,,,,,,,,,,,,,,,,,,,,,,,,,,,,,,,302,2022-10-07_11h18.57.018,Main,2022.2.2,60.03745136224678,
positive,negative,1,l,j,0,0,0,0,0,0,0,0,,,,,,,,,9,1,163,5,,,,,,,,,,,,,,,,,,,,,,,,,,,,,,,,,,,,,,,,main,2,2,1,negative,positive,788.2660709000002,788.2660709000002,788.2660709000002,788.2660709000002,789.2736509000001,789.3030470999997,l,l,1,0.9821634999998423,790.2523563999998,790.2523563999998,790.2523563999998,790.2523563999998,790.2523563999998,790.2523563999998,,,,,,,,,,,,,,,,,,,,,,,,,,,,,,,,,,,,,,,,,,,,,,,,,,,,,302,2022-10-07_11h18.57.018,Main,2022.2.2,60.03745136224678,
negative,negative,2,j,l,0,0,0,0,0,0,0,0,,,,,,,,,9,2,164,9,,,,,,,,,,,,,,,,,,,,,,,,,,,,,,,,,,,,,,,,main,2,2,2,negative,negative,790.2523563999998,790.2523563999998,790.2523563999998,790.2523563999998,791.2339246000001,791.2954854999998,j,j,1,1.0631936000004316,792.3210872999998,792.3210872999998,792.3210872999998,792.3210872999998,792.3210872999998,792.3210872999998,,,,,,,,,,,,,,,,,,,,,,,,,,,,,,,,,,,,,,,,,,,,,,,,,,,,,302,2022-10-07_11h18.57.018,Main,2022.2.2,60.03745136224678,
positive,negative,2,l,j,0,0,0,0,0,0,0,0,,,,,,,,,9,3,165,14,,,,,,,,,,,,,,,,,,,,,,,,,,,,,,,,,,,,,,,,main,2,2,2,negative,positive,792.3210872999998,792.3210872999998,792.3210872999998,792.3210872999998,793.3021712,793.3729954,l,l,1,1.1577164000000266,794.4791547,794.4791547,794.4791547,794.4791547,794.4791547,794.4791547,,,,,,,,,,,,,,,,,,,,,,,,,,,,,,,,,,,,,,,,,,,,,,,,,,,,,302,2022-10-07_11h18.57.018,Main,2022.2.2,60.03745136224678,
negative,negative,1,j,l,0,0,0,0,0,0,0,0,,,,,,,,,9,4,166,0,,,,,,,,,,,,,,,,,,,,,,,,,,,,,,,,,,,,,,,,main,1,1,1,negative,negative,794.4791547,794.4791547,794.4791547,794.4791547,795.4708215,795.5060927999998,j,j,1,1.0721122999998443,796.5581394000001,796.5581394000001,796.5581394000001,796.5581394000001,796.5581394000001,796.5581394000001,,,,,,,,,,,,,,,,,,,,,,,,,,,,,,,,,,,,,,,,,,,,,,,,,,,,,302,2022-10-07_11h18.57.018,Main,2022.2.2,60.03745136224678,
neutral,negative,2,k,k,0,0,0,0,0,0,0,0,,,,,,,,,9,5,167,16,,,,,,,,,,,,,,,,,,,,,,,,,,,,,,,,,,,,,,,,main,1,1,2,negative,neutral,796.5581394000001,796.5581394000001,796.5581394000001,796.5581394000001,797.5490783,797.5802656000001,k,k,1,1.4666902000003574,799.0283012999998,799.0283012999998,799.0283012999998,799.0283012999998,799.0283012999998,799.0283012999998,,,,,,,,,,,,,,,,,,,,,,,,,,,,,,,,,,,,,,,,,,,,,,,,,,,,,302,2022-10-07_11h18.57.018,Main,2022.2.2,60.03745136224678,
neutral,negative,1,k,k,0,0,0,0,0,0,0,0,,,,,,,,,9,6,168,7,,,,,,,,,,,,,,,,,,,,,,,,,,,,,,,,,,,,,,,,main,2,2,1,negative,neutral,799.0283012999998,799.0283012999998,799.0283012999998,799.0283012999998,800.0184952999998,800.0530582000001,k,k,1,1.4679896999996345,801.4984304,801.4984304,801.4984304,801.4984304,801.4984304,801.4984304,,,,,,,,,,,,,,,,,,,,,,,,,,,,,,,,,,,,,,,,,,,,,,,,,,,,,302,2022-10-07_11h18.57.018,Main,2022.2.2,60.03745136224678,
