distractor,target,set,ans1,ans2,total_experiment.thisRepN,total_experiment.thisTrialN,total_experiment.thisN,total_experiment.thisIndex,boat.thisRepN,boat.thisTrialN,boat.thisN,boat.thisIndex,para.thisRepN,para.thisTrialN,para.thisN,para.thisIndex,para_rep_loop.thisRepN,para_rep_loop.thisTrialN,para_rep_loop.thisN,para_rep_loop.thisIndex,para_prac_loop.thisRepN,para_prac_loop.thisTrialN,para_prac_loop.thisN,para_prac_loop.thisIndex,para_main_loop.thisRepN,para_main_loop.thisTrialN,para_main_loop.thisN,para_main_loop.thisIndex,para_rest.thisRepN,para_rest.thisTrialN,para_rest.thisN,para_rest.thisIndex,fl_rep_loop2.thisRepN,fl_rep_loop2.thisTrialN,fl_rep_loop2.thisN,fl_rep_loop2.thisIndex,flanker_prac_loop.thisRepN,flanker_prac_loop.thisTrialN,flanker_prac_loop.thisN,flanker_prac_loop.thisIndex,flanker_main_loop.thisRepN,flanker_main_loop.thisTrialN,flanker_main_loop.thisN,flanker_main_loop.thisIndex,flanker_rest.thisRepN,flanker_rest.thisTrialN,flanker_rest.thisN,flanker_rest.thisIndex,para_starter.started,para_starter_key.started,para_starter_key.keys,para_starter_key.rt,para_inst_sound.started,para_inst_key.keys,para_inst_key.rt,para_inst_image.started,para_prac_back.started,para_prac_text.started,para_fix_back.started,para_fix_2.started,main_prac,para_back.started,st_ans,st_res,st_corr,st_rt,st2_resp.keys,st2_resp.corr,para_main_back.started,para_main_text.started,para_mouse.started,para_mouse.x,para_mouse.y,para_mouse.leftButton,para_mouse.midButton,para_mouse.rightButton,rest_text.started,rest_key.started,rest_inst_text.started,rest_time.started,rest_key.keys,exp_end_key.started,exp_end_back.started,exp_end_text.started,exp_end_key.keys,exp_end_key.rt,fl_starter_back.started,fl_starter.started,fl_starter_text.started,fl_starter.keys,fl_starter.rt,fl_inst_resp.keys,fl_inst_resp.rt,fl_back.started,fl_mouse_prac.started,fl_mouse_prac.x,fl_mouse_prac.y,fl_mouse_prac.leftButton,fl_mouse_prac.midButton,fl_mouse_prac.rightButton,back_2.started,fl_cold,fl_colt,fl_set,fl_dcond,fl_tcond,fl_fix.started,j_button.started,k_button.started,l_button.started,targ.started,fl_fix.stopped,fl_ans,fl_res,fl_corr,fl_rt,j_button2.started,k_button2.started,l_button2.started,j_button2.stopped,k_button2.stopped,l_button2.stopped,fl_mainback.started,fl_mouse_m.started,fl_key_resp.keys,fl_mouse_m.x,fl_mouse_m.y,fl_mouse_m.leftButton,fl_mouse_m.midButton,fl_mouse_m.rightButton,total_end_text.started,id*,date,expName,psychopyVersion,frameRate,
,,,,,0,0,0,0,,,,,0,0,0,0,0,0,0,0,,,,,,,,,,,,,,,,,,,,,,,,,,,,,89.41427750000003,89.41427750000003,space,5.330898800000796,95.78506385000055,space,103.0504447000003,198.92446610000115,,,,,,,,,,,,,,,,,,,,,,,,,,,,,,,,,,,,,,,,,,,,,,,,,,,,,,,,,,,,,,,,,,,,,,,,,,,,309,2022-10-05_13h58.54.932,Main,2022.2.2,60.25867845466649,
positive,yellow,1,None,k,0,0,0,0,,,,,0,0,0,0,,,,,0,0,0,3,,,,,,,,,,,,,,,,,,,,,,,,,,,,,,,,,200.19384420000097,200.19384420000097,202.18243299999995,202.18243299999995,prac,204.36002139999982,k,k,1,8.774979499999972,None,0,,,,,,,,,,,,,,,,,,,,,,,,,,,,,,,,,,,,,,,,,,,,,,,,,,,,,,,,,,,,,,,,309,2022-10-05_13h58.54.932,Main,2022.2.2,60.25867845466649,
negative,yellow,2,k,None,0,0,0,0,,,,,0,0,0,0,,,,,0,1,1,6,,,,,,,,,,,,,,,,,,,,,,,,,,,,,,,,,,,,,prac,215.19249350000064,None,None,1,1.5229555000005348,None,1,,,,,,,,,,,,,,,,,,,,,,,,,,,,,,,,,,,,,,,,,,,,,,,,,,,,,,,,,,,,,,,,309,2022-10-05_13h58.54.932,Main,2022.2.2,60.25867845466649,
negative,red,2,None,None,0,0,0,0,,,,,0,0,0,0,,,,,0,2,2,12,,,,,,,,,,,,,,,,,,,,,,,,,,,,,,,,,,,,,prac,217.71731270000055,None,None,1,1.5279194000013376,None,1,,,,,,,,,,,,,,,,,,,,,,,,,,,,,,,,,,,,,,,,,,,,,,,,,,,,,,,,,,,,,,,,309,2022-10-05_13h58.54.932,Main,2022.2.2,60.25867845466649,
positive,blue,1,k,None,0,0,0,0,,,,,0,0,0,0,,,,,0,3,3,15,,,,,,,,,,,,,,,,,,,,,,,,,,,,,,,,,,,,,prac,220.24478100000124,None,None,1,1.526727899999969,None,1,,,,,,,,,,,,,,,,,,,,,,,,,,,,,,,,,,,,,,,,,,,,,,,,,,,,,,,,,,,,,,,,309,2022-10-05_13h58.54.932,Main,2022.2.2,60.25867845466649,
positive,blue,2,k,None,0,0,0,0,,,,,0,0,0,0,,,,,0,4,4,14,,,,,,,,,,,,,,,,,,,,,,,,,,,,,,,,,,,,,prac,222.7745861000003,None,None,1,1.5128291999990324,None,1,,,,,,,,,,,,,,,,,,,,,,,,,,,,,,,,,,,,,,,,,,,,,,,,,,,,,,,,,,,,,,,,309,2022-10-05_13h58.54.932,Main,2022.2.2,60.25867845466649,
positive,red,1,None,None,0,0,0,0,,,,,0,0,0,0,,,,,0,5,5,13,,,,,,,,,,,,,,,,,,,,,,,,,,,,,,,,,,,,,prac,225.29444350000085,None,None,1,1.5111852999998518,None,1,,,,,,,,,,,,,,,,,,,,,,,,,,,,,,,,,,,,,,,,,,,,,,,,,,,,,,,,,,,,,,,,309,2022-10-05_13h58.54.932,Main,2022.2.2,60.25867845466649,
negative,red,1,None,None,0,0,0,0,,,,,0,0,0,0,,,,,0,6,6,7,,,,,,,,,,,,,,,,,,,,,,,,,,,,,,,,,,,,,prac,227.80678740000076,None,None,1,1.515661800000089,None,1,,,,,,,,,,,,,,,,,,,,,,,,,,,,,,,,,,,,,,,,,,,,,,,,,,,,,,,,,,,,,,,,309,2022-10-05_13h58.54.932,Main,2022.2.2,60.25867845466649,
negative,blue,1,None,k,0,0,0,0,,,,,0,0,0,0,,,,,0,7,7,16,,,,,,,,,,,,,,,,,,,,,,,,,,,,,,,,,,,,,prac,230.32496540000102,k,k,1,5.1962373000005755,None,0,,,,,,,,,,,,,,,,,,,,,,,,,,,,,,,,,,,,,,,,,,,,,,,,,,,,,,,,,,,,,,,,309,2022-10-05_13h58.54.932,Main,2022.2.2,60.25867845466649,
positive,blue,1,k,None,0,0,0,0,,,,,0,0,0,0,,,,,0,8,8,18,,,,,,,,,,,,,,,,,,,,,,,,,,,,,,,,,,,,,prac,237.55547579999984,None,None,1,1.5282509999997274,None,1,,,,,,,,,,,,,,,,,,,,,,,,,,,,,,,,,,,,,,,,,,,,,,,,,,,,,,,,,,,,,,,,309,2022-10-05_13h58.54.932,Main,2022.2.2,60.25867845466649,
positive,yellow,2,None,k,0,0,0,0,,,,,0,0,0,0,,,,,0,9,9,10,,,,,,,,,,,,,,,,,,,,,,,,,,,,,,,,,,,,,prac,240.0810033000016,k,k,1,1.050311099999817,None,0,,,,,,,,,,,,,,,,,,,,,,,,,,,,,,,,,,,,,,,,,,,,,,,,,,,,,,,,,,,,,,,,309,2022-10-05_13h58.54.932,Main,2022.2.2,60.25867845466649,
negative,blue,1,None,k,0,0,0,0,,,,,0,0,0,0,,,,,0,10,10,5,,,,,,,,,,,,,,,,,,,,,,,,,,,,,,,,,,,,,prac,242.133290400001,k,k,1,2.0072641000006115,None,0,,,,,,,,,,,,,,,,,,,,,,,,,,,,,,,,,,,,,,,,,,,,,,,,,,,,,,,,,,,,,,,,309,2022-10-05_13h58.54.932,Main,2022.2.2,60.25867845466649,
negative,yellow,1,k,None,0,0,0,0,,,,,0,0,0,0,,,,,0,11,11,0,,,,,,,,,,,,,,,,,,,,,,,,,,,,,,,,,,,,,prac,246.17292140000063,None,None,1,1.5226671999989776,None,1,,,,,,,,,,,,,,,,,,,,,,,,,,,,,,,,,,,,,,,,,,,,,,,,,,,,,,,,,,,,,,,,309,2022-10-05_13h58.54.932,Main,2022.2.2,60.25867845466649,
negative,yellow,1,k,None,0,0,0,0,,,,,0,0,0,0,,,,,0,12,12,9,,,,,,,,,,,,,,,,,,,,,,,,,,,,,,,,,,,,,prac,248.69354180000119,None,None,1,1.5170101000003342,None,1,,,,,,,,,,,,,,,,,,,,,,,,,,,,,,,,,,,,,,,,,,,,,,,,,,,,,,,,,,,,,,,,309,2022-10-05_13h58.54.932,Main,2022.2.2,60.25867845466649,
positive,yellow,2,None,k,0,0,0,0,,,,,0,0,0,0,,,,,0,13,13,8,,,,,,,,,,,,,,,,,,,,,,,,,,,,,,,,,,,,,prac,251.21908780000012,k,k,1,0.9477073999987624,None,0,,,,,,,,,,,,,,,,,,,,,,,,,,,,,,,,,,,,,,,,,,,,,,,,,,,,,,,,,,,,,,,,309,2022-10-05_13h58.54.932,Main,2022.2.2,60.25867845466649,
positive,red,2,None,None,0,0,0,0,,,,,0,0,0,0,,,,,0,14,14,1,,,,,,,,,,,,,,,,,,,,,,,,,,,,,,,,,,,,,prac,253.16435280000042,None,None,1,1.5187994000007166,None,1,,,,,,,,,,,,,,,,,,,,,,,,,,,,,,,,,,,,,,,,,,,,,,,,,,,,,,,,,,,,,,,,309,2022-10-05_13h58.54.932,Main,2022.2.2,60.25867845466649,
positive,blue,2,k,None,0,0,0,0,,,,,0,0,0,0,,,,,0,15,15,17,,,,,,,,,,,,,,,,,,,,,,,,,,,,,,,,,,,,,prac,255.6858736000013,None,None,1,1.5188376999994944,None,1,,,,,,,,,,,,,,,,,,,,,,,,,,,,,,,,,,,,,,,,,,,,,,,,,,,,,,,,,,,,,,,,309,2022-10-05_13h58.54.932,Main,2022.2.2,60.25867845466649,
negative,blue,2,None,k,0,0,0,0,,,,,0,0,0,0,,,,,0,16,16,4,,,,,,,,,,,,,,,,,,,,,,,,,,,,,,,,,,,,,prac,258.20548060000147,k,k,1,1.454563400000552,None,0,,,,,,,,,,,,,,,,,,,,,,,,,,,,,,,,,,,,,,,,,,,,,,,,,,,,,,,,,,,,,,,,309,2022-10-05_13h58.54.932,Main,2022.2.2,60.25867845466649,
positive,yellow,1,None,k,0,0,0,0,,,,,0,0,0,0,,,,,0,17,17,19,,,,,,,,,,,,,,,,,,,,,,,,,,,,,,,,,,,,,prac,260.6677885000008,k,k,1,1.1553183999985777,None,0,,,,,,,,,,,,,,,,,,,,,,,,,,,,,,,,,,,,,,,,,,,,,,,,,,,,,,,,,,,,,,,,309,2022-10-05_13h58.54.932,Main,2022.2.2,60.25867845466649,
negative,blue,2,None,k,0,0,0,0,,,,,0,0,0,0,,,,,0,18,18,2,,,,,,,,,,,,,,,,,,,,,,,,,,,,,,,,,,,,,prac,262.82827570000154,k,k,1,1.2989128999997774,None,0,,,,,,,,,,,,,,,,,,,,,,,,,,,,,,,,,,,,,,,,,,,,,,,,,,,,,,,,,,,,,,,,309,2022-10-05_13h58.54.932,Main,2022.2.2,60.25867845466649,
negative,yellow,2,k,None,0,0,0,0,,,,,0,0,0,0,,,,,0,19,19,11,,,,,,,,,,,,,,,,,,,,,,,,,,,,,,,,,,,,,prac,265.12220640000123,None,None,1,1.5168217999998888,None,1,,,,,,,,,,,,,,,,,,,,,,,,,,,,,,,,,,,,,,,,,,,,,,,,,,,,,,,,,,,,,,,,309,2022-10-05_13h58.54.932,Main,2022.2.2,60.25867845466649,
negative,blue,1,None,k,0,0,0,0,,,,,0,0,0,0,,,,,1,0,20,5,,,,,,,,,,,,,,,,,,,,,,,,,,,,,,,,,,,,,prac,267.64203930000076,k,k,1,1.6781611000005796,None,0,,,,,,,,,,,,,,,,,,,,,,,,,,,,,,,,,,,,,,,,,,,,,,,,,,,,,,,,,,,,,,,,309,2022-10-05_13h58.54.932,Main,2022.2.2,60.25867845466649,
positive,yellow,2,None,k,0,0,0,0,,,,,0,0,0,0,,,,,1,1,21,8,,,,,,,,,,,,,,,,,,,,,,,,,,,,,,,,,,,,,prac,271.3531804000013,k,k,1,0.948366000000533,None,0,,,,,,,,,,,,,,,,,,,,,,,,,,,,,,,,,,,,,,,,,,,,,,,,,,,,,,,,,,,,,,,,309,2022-10-05_13h58.54.932,Main,2022.2.2,60.25867845466649,
negative,red,1,None,None,0,0,0,0,,,,,0,0,0,0,,,,,1,2,22,7,,,,,,,,,,,,,,,,,,,,,,,,,,,,,,,,,,,,,prac,273.30677580000156,None,None,1,1.5159450999999535,None,1,,,,,,,,,,,,,,,,,,,,,,,,,,,,,,,,,,,,,,,,,,,,,,,,,,,,,,,,,,,,,,,,309,2022-10-05_13h58.54.932,Main,2022.2.2,60.25867845466649,
negative,blue,2,None,k,0,0,0,0,,,,,0,0,0,0,,,,,1,3,23,4,,,,,,,,,,,,,,,,,,,,,,,,,,,,,,,,,,,,,prac,275.83030710000094,k,k,1,1.9522355000008247,None,0,,,,,,,,,,,,,,,,,,,,,,,,,,,,,,,,,,,,,,,,,,,,,,,,,,,,,,,,,,,,,,,,309,2022-10-05_13h58.54.932,Main,2022.2.2,60.25867845466649,
positive,yellow,1,None,k,0,0,0,0,,,,,0,0,0,0,,,,,1,4,24,19,,,,,,,,,,,,,,,,,,,,,,,,,,,,,,,,,,,,,prac,279.82288380000136,k,k,1,1.3339211000002251,None,0,,,,,,,,,,,,,,,,,,,,,,,,,,,,,,,,,,,,,,,,,,,,,,,,,,,,,,,,,,,,,,,,309,2022-10-05_13h58.54.932,Main,2022.2.2,60.25867845466649,
negative,yellow,1,k,None,0,0,0,0,,,,,0,0,0,0,,,,,1,5,25,0,,,,,,,,,,,,,,,,,,,,,,,,,,,,,,,,,,,,,prac,282.1567915000014,None,None,1,1.5129402999991726,None,1,,,,,,,,,,,,,,,,,,,,,,,,,,,,,,,,,,,,,,,,,,,,,,,,,,,,,,,,,,,,,,,,309,2022-10-05_13h58.54.932,Main,2022.2.2,60.25867845466649,
negative,yellow,2,k,None,0,0,0,0,,,,,0,0,0,0,,,,,1,6,26,11,,,,,,,,,,,,,,,,,,,,,,,,,,,,,,,,,,,,,prac,284.677268200001,None,None,1,1.5282771999991382,None,1,,,,,,,,,,,,,,,,,,,,,,,,,,,,,,,,,,,,,,,,,,,,,,,,,,,,,,,,,,,,,,,,309,2022-10-05_13h58.54.932,Main,2022.2.2,60.25867845466649,
positive,blue,2,k,None,0,0,0,0,,,,,0,0,0,0,,,,,1,7,27,14,,,,,,,,,,,,,,,,,,,,,,,,,,,,,,,,,,,,,prac,287.20241950000127,None,None,1,1.5188103999989835,None,1,,,,,,,,,,,,,,,,,,,,,,,,,,,,,,,,,,,,,,,,,,,,,,,,,,,,,,,,,,,,,,,,309,2022-10-05_13h58.54.932,Main,2022.2.2,60.25867845466649,
negative,red,2,None,None,0,0,0,0,,,,,0,0,0,0,,,,,1,8,28,12,,,,,,,,,,,,,,,,,,,,,,,,,,,,,,,,,,,,,prac,289.7222771000015,None,None,1,1.5350282000017614,None,1,,,,,,,,,,,,,,,,,,,,,,,,,,,,,,,,,,,,,,,,,,,,,,,,,,,,,,,,,,,,,,,,309,2022-10-05_13h58.54.932,Main,2022.2.2,60.25867845466649,
positive,yellow,1,None,k,0,0,0,0,,,,,0,0,0,0,,,,,1,9,29,3,,,,,,,,,,,,,,,,,,,,,,,,,,,,,,,,,,,,,prac,292.25744769999983,k,k,1,0.8474538999998913,None,0,,,,,,,,,,,,,,,,,,,,,,,,,,,,,,,,,,,,,,,,,,,,,,,,,,,,,,,,,,,,,,,,309,2022-10-05_13h58.54.932,Main,2022.2.2,60.25867845466649,
positive,blue,1,k,None,0,0,0,0,,,,,0,0,0,0,,,,,1,10,30,18,,,,,,,,,,,,,,,,,,,,,,,,,,,,,,,,,,,,,prac,294.1083869000013,None,None,1,1.5319402999994054,None,1,,,,,,,,,,,,,,,,,,,,,,,,,,,,,,,,,,,,,,,,,,,,,,,,,,,,,,,,,,,,,,,,309,2022-10-05_13h58.54.932,Main,2022.2.2,60.25867845466649,
negative,blue,1,None,k,0,0,0,0,,,,,0,0,0,0,,,,,1,11,31,16,,,,,,,,,,,,,,,,,,,,,,,,,,,,,,,,,,,,,prac,296.6443405000009,k,k,1,0.9087579999995796,None,0,,,,,,,,,,,,,,,,,,,,,,,,,,,,,,,,,,,,,,,,,,,,,,,,,,,,,,,,,,,,,,,,309,2022-10-05_13h58.54.932,Main,2022.2.2,60.25867845466649,
positive,red,2,None,None,0,0,0,0,,,,,0,0,0,0,,,,,1,12,32,1,,,,,,,,,,,,,,,,,,,,,,,,,,,,,,,,,,,,,prac,298.55208100000164,None,None,1,1.5127197000001615,None,1,,,,,,,,,,,,,,,,,,,,,,,,,,,,,,,,,,,,,,,,,,,,,,,,,,,,,,,,,,,,,,,,309,2022-10-05_13h58.54.932,Main,2022.2.2,60.25867845466649,
positive,yellow,2,None,k,0,0,0,0,,,,,0,0,0,0,,,,,1,13,33,10,,,,,,,,,,,,,,,,,,,,,,,,,,,,,,,,,,,,,prac,301.06494720000046,k,k,1,1.3646644000000379,None,0,,,,,,,,,,,,,,,,,,,,,,,,,,,,,,,,,,,,,,,,,,,,,,,,,,,,,,,,,,,,,,,,309,2022-10-05_13h58.54.932,Main,2022.2.2,60.25867845466649,
negative,blue,2,None,k,0,0,0,0,,,,,0,0,0,0,,,,,1,14,34,2,,,,,,,,,,,,,,,,,,,,,,,,,,,,,,,,,,,,,prac,303.43253040000127,k,k,1,1.2462712000015017,None,0,,,,,,,,,,,,,,,,,,,,,,,,,,,,,,,,,,,,,,,,,,,,,,,,,,,,,,,,,,,,,,,,309,2022-10-05_13h58.54.932,Main,2022.2.2,60.25867845466649,
negative,yellow,1,k,None,0,0,0,0,,,,,0,0,0,0,,,,,1,15,35,9,,,,,,,,,,,,,,,,,,,,,,,,,,,,,,,,,,,,,prac,305.68031520000113,None,None,1,1.5120800999993662,None,1,,,,,,,,,,,,,,,,,,,,,,,,,,,,,,,,,,,,,,,,,,,,,,,,,,,,,,,,,,,,,,,,309,2022-10-05_13h58.54.932,Main,2022.2.2,60.25867845466649,
negative,yellow,2,k,None,0,0,0,0,,,,,0,0,0,0,,,,,1,16,36,6,,,,,,,,,,,,,,,,,,,,,,,,,,,,,,,,,,,,,prac,308.194668600001,None,None,1,1.5322829999986425,None,1,,,,,,,,,,,,,,,,,,,,,,,,,,,,,,,,,,,,,,,,,,,,,,,,,,,,,,,,,,,,,,,,309,2022-10-05_13h58.54.932,Main,2022.2.2,60.25867845466649,
positive,red,1,None,None,0,0,0,0,,,,,0,0,0,0,,,,,1,17,37,13,,,,,,,,,,,,,,,,,,,,,,,,,,,,,,,,,,,,,prac,310.73170949999985,None,None,1,1.5158009000006132,None,1,,,,,,,,,,,,,,,,,,,,,,,,,,,,,,,,,,,,,,,,,,,,,,,,,,,,,,,,,,,,,,,,309,2022-10-05_13h58.54.932,Main,2022.2.2,60.25867845466649,
positive,blue,1,k,None,0,0,0,0,,,,,0,0,0,0,,,,,1,18,38,15,,,,,,,,,,,,,,,,,,,,,,,,,,,,,,,,,,,,,prac,313.24856499999987,None,None,1,1.5274986000003992,None,1,,,,,,,,,,,,,,,,,,,,,,,,,,,,,,,,,,,,,,,,,,,,,,,,,,,,,,,,,,,,,,,,309,2022-10-05_13h58.54.932,Main,2022.2.2,60.25867845466649,
positive,blue,2,k,None,0,0,0,0,,,,,0,0,0,0,,,,,1,19,39,17,,,,,,,,,,,,,,,,,,,,,,,,,,,,,,,,,,,,,prac,315.7775608000011,None,None,1,1.5249286999987817,None,1,,,,,,,,,,,,,,,,,,,,,,,,,,,,,,,,,,,,,,,,,,,,,,,,,,,,,,,,,,,,,,,,309,2022-10-05_13h58.54.932,Main,2022.2.2,60.25867845466649,
negative,blue,1,None,k,0,0,0,0,,,,,0,0,0,0,,,,,,,,,0,0,0,182,,,,,,,,,,,,,,,,,,,,,,,,,,,,,,,325.7885634000013,325.7885634000013,main,327.8802286000009,k,k,1,1.0590524999988702,None,0,318.3239231000007,318.3239231000007,0.00018490000002202578,-0.22592592592592592,-0.02962962962962963,0,0,0,,,,,,,,,,,,,,,,,,,,,,,,,,,,,,,,,,,,,,,,,,,,,,,,,,,,,,,,309,2022-10-05_13h58.54.932,Main,2022.2.2,60.25867845466649,
negative,blue,2,None,k,0,0,0,0,,,,,0,0,0,0,,,,,,,,,0,1,1,145,,,,,,,,,,,,,,,,,,,,,,,,,,,,,,,,,main,329.94584710000163,k,k,1,1.531567100000757,None,0,,,,,,,,,,,,,,,,,,,,,,,,,,,,,,,,,,,,,,,,,,,,,,,,,,,,,,,,,,,,,,,,309,2022-10-05_13h58.54.932,Main,2022.2.2,60.25867845466649,
positive,red,1,None,None,0,0,0,0,,,,,0,0,0,0,,,,,,,,,0,2,2,29,,,,,,,,,,,,,,,,,,,,,,,,,,,,,,,,,main,333.48867380000047,None,None,1,1.5134047000010469,None,1,,,,,,,,,,,,,,,,,,,,,,,,,,,,,,,,,,,,,,,,,,,,,,,,,,,,,,,,,,,,,,,,309,2022-10-05_13h58.54.932,Main,2022.2.2,60.25867845466649,
positive,yellow,1,None,k,0,0,0,0,,,,,0,0,0,0,,,,,,,,,0,3,3,118,,,,,,,,,,,,,,,,,,,,,,,,,,,,,,,,,main,336.00647110000136,k,k,1,1.0616882999984227,None,0,,,,,,,,,,,,,,,,,,,,,,,,,,,,,,,,,,,,,,,,,,,,,,,,,,,,,,,,,,,,,,,,309,2022-10-05_13h58.54.932,Main,2022.2.2,60.25867845466649,
negative,yellow,2,k,None,0,0,0,0,,,,,0,0,0,0,,,,,,,,,0,4,4,202,,,,,,,,,,,,,,,,,,,,,,,,,,,,,,,,,main,338.07272660000126,None,None,1,1.5310427999993408,None,1,,,,,,,,,,,,,,,,,,,,,,,,,,,,,,,,,,,,,,,,,,,,,,,,,,,,,,,,,,,,,,,,309,2022-10-05_13h58.54.932,Main,2022.2.2,60.25867845466649,
positive,red,2,None,None,0,0,0,0,,,,,0,0,0,0,,,,,,,,,0,5,5,219,,,,,,,,,,,,,,,,,,,,,,,,,,,,,,,,,main,340.6037423000016,None,None,1,1.5342185999998037,None,1,,,,,,,,,,,,,,,,,,,,,,,,,,,,,,,,,,,,,,,,,,,,,,,,,,,,,,,,,,,,,,,,309,2022-10-05_13h58.54.932,Main,2022.2.2,60.25867845466649,
positive,blue,1,k,None,0,0,0,0,,,,,0,0,0,0,,,,,,,,,0,6,6,147,,,,,,,,,,,,,,,,,,,,,,,,,,,,,,,,,main,343.14428430000044,None,None,1,1.5184172000008402,None,1,,,,,,,,,,,,,,,,,,,,,,,,,,,,,,,,,,,,,,,,,,,,,,,,,,,,,,,,,,,,,,,,309,2022-10-05_13h58.54.932,Main,2022.2.2,60.25867845466649,
negative,yellow,1,k,None,0,0,0,0,,,,,0,0,0,0,,,,,,,,,0,7,7,163,,,,,,,,,,,,,,,,,,,,,,,,,,,,,,,,,main,345.6658744000015,None,None,1,1.5304562999990594,None,1,,,,,,,,,,,,,,,,,,,,,,,,,,,,,,,,,,,,,,,,,,,,,,,,,,,,,,,,,,,,,,,,309,2022-10-05_13h58.54.932,Main,2022.2.2,60.25867845466649,
positive,blue,1,k,None,0,0,0,0,,,,,0,0,0,0,,,,,,,,,0,8,8,105,,,,,,,,,,,,,,,,,,,,,,,,,,,,,,,,,main,348.19946979999986,None,None,1,1.5110917000001791,None,1,,,,,,,,,,,,,,,,,,,,,,,,,,,,,,,,,,,,,,,,,,,,,,,,,,,,,,,,,,,,,,,,309,2022-10-05_13h58.54.932,Main,2022.2.2,60.25867845466649,
negative,yellow,1,k,None,0,0,0,0,,,,,0,0,0,0,,,,,,,,,0,9,9,45,,,,,,,,,,,,,,,,,,,,,,,,,,,,,,,,,main,350.7181725999999,None,k,0,1.51640579999912,None,1,,,,,,,,,,,,,,,,,,,,,,,,,,,,,,,,,,,,,,,,,,,,,,,,,,,,,,,,,,,,,,,,309,2022-10-05_13h58.54.932,Main,2022.2.2,60.25867845466649,
positive,yellow,1,None,k,0,0,0,0,,,,,0,0,0,0,,,,,,,,,0,10,10,55,,,,,,,,,,,,,,,,,,,,,,,,,,,,,,,,,main,354.26890230000026,k,k,1,5.4019581000011385,None,0,,,,,,,,,,,,,,,,,,,,,,,,,,,,,,,,,,,,,,,,,,,,,,,,,,,,,,,,,,,,,,,,309,2022-10-05_13h58.54.932,Main,2022.2.2,60.25867845466649,
negative,yellow,2,k,None,0,0,0,0,,,,,0,0,0,0,,,,,,,,,0,11,11,124,,,,,,,,,,,,,,,,,,,,,,,,,,,,,,,,,main,361.7100919000004,None,None,1,1.5099370999996609,None,1,,,,,,,,,,,,,,,,,,,,,,,,,,,,,,,,,,,,,,,,,,,,,,,,,,,,,,,,,,,,,,,,309,2022-10-05_13h58.54.932,Main,2022.2.2,60.25867845466649,
negative,blue,1,None,k,0,0,0,0,,,,,0,0,0,0,,,,,,,,,0,12,12,218,,,,,,,,,,,,,,,,,,,,,,,,,,,,,,,,,main,364.2234556000003,k,k,1,1.373377600000822,None,0,,,,,,,,,,,,,,,,,,,,,,,,,,,,,,,,,,,,,,,,,,,,,,,,,,,,,,,,,,,,,,,,309,2022-10-05_13h58.54.932,Main,2022.2.2,60.25867845466649,
negative,yellow,1,k,None,0,0,0,0,,,,,0,0,0,0,,,,,,,,,0,13,13,35,,,,,,,,,,,,,,,,,,,,,,,,,,,,,,,,,main,366.6029737000008,None,None,1,1.534886400000687,None,1,,,,,,,,,,,,,,,,,,,,,,,,,,,,,,,,,,,,,,,,,,,,,,,,,,,,,,,,,,,,,,,,309,2022-10-05_13h58.54.932,Main,2022.2.2,60.25867845466649,
positive,red,2,None,None,0,0,0,0,,,,,0,0,0,0,,,,,,,,,0,14,14,80,,,,,,,,,,,,,,,,,,,,,,,,,,,,,,,,,main,369.1433749000007,None,None,1,1.5098515999998199,None,1,,,,,,,,,,,,,,,,,,,,,,,,,,,,,,,,,,,,,,,,,,,,,,,,,,,,,,,,,,,,,,,,309,2022-10-05_13h58.54.932,Main,2022.2.2,60.25867845466649,
negative,red,1,None,None,0,0,0,0,,,,,0,0,0,0,,,,,,,,,0,15,15,9,,,,,,,,,,,,,,,,,,,,,,,,,,,,,,,,,main,371.6524008000015,None,None,1,1.5190322999987984,None,1,,,,,,,,,,,,,,,,,,,,,,,,,,,,,,,,,,,,,,,,,,,,,,,,,,,,,,,,,,,,,,,,309,2022-10-05_13h58.54.932,Main,2022.2.2,60.25867845466649,
negative,red,1,None,None,0,0,0,0,,,,,0,0,0,0,,,,,,,,,0,16,16,44,,,,,,,,,,,,,,,,,,,,,,,,,,,,,,,,,main,374.18141220000143,None,None,1,1.5298093000001245,None,1,,,,,,,,,,,,,,,,,,,,,,,,,,,,,,,,,,,,,,,,,,,,,,,,,,,,,,,,,,,,,,,,309,2022-10-05_13h58.54.932,Main,2022.2.2,60.25867845466649,
negative,red,1,None,None,0,0,0,0,,,,,0,0,0,0,,,,,,,,,0,17,17,181,,,,,,,,,,,,,,,,,,,,,,,,,,,,,,,,,main,376.7087554000009,None,None,1,1.5271393000002718,None,1,,,,,,,,,,,,,,,,,,,,,,,,,,,,,,,,,,,,,,,,,,,,,,,,,,,,,,,,,,,,,,,,309,2022-10-05_13h58.54.932,Main,2022.2.2,60.25867845466649,
negative,red,2,None,None,0,0,0,0,,,,,0,0,0,0,,,,,,,,,0,18,18,54,,,,,,,,,,,,,,,,,,,,,,,,,,,,,,,,,main,379.24165750000066,None,None,1,1.53039759999956,None,1,,,,,,,,,,,,,,,,,,,,,,,,,,,,,,,,,,,,,,,,,,,,,,,,,,,,,,,,,,,,,,,,309,2022-10-05_13h58.54.932,Main,2022.2.2,60.25867845466649,
negative,blue,2,None,k,0,0,0,0,,,,,0,0,0,0,,,,,,,,,0,19,19,76,,,,,,,,,,,,,,,,,,,,,,,,,,,,,,,,,main,381.7795311000009,k,k,1,1.6994045999999798,None,0,,,,,,,,,,,,,,,,,,,,,,,,,,,,,,,,,,,,,,,,,,,,,,,,,,,,,,,,,,,,,,,,309,2022-10-05_13h58.54.932,Main,2022.2.2,60.25867845466649,
positive,blue,2,k,None,0,0,0,0,,,,,0,0,0,0,,,,,,,,,0,20,20,74,,,,,,,,,,,,,,,,,,,,,,,,,,,,,,,,,main,385.4935077000009,None,None,1,1.5086525999995501,None,1,,,,,,,,,,,,,,,,,,,,,,,,,,,,,,,,,,,,,,,,,,,,,,,,,,,,,,,,,,,,,,,,309,2022-10-05_13h58.54.932,Main,2022.2.2,60.25867845466649,
negative,yellow,2,k,None,0,0,0,0,,,,,0,0,0,0,,,,,,,,,0,21,21,190,,,,,,,,,,,,,,,,,,,,,,,,,,,,,,,,,main,388.00369110000065,None,None,1,1.519694900000104,None,1,,,,,,,,,,,,,,,,,,,,,,,,,,,,,,,,,,,,,,,,,,,,,,,,,,,,,,,,,,,,,,,,309,2022-10-05_13h58.54.932,Main,2022.2.2,60.25867845466649,
negative,yellow,2,k,None,0,0,0,0,,,,,0,0,0,0,,,,,,,,,0,22,22,144,,,,,,,,,,,,,,,,,,,,,,,,,,,,,,,,,main,390.5300145000001,None,None,1,1.553515100000368,None,1,,,,,,,,,,,,,,,,,,,,,,,,,,,,,,,,,,,,,,,,,,,,,,,,,,,,,,,,,,,,,,,,309,2022-10-05_13h58.54.932,Main,2022.2.2,60.25867845466649,
negative,yellow,2,k,None,0,0,0,0,,,,,0,0,0,0,,,,,,,,,0,23,23,70,,,,,,,,,,,,,,,,,,,,,,,,,,,,,,,,,main,393.0855105999999,None,None,1,1.5086933000002318,None,1,,,,,,,,,,,,,,,,,,,,,,,,,,,,,,,,,,,,,,,,,,,,,,,,,,,,,,,,,,,,,,,,309,2022-10-05_13h58.54.932,Main,2022.2.2,60.25867845466649,
positive,red,2,None,None,0,0,0,0,,,,,0,0,0,0,,,,,,,,,0,24,24,119,,,,,,,,,,,,,,,,,,,,,,,,,,,,,,,,,main,395.60174350000125,None,None,1,1.5275523000000248,None,1,,,,,,,,,,,,,,,,,,,,,,,,,,,,,,,,,,,,,,,,,,,,,,,,,,,,,,,,,,,,,,,,309,2022-10-05_13h58.54.932,Main,2022.2.2,60.25867845466649,
negative,yellow,2,k,None,0,0,0,0,,,,,0,0,0,0,,,,,,,,,0,25,25,83,,,,,,,,,,,,,,,,,,,,,,,,,,,,,,,,,main,398.13200440000037,None,None,1,1.5221337000002677,None,1,,,,,,,,,,,,,,,,,,,,,,,,,,,,,,,,,,,,,,,,,,,,,,,,,,,,,,,,,,,,,,,,309,2022-10-05_13h58.54.932,Main,2022.2.2,60.25867845466649,
negative,red,2,None,None,0,0,0,0,,,,,0,0,0,0,,,,,,,,,0,26,26,13,,,,,,,,,,,,,,,,,,,,,,,,,,,,,,,,,main,400.65430840000045,None,None,1,1.5163233999992372,None,1,,,,,,,,,,,,,,,,,,,,,,,,,,,,,,,,,,,,,,,,,,,,,,,,,,,,,,,,,,,,,,,,309,2022-10-05_13h58.54.932,Main,2022.2.2,60.25867845466649,
positive,red,1,None,None,0,0,0,0,,,,,0,0,0,0,,,,,,,,,0,27,27,236,,,,,,,,,,,,,,,,,,,,,,,,,,,,,,,,,main,403.1771959000016,None,None,1,1.5165192000004026,None,1,,,,,,,,,,,,,,,,,,,,,,,,,,,,,,,,,,,,,,,,,,,,,,,,,,,,,,,,,,,,,,,,309,2022-10-05_13h58.54.932,Main,2022.2.2,60.25867845466649,
positive,blue,2,k,None,0,0,0,0,,,,,0,0,0,0,,,,,,,,,0,28,28,41,,,,,,,,,,,,,,,,,,,,,,,,,,,,,,,,,main,405.6953598,None,None,1,1.5138724999997066,None,1,,,,,,,,,,,,,,,,,,,,,,,,,,,,,,,,,,,,,,,,,,,,,,,,,,,,,,,,,,,,,,,,309,2022-10-05_13h58.54.932,Main,2022.2.2,60.25867845466649,
positive,yellow,1,None,k,0,0,0,0,,,,,0,0,0,0,,,,,,,,,0,29,29,230,,,,,,,,,,,,,,,,,,,,,,,,,,,,,,,,,main,408.2141595000012,k,k,1,1.7276311999994505,None,0,,,,,,,,,,,,,,,,,,,,,,,,,,,,,,,,,,,,,,,,,,,,,,,,,,,,,,,,,,,,,,,,309,2022-10-05_13h58.54.932,Main,2022.2.2,60.25867845466649,
positive,yellow,1,None,k,0,0,0,0,,,,,0,0,0,0,,,,,,,,,0,30,30,8,,,,,,,,,,,,,,,,,,,,,,,,,,,,,,,,,main,411.9521910000003,k,k,1,1.0979411999996955,None,0,,,,,,,,,,,,,,,,,,,,,,,,,,,,,,,,,,,,,,,,,,,,,,,,,,,,,,,,,,,,,,,,309,2022-10-05_13h58.54.932,Main,2022.2.2,60.25867845466649,
positive,yellow,1,None,k,0,0,0,0,,,,,0,0,0,0,,,,,,,,,0,31,31,185,,,,,,,,,,,,,,,,,,,,,,,,,,,,,,,,,main,414.0512226999999,k,k,1,0.9058225000007951,None,0,,,,,,,,,,,,,,,,,,,,,,,,,,,,,,,,,,,,,,,,,,,,,,,,,,,,,,,,,,,,,,,,309,2022-10-05_13h58.54.932,Main,2022.2.2,60.25867845466649,
positive,blue,2,k,None,0,0,0,0,,,,,0,0,0,0,,,,,,,,,0,32,32,106,,,,,,,,,,,,,,,,,,,,,,,,,,,,,,,,,main,415.96087480000097,None,None,1,1.5129548000004434,None,1,,,,,,,,,,,,,,,,,,,,,,,,,,,,,,,,,,,,,,,,,,,,,,,,,,,,,,,,,,,,,,,,309,2022-10-05_13h58.54.932,Main,2022.2.2,60.25867845466649,
positive,blue,1,k,None,0,0,0,0,,,,,0,0,0,0,,,,,,,,,0,33,33,82,,,,,,,,,,,,,,,,,,,,,,,,,,,,,,,,,main,418.4788644,None,None,1,1.532756700000391,None,1,,,,,,,,,,,,,,,,,,,,,,,,,,,,,,,,,,,,,,,,,,,,,,,,,,,,,,,,,,,,,,,,309,2022-10-05_13h58.54.932,Main,2022.2.2,60.25867845466649,
positive,blue,2,k,None,0,0,0,0,,,,,0,0,0,0,,,,,,,,,0,34,34,27,,,,,,,,,,,,,,,,,,,,,,,,,,,,,,,,,main,421.01621850000083,None,None,1,1.5255665999993653,None,1,,,,,,,,,,,,,,,,,,,,,,,,,,,,,,,,,,,,,,,,,,,,,,,,,,,,,,,,,,,,,,,,309,2022-10-05_13h58.54.932,Main,2022.2.2,60.25867845466649,
negative,yellow,1,k,None,0,0,0,0,,,,,0,0,0,0,,,,,,,,,0,35,35,98,,,,,,,,,,,,,,,,,,,,,,,,,,,,,,,,,main,423.54330310000114,None,None,1,1.5092496999986906,None,1,,,,,,,,,,,,,,,,,,,,,,,,,,,,,,,,,,,,,,,,,,,,,,,,,,,,,,,,,,,,,,,,309,2022-10-05_13h58.54.932,Main,2022.2.2,60.25867845466649,
positive,blue,2,k,None,0,0,0,0,,,,,0,0,0,0,,,,,,,,,0,36,36,25,,,,,,,,,,,,,,,,,,,,,,,,,,,,,,,,,main,426.05680010000106,None,None,1,1.5337270999989414,None,1,,,,,,,,,,,,,,,,,,,,,,,,,,,,,,,,,,,,,,,,,,,,,,,,,,,,,,,,,,,,,,,,309,2022-10-05_13h58.54.932,Main,2022.2.2,60.25867845466649,
positive,blue,1,k,None,0,0,0,0,,,,,0,0,0,0,,,,,,,,,0,37,37,100,,,,,,,,,,,,,,,,,,,,,,,,,,,,,,,,,main,428.59333510000033,None,None,1,1.5071174000004248,None,1,,,,,,,,,,,,,,,,,,,,,,,,,,,,,,,,,,,,,,,,,,,,,,,,,,,,,,,,,,,,,,,,309,2022-10-05_13h58.54.932,Main,2022.2.2,60.25867845466649,
positive,blue,2,k,None,0,0,0,0,,,,,0,0,0,0,,,,,,,,,0,38,38,17,,,,,,,,,,,,,,,,,,,,,,,,,,,,,,,,,main,431.1044959999999,None,None,1,1.5124650999987352,None,1,,,,,,,,,,,,,,,,,,,,,,,,,,,,,,,,,,,,,,,,,,,,,,,,,,,,,,,,,,,,,,,,309,2022-10-05_13h58.54.932,Main,2022.2.2,60.25867845466649,
negative,yellow,2,k,None,0,0,0,0,,,,,0,0,0,0,,,,,,,,,0,39,39,135,,,,,,,,,,,,,,,,,,,,,,,,,,,,,,,,,main,433.6168410999999,None,None,1,1.5298698999995395,None,1,,,,,,,,,,,,,,,,,,,,,,,,,,,,,,,,,,,,,,,,,,,,,,,,,,,,,,,,,,,,,,,,309,2022-10-05_13h58.54.932,Main,2022.2.2,60.25867845466649,
negative,red,2,None,None,0,0,0,0,,,,,0,0,0,0,,,,,,,,,0,40,40,194,,,,,,,,,,,,,,,,,,,,,,,,,,,,,,,,,main,436.15139080000154,None,None,1,1.5118628000000172,None,1,,,,,,,,,,,,,,,,,,,,,,,,,,,,,,,,,,,,,,,,,,,,,,,,,,,,,,,,,,,,,,,,309,2022-10-05_13h58.54.932,Main,2022.2.2,60.25867845466649,
negative,red,1,None,None,0,0,0,0,,,,,0,0,0,0,,,,,,,,,0,41,41,22,,,,,,,,,,,,,,,,,,,,,,,,,,,,,,,,,main,438.66486729999997,None,None,1,1.5236383999999816,None,1,,,,,,,,,,,,,,,,,,,,,,,,,,,,,,,,,,,,,,,,,,,,,,,,,,,,,,,,,,,,,,,,309,2022-10-05_13h58.54.932,Main,2022.2.2,60.25867845466649,
positive,yellow,2,None,k,0,0,0,0,,,,,0,0,0,0,,,,,,,,,0,42,42,81,,,,,,,,,,,,,,,,,,,,,,,,,,,,,,,,,main,441.19289370000115,k,k,1,2.4109325999997964,None,0,,,,,,,,,,,,,,,,,,,,,,,,,,,,,,,,,,,,,,,,,,,,,,,,,,,,,,,,,,,,,,,,309,2022-10-05_13h58.54.932,Main,2022.2.2,60.25867845466649,
negative,yellow,2,k,None,0,0,0,0,,,,,0,0,0,0,,,,,,,,,0,43,43,151,,,,,,,,,,,,,,,,,,,,,,,,,,,,,,,,,main,445.6187958999999,None,None,1,1.5299362000005203,None,1,,,,,,,,,,,,,,,,,,,,,,,,,,,,,,,,,,,,,,,,,,,,,,,,,,,,,,,,,,,,,,,,309,2022-10-05_13h58.54.932,Main,2022.2.2,60.25867845466649,
negative,yellow,1,k,None,0,0,0,0,,,,,0,0,0,0,,,,,,,,,0,44,44,46,,,,,,,,,,,,,,,,,,,,,,,,,,,,,,,,,main,448.1484324000012,None,None,1,1.5301137999995262,None,1,,,,,,,,,,,,,,,,,,,,,,,,,,,,,,,,,,,,,,,,,,,,,,,,,,,,,,,,,,,,,,,,309,2022-10-05_13h58.54.932,Main,2022.2.2,60.25867845466649,
negative,blue,2,None,k,0,0,0,0,,,,,0,0,0,0,,,,,,,,,0,45,45,21,,,,,,,,,,,,,,,,,,,,,,,,,,,,,,,,,main,450.6838936000004,k,k,1,0.9456215000009252,None,0,,,,,,,,,,,,,,,,,,,,,,,,,,,,,,,,,,,,,,,,,,,,,,,,,,,,,,,,,,,,,,,,309,2022-10-05_13h58.54.932,Main,2022.2.2,60.25867845466649,
positive,blue,2,k,None,0,0,0,0,,,,,0,0,0,0,,,,,,,,,0,46,46,172,,,,,,,,,,,,,,,,,,,,,,,,,,,,,,,,,main,452.63389050000114,None,None,1,1.5246093000005203,None,1,,,,,,,,,,,,,,,,,,,,,,,,,,,,,,,,,,,,,,,,,,,,,,,,,,,,,,,,,,,,,,,,309,2022-10-05_13h58.54.932,Main,2022.2.2,60.25867845466649,
positive,blue,2,k,None,0,0,0,0,,,,,0,0,0,0,,,,,,,,,0,47,47,192,,,,,,,,,,,,,,,,,,,,,,,,,,,,,,,,,main,455.1567611999999,None,None,1,1.514089199999944,None,1,,,,,,,,,,,,,,,,,,,,,,,,,,,,,,,,,,,,,,,,,,,,,,,,,,,,,,,,,,,,,,,,309,2022-10-05_13h58.54.932,Main,2022.2.2,60.25867845466649,
negative,blue,1,None,k,0,0,0,0,,,,,0,0,0,0,,,,,,,,,0,48,48,112,,,,,,,,,,,,,,,,,,,,,,,,,,,,,,,,,main,457.67769560000124,k,k,1,1.2255186999991565,None,0,,,,,,,,,,,,,,,,,,,,,,,,,,,,,,,,,,,,,,,,,,,,,,,,,,,,,,,,,,,,,,,,309,2022-10-05_13h58.54.932,Main,2022.2.2,60.25867845466649,
positive,blue,1,k,None,0,0,0,0,,,,,0,0,0,0,,,,,,,,,0,49,49,221,,,,,,,,,,,,,,,,,,,,,,,,,,,,,,,,,main,459.91321920000155,None,None,1,1.5311184000001958,None,1,,,,,,,,,,,,,,,,,,,,,,,,,,,,,,,,,,,,,,,,,,,,,,,,,,,,,,,,,,,,,,,,309,2022-10-05_13h58.54.932,Main,2022.2.2,60.25867845466649,
negative,yellow,1,k,None,0,0,0,0,,,,,0,0,0,0,,,,,,,,,0,50,50,101,,,,,,,,,,,,,,,,,,,,,,,,,,,,,,,,,main,462.44234719999986,None,None,1,1.5103920999990805,None,1,,,,,,,,,,,,,,,,,,,,,,,,,,,,,,,,,,,,,,,,,,,,,,,,,,,,,,,,,,,,,,,,309,2022-10-05_13h58.54.932,Main,2022.2.2,60.25867845466649,
positive,yellow,2,None,k,0,0,0,0,,,,,0,0,0,0,,,,,,,,,0,51,51,104,,,,,,,,,,,,,,,,,,,,,,,,,,,,,,,,,main,464.9555033000015,k,k,1,1.085710299999846,None,0,,,,,,,,,,,,,,,,,,,,,,,,,,,,,,,,,,,,,,,,,,,,,,,,,,,,,,,,,,,,,,,,309,2022-10-05_13h58.54.932,Main,2022.2.2,60.25867845466649,
positive,blue,1,k,None,0,0,0,0,,,,,0,0,0,0,,,,,,,,,0,52,52,187,,,,,,,,,,,,,,,,,,,,,,,,,,,,,,,,,main,467.0443337000015,None,None,1,1.53179099999943,None,1,,,,,,,,,,,,,,,,,,,,,,,,,,,,,,,,,,,,,,,,,,,,,,,,,,,,,,,,,,,,,,,,309,2022-10-05_13h58.54.932,Main,2022.2.2,60.25867845466649,
negative,blue,1,None,k,0,0,0,0,,,,,0,0,0,0,,,,,,,,,0,53,53,131,,,,,,,,,,,,,,,,,,,,,,,,,,,,,,,,,main,469.58262820000164,k,k,1,1.0202593999983947,None,0,,,,,,,,,,,,,,,,,,,,,,,,,,,,,,,,,,,,,,,,,,,,,,,,,,,,,,,,,,,,,,,,309,2022-10-05_13h58.54.932,Main,2022.2.2,60.25867845466649,
negative,yellow,1,k,None,0,0,0,0,,,,,0,0,0,0,,,,,,,,,0,54,54,159,,,,,,,,,,,,,,,,,,,,,,,,,,,,,,,,,main,471.6009245000005,None,None,1,1.523172400000476,None,1,,,,,,,,,,,,,,,,,,,,,,,,,,,,,,,,,,,,,,,,,,,,,,,,,,,,,,,,,,,,,,,,309,2022-10-05_13h58.54.932,Main,2022.2.2,60.25867845466649,
positive,yellow,1,None,k,0,0,0,0,,,,,0,0,0,0,,,,,,,,,0,55,55,148,,,,,,,,,,,,,,,,,,,,,,,,,,,,,,,,,main,474.13024270000096,k,k,1,1.043885400000363,None,0,,,,,,,,,,,,,,,,,,,,,,,,,,,,,,,,,,,,,,,,,,,,,,,,,,,,,,,,,,,,,,,,309,2022-10-05_13h58.54.932,Main,2022.2.2,60.25867845466649,
negative,red,2,None,None,0,0,0,0,,,,,0,0,0,0,,,,,,,,,0,56,56,123,,,,,,,,,,,,,,,,,,,,,,,,,,,,,,,,,main,476.1794348000003,None,None,1,1.530849800001306,None,1,,,,,,,,,,,,,,,,,,,,,,,,,,,,,,,,,,,,,,,,,,,,,,,,,,,,,,,,,,,,,,,,309,2022-10-05_13h58.54.932,Main,2022.2.2,60.25867845466649,
positive,blue,1,k,None,0,0,0,0,,,,,0,0,0,0,,,,,,,,,0,57,57,87,,,,,,,,,,,,,,,,,,,,,,,,,,,,,,,,,main,478.7083864000015,None,None,1,1.5188550999992003,None,1,,,,,,,,,,,,,,,,,,,,,,,,,,,,,,,,,,,,,,,,,,,,,,,,,,,,,,,,,,,,,,,,309,2022-10-05_13h58.54.932,Main,2022.2.2,60.25867845466649,
negative,blue,1,None,k,0,0,0,0,,,,,0,0,0,0,,,,,,,,,0,58,58,72,,,,,,,,,,,,,,,,,,,,,,,,,,,,,,,,,main,481.2287105000014,k,k,1,0.9522398000008252,None,0,,,,,,,,,,,,,,,,,,,,,,,,,,,,,,,,,,,,,,,,,,,,,,,,,,,,,,,,,,,,,,,,309,2022-10-05_13h58.54.932,Main,2022.2.2,60.25867845466649,
negative,blue,1,None,k,0,0,0,0,,,,,0,0,0,0,,,,,,,,,0,59,59,63,,,,,,,,,,,,,,,,,,,,,,,,,,,,,,,,,main,483.1886379000007,k,k,1,1.5987206999998307,None,0,,,,,,,,,,,,,,,,,,,,,,,,,,,,,,,,,,,,,,,,,,,,,,,,,,,,,,,,,,,,,,,,309,2022-10-05_13h58.54.932,Main,2022.2.2,60.25867845466649,
positive,blue,2,k,None,0,0,0,0,,,,,0,0,0,0,,,,,,,,,0,60,60,84,,,,,,,,,,,,,,,,,,,,,,,,,,,,,,,,,main,486.81841650000024,None,None,1,1.5096685999997135,None,1,,,,,,,,,,,,,,,,,,,,,,,,,,,,,,,,,,,,,,,,,,,,,,,,,,,,,,,,,,,,,,,,309,2022-10-05_13h58.54.932,Main,2022.2.2,60.25867845466649,
positive,blue,2,k,None,0,0,0,0,,,,,0,0,0,0,,,,,,,,,0,61,61,86,,,,,,,,,,,,,,,,,,,,,,,,,,,,,,,,,main,489.33277030000136,None,None,1,1.5083447999986674,None,1,,,,,,,,,,,,,,,,,,,,,,,,,,,,,,,,,,,,,,,,,,,,,,,,,,,,,,,,,,,,,,,,309,2022-10-05_13h58.54.932,Main,2022.2.2,60.25867845466649,
negative,blue,1,None,k,0,0,0,0,,,,,0,0,0,0,,,,,,,,,0,62,62,238,,,,,,,,,,,,,,,,,,,,,,,,,,,,,,,,,main,491.846717800001,k,k,1,0.9772839000015665,None,0,,,,,,,,,,,,,,,,,,,,,,,,,,,,,,,,,,,,,,,,,,,,,,,,,,,,,,,,,,,,,,,,309,2022-10-05_13h58.54.932,Main,2022.2.2,60.25867845466649,
positive,blue,1,k,None,0,0,0,0,,,,,0,0,0,0,,,,,,,,,0,63,63,239,,,,,,,,,,,,,,,,,,,,,,,,,,,,,,,,,main,493.8314946999999,None,None,1,1.5154579000009107,None,1,,,,,,,,,,,,,,,,,,,,,,,,,,,,,,,,,,,,,,,,,,,,,,,,,,,,,,,,,,,,,,,,309,2022-10-05_13h58.54.932,Main,2022.2.2,60.25867845466649,
negative,blue,2,None,k,0,0,0,0,,,,,0,0,0,0,,,,,,,,,0,64,64,56,,,,,,,,,,,,,,,,,,,,,,,,,,,,,,,,,main,496.34545230000003,k,k,1,0.9320499000004929,None,0,,,,,,,,,,,,,,,,,,,,,,,,,,,,,,,,,,,,,,,,,,,,,,,,,,,,,,,,,,,,,,,,309,2022-10-05_13h58.54.932,Main,2022.2.2,60.25867845466649,
negative,red,2,None,None,0,0,0,0,,,,,0,0,0,0,,,,,,,,,0,65,65,116,,,,,,,,,,,,,,,,,,,,,,,,,,,,,,,,,main,498.28512690000025,None,None,1,1.5075888999999734,None,1,,,,,,,,,,,,,,,,,,,,,,,,,,,,,,,,,,,,,,,,,,,,,,,,,,,,,,,,,,,,,,,,309,2022-10-05_13h58.54.932,Main,2022.2.2,60.25867845466649,
positive,red,2,None,None,0,0,0,0,,,,,0,0,0,0,,,,,,,,,0,66,66,156,,,,,,,,,,,,,,,,,,,,,,,,,,,,,,,,,main,500.7887346000007,None,None,1,1.5122920000012527,None,1,,,,,,,,,,,,,,,,,,,,,,,,,,,,,,,,,,,,,,,,,,,,,,,,,,,,,,,,,,,,,,,,309,2022-10-05_13h58.54.932,Main,2022.2.2,60.25867845466649,
negative,yellow,2,k,None,0,0,0,0,,,,,0,0,0,0,,,,,,,,,0,67,67,235,,,,,,,,,,,,,,,,,,,,,,,,,,,,,,,,,main,503.30449039999985,None,None,1,1.527796500000477,None,1,,,,,,,,,,,,,,,,,,,,,,,,,,,,,,,,,,,,,,,,,,,,,,,,,,,,,,,,,,,,,,,,309,2022-10-05_13h58.54.932,Main,2022.2.2,60.25867845466649,
positive,red,2,None,None,0,0,0,0,,,,,0,0,0,0,,,,,,,,,0,68,68,169,,,,,,,,,,,,,,,,,,,,,,,,,,,,,,,,,main,505.8369109000014,None,None,1,1.5146143000001757,None,1,,,,,,,,,,,,,,,,,,,,,,,,,,,,,,,,,,,,,,,,,,,,,,,,,,,,,,,,,,,,,,,,309,2022-10-05_13h58.54.932,Main,2022.2.2,60.25867845466649,
positive,blue,1,k,None,0,0,0,0,,,,,0,0,0,0,,,,,,,,,0,69,69,130,,,,,,,,,,,,,,,,,,,,,,,,,,,,,,,,,main,508.3539040000014,None,None,1,1.505871200000911,None,1,,,,,,,,,,,,,,,,,,,,,,,,,,,,,,,,,,,,,,,,,,,,,,,,,,,,,,,,,,,,,,,,309,2022-10-05_13h58.54.932,Main,2022.2.2,60.25867845466649,
negative,blue,2,None,k,0,0,0,0,,,,,0,0,0,0,,,,,,,,,0,70,70,226,,,,,,,,,,,,,,,,,,,,,,,,,,,,,,,,,main,510.8637514000002,k,k,1,1.5451112999999168,None,0,,,,,,,,,,,,,,,,,,,,,,,,,,,,,,,,,,,,,,,,,,,,,,,,,,,,,,,,,,,,,,,,309,2022-10-05_13h58.54.932,Main,2022.2.2,60.25867845466649,
positive,red,1,None,None,0,0,0,0,,,,,0,0,0,0,,,,,,,,,0,71,71,157,,,,,,,,,,,,,,,,,,,,,,,,,,,,,,,,,main,514.4432059999999,None,None,1,1.5272454000005382,None,1,,,,,,,,,,,,,,,,,,,,,,,,,,,,,,,,,,,,,,,,,,,,,,,,,,,,,,,,,,,,,,,,309,2022-10-05_13h58.54.932,Main,2022.2.2,60.25867845466649,
negative,blue,2,None,k,0,0,0,0,,,,,0,0,0,0,,,,,,,,,0,72,72,102,,,,,,,,,,,,,,,,,,,,,,,,,,,,,,,,,main,516.9717056000009,k,k,1,0.7767409999996744,None,0,,,,,,,,,,,,,,,,,,,,,,,,,,,,,,,,,,,,,,,,,,,,,,,,,,,,,,,,,,,,,,,,309,2022-10-05_13h58.54.932,Main,2022.2.2,60.25867845466649,
positive,blue,1,k,None,0,0,0,0,,,,,0,0,0,0,,,,,,,,,0,73,73,141,,,,,,,,,,,,,,,,,,,,,,,,,,,,,,,,,main,518.7559182000005,None,None,1,1.5251428999999916,None,1,,,,,,,,,,,,,,,,,,,,,,,,,,,,,,,,,,,,,,,,,,,,,,,,,,,,,,,,,,,,,,,,309,2022-10-05_13h58.54.932,Main,2022.2.2,60.25867845466649,
positive,yellow,2,None,k,0,0,0,0,,,,,0,0,0,0,,,,,,,,,0,74,74,122,,,,,,,,,,,,,,,,,,,,,,,,,,,,,,,,,main,521.2789874000009,k,k,1,1.3500930000009248,None,0,,,,,,,,,,,,,,,,,,,,,,,,,,,,,,,,,,,,,,,,,,,,,,,,,,,,,,,,,,,,,,,,309,2022-10-05_13h58.54.932,Main,2022.2.2,60.25867845466649,
positive,blue,2,k,None,0,0,0,0,,,,,0,0,0,0,,,,,,,,,0,75,75,42,,,,,,,,,,,,,,,,,,,,,,,,,,,,,,,,,main,523.6424051000013,None,None,1,1.5229355999999825,None,1,,,,,,,,,,,,,,,,,,,,,,,,,,,,,,,,,,,,,,,,,,,,,,,,,,,,,,,,,,,,,,,,309,2022-10-05_13h58.54.932,Main,2022.2.2,60.25867845466649,
negative,blue,1,None,k,0,0,0,0,,,,,0,0,0,0,,,,,,,,,0,76,76,51,,,,,,,,,,,,,,,,,,,,,,,,,,,,,,,,,main,526.1596702000006,k,k,1,1.401792499998919,None,0,,,,,,,,,,,,,,,,,,,,,,,,,,,,,,,,,,,,,,,,,,,,,,,,,,,,,,,,,,,,,,,,309,2022-10-05_13h58.54.932,Main,2022.2.2,60.25867845466649,
negative,yellow,1,k,None,0,0,0,0,,,,,0,0,0,0,,,,,,,,,0,77,77,91,,,,,,,,,,,,,,,,,,,,,,,,,,,,,,,,,main,528.5662918000016,None,None,1,1.5227749999994558,None,1,,,,,,,,,,,,,,,,,,,,,,,,,,,,,,,,,,,,,,,,,,,,,,,,,,,,,,,,,,,,,,,,309,2022-10-05_13h58.54.932,Main,2022.2.2,60.25867845466649,
positive,yellow,2,None,k,0,0,0,0,,,,,0,0,0,0,,,,,,,,,0,78,78,37,,,,,,,,,,,,,,,,,,,,,,,,,,,,,,,,,main,531.0924014000011,k,k,1,2.164772500000254,None,0,,,,,,,,,,,,,,,,,,,,,,,,,,,,,,,,,,,,,,,,,,,,,,,,,,,,,,,,,,,,,,,,309,2022-10-05_13h58.54.932,Main,2022.2.2,60.25867845466649,
positive,blue,1,k,None,0,0,0,0,,,,,0,0,0,0,,,,,,,,,0,79,79,58,,,,,,,,,,,,,,,,,,,,,,,,,,,,,,,,,main,535.2842464000005,None,None,1,1.5253071000006457,None,1,,,,,,,,,,,,,,,,,,,,,,,,,,,,,,,,,,,,,,,,,,,,,,,,,,,,,,,,,,,,,,,,309,2022-10-05_13h58.54.932,Main,2022.2.2,60.25867845466649,
positive,blue,1,k,None,0,0,0,0,,,,,0,0,0,0,,,,,,,,,0,80,80,214,,,,,,,,,,,,,,,,,,,,,,,,,,,,,,,,,main,537.8101382000004,None,None,1,1.5320604000007734,None,1,,,,,,,,,,,,,,,,,,,,,,,,,,,,,,,,,,,,,,,,,,,,,,,,,,,,,,,,,,,,,,,,309,2022-10-05_13h58.54.932,Main,2022.2.2,60.25867845466649,
positive,yellow,2,None,k,0,0,0,0,,,,,0,0,0,0,,,,,,,,,0,81,81,143,,,,,,,,,,,,,,,,,,,,,,,,,,,,,,,,,main,540.3461738000005,k,k,1,1.0782770000005257,None,0,,,,,,,,,,,,,,,,,,,,,,,,,,,,,,,,,,,,,,,,,,,,,,,,,,,,,,,,,,,,,,,,309,2022-10-05_13h58.54.932,Main,2022.2.2,60.25867845466649,
positive,yellow,2,None,k,0,0,0,0,,,,,0,0,0,0,,,,,,,,,0,82,82,174,,,,,,,,,,,,,,,,,,,,,,,,,,,,,,,,,main,542.4263124000008,k,k,1,0.8797503000005236,None,0,,,,,,,,,,,,,,,,,,,,,,,,,,,,,,,,,,,,,,,,,,,,,,,,,,,,,,,,,,,,,,,,309,2022-10-05_13h58.54.932,Main,2022.2.2,60.25867845466649,
positive,yellow,2,None,k,0,0,0,0,,,,,0,0,0,0,,,,,,,,,0,83,83,67,,,,,,,,,,,,,,,,,,,,,,,,,,,,,,,,,main,544.3190083000009,k,k,1,0.9839836000010109,None,0,,,,,,,,,,,,,,,,,,,,,,,,,,,,,,,,,,,,,,,,,,,,,,,,,,,,,,,,,,,,,,,,309,2022-10-05_13h58.54.932,Main,2022.2.2,60.25867845466649,
positive,red,1,None,None,0,0,0,0,,,,,0,0,0,0,,,,,,,,,0,84,84,203,,,,,,,,,,,,,,,,,,,,,,,,,,,,,,,,,main,546.3020913,None,None,1,1.5250536999992619,None,1,,,,,,,,,,,,,,,,,,,,,,,,,,,,,,,,,,,,,,,,,,,,,,,,,,,,,,,,,,,,,,,,309,2022-10-05_13h58.54.932,Main,2022.2.2,60.25867845466649,
positive,red,1,None,None,0,0,0,0,,,,,0,0,0,0,,,,,,,,,0,85,85,1,,,,,,,,,,,,,,,,,,,,,,,,,,,,,,,,,main,548.8240829000006,None,None,1,1.5404858000001695,None,1,,,,,,,,,,,,,,,,,,,,,,,,,,,,,,,,,,,,,,,,,,,,,,,,,,,,,,,,,,,,,,,,309,2022-10-05_13h58.54.932,Main,2022.2.2,60.25867845466649,
negative,red,2,None,None,0,0,0,0,,,,,0,0,0,0,,,,,,,,,0,86,86,24,,,,,,,,,,,,,,,,,,,,,,,,,,,,,,,,,main,551.3690979000003,None,None,1,1.5157343999999284,None,1,,,,,,,,,,,,,,,,,,,,,,,,,,,,,,,,,,,,,,,,,,,,,,,,,,,,,,,,,,,,,,,,309,2022-10-05_13h58.54.932,Main,2022.2.2,60.25867845466649,
positive,yellow,1,None,k,0,0,0,0,,,,,0,0,0,0,,,,,,,,,0,87,87,10,,,,,,,,,,,,,,,,,,,,,,,,,,,,,,,,,main,553.8855547000003,k,k,1,1.5893180000002758,None,0,,,,,,,,,,,,,,,,,,,,,,,,,,,,,,,,,,,,,,,,,,,,,,,,,,,,,,,,,,,,,,,,309,2022-10-05_13h58.54.932,Main,2022.2.2,60.25867845466649,
positive,blue,2,k,None,0,0,0,0,,,,,0,0,0,0,,,,,,,,,0,88,88,2,,,,,,,,,,,,,,,,,,,,,,,,,,,,,,,,,main,557.5049734000004,None,None,1,1.5224331999997958,None,1,,,,,,,,,,,,,,,,,,,,,,,,,,,,,,,,,,,,,,,,,,,,,,,,,,,,,,,,,,,,,,,,309,2022-10-05_13h58.54.932,Main,2022.2.2,60.25867845466649,
negative,blue,2,None,k,0,0,0,0,,,,,0,0,0,0,,,,,,,,,0,89,89,6,,,,,,,,,,,,,,,,,,,,,,,,,,,,,,,,,main,560.0356257000003,k,k,1,0.9949286999999458,None,0,,,,,,,,,,,,,,,,,,,,,,,,,,,,,,,,,,,,,,,,,,,,,,,,,,,,,,,,,,,,,,,,309,2022-10-05_13h58.54.932,Main,2022.2.2,60.25867845466649,
negative,yellow,1,k,None,0,0,0,0,,,,,0,0,0,0,,,,,,,,,0,90,90,191,,,,,,,,,,,,,,,,,,,,,,,,,,,,,,,,,main,562.0393822000005,None,None,1,1.5223258999994869,None,1,,,,,,,,,,,,,,,,,,,,,,,,,,,,,,,,,,,,,,,,,,,,,,,,,,,,,,,,,,,,,,,,309,2022-10-05_13h58.54.932,Main,2022.2.2,60.25867845466649,
negative,blue,2,None,k,0,0,0,0,,,,,0,0,0,0,,,,,,,,,0,91,91,75,,,,,,,,,,,,,,,,,,,,,,,,,,,,,,,,,main,564.5671067000003,k,k,1,0.9600136000008206,None,0,,,,,,,,,,,,,,,,,,,,,,,,,,,,,,,,,,,,,,,,,,,,,,,,,,,,,,,,,,,,,,,,309,2022-10-05_13h58.54.932,Main,2022.2.2,60.25867845466649,
positive,yellow,2,None,k,0,0,0,0,,,,,0,0,0,0,,,,,,,,,0,92,92,66,,,,,,,,,,,,,,,,,,,,,,,,,,,,,,,,,main,566.5222233000004,k,k,1,1.159331300001213,None,0,,,,,,,,,,,,,,,,,,,,,,,,,,,,,,,,,,,,,,,,,,,,,,,,,,,,,,,,,,,,,,,,309,2022-10-05_13h58.54.932,Main,2022.2.2,60.25867845466649,
negative,blue,1,None,k,0,0,0,0,,,,,0,0,0,0,,,,,,,,,0,93,93,33,,,,,,,,,,,,,,,,,,,,,,,,,,,,,,,,,main,568.6960425000016,k,k,1,0.9000462999993033,None,0,,,,,,,,,,,,,,,,,,,,,,,,,,,,,,,,,,,,,,,,,,,,,,,,,,,,,,,,,,,,,,,,309,2022-10-05_13h58.54.932,Main,2022.2.2,60.25867845466649,
positive,yellow,1,None,k,0,0,0,0,,,,,0,0,0,0,,,,,,,,,0,94,94,39,,,,,,,,,,,,,,,,,,,,,,,,,,,,,,,,,main,570.590141300001,k,k,1,0.8923830000003363,None,0,,,,,,,,,,,,,,,,,,,,,,,,,,,,,,,,,,,,,,,,,,,,,,,,,,,,,,,,,,,,,,,,309,2022-10-05_13h58.54.932,Main,2022.2.2,60.25867845466649,
negative,red,2,None,None,0,0,0,0,,,,,0,0,0,0,,,,,,,,,0,95,95,237,,,,,,,,,,,,,,,,,,,,,,,,,,,,,,,,,main,572.4894080000013,None,None,1,1.5242978000005678,None,1,,,,,,,,,,,,,,,,,,,,,,,,,,,,,,,,,,,,,,,,,,,,,,,,,,,,,,,,,,,,,,,,309,2022-10-05_13h58.54.932,Main,2022.2.2,60.25867845466649,
positive,yellow,1,None,k,0,0,0,0,,,,,0,0,0,0,,,,,,,,,0,96,96,140,,,,,,,,,,,,,,,,,,,,,,,,,,,,,,,,,main,575.0105456000001,k,k,1,1.277404700000261,None,0,,,,,,,,,,,,,,,,,,,,,,,,,,,,,,,,,,,,,,,,,,,,,,,,,,,,,,,,,,,,,,,,309,2022-10-05_13h58.54.932,Main,2022.2.2,60.25867845466649,
positive,red,1,None,None,0,0,0,0,,,,,0,0,0,0,,,,,,,,,0,97,97,195,,,,,,,,,,,,,,,,,,,,,,,,,,,,,,,,,main,577.2953874000013,None,None,1,1.5289912000007462,None,1,,,,,,,,,,,,,,,,,,,,,,,,,,,,,,,,,,,,,,,,,,,,,,,,,,,,,,,,,,,,,,,,309,2022-10-05_13h58.54.932,Main,2022.2.2,60.25867845466649,
negative,blue,1,None,k,0,0,0,0,,,,,0,0,0,0,,,,,,,,,0,98,98,161,,,,,,,,,,,,,,,,,,,,,,,,,,,,,,,,,main,579.8225283000011,k,k,1,1.19936190000044,None,0,,,,,,,,,,,,,,,,,,,,,,,,,,,,,,,,,,,,,,,,,,,,,,,,,,,,,,,,,,,,,,,,309,2022-10-05_13h58.54.932,Main,2022.2.2,60.25867845466649,
positive,yellow,2,None,k,0,0,0,0,,,,,0,0,0,0,,,,,,,,,0,99,99,50,,,,,,,,,,,,,,,,,,,,,,,,,,,,,,,,,main,582.0246050000005,k,k,1,0.8974672999993345,None,0,,,,,,,,,,,,,,,,,,,,,,,,,,,,,,,,,,,,,,,,,,,,,,,,,,,,,,,,,,,,,,,,309,2022-10-05_13h58.54.932,Main,2022.2.2,60.25867845466649,
negative,yellow,2,k,None,0,0,0,0,,,,,0,0,0,0,,,,,,,,,0,100,100,183,,,,,,,,,,,,,,,,,,,,,,,,,,,,,,,,,main,583.9375130000008,None,None,1,1.5149774000001344,None,1,,,,,,,,,,,,,,,,,,,,,,,,,,,,,,,,,,,,,,,,,,,,,,,,,,,,,,,,,,,,,,,,309,2022-10-05_13h58.54.932,Main,2022.2.2,60.25867845466649,
positive,yellow,2,None,k,0,0,0,0,,,,,0,0,0,0,,,,,,,,,0,101,101,90,,,,,,,,,,,,,,,,,,,,,,,,,,,,,,,,,main,586.4489551000006,k,k,1,1.4550884999989648,None,0,,,,,,,,,,,,,,,,,,,,,,,,,,,,,,,,,,,,,,,,,,,,,,,,,,,,,,,,,,,,,,,,309,2022-10-05_13h58.54.932,Main,2022.2.2,60.25867845466649,
negative,red,1,None,None,0,0,0,0,,,,,0,0,0,0,,,,,,,,,0,102,102,114,,,,,,,,,,,,,,,,,,,,,,,,,,,,,,,,,main,588.9150985000015,None,None,1,1.5396125999996002,None,1,,,,,,,,,,,,,,,,,,,,,,,,,,,,,,,,,,,,,,,,,,,,,,,,,,,,,,,,,,,,,,,,309,2022-10-05_13h58.54.932,Main,2022.2.2,60.25867845466649,
positive,yellow,2,None,k,0,0,0,0,,,,,0,0,0,0,,,,,,,,,0,103,103,179,,,,,,,,,,,,,,,,,,,,,,,,,,,,,,,,,main,591.4485936000001,k,k,1,1.200864200000069,None,0,,,,,,,,,,,,,,,,,,,,,,,,,,,,,,,,,,,,,,,,,,,,,,,,,,,,,,,,,,,,,,,,309,2022-10-05_13h58.54.932,Main,2022.2.2,60.25867845466649,
negative,blue,2,None,k,0,0,0,0,,,,,0,0,0,0,,,,,,,,,0,104,104,204,,,,,,,,,,,,,,,,,,,,,,,,,,,,,,,,,main,593.6594271000013,k,k,1,1.1840238999993744,None,0,,,,,,,,,,,,,,,,,,,,,,,,,,,,,,,,,,,,,,,,,,,,,,,,,,,,,,,,,,,,,,,,309,2022-10-05_13h58.54.932,Main,2022.2.2,60.25867845466649,
negative,yellow,2,k,None,0,0,0,0,,,,,0,0,0,0,,,,,,,,,0,105,105,225,,,,,,,,,,,,,,,,,,,,,,,,,,,,,,,,,main,595.8513681000004,None,None,1,1.5140725000001112,None,1,,,,,,,,,,,,,,,,,,,,,,,,,,,,,,,,,,,,,,,,,,,,,,,,,,,,,,,,,,,,,,,,309,2022-10-05_13h58.54.932,Main,2022.2.2,60.25867845466649,
negative,red,2,None,None,0,0,0,0,,,,,0,0,0,0,,,,,,,,,0,106,106,92,,,,,,,,,,,,,,,,,,,,,,,,,,,,,,,,,main,598.3618803000008,None,None,1,1.5272817999994004,None,1,,,,,,,,,,,,,,,,,,,,,,,,,,,,,,,,,,,,,,,,,,,,,,,,,,,,,,,,,,,,,,,,309,2022-10-05_13h58.54.932,Main,2022.2.2,60.25867845466649,
positive,yellow,1,None,k,0,0,0,0,,,,,0,0,0,0,,,,,,,,,0,107,107,215,,,,,,,,,,,,,,,,,,,,,,,,,,,,,,,,,main,600.8882784000016,k,k,1,1.7448102999987896,None,0,,,,,,,,,,,,,,,,,,,,,,,,,,,,,,,,,,,,,,,,,,,,,,,,,,,,,,,,,,,,,,,,309,2022-10-05_13h58.54.932,Main,2022.2.2,60.25867845466649,
positive,yellow,1,None,k,0,0,0,0,,,,,0,0,0,0,,,,,,,,,0,108,108,139,,,,,,,,,,,,,,,,,,,,,,,,,,,,,,,,,main,604.6545693000007,k,k,1,0.796772300000157,None,0,,,,,,,,,,,,,,,,,,,,,,,,,,,,,,,,,,,,,,,,,,,,,,,,,,,,,,,,,,,,,,,,309,2022-10-05_13h58.54.932,Main,2022.2.2,60.25867845466649,
positive,blue,2,k,None,0,0,0,0,,,,,0,0,0,0,,,,,,,,,0,109,109,233,,,,,,,,,,,,,,,,,,,,,,,,,,,,,,,,,main,606.4511874,None,None,1,1.5150852000006125,None,1,,,,,,,,,,,,,,,,,,,,,,,,,,,,,,,,,,,,,,,,,,,,,,,,,,,,,,,,,,,,,,,,309,2022-10-05_13h58.54.932,Main,2022.2.2,60.25867845466649,
positive,yellow,1,None,k,0,0,0,0,,,,,0,0,0,0,,,,,,,,,0,110,110,71,,,,,,,,,,,,,,,,,,,,,,,,,,,,,,,,,main,608.9720762000015,k,k,1,1.0409785000010743,None,0,,,,,,,,,,,,,,,,,,,,,,,,,,,,,,,,,,,,,,,,,,,,,,,,,,,,,,,,,,,,,,,,309,2022-10-05_13h58.54.932,Main,2022.2.2,60.25867845466649,
negative,blue,1,None,k,0,0,0,0,,,,,0,0,0,0,,,,,,,,,0,111,111,229,,,,,,,,,,,,,,,,,,,,,,,,,,,,,,,,,main,611.0135449000009,k,k,1,1.0965441000007559,None,0,,,,,,,,,,,,,,,,,,,,,,,,,,,,,,,,,,,,,,,,,,,,,,,,,,,,,,,,,,,,,,,,309,2022-10-05_13h58.54.932,Main,2022.2.2,60.25867845466649,
positive,yellow,2,None,k,0,0,0,0,,,,,0,0,0,0,,,,,,,,,0,112,112,184,,,,,,,,,,,,,,,,,,,,,,,,,,,,,,,,,main,613.1232902000011,k,k,1,0.8156781999987288,None,0,,,,,,,,,,,,,,,,,,,,,,,,,,,,,,,,,,,,,,,,,,,,,,,,,,,,,,,,,,,,,,,,309,2022-10-05_13h58.54.932,Main,2022.2.2,60.25867845466649,
negative,blue,1,None,k,0,0,0,0,,,,,0,0,0,0,,,,,,,,,0,113,113,49,,,,,,,,,,,,,,,,,,,,,,,,,,,,,,,,,main,614.9395494,k,k,1,0.8868388999999297,None,0,,,,,,,,,,,,,,,,,,,,,,,,,,,,,,,,,,,,,,,,,,,,,,,,,,,,,,,,,,,,,,,,309,2022-10-05_13h58.54.932,Main,2022.2.2,60.25867845466649,
negative,blue,2,None,k,0,0,0,0,,,,,0,0,0,0,,,,,,,,,0,114,114,93,,,,,,,,,,,,,,,,,,,,,,,,,,,,,,,,,main,616.8247166000001,k,k,1,1.4849288999994315,None,0,,,,,,,,,,,,,,,,,,,,,,,,,,,,,,,,,,,,,,,,,,,,,,,,,,,,,,,,,,,,,,,,309,2022-10-05_13h58.54.932,Main,2022.2.2,60.25867845466649,
positive,yellow,1,None,k,0,0,0,0,,,,,0,0,0,0,,,,,,,,,0,115,115,31,,,,,,,,,,,,,,,,,,,,,,,,,,,,,,,,,main,619.3167312000005,k,k,1,0.9760412000014185,None,0,,,,,,,,,,,,,,,,,,,,,,,,,,,,,,,,,,,,,,,,,,,,,,,,,,,,,,,,,,,,,,,,309,2022-10-05_13h58.54.932,Main,2022.2.2,60.25867845466649,
negative,yellow,2,k,None,0,0,0,0,,,,,0,0,0,0,,,,,,,,,0,116,116,65,,,,,,,,,,,,,,,,,,,,,,,,,,,,,,,,,main,621.2941305000004,None,None,1,1.5300083000001905,None,1,,,,,,,,,,,,,,,,,,,,,,,,,,,,,,,,,,,,,,,,,,,,,,,,,,,,,,,,,,,,,,,,309,2022-10-05_13h58.54.932,Main,2022.2.2,60.25867845466649,
negative,yellow,1,k,None,0,0,0,0,,,,,0,0,0,0,,,,,,,,,0,117,117,234,,,,,,,,,,,,,,,,,,,,,,,,,,,,,,,,,main,623.8233637000012,None,None,1,1.5077068999999028,None,1,,,,,,,,,,,,,,,,,,,,,,,,,,,,,,,,,,,,,,,,,,,,,,,,,,,,,,,,,,,,,,,,309,2022-10-05_13h58.54.932,Main,2022.2.2,60.25867845466649,
negative,yellow,1,k,None,0,0,0,0,,,,,0,0,0,0,,,,,,,,,0,118,118,128,,,,,,,,,,,,,,,,,,,,,,,,,,,,,,,,,main,626.3374682000012,None,None,1,1.5191580000009708,None,1,,,,,,,,,,,,,,,,,,,,,,,,,,,,,,,,,,,,,,,,,,,,,,,,,,,,,,,,,,,,,,,,309,2022-10-05_13h58.54.932,Main,2022.2.2,60.25867845466649,
positive,yellow,1,None,k,0,0,0,0,,,,,0,0,0,0,,,,,,,,,0,119,119,138,,,,,,,,,,,,,,,,,,,,,,,,,,,,,,,,,main,628.8530066000003,k,k,1,1.2637615999992704,None,0,,,,,,,,,,,,,,,,,,,,,,,,,,,,,,,,,,,,,,,,,,,,,,,,,,,,,,,,,,,,,,,,309,2022-10-05_13h58.54.932,Main,2022.2.2,60.25867845466649,
positive,yellow,1,None,k,0,0,0,0,,,,,0,0,0,0,,,,,,,,,0,120,120,113,0,0,0,0,,,,,,,,,,,,,,,,,,,,,,,,,,,,,main,631.1254128,k,k,1,1.1757993999999599,None,0,,,,,,,,,633.3076140000012,633.3076140000012,633.3076140000012,633.3076140000012,None,,,,,,,,,,,,,,,,,,,,,,,,,,,,,,,,,,,,,,,,,,,,,,,,,,,309,2022-10-05_13h58.54.932,Main,2022.2.2,60.25867845466649,
positive,yellow,1,None,k,0,0,0,0,,,,,0,0,0,0,,,,,,,,,0,120,120,113,,,,,,,,,,,,,,,,,,,,,,,,,,,,,,,,,,,,,,,,,,,,,,,,,,,,,,,,,,,,,,,,,,,,,,,,,,,,,,,,,,,,,,,,,,,,,,,,,,,,,,,,309,2022-10-05_13h58.54.932,Main,2022.2.2,60.25867845466649,
negative,yellow,1,k,None,0,0,0,0,,,,,0,0,0,0,,,,,,,,,0,121,121,153,,,,,,,,,,,,,,,,,,,,,,,,,,,,,,,,,main,693.3102318000001,None,None,1,1.512447400000383,None,1,,,,,,,,,,,,,,,,,,,,,,,,,,,,,,,,,,,,,,,,,,,,,,,,,,,,,,,,,,,,,,,,309,2022-10-05_13h58.54.932,Main,2022.2.2,60.25867845466649,
positive,yellow,1,None,k,0,0,0,0,,,,,0,0,0,0,,,,,,,,,0,122,122,69,,,,,,,,,,,,,,,,,,,,,,,,,,,,,,,,,main,695.8190955999999,k,k,1,0.8286464999982854,None,0,,,,,,,,,,,,,,,,,,,,,,,,,,,,,,,,,,,,,,,,,,,,,,,,,,,,,,,,,,,,,,,,309,2022-10-05_13h58.54.932,Main,2022.2.2,60.25867845466649,
negative,blue,1,None,k,0,0,0,0,,,,,0,0,0,0,,,,,,,,,0,123,123,211,,,,,,,,,,,,,,,,,,,,,,,,,,,,,,,,,main,697.6506820000013,k,k,1,0.818117799999527,None,0,,,,,,,,,,,,,,,,,,,,,,,,,,,,,,,,,,,,,,,,,,,,,,,,,,,,,,,,,,,,,,,,309,2022-10-05_13h58.54.932,Main,2022.2.2,60.25867845466649,
positive,red,2,None,None,0,0,0,0,,,,,0,0,0,0,,,,,,,,,0,124,124,134,,,,,,,,,,,,,,,,,,,,,,,,,,,,,,,,,main,699.4763630000016,None,None,1,1.506376299999829,None,1,,,,,,,,,,,,,,,,,,,,,,,,,,,,,,,,,,,,,,,,,,,,,,,,,,,,,,,,,,,,,,,,309,2022-10-05_13h58.54.932,Main,2022.2.2,60.25867845466649,
positive,blue,2,k,None,0,0,0,0,,,,,0,0,0,0,,,,,,,,,0,125,125,200,,,,,,,,,,,,,,,,,,,,,,,,,,,,,,,,,main,701.9814374000016,None,None,1,1.5204188999996404,None,1,,,,,,,,,,,,,,,,,,,,,,,,,,,,,,,,,,,,,,,,,,,,,,,,,,,,,,,,,,,,,,,,309,2022-10-05_13h58.54.932,Main,2022.2.2,60.25867845466649,
negative,yellow,2,k,None,0,0,0,0,,,,,0,0,0,0,,,,,,,,,0,126,126,40,,,,,,,,,,,,,,,,,,,,,,,,,,,,,,,,,main,704.5047295000004,None,None,1,1.5165493000004062,None,1,,,,,,,,,,,,,,,,,,,,,,,,,,,,,,,,,,,,,,,,,,,,,,,,,,,,,,,,,,,,,,,,309,2022-10-05_13h58.54.932,Main,2022.2.2,60.25867845466649,
positive,yellow,1,None,k,0,0,0,0,,,,,0,0,0,0,,,,,,,,,0,127,127,48,,,,,,,,,,,,,,,,,,,,,,,,,,,,,,,,,main,707.0280440000006,k,k,1,0.8962621000009676,None,0,,,,,,,,,,,,,,,,,,,,,,,,,,,,,,,,,,,,,,,,,,,,,,,,,,,,,,,,,,,,,,,,309,2022-10-05_13h58.54.932,Main,2022.2.2,60.25867845466649,
positive,red,1,None,None,0,0,0,0,,,,,0,0,0,0,,,,,,,,,0,128,128,170,,,,,,,,,,,,,,,,,,,,,,,,,,,,,,,,,main,708.9367417000012,None,None,1,1.5102843999993638,None,1,,,,,,,,,,,,,,,,,,,,,,,,,,,,,,,,,,,,,,,,,,,,,,,,,,,,,,,,,,,,,,,,309,2022-10-05_13h58.54.932,Main,2022.2.2,60.25867845466649,
negative,blue,2,None,k,0,0,0,0,,,,,0,0,0,0,,,,,,,,,0,129,129,110,,,,,,,,,,,,,,,,,,,,,,,,,,,,,,,,,main,711.4408996000002,k,k,1,0.8624702999986766,None,0,,,,,,,,,,,,,,,,,,,,,,,,,,,,,,,,,,,,,,,,,,,,,,,,,,,,,,,,,,,,,,,,309,2022-10-05_13h58.54.932,Main,2022.2.2,60.25867845466649,
positive,blue,2,k,None,0,0,0,0,,,,,0,0,0,0,,,,,,,,,0,130,130,158,,,,,,,,,,,,,,,,,,,,,,,,,,,,,,,,,main,713.302139200001,None,None,1,1.5181102000005922,None,1,,,,,,,,,,,,,,,,,,,,,,,,,,,,,,,,,,,,,,,,,,,,,,,,,,,,,,,,,,,,,,,,309,2022-10-05_13h58.54.932,Main,2022.2.2,60.25867845466649,
positive,blue,1,k,None,0,0,0,0,,,,,0,0,0,0,,,,,,,,,0,131,131,213,,,,,,,,,,,,,,,,,,,,,,,,,,,,,,,,,main,715.8245302000014,None,None,1,1.5367912000001525,None,1,,,,,,,,,,,,,,,,,,,,,,,,,,,,,,,,,,,,,,,,,,,,,,,,,,,,,,,,,,,,,,,,309,2022-10-05_13h58.54.932,Main,2022.2.2,60.25867845466649,
positive,blue,2,k,None,0,0,0,0,,,,,0,0,0,0,,,,,,,,,0,132,132,120,,,,,,,,,,,,,,,,,,,,,,,,,,,,,,,,,main,718.3654964000016,None,None,1,1.5133660999999847,None,1,,,,,,,,,,,,,,,,,,,,,,,,,,,,,,,,,,,,,,,,,,,,,,,,,,,,,,,,,,,,,,,,309,2022-10-05_13h58.54.932,Main,2022.2.2,60.25867845466649,
positive,blue,2,k,None,0,0,0,0,,,,,0,0,0,0,,,,,,,,,0,133,133,168,,,,,,,,,,,,,,,,,,,,,,,,,,,,,,,,,main,720.8839609000006,None,None,1,1.5064006000011432,None,1,,,,,,,,,,,,,,,,,,,,,,,,,,,,,,,,,,,,,,,,,,,,,,,,,,,,,,,,,,,,,,,,309,2022-10-05_13h58.54.932,Main,2022.2.2,60.25867845466649,
positive,yellow,2,None,k,0,0,0,0,,,,,0,0,0,0,,,,,,,,,0,134,134,155,,,,,,,,,,,,,,,,,,,,,,,,,,,,,,,,,main,723.3942432000003,k,k,1,0.8309389000005467,None,0,,,,,,,,,,,,,,,,,,,,,,,,,,,,,,,,,,,,,,,,,,,,,,,,,,,,,,,,,,,,,,,,309,2022-10-05_13h58.54.932,Main,2022.2.2,60.25867845466649,
negative,yellow,1,k,None,0,0,0,0,,,,,0,0,0,0,,,,,,,,,0,135,135,12,,,,,,,,,,,,,,,,,,,,,,,,,,,,,,,,,main,725.222076,None,None,1,1.5276942000000417,None,1,,,,,,,,,,,,,,,,,,,,,,,,,,,,,,,,,,,,,,,,,,,,,,,,,,,,,,,,,,,,,,,,309,2022-10-05_13h58.54.932,Main,2022.2.2,60.25867845466649,
negative,blue,2,None,k,0,0,0,0,,,,,0,0,0,0,,,,,,,,,0,136,136,126,,,,,,,,,,,,,,,,,,,,,,,,,,,,,,,,,main,727.7558239999998,k,k,1,1.0961102999990544,None,0,,,,,,,,,,,,,,,,,,,,,,,,,,,,,,,,,,,,,,,,,,,,,,,,,,,,,,,,,,,,,,,,309,2022-10-05_13h58.54.932,Main,2022.2.2,60.25867845466649,
positive,yellow,2,None,k,0,0,0,0,,,,,0,0,0,0,,,,,,,,,0,137,137,136,,,,,,,,,,,,,,,,,,,,,,,,,,,,,,,,,main,729.8594775000001,k,k,1,1.0268094999992172,None,0,,,,,,,,,,,,,,,,,,,,,,,,,,,,,,,,,,,,,,,,,,,,,,,,,,,,,,,,,,,,,,,,309,2022-10-05_13h58.54.932,Main,2022.2.2,60.25867845466649,
positive,red,2,None,None,0,0,0,0,,,,,0,0,0,0,,,,,,,,,0,138,138,7,,,,,,,,,,,,,,,,,,,,,,,,,,,,,,,,,main,731.8883635000002,None,None,1,1.5302796000014496,None,1,,,,,,,,,,,,,,,,,,,,,,,,,,,,,,,,,,,,,,,,,,,,,,,,,,,,,,,,,,,,,,,,309,2022-10-05_13h58.54.932,Main,2022.2.2,60.25867845466649,
negative,yellow,1,k,None,0,0,0,0,,,,,0,0,0,0,,,,,,,,,0,139,139,212,,,,,,,,,,,,,,,,,,,,,,,,,,,,,,,,,main,734.4172034000003,None,None,1,1.5275213999993866,None,1,,,,,,,,,,,,,,,,,,,,,,,,,,,,,,,,,,,,,,,,,,,,,,,,,,,,,,,,,,,,,,,,309,2022-10-05_13h58.54.932,Main,2022.2.2,60.25867845466649,
positive,blue,2,k,None,0,0,0,0,,,,,0,0,0,0,,,,,,,,,0,140,140,201,,,,,,,,,,,,,,,,,,,,,,,,,,,,,,,,,main,736.948132200001,None,None,1,1.5342820999994728,None,1,,,,,,,,,,,,,,,,,,,,,,,,,,,,,,,,,,,,,,,,,,,,,,,,,,,,,,,,,,,,,,,,309,2022-10-05_13h58.54.932,Main,2022.2.2,60.25867845466649,
positive,blue,1,k,None,0,0,0,0,,,,,0,0,0,0,,,,,,,,,0,141,141,34,,,,,,,,,,,,,,,,,,,,,,,,,,,,,,,,,main,739.4864114000011,None,None,1,1.5122742999992624,None,1,,,,,,,,,,,,,,,,,,,,,,,,,,,,,,,,,,,,,,,,,,,,,,,,,,,,,,,,,,,,,,,,309,2022-10-05_13h58.54.932,Main,2022.2.2,60.25867845466649,
negative,blue,1,None,k,0,0,0,0,,,,,0,0,0,0,,,,,,,,,0,142,142,150,,,,,,,,,,,,,,,,,,,,,,,,,,,,,,,,,main,742.0015662000005,k,k,1,0.7420597999989695,None,0,,,,,,,,,,,,,,,,,,,,,,,,,,,,,,,,,,,,,,,,,,,,,,,,,,,,,,,,,,,,,,,,309,2022-10-05_13h58.54.932,Main,2022.2.2,60.25867845466649,
positive,yellow,1,None,k,0,0,0,0,,,,,0,0,0,0,,,,,,,,,0,143,143,216,,,,,,,,,,,,,,,,,,,,,,,,,,,,,,,,,main,743.7467371000002,k,k,1,0.7900829999998678,None,0,,,,,,,,,,,,,,,,,,,,,,,,,,,,,,,,,,,,,,,,,,,,,,,,,,,,,,,,,,,,,,,,309,2022-10-05_13h58.54.932,Main,2022.2.2,60.25867845466649,
negative,yellow,1,k,None,0,0,0,0,,,,,0,0,0,0,,,,,,,,,0,144,144,129,,,,,,,,,,,,,,,,,,,,,,,,,,,,,,,,,main,745.5461071999998,None,None,1,1.5300880999984656,None,1,,,,,,,,,,,,,,,,,,,,,,,,,,,,,,,,,,,,,,,,,,,,,,,,,,,,,,,,,,,,,,,,309,2022-10-05_13h58.54.932,Main,2022.2.2,60.25867845466649,
negative,yellow,1,k,None,0,0,0,0,,,,,0,0,0,0,,,,,,,,,0,145,145,164,,,,,,,,,,,,,,,,,,,,,,,,,,,,,,,,,main,748.0696484,None,None,1,1.50965240000005,None,1,,,,,,,,,,,,,,,,,,,,,,,,,,,,,,,,,,,,,,,,,,,,,,,,,,,,,,,,,,,,,,,,309,2022-10-05_13h58.54.932,Main,2022.2.2,60.25867845466649,
negative,yellow,1,k,None,0,0,0,0,,,,,0,0,0,0,,,,,,,,,0,146,146,109,,,,,,,,,,,,,,,,,,,,,,,,,,,,,,,,,main,750.5857205000011,None,None,1,1.528132599998571,None,1,,,,,,,,,,,,,,,,,,,,,,,,,,,,,,,,,,,,,,,,,,,,,,,,,,,,,,,,,,,,,,,,309,2022-10-05_13h58.54.932,Main,2022.2.2,60.25867845466649,
positive,red,1,None,None,0,0,0,0,,,,,0,0,0,0,,,,,,,,,0,147,147,47,,,,,,,,,,,,,,,,,,,,,,,,,,,,,,,,,main,753.1152211000008,None,None,1,1.5109324999993987,None,1,,,,,,,,,,,,,,,,,,,,,,,,,,,,,,,,,,,,,,,,,,,,,,,,,,,,,,,,,,,,,,,,309,2022-10-05_13h58.54.932,Main,2022.2.2,60.25867845466649,
negative,blue,2,None,k,0,0,0,0,,,,,0,0,0,0,,,,,,,,,0,148,148,198,,,,,,,,,,,,,,,,,,,,,,,,,,,,,,,,,main,755.6230930000002,k,k,1,0.7241087000002153,None,0,,,,,,,,,,,,,,,,,,,,,,,,,,,,,,,,,,,,,,,,,,,,,,,,,,,,,,,,,,,,,,,,309,2022-10-05_13h58.54.932,Main,2022.2.2,60.25867845466649,
negative,red,2,None,None,0,0,0,0,,,,,0,0,0,0,,,,,,,,,0,149,149,149,,,,,,,,,,,,,,,,,,,,,,,,,,,,,,,,,main,757.3608694000013,None,None,1,1.5149240999999165,None,1,,,,,,,,,,,,,,,,,,,,,,,,,,,,,,,,,,,,,,,,,,,,,,,,,,,,,,,,,,,,,,,,309,2022-10-05_13h58.54.932,Main,2022.2.2,60.25867845466649,
negative,yellow,2,k,None,0,0,0,0,,,,,0,0,0,0,,,,,,,,,0,150,150,32,,,,,,,,,,,,,,,,,,,,,,,,,,,,,,,,,main,759.8755361000003,None,None,1,1.5153635999995458,None,1,,,,,,,,,,,,,,,,,,,,,,,,,,,,,,,,,,,,,,,,,,,,,,,,,,,,,,,,,,,,,,,,309,2022-10-05_13h58.54.932,Main,2022.2.2,60.25867845466649,
positive,yellow,2,None,k,0,0,0,0,,,,,0,0,0,0,,,,,,,,,0,151,151,208,,,,,,,,,,,,,,,,,,,,,,,,,,,,,,,,,main,762.3969291000012,k,k,1,0.7404891999995016,None,0,,,,,,,,,,,,,,,,,,,,,,,,,,,,,,,,,,,,,,,,,,,,,,,,,,,,,,,,,,,,,,,,309,2022-10-05_13h58.54.932,Main,2022.2.2,60.25867845466649,
negative,blue,1,None,k,0,0,0,0,,,,,0,0,0,0,,,,,,,,,0,152,152,94,,,,,,,,,,,,,,,,,,,,,,,,,,,,,,,,,main,764.1438837000005,k,k,1,0.9142095999995945,None,0,,,,,,,,,,,,,,,,,,,,,,,,,,,,,,,,,,,,,,,,,,,,,,,,,,,,,,,,,,,,,,,,309,2022-10-05_13h58.54.932,Main,2022.2.2,60.25867845466649,
positive,yellow,2,None,k,0,0,0,0,,,,,0,0,0,0,,,,,,,,,0,153,153,53,,,,,,,,,,,,,,,,,,,,,,,,,,,,,,,,,main,766.0578841000006,k,k,1,1.067302599998584,None,0,,,,,,,,,,,,,,,,,,,,,,,,,,,,,,,,,,,,,,,,,,,,,,,,,,,,,,,,,,,,,,,,309,2022-10-05_13h58.54.932,Main,2022.2.2,60.25867845466649,
positive,blue,2,k,None,0,0,0,0,,,,,0,0,0,0,,,,,,,,,0,154,154,228,,,,,,,,,,,,,,,,,,,,,,,,,,,,,,,,,main,768.1336792000002,None,None,1,1.5315697999994882,None,1,,,,,,,,,,,,,,,,,,,,,,,,,,,,,,,,,,,,,,,,,,,,,,,,,,,,,,,,,,,,,,,,309,2022-10-05_13h58.54.932,Main,2022.2.2,60.25867845466649,
positive,yellow,1,None,k,0,0,0,0,,,,,0,0,0,0,,,,,,,,,0,155,155,220,,,,,,,,,,,,,,,,,,,,,,,,,,,,,,,,,main,770.6621955999999,k,k,1,1.3643132000015612,None,0,,,,,,,,,,,,,,,,,,,,,,,,,,,,,,,,,,,,,,,,,,,,,,,,,,,,,,,,,,,,,,,,309,2022-10-05_13h58.54.932,Main,2022.2.2,60.25867845466649,
negative,blue,1,None,k,0,0,0,0,,,,,0,0,0,0,,,,,,,,,0,156,156,162,,,,,,,,,,,,,,,,,,,,,,,,,,,,,,,,,main,773.0281715000001,k,k,1,0.7178842000012082,None,0,,,,,,,,,,,,,,,,,,,,,,,,,,,,,,,,,,,,,,,,,,,,,,,,,,,,,,,,,,,,,,,,309,2022-10-05_13h58.54.932,Main,2022.2.2,60.25867845466649,
negative,yellow,1,k,None,0,0,0,0,,,,,0,0,0,0,,,,,,,,,0,157,157,11,,,,,,,,,,,,,,,,,,,,,,,,,,,,,,,,,main,774.7622338000001,None,None,1,1.5065042999995057,None,1,,,,,,,,,,,,,,,,,,,,,,,,,,,,,,,,,,,,,,,,,,,,,,,,,,,,,,,,,,,,,,,,309,2022-10-05_13h58.54.932,Main,2022.2.2,60.25867845466649,
negative,red,1,None,None,0,0,0,0,,,,,0,0,0,0,,,,,,,,,0,158,158,96,,,,,,,,,,,,,,,,,,,,,,,,,,,,,,,,,main,777.2638802000001,None,None,1,1.5303590000003169,None,1,,,,,,,,,,,,,,,,,,,,,,,,,,,,,,,,,,,,,,,,,,,,,,,,,,,,,,,,,,,,,,,,309,2022-10-05_13h58.54.932,Main,2022.2.2,60.25867845466649,
negative,red,1,None,None,0,0,0,0,,,,,0,0,0,0,,,,,,,,,0,159,159,205,,,,,,,,,,,,,,,,,,,,,,,,,,,,,,,,,main,779.7980157000002,None,None,1,1.5368644000009226,None,1,,,,,,,,,,,,,,,,,,,,,,,,,,,,,,,,,,,,,,,,,,,,,,,,,,,,,,,,,,,,,,,,309,2022-10-05_13h58.54.932,Main,2022.2.2,60.25867845466649,
negative,yellow,1,k,None,0,0,0,0,,,,,0,0,0,0,,,,,,,,,0,160,160,188,,,,,,,,,,,,,,,,,,,,,,,,,,,,,,,,,main,782.3383675000005,None,None,1,1.5199579000000085,None,1,,,,,,,,,,,,,,,,,,,,,,,,,,,,,,,,,,,,,,,,,,,,,,,,,,,,,,,,,,,,,,,,309,2022-10-05_13h58.54.932,Main,2022.2.2,60.25867845466649,
positive,yellow,1,None,k,0,0,0,0,,,,,0,0,0,0,,,,,,,,,0,161,161,85,,,,,,,,,,,,,,,,,,,,,,,,,,,,,,,,,main,784.8619253000015,k,k,1,0.8008492999997543,None,0,,,,,,,,,,,,,,,,,,,,,,,,,,,,,,,,,,,,,,,,,,,,,,,,,,,,,,,,,,,,,,,,309,2022-10-05_13h58.54.932,Main,2022.2.2,60.25867845466649,
negative,yellow,1,k,None,0,0,0,0,,,,,0,0,0,0,,,,,,,,,0,162,162,77,,,,,,,,,,,,,,,,,,,,,,,,,,,,,,,,,main,786.6670775000002,None,None,1,1.5182854000013322,None,1,,,,,,,,,,,,,,,,,,,,,,,,,,,,,,,,,,,,,,,,,,,,,,,,,,,,,,,,,,,,,,,,309,2022-10-05_13h58.54.932,Main,2022.2.2,60.25867845466649,
negative,blue,2,None,k,0,0,0,0,,,,,0,0,0,0,,,,,,,,,0,163,163,18,,,,,,,,,,,,,,,,,,,,,,,,,,,,,,,,,main,789.1903208000003,k,k,1,1.5995752999988326,None,0,,,,,,,,,,,,,,,,,,,,,,,,,,,,,,,,,,,,,,,,,,,,,,,,,,,,,,,,,,,,,,,,309,2022-10-05_13h58.54.932,Main,2022.2.2,60.25867845466649,
positive,red,1,None,None,0,0,0,0,,,,,0,0,0,0,,,,,,,,,0,164,164,115,,,,,,,,,,,,,,,,,,,,,,,,,,,,,,,,,main,792.8084199000004,None,None,1,1.5132397999987006,None,1,,,,,,,,,,,,,,,,,,,,,,,,,,,,,,,,,,,,,,,,,,,,,,,,,,,,,,,,,,,,,,,,309,2022-10-05_13h58.54.932,Main,2022.2.2,60.25867845466649,
positive,red,2,None,None,0,0,0,0,,,,,0,0,0,0,,,,,,,,,0,165,165,23,,,,,,,,,,,,,,,,,,,,,,,,,,,,,,,,,main,795.3262434000007,None,None,1,1.5314295000007405,None,1,,,,,,,,,,,,,,,,,,,,,,,,,,,,,,,,,,,,,,,,,,,,,,,,,,,,,,,,,,,,,,,,309,2022-10-05_13h58.54.932,Main,2022.2.2,60.25867845466649,
negative,blue,1,None,k,0,0,0,0,,,,,0,0,0,0,,,,,,,,,0,166,166,107,,,,,,,,,,,,,,,,,,,,,,,,,,,,,,,,,main,797.8609079000016,k,k,1,1.1354496000003564,None,0,,,,,,,,,,,,,,,,,,,,,,,,,,,,,,,,,,,,,,,,,,,,,,,,,,,,,,,,,,,,,,,,309,2022-10-05_13h58.54.932,Main,2022.2.2,60.25867845466649,
negative,yellow,2,k,None,0,0,0,0,,,,,0,0,0,0,,,,,,,,,0,167,167,167,,,,,,,,,,,,,,,,,,,,,,,,,,,,,,,,,main,799.9986104,None,None,1,1.5200093999992532,None,1,,,,,,,,,,,,,,,,,,,,,,,,,,,,,,,,,,,,,,,,,,,,,,,,,,,,,,,,,,,,,,,,309,2022-10-05_13h58.54.932,Main,2022.2.2,60.25867845466649,
negative,blue,2,None,k,0,0,0,0,,,,,0,0,0,0,,,,,,,,,0,168,168,89,,,,,,,,,,,,,,,,,,,,,,,,,,,,,,,,,main,802.524434500001,k,k,1,0.9592119000008097,None,0,,,,,,,,,,,,,,,,,,,,,,,,,,,,,,,,,,,,,,,,,,,,,,,,,,,,,,,,,,,,,,,,309,2022-10-05_13h58.54.932,Main,2022.2.2,60.25867845466649,
negative,blue,2,None,k,0,0,0,0,,,,,0,0,0,0,,,,,,,,,0,169,169,28,,,,,,,,,,,,,,,,,,,,,,,,,,,,,,,,,main,804.4908633000014,k,k,1,1.3777059000003646,None,0,,,,,,,,,,,,,,,,,,,,,,,,,,,,,,,,,,,,,,,,,,,,,,,,,,,,,,,,,,,,,,,,309,2022-10-05_13h58.54.932,Main,2022.2.2,60.25867845466649,
negative,blue,2,None,k,0,0,0,0,,,,,0,0,0,0,,,,,,,,,0,170,170,152,,,,,,,,,,,,,,,,,,,,,,,,,,,,,,,,,main,806.8701779000003,k,k,1,0.9777721999998903,None,0,,,,,,,,,,,,,,,,,,,,,,,,,,,,,,,,,,,,,,,,,,,,,,,,,,,,,,,,,,,,,,,,309,2022-10-05_13h58.54.932,Main,2022.2.2,60.25867845466649,
negative,yellow,2,k,None,0,0,0,0,,,,,0,0,0,0,,,,,,,,,0,171,171,38,,,,,,,,,,,,,,,,,,,,,,,,,,,,,,,,,main,808.8467978000008,None,None,1,1.5210425000004761,None,1,,,,,,,,,,,,,,,,,,,,,,,,,,,,,,,,,,,,,,,,,,,,,,,,,,,,,,,,,,,,,,,,309,2022-10-05_13h58.54.932,Main,2022.2.2,60.25867845466649,
negative,red,1,None,None,0,0,0,0,,,,,0,0,0,0,,,,,,,,,0,172,172,166,,,,,,,,,,,,,,,,,,,,,,,,,,,,,,,,,main,811.3736229000006,None,None,1,1.5201770000003307,None,1,,,,,,,,,,,,,,,,,,,,,,,,,,,,,,,,,,,,,,,,,,,,,,,,,,,,,,,,,,,,,,,,309,2022-10-05_13h58.54.932,Main,2022.2.2,60.25867845466649,
positive,blue,2,k,None,0,0,0,0,,,,,0,0,0,0,,,,,,,,,0,173,173,111,,,,,,,,,,,,,,,,,,,,,,,,,,,,,,,,,main,813.896690900001,None,None,1,1.505770499999926,None,1,,,,,,,,,,,,,,,,,,,,,,,,,,,,,,,,,,,,,,,,,,,,,,,,,,,,,,,,,,,,,,,,309,2022-10-05_13h58.54.932,Main,2022.2.2,60.25867845466649,
positive,blue,1,k,None,0,0,0,0,,,,,0,0,0,0,,,,,,,,,0,174,174,3,,,,,,,,,,,,,,,,,,,,,,,,,,,,,,,,,main,816.4061031000001,None,None,1,1.5320539000003919,None,1,,,,,,,,,,,,,,,,,,,,,,,,,,,,,,,,,,,,,,,,,,,,,,,,,,,,,,,,,,,,,,,,309,2022-10-05_13h58.54.932,Main,2022.2.2,60.25867845466649,
positive,blue,2,k,None,0,0,0,0,,,,,0,0,0,0,,,,,,,,,0,175,175,133,,,,,,,,,,,,,,,,,,,,,,,,,,,,,,,,,main,818.9365207999999,None,None,1,1.5275065999994695,None,1,,,,,,,,,,,,,,,,,,,,,,,,,,,,,,,,,,,,,,,,,,,,,,,,,,,,,,,,,,,,,,,,309,2022-10-05_13h58.54.932,Main,2022.2.2,60.25867845466649,
negative,red,1,None,None,0,0,0,0,,,,,0,0,0,0,,,,,,,,,0,176,176,62,,,,,,,,,,,,,,,,,,,,,,,,,,,,,,,,,main,821.4755277000004,None,None,1,1.5424700000003213,None,1,,,,,,,,,,,,,,,,,,,,,,,,,,,,,,,,,,,,,,,,,,,,,,,,,,,,,,,,,,,,,,,,309,2022-10-05_13h58.54.932,Main,2022.2.2,60.25867845466649,
positive,blue,2,k,None,0,0,0,0,,,,,0,0,0,0,,,,,,,,,0,177,177,64,,,,,,,,,,,,,,,,,,,,,,,,,,,,,,,,,main,824.0106391000008,None,None,1,1.513448600000629,None,1,,,,,,,,,,,,,,,,,,,,,,,,,,,,,,,,,,,,,,,,,,,,,,,,,,,,,,,,,,,,,,,,309,2022-10-05_13h58.54.932,Main,2022.2.2,60.25867845466649,
negative,yellow,2,k,None,0,0,0,0,,,,,0,0,0,0,,,,,,,,,0,178,178,0,,,,,,,,,,,,,,,,,,,,,,,,,,,,,,,,,main,826.5289950000006,None,None,1,1.5333372999994026,None,1,,,,,,,,,,,,,,,,,,,,,,,,,,,,,,,,,,,,,,,,,,,,,,,,,,,,,,,,,,,,,,,,309,2022-10-05_13h58.54.932,Main,2022.2.2,60.25867845466649,
positive,red,2,None,None,0,0,0,0,,,,,0,0,0,0,,,,,,,,,0,179,179,186,,,,,,,,,,,,,,,,,,,,,,,,,,,,,,,,,main,829.0663650000006,None,None,1,1.5253775000001042,None,1,,,,,,,,,,,,,,,,,,,,,,,,,,,,,,,,,,,,,,,,,,,,,,,,,,,,,,,,,,,,,,,,309,2022-10-05_13h58.54.932,Main,2022.2.2,60.25867845466649,
positive,red,2,None,None,0,0,0,0,,,,,0,0,0,0,,,,,,,,,0,180,180,60,,,,,,,,,,,,,,,,,,,,,,,,,,,,,,,,,main,831.5919178000004,None,None,1,1.5077509000002465,None,1,,,,,,,,,,,,,,,,,,,,,,,,,,,,,,,,,,,,,,,,,,,,,,,,,,,,,,,,,,,,,,,,309,2022-10-05_13h58.54.932,Main,2022.2.2,60.25867845466649,
negative,blue,2,None,k,0,0,0,0,,,,,0,0,0,0,,,,,,,,,0,181,181,132,,,,,,,,,,,,,,,,,,,,,,,,,,,,,,,,,main,834.1060978000005,k,k,1,0.9671806000005745,None,0,,,,,,,,,,,,,,,,,,,,,,,,,,,,,,,,,,,,,,,,,,,,,,,,,,,,,,,,,,,,,,,,309,2022-10-05_13h58.54.932,Main,2022.2.2,60.25867845466649,
negative,blue,2,None,k,0,0,0,0,,,,,0,0,0,0,,,,,,,,,0,182,182,175,,,,,,,,,,,,,,,,,,,,,,,,,,,,,,,,,main,836.0809272000006,k,k,1,0.8626824999992095,None,0,,,,,,,,,,,,,,,,,,,,,,,,,,,,,,,,,,,,,,,,,,,,,,,,,,,,,,,,,,,,,,,,309,2022-10-05_13h58.54.932,Main,2022.2.2,60.25867845466649,
positive,red,1,None,None,0,0,0,0,,,,,0,0,0,0,,,,,,,,,0,183,183,68,,,,,,,,,,,,,,,,,,,,,,,,,,,,,,,,,main,837.9446747000002,None,None,1,1.5111799999995128,None,1,,,,,,,,,,,,,,,,,,,,,,,,,,,,,,,,,,,,,,,,,,,,,,,,,,,,,,,,,,,,,,,,309,2022-10-05_13h58.54.932,Main,2022.2.2,60.25867845466649,
negative,blue,2,None,k,0,0,0,0,,,,,0,0,0,0,,,,,,,,,0,184,184,231,,,,,,,,,,,,,,,,,,,,,,,,,,,,,,,,,main,840.4554027000013,k,k,1,0.8552610000006098,None,0,,,,,,,,,,,,,,,,,,,,,,,,,,,,,,,,,,,,,,,,,,,,,,,,,,,,,,,,,,,,,,,,309,2022-10-05_13h58.54.932,Main,2022.2.2,60.25867845466649,
negative,yellow,2,k,None,0,0,0,0,,,,,0,0,0,0,,,,,,,,,0,185,185,88,,,,,,,,,,,,,,,,,,,,,,,,,,,,,,,,,main,842.3102130000007,None,None,1,1.515613100000337,None,1,,,,,,,,,,,,,,,,,,,,,,,,,,,,,,,,,,,,,,,,,,,,,,,,,,,,,,,,,,,,,,,,309,2022-10-05_13h58.54.932,Main,2022.2.2,60.25867845466649,
negative,yellow,1,k,None,0,0,0,0,,,,,0,0,0,0,,,,,,,,,0,186,186,209,,,,,,,,,,,,,,,,,,,,,,,,,,,,,,,,,main,844.8319131000007,None,None,1,1.5218564000006154,None,1,,,,,,,,,,,,,,,,,,,,,,,,,,,,,,,,,,,,,,,,,,,,,,,,,,,,,,,,,,,,,,,,309,2022-10-05_13h58.54.932,Main,2022.2.2,60.25867845466649,
negative,yellow,2,k,None,0,0,0,0,,,,,0,0,0,0,,,,,,,,,0,187,187,4,,,,,,,,,,,,,,,,,,,,,,,,,,,,,,,,,main,847.3545346999999,None,None,1,1.5313576000007743,None,1,,,,,,,,,,,,,,,,,,,,,,,,,,,,,,,,,,,,,,,,,,,,,,,,,,,,,,,,,,,,,,,,309,2022-10-05_13h58.54.932,Main,2022.2.2,60.25867845466649,
positive,blue,2,k,None,0,0,0,0,,,,,0,0,0,0,,,,,,,,,0,188,188,197,,,,,,,,,,,,,,,,,,,,,,,,,,,,,,,,,main,849.8888631000009,None,None,1,1.5139531000004354,None,1,,,,,,,,,,,,,,,,,,,,,,,,,,,,,,,,,,,,,,,,,,,,,,,,,,,,,,,,,,,,,,,,309,2022-10-05_13h58.54.932,Main,2022.2.2,60.25867845466649,
positive,yellow,2,None,k,0,0,0,0,,,,,0,0,0,0,,,,,,,,,0,189,189,224,,,,,,,,,,,,,,,,,,,,,,,,,,,,,,,,,main,852.4089715000009,k,k,1,1.127801200000249,None,0,,,,,,,,,,,,,,,,,,,,,,,,,,,,,,,,,,,,,,,,,,,,,,,,,,,,,,,,,,,,,,,,309,2022-10-05_13h58.54.932,Main,2022.2.2,60.25867845466649,
negative,blue,1,None,k,0,0,0,0,,,,,0,0,0,0,,,,,,,,,0,190,190,196,,,,,,,,,,,,,,,,,,,,,,,,,,,,,,,,,main,854.5374128000003,k,k,1,1.052224800001568,None,0,,,,,,,,,,,,,,,,,,,,,,,,,,,,,,,,,,,,,,,,,,,,,,,,,,,,,,,,,,,,,,,,309,2022-10-05_13h58.54.932,Main,2022.2.2,60.25867845466649,
negative,yellow,1,k,None,0,0,0,0,,,,,0,0,0,0,,,,,,,,,0,191,191,26,,,,,,,,,,,,,,,,,,,,,,,,,,,,,,,,,main,856.5976374000002,None,None,1,1.5169578999993973,None,1,,,,,,,,,,,,,,,,,,,,,,,,,,,,,,,,,,,,,,,,,,,,,,,,,,,,,,,,,,,,,,,,309,2022-10-05_13h58.54.932,Main,2022.2.2,60.25867845466649,
positive,red,2,None,None,0,0,0,0,,,,,0,0,0,0,,,,,,,,,0,192,192,227,,,,,,,,,,,,,,,,,,,,,,,,,,,,,,,,,main,859.1139243000016,None,None,1,1.517562299999554,None,1,,,,,,,,,,,,,,,,,,,,,,,,,,,,,,,,,,,,,,,,,,,,,,,,,,,,,,,,,,,,,,,,309,2022-10-05_13h58.54.932,Main,2022.2.2,60.25867845466649,
positive,blue,1,k,None,0,0,0,0,,,,,0,0,0,0,,,,,,,,,0,193,193,15,,,,,,,,,,,,,,,,,,,,,,,,,,,,,,,,,main,861.6354864000004,None,None,1,1.5392793999999412,None,1,,,,,,,,,,,,,,,,,,,,,,,,,,,,,,,,,,,,,,,,,,,,,,,,,,,,,,,,,,,,,,,,309,2022-10-05_13h58.54.932,Main,2022.2.2,60.25867845466649,
positive,yellow,2,None,k,0,0,0,0,,,,,0,0,0,0,,,,,,,,,0,194,194,222,,,,,,,,,,,,,,,,,,,,,,,,,,,,,,,,,main,864.1755697000008,k,k,1,0.9144582000008086,None,0,,,,,,,,,,,,,,,,,,,,,,,,,,,,,,,,,,,,,,,,,,,,,,,,,,,,,,,,,,,,,,,,309,2022-10-05_13h58.54.932,Main,2022.2.2,60.25867845466649,
positive,yellow,2,None,k,0,0,0,0,,,,,0,0,0,0,,,,,,,,,0,195,195,5,,,,,,,,,,,,,,,,,,,,,,,,,,,,,,,,,main,866.0917442999998,k,k,1,0.7796293999999762,None,0,,,,,,,,,,,,,,,,,,,,,,,,,,,,,,,,,,,,,,,,,,,,,,,,,,,,,,,,,,,,,,,,309,2022-10-05_13h58.54.932,Main,2022.2.2,60.25867845466649,
positive,blue,2,k,None,0,0,0,0,,,,,0,0,0,0,,,,,,,,,0,196,196,142,,,,,,,,,,,,,,,,,,,,,,,,,,,,,,,,,main,867.8821360000002,None,None,1,1.5092819999990752,None,1,,,,,,,,,,,,,,,,,,,,,,,,,,,,,,,,,,,,,,,,,,,,,,,,,,,,,,,,,,,,,,,,309,2022-10-05_13h58.54.932,Main,2022.2.2,60.25867845466649,
positive,blue,1,k,None,0,0,0,0,,,,,0,0,0,0,,,,,,,,,0,197,197,78,,,,,,,,,,,,,,,,,,,,,,,,,,,,,,,,,main,870.3904521000004,None,None,1,1.510960100000375,None,1,,,,,,,,,,,,,,,,,,,,,,,,,,,,,,,,,,,,,,,,,,,,,,,,,,,,,,,,,,,,,,,,309,2022-10-05_13h58.54.932,Main,2022.2.2,60.25867845466649,
positive,yellow,2,None,k,0,0,0,0,,,,,0,0,0,0,,,,,,,,,0,198,198,108,,,,,,,,,,,,,,,,,,,,,,,,,,,,,,,,,main,872.9000030000007,k,k,1,0.811882500000138,None,0,,,,,,,,,,,,,,,,,,,,,,,,,,,,,,,,,,,,,,,,,,,,,,,,,,,,,,,,,,,,,,,,309,2022-10-05_13h58.54.932,Main,2022.2.2,60.25867845466649,
positive,yellow,1,None,k,0,0,0,0,,,,,0,0,0,0,,,,,,,,,0,199,199,177,,,,,,,,,,,,,,,,,,,,,,,,,,,,,,,,,main,874.7172879999998,k,k,1,0.9831056000002718,None,0,,,,,,,,,,,,,,,,,,,,,,,,,,,,,,,,,,,,,,,,,,,,,,,,,,,,,,,,,,,,,,,,309,2022-10-05_13h58.54.932,Main,2022.2.2,60.25867845466649,
negative,blue,1,None,k,0,0,0,0,,,,,0,0,0,0,,,,,,,,,0,200,200,154,,,,,,,,,,,,,,,,,,,,,,,,,,,,,,,,,main,876.7103127000009,k,k,1,0.7716134000002057,None,0,,,,,,,,,,,,,,,,,,,,,,,,,,,,,,,,,,,,,,,,,,,,,,,,,,,,,,,,,,,,,,,,309,2022-10-05_13h58.54.932,Main,2022.2.2,60.25867845466649,
negative,red,2,None,None,0,0,0,0,,,,,0,0,0,0,,,,,,,,,0,201,201,210,,,,,,,,,,,,,,,,,,,,,,,,,,,,,,,,,main,878.4759414,None,None,1,1.5117339999997057,None,1,,,,,,,,,,,,,,,,,,,,,,,,,,,,,,,,,,,,,,,,,,,,,,,,,,,,,,,,,,,,,,,,309,2022-10-05_13h58.54.932,Main,2022.2.2,60.25867845466649,
positive,blue,1,k,None,0,0,0,0,,,,,0,0,0,0,,,,,,,,,0,202,202,57,,,,,,,,,,,,,,,,,,,,,,,,,,,,,,,,,main,880.9906201000013,None,None,1,1.5135814999994182,None,1,,,,,,,,,,,,,,,,,,,,,,,,,,,,,,,,,,,,,,,,,,,,,,,,,,,,,,,,,,,,,,,,309,2022-10-05_13h58.54.932,Main,2022.2.2,60.25867845466649,
negative,blue,2,None,k,0,0,0,0,,,,,0,0,0,0,,,,,,,,,0,203,203,199,,,,,,,,,,,,,,,,,,,,,,,,,,,,,,,,,main,883.5090990000008,k,k,1,0.9631614000008994,None,0,,,,,,,,,,,,,,,,,,,,,,,,,,,,,,,,,,,,,,,,,,,,,,,,,,,,,,,,,,,,,,,,309,2022-10-05_13h58.54.932,Main,2022.2.2,60.25867845466649,
negative,yellow,2,k,None,0,0,0,0,,,,,0,0,0,0,,,,,,,,,0,204,204,103,,,,,,,,,,,,,,,,,,,,,,,,,,,,,,,,,main,885.4802597000016,None,None,1,1.5140702000007877,None,1,,,,,,,,,,,,,,,,,,,,,,,,,,,,,,,,,,,,,,,,,,,,,,,,,,,,,,,,,,,,,,,,309,2022-10-05_13h58.54.932,Main,2022.2.2,60.25867845466649,
negative,blue,1,None,k,0,0,0,0,,,,,0,0,0,0,,,,,,,,,0,205,205,16,,,,,,,,,,,,,,,,,,,,,,,,,,,,,,,,,main,887.9920003000007,k,k,1,1.4443924999995943,None,0,,,,,,,,,,,,,,,,,,,,,,,,,,,,,,,,,,,,,,,,,,,,,,,,,,,,,,,,,,,,,,,,309,2022-10-05_13h58.54.932,Main,2022.2.2,60.25867845466649,
negative,blue,1,None,k,0,0,0,0,,,,,0,0,0,0,,,,,,,,,0,206,206,19,,,,,,,,,,,,,,,,,,,,,,,,,,,,,,,,,main,890.4415334000005,k,k,1,1.048489900000277,None,0,,,,,,,,,,,,,,,,,,,,,,,,,,,,,,,,,,,,,,,,,,,,,,,,,,,,,,,,,,,,,,,,309,2022-10-05_13h58.54.932,Main,2022.2.2,60.25867845466649,
positive,yellow,2,None,k,0,0,0,0,,,,,0,0,0,0,,,,,,,,,0,207,207,36,,,,,,,,,,,,,,,,,,,,,,,,,,,,,,,,,main,892.4973395000015,k,k,1,1.0419345999998768,None,0,,,,,,,,,,,,,,,,,,,,,,,,,,,,,,,,,,,,,,,,,,,,,,,,,,,,,,,,,,,,,,,,309,2022-10-05_13h58.54.932,Main,2022.2.2,60.25867845466649,
negative,yellow,1,k,None,0,0,0,0,,,,,0,0,0,0,,,,,,,,,0,208,208,61,,,,,,,,,,,,,,,,,,,,,,,,,,,,,,,,,main,894.5396173000008,None,None,1,1.5124598999991576,None,1,,,,,,,,,,,,,,,,,,,,,,,,,,,,,,,,,,,,,,,,,,,,,,,,,,,,,,,,,,,,,,,,309,2022-10-05_13h58.54.932,Main,2022.2.2,60.25867845466649,
negative,blue,2,None,k,0,0,0,0,,,,,0,0,0,0,,,,,,,,,0,209,209,171,,,,,,,,,,,,,,,,,,,,,,,,,,,,,,,,,main,897.0509916999999,k,k,1,2.1754773000011483,None,0,,,,,,,,,,,,,,,,,,,,,,,,,,,,,,,,,,,,,,,,,,,,,,,,,,,,,,,,,,,,,,,,309,2022-10-05_13h58.54.932,Main,2022.2.2,60.25867845466649,
positive,blue,1,k,None,0,0,0,0,,,,,0,0,0,0,,,,,,,,,0,210,210,137,,,,,,,,,,,,,,,,,,,,,,,,,,,,,,,,,main,901.2551344000003,None,None,1,1.513655500000823,None,1,,,,,,,,,,,,,,,,,,,,,,,,,,,,,,,,,,,,,,,,,,,,,,,,,,,,,,,,,,,,,,,,309,2022-10-05_13h58.54.932,Main,2022.2.2,60.25867845466649,
positive,yellow,1,None,k,0,0,0,0,,,,,0,0,0,0,,,,,,,,,0,211,211,97,,,,,,,,,,,,,,,,,,,,,,,,,,,,,,,,,main,903.7677202000013,k,k,1,0.8993683999997302,None,0,,,,,,,,,,,,,,,,,,,,,,,,,,,,,,,,,,,,,,,,,,,,,,,,,,,,,,,,,,,,,,,,309,2022-10-05_13h58.54.932,Main,2022.2.2,60.25867845466649,
positive,blue,1,k,None,0,0,0,0,,,,,0,0,0,0,,,,,,,,,0,212,212,176,,,,,,,,,,,,,,,,,,,,,,,,,,,,,,,,,main,905.6777085000012,None,None,1,1.5134678999984317,None,1,,,,,,,,,,,,,,,,,,,,,,,,,,,,,,,,,,,,,,,,,,,,,,,,,,,,,,,,,,,,,,,,309,2022-10-05_13h58.54.932,Main,2022.2.2,60.25867845466649,
negative,yellow,2,k,None,0,0,0,0,,,,,0,0,0,0,,,,,,,,,0,213,213,117,,,,,,,,,,,,,,,,,,,,,,,,,,,,,,,,,main,908.1888076000014,None,k,0,1.1220862999998644,None,1,,,,,,,,,,,,,,,,,,,,,,,,,,,,,,,,,,,,,,,,,,,,,,,,,,,,,,,,,,,,,,,,309,2022-10-05_13h58.54.932,Main,2022.2.2,60.25867845466649,
negative,blue,1,None,k,0,0,0,0,,,,,0,0,0,0,,,,,,,,,0,214,214,127,,,,,,,,,,,,,,,,,,,,,,,,,,,,,,,,,main,911.3342682000002,k,k,1,0.983674200000678,None,0,,,,,,,,,,,,,,,,,,,,,,,,,,,,,,,,,,,,,,,,,,,,,,,,,,,,,,,,,,,,,,,,309,2022-10-05_13h58.54.932,Main,2022.2.2,60.25867845466649,
negative,yellow,2,k,None,0,0,0,0,,,,,0,0,0,0,,,,,,,,,0,215,215,59,,,,,,,,,,,,,,,,,,,,,,,,,,,,,,,,,main,913.3247157000005,None,None,1,1.5265042000009998,None,1,,,,,,,,,,,,,,,,,,,,,,,,,,,,,,,,,,,,,,,,,,,,,,,,,,,,,,,,,,,,,,,,309,2022-10-05_13h58.54.932,Main,2022.2.2,60.25867845466649,
positive,blue,1,k,None,0,0,0,0,,,,,0,0,0,0,,,,,,,,,0,216,216,79,,,,,,,,,,,,,,,,,,,,,,,,,,,,,,,,,main,915.8514682000005,None,None,1,1.5222537999998167,None,1,,,,,,,,,,,,,,,,,,,,,,,,,,,,,,,,,,,,,,,,,,,,,,,,,,,,,,,,,,,,,,,,309,2022-10-05_13h58.54.932,Main,2022.2.2,60.25867845466649,
negative,blue,2,None,k,0,0,0,0,,,,,0,0,0,0,,,,,,,,,0,217,217,43,,,,,,,,,,,,,,,,,,,,,,,,,,,,,,,,,main,918.3718265000007,k,k,1,0.9993074000012712,None,0,,,,,,,,,,,,,,,,,,,,,,,,,,,,,,,,,,,,,,,,,,,,,,,,,,,,,,,,,,,,,,,,309,2022-10-05_13h58.54.932,Main,2022.2.2,60.25867845466649,
positive,yellow,2,None,k,0,0,0,0,,,,,0,0,0,0,,,,,,,,,0,218,218,217,,,,,,,,,,,,,,,,,,,,,,,,,,,,,,,,,main,920.3744063000013,k,k,1,1.446680600000036,None,0,,,,,,,,,,,,,,,,,,,,,,,,,,,,,,,,,,,,,,,,,,,,,,,,,,,,,,,,,,,,,,,,309,2022-10-05_13h58.54.932,Main,2022.2.2,60.25867845466649,
positive,red,1,None,None,0,0,0,0,,,,,0,0,0,0,,,,,,,,,0,219,219,99,,,,,,,,,,,,,,,,,,,,,,,,,,,,,,,,,main,922.8324071000006,None,None,1,1.514677400000437,None,1,,,,,,,,,,,,,,,,,,,,,,,,,,,,,,,,,,,,,,,,,,,,,,,,,,,,,,,,,,,,,,,,309,2022-10-05_13h58.54.932,Main,2022.2.2,60.25867845466649,
negative,yellow,1,k,None,0,0,0,0,,,,,0,0,0,0,,,,,,,,,0,220,220,223,,,,,,,,,,,,,,,,,,,,,,,,,,,,,,,,,main,925.3443846000009,None,None,1,1.5071815000010247,None,1,,,,,,,,,,,,,,,,,,,,,,,,,,,,,,,,,,,,,,,,,,,,,,,,,,,,,,,,,,,,,,,,309,2022-10-05_13h58.54.932,Main,2022.2.2,60.25867845466649,
negative,blue,1,None,k,0,0,0,0,,,,,0,0,0,0,,,,,,,,,0,221,221,20,,,,,,,,,,,,,,,,,,,,,,,,,,,,,,,,,main,927.8553212000006,k,k,1,0.7956087999991723,None,0,,,,,,,,,,,,,,,,,,,,,,,,,,,,,,,,,,,,,,,,,,,,,,,,,,,,,,,,,,,,,,,,309,2022-10-05_13h58.54.932,Main,2022.2.2,60.25867845466649,
negative,red,1,None,None,0,0,0,0,,,,,0,0,0,0,,,,,,,,,0,222,222,146,,,,,,,,,,,,,,,,,,,,,,,,,,,,,,,,,main,929.6475408000006,None,None,1,1.5137226000006194,None,1,,,,,,,,,,,,,,,,,,,,,,,,,,,,,,,,,,,,,,,,,,,,,,,,,,,,,,,,,,,,,,,,309,2022-10-05_13h58.54.932,Main,2022.2.2,60.25867845466649,
negative,red,1,None,None,0,0,0,0,,,,,0,0,0,0,,,,,,,,,0,223,223,121,,,,,,,,,,,,,,,,,,,,,,,,,,,,,,,,,main,932.1705251000003,None,None,1,1.519769599999563,None,1,,,,,,,,,,,,,,,,,,,,,,,,,,,,,,,,,,,,,,,,,,,,,,,,,,,,,,,,,,,,,,,,309,2022-10-05_13h58.54.932,Main,2022.2.2,60.25867845466649,
positive,blue,1,k,None,0,0,0,0,,,,,0,0,0,0,,,,,,,,,0,224,224,178,,,,,,,,,,,,,,,,,,,,,,,,,,,,,,,,,main,934.6898796000005,None,None,1,1.5314023999999336,None,1,,,,,,,,,,,,,,,,,,,,,,,,,,,,,,,,,,,,,,,,,,,,,,,,,,,,,,,,,,,,,,,,309,2022-10-05_13h58.54.932,Main,2022.2.2,60.25867845466649,
positive,blue,1,k,None,0,0,0,0,,,,,0,0,0,0,,,,,,,,,0,225,225,180,,,,,,,,,,,,,,,,,,,,,,,,,,,,,,,,,main,937.2249135000002,None,None,1,1.5268264999995154,None,1,,,,,,,,,,,,,,,,,,,,,,,,,,,,,,,,,,,,,,,,,,,,,,,,,,,,,,,,,,,,,,,,309,2022-10-05_13h58.54.932,Main,2022.2.2,60.25867845466649,
positive,yellow,1,None,k,0,0,0,0,,,,,0,0,0,0,,,,,,,,,0,226,226,165,,,,,,,,,,,,,,,,,,,,,,,,,,,,,,,,,main,939.7539315000013,k,k,1,1.6364601999994193,None,0,,,,,,,,,,,,,,,,,,,,,,,,,,,,,,,,,,,,,,,,,,,,,,,,,,,,,,,,,,,,,,,,309,2022-10-05_13h58.54.932,Main,2022.2.2,60.25867845466649,
negative,yellow,2,k,None,0,0,0,0,,,,,0,0,0,0,,,,,,,,,0,227,227,207,,,,,,,,,,,,,,,,,,,,,,,,,,,,,,,,,main,943.4365375000016,None,None,1,1.5166758999985177,None,1,,,,,,,,,,,,,,,,,,,,,,,,,,,,,,,,,,,,,,,,,,,,,,,,,,,,,,,,,,,,,,,,309,2022-10-05_13h58.54.932,Main,2022.2.2,60.25867845466649,
positive,red,1,None,None,0,0,0,0,,,,,0,0,0,0,,,,,,,,,0,228,228,125,,,,,,,,,,,,,,,,,,,,,,,,,,,,,,,,,main,945.9496953000016,None,None,1,1.5318656999988889,None,1,,,,,,,,,,,,,,,,,,,,,,,,,,,,,,,,,,,,,,,,,,,,,,,,,,,,,,,,,,,,,,,,309,2022-10-05_13h58.54.932,Main,2022.2.2,60.25867845466649,
negative,blue,2,None,k,0,0,0,0,,,,,0,0,0,0,,,,,,,,,0,229,229,206,,,,,,,,,,,,,,,,,,,,,,,,,,,,,,,,,main,948.4900487000014,k,k,1,2.4723744000002625,None,0,,,,,,,,,,,,,,,,,,,,,,,,,,,,,,,,,,,,,,,,,,,,,,,,,,,,,,,,,,,,,,,,309,2022-10-05_13h58.54.932,Main,2022.2.2,60.25867845466649,
negative,red,1,None,None,0,0,0,0,,,,,0,0,0,0,,,,,,,,,0,230,230,232,,,,,,,,,,,,,,,,,,,,,,,,,,,,,,,,,main,952.9777083000008,None,None,1,1.5126564999991388,None,1,,,,,,,,,,,,,,,,,,,,,,,,,,,,,,,,,,,,,,,,,,,,,,,,,,,,,,,,,,,,,,,,309,2022-10-05_13h58.54.932,Main,2022.2.2,60.25867845466649,
positive,blue,1,k,None,0,0,0,0,,,,,0,0,0,0,,,,,,,,,0,231,231,30,,,,,,,,,,,,,,,,,,,,,,,,,,,,,,,,,main,955.490394800001,None,None,1,1.514283799999248,None,1,,,,,,,,,,,,,,,,,,,,,,,,,,,,,,,,,,,,,,,,,,,,,,,,,,,,,,,,,,,,,,,,309,2022-10-05_13h58.54.932,Main,2022.2.2,60.25867845466649,
positive,yellow,2,None,k,0,0,0,0,,,,,0,0,0,0,,,,,,,,,0,232,232,14,,,,,,,,,,,,,,,,,,,,,,,,,,,,,,,,,main,958.0060850000009,k,k,1,1.1622124000004987,None,0,,,,,,,,,,,,,,,,,,,,,,,,,,,,,,,,,,,,,,,,,,,,,,,,,,,,,,,,,,,,,,,,309,2022-10-05_13h58.54.932,Main,2022.2.2,60.25867845466649,
positive,yellow,2,None,k,0,0,0,0,,,,,0,0,0,0,,,,,,,,,0,233,233,189,,,,,,,,,,,,,,,,,,,,,,,,,,,,,,,,,main,960.1795591999999,k,k,1,1.1108906999997998,None,0,,,,,,,,,,,,,,,,,,,,,,,,,,,,,,,,,,,,,,,,,,,,,,,,,,,,,,,,,,,,,,,,309,2022-10-05_13h58.54.932,Main,2022.2.2,60.25867845466649,
negative,yellow,2,k,None,0,0,0,0,,,,,0,0,0,0,,,,,,,,,0,234,234,173,,,,,,,,,,,,,,,,,,,,,,,,,,,,,,,,,main,962.2937218000006,None,None,1,1.5324609000017517,None,1,,,,,,,,,,,,,,,,,,,,,,,,,,,,,,,,,,,,,,,,,,,,,,,,,,,,,,,,,,,,,,,,309,2022-10-05_13h58.54.932,Main,2022.2.2,60.25867845466649,
negative,red,2,None,None,0,0,0,0,,,,,0,0,0,0,,,,,,,,,0,235,235,160,,,,,,,,,,,,,,,,,,,,,,,,,,,,,,,,,main,964.8239495000016,None,None,1,1.5281839999988733,None,1,,,,,,,,,,,,,,,,,,,,,,,,,,,,,,,,,,,,,,,,,,,,,,,,,,,,,,,,,,,,,,,,309,2022-10-05_13h58.54.932,Main,2022.2.2,60.25867845466649,
negative,blue,1,None,k,0,0,0,0,,,,,0,0,0,0,,,,,,,,,0,236,236,95,,,,,,,,,,,,,,,,,,,,,,,,,,,,,,,,,main,967.3536858000007,k,k,1,1.4343836000007286,None,0,,,,,,,,,,,,,,,,,,,,,,,,,,,,,,,,,,,,,,,,,,,,,,,,,,,,,,,,,,,,,,,,309,2022-10-05_13h58.54.932,Main,2022.2.2,60.25867845466649,
positive,red,2,None,None,0,0,0,0,,,,,0,0,0,0,,,,,,,,,0,237,237,52,,,,,,,,,,,,,,,,,,,,,,,,,,,,,,,,,main,969.7891557000003,None,None,1,1.527887299998838,None,1,,,,,,,,,,,,,,,,,,,,,,,,,,,,,,,,,,,,,,,,,,,,,,,,,,,,,,,,,,,,,,,,309,2022-10-05_13h58.54.932,Main,2022.2.2,60.25867845466649,
positive,yellow,1,None,k,0,0,0,0,,,,,0,0,0,0,,,,,,,,,0,238,238,193,,,,,,,,,,,,,,,,,,,,,,,,,,,,,,,,,main,972.3222940000014,k,k,1,1.1642825999988418,None,0,,,,,,,,,,,,,,,,,,,,,,,,,,,,,,,,,,,,,,,,,,,,,,,,,,,,,,,,,,,,,,,,309,2022-10-05_13h58.54.932,Main,2022.2.2,60.25867845466649,
negative,red,2,None,None,0,0,0,0,,,,,0,0,0,0,,,,,,,,,0,239,239,73,,,,,,,,,,,,,,,,,,,,,,,,,,,,,,,,,main,974.4882280000002,None,None,1,1.5128660999998829,None,1,,,,,,,,,,,,,,,,,,,,,,,,,,,,,,,,,,,,,,,,,,,,,,,,,,,,,,,,,,,,,,,,309,2022-10-05_13h58.54.932,Main,2022.2.2,60.25867845466649,
,,,,,0,0,0,0,,,,,0,0,0,0,,,,,,,,,,,,,,,,,,,,,,,,,,,,,,,,,,,,,,,,,,,,,,,,,,,,,,,,,,,,,,,,,,976.9978871000003,976.9978871000003,976.9978871000003,space,2.827939900000274,,,,,,,,,,,,,,,,,,,,,,,,,,,,,,,,,,,,,,,,,,,,,,309,2022-10-05_13h58.54.932,Main,2022.2.2,60.25867845466649,
,,,,,0,0,0,0,,,,,,,,,,,,,,,,,,,,,,,,,,,,,,,,,,,,,,,,,,,,,,,,,,,,,,,,,,,,,,,,,,,,,,,,,,,,,,,,,,,,,,,,,,,,,,,,,,,,,,,,,,,,,,,,,,,,,,,,,,,,309,2022-10-05_13h58.54.932,Main,2022.2.2,60.25867845466649,
,,,,,1,0,1,0,0,0,0,0,,,,,,,,,,,,,,,,,,,,,0,0,0,0,,,,,,,,,,,,,,,,,,,,,,,,,,,,,,,,,,,,,,,,,,,,,,,,,,,979.9071757000002,979.9071757000002,981.8596797999999,space,2.645910499999445,space,51.44632249999995,1035.0712081000001,,,,,,,,,,,,,,,,,,,,,,,,,,,,,,,,,,,,,,309,2022-10-05_13h58.54.932,Main,2022.2.2,60.25867845466649,
positive,positive,1,l,j,1,0,1,0,0,0,0,0,,,,,,,,,,,,,,,,,,,,,,,,,0,0,0,2,,,,,,,,,,,,,,,,,,,,,prac,,,,,,,,,,,,,,,,,,,,,,,,,,,,,,,,,,0.00024510000002919696,0.05555555555555555,-0.3574074074074074,0,0,0,1038.1022268000015,1,1,1,positive,positive,1040.1865779,1040.1865779,1040.1865779,1040.1865779,1041.1331224000005,1041.2275298000004,j,j,1,2.403556399998706,1043.5657836999999,1043.5657836999999,1043.5657836999999,1044.6070157000013,1044.6070157000013,1044.6070157000013,,,,,,,,,,309,2022-10-05_13h58.54.932,Main,2022.2.2,60.25867845466649,
negative,negative,2,j,l,1,0,1,0,0,0,0,0,,,,,,,,,,,,,,,,,,,,,,,,,0,1,1,9,,,,,,,,,,,,,,,,,,,,,prac,,,,,,,,,,,,,,,,,,,,,,,,,,,,,,,,,,,,,,,,,2,2,2,negative,negative,1044.6070157000013,1044.6070157000013,1044.6070157000013,1044.6070157000013,1045.5769450000007,1045.6398253000007,l,l,1,1.2108440000010887,1046.8202535,1046.8202535,1046.8202535,1046.8202535,1046.8202535,1046.8202535,,,,,,,,,,309,2022-10-05_13h58.54.932,Main,2022.2.2,60.25867845466649,
neutral,neutral,2,k,k,1,0,1,0,0,0,0,0,,,,,,,,,,,,,,,,,,,,,,,,,0,2,2,10,,,,,,,,,,,,,,,,,,,,,prac,,,,,,,,,,,,,,,,,,,,,,,,,,,,,,,,,,,,,,,,,1,1,2,neutral,neutral,1046.8202535,1046.8202535,1046.8202535,1046.8202535,1047.8015766000008,1047.8688147000012,k,k,1,1.187019999999393,1048.998832700001,1048.998832700001,1048.998832700001,1048.998832700001,1048.998832700001,1048.998832700001,,,,,,,,,,309,2022-10-05_13h58.54.932,Main,2022.2.2,60.25867845466649,
neutral,negative,1,j,l,1,0,1,0,0,0,0,0,,,,,,,,,,,,,,,,,,,,,,,,,0,3,3,3,,,,,,,,,,,,,,,,,,,,,prac,,,,,,,,,,,,,,,,,,,,,,,,,,,,,,,,,,,,,,,,,1,1,1,neutral,negative,1048.998832700001,1048.998832700001,1048.998832700001,1048.998832700001,1049.981835300001,1050.013248000001,l,l,1,1.9727798000003531,1051.9600179000008,1051.9600179000008,1051.9600179000008,1052.9881772000008,1052.9881772000008,1052.9881772000008,,,,,,,,,,309,2022-10-05_13h58.54.932,Main,2022.2.2,60.25867845466649,
positive,neutral,2,k,k,1,0,1,0,0,0,0,0,,,,,,,,,,,,,,,,,,,,,,,,,0,4,4,13,,,,,,,,,,,,,,,,,,,,,prac,,,,,,,,,,,,,,,,,,,,,,,,,,,,,,,,,,,,,,,,,2,2,2,positive,neutral,1052.9881772000008,1052.9881772000008,1052.9881772000008,1052.9881772000008,1053.979845400001,1054.0096025000003,k,k,1,1.7040687000007892,1055.6719118,1055.6719118,1055.6719118,1056.6990001000013,1056.6990001000013,1056.6990001000013,,,,,,,,,,309,2022-10-05_13h58.54.932,Main,2022.2.2,60.25867845466649,
positive,negative,2,j,l,1,0,1,0,0,0,0,0,,,,,,,,,,,,,,,,,,,,,,,,,0,5,5,15,,,,,,,,,,,,,,,,,,,,,prac,,,,,,,,,,,,,,,,,,,,,,,,,,,,,,,,,,,,,,,,,2,2,2,positive,negative,1056.6990001000013,1056.6990001000013,1056.6990001000013,1056.6990001000013,1057.6818223999999,1057.7176200000013,l,l,1,1.123166500001389,1058.8282464000004,1058.8282464000004,1058.8282464000004,1058.8282464000004,1058.8282464000004,1058.8282464000004,,,,,,,,,,309,2022-10-05_13h58.54.932,Main,2022.2.2,60.25867845466649,
negative,negative,1,j,l,1,0,1,0,0,0,0,0,,,,,,,,,,,,,,,,,,,,,,,,,0,6,6,0,,,,,,,,,,,,,,,,,,,,,prac,,,,,,,,,,,,,,,,,,,,,,,,,,,,,,,,,,,,,,,,,1,1,1,negative,negative,1058.8282464000004,1058.8282464000004,1058.8282464000004,1058.8282464000004,1059.8303775000004,1059.8621036000004,l,l,1,0.8763333000006241,1060.7065626000003,1060.7065626000003,1060.7065626000003,1060.7065626000003,1060.7065626000003,1060.7065626000003,,,,,,,,,,309,2022-10-05_13h58.54.932,Main,2022.2.2,60.25867845466649,
negative,positive,1,l,j,1,0,1,0,0,0,0,0,,,,,,,,,,,,,,,,,,,,,,,,,0,7,7,5,,,,,,,,,,,,,,,,,,,,,prac,,,,,,,,,,,,,,,,,,,,,,,,,,,,,,,,,,,,,,,,,1,1,1,negative,positive,1060.7065626000003,1060.7065626000003,1060.7065626000003,1060.7065626000003,1061.6829554000014,1061.7575905000012,j,j,1,0.9813909999993484,1062.6929989,1062.6929989,1062.6929989,1062.6929989,1062.6929989,1062.6929989,,,,,,,,,,309,2022-10-05_13h58.54.932,Main,2022.2.2,60.25867845466649,
positive,neutral,1,k,k,1,0,1,0,0,0,0,0,,,,,,,,,,,,,,,,,,,,,,,,,0,8,8,4,,,,,,,,,,,,,,,,,,,,,prac,,,,,,,,,,,,,,,,,,,,,,,,,,,,,,,,,,,,,,,,,1,1,1,positive,neutral,1062.6929989,1062.6929989,1062.6929989,1062.6929989,1063.6825688000008,1063.714440400001,k,k,1,0.9911419000000024,1064.6799948000007,1064.6799948000007,1064.6799948000007,1064.6799948000007,1064.6799948000007,1064.6799948000007,,,,,,,,,,309,2022-10-05_13h58.54.932,Main,2022.2.2,60.25867845466649,
positive,positive,2,l,j,1,0,1,0,0,0,0,0,,,,,,,,,,,,,,,,,,,,,,,,,0,9,9,11,,,,,,,,,,,,,,,,,,,,,prac,,,,,,,,,,,,,,,,,,,,,,,,,,,,,,,,,,,,,,,,,2,2,2,positive,positive,1064.6799948000007,1064.6799948000007,1064.6799948000007,1064.6799948000007,1065.6719859000004,1065.7062595000007,j,j,1,1.3267794999992475,1067.0109108000015,1067.0109108000015,1067.0109108000015,1067.0109108000015,1067.0109108000015,1067.0109108000015,,,,,,,,,,309,2022-10-05_13h58.54.932,Main,2022.2.2,60.25867845466649,
negative,neutral,1,k,k,1,0,1,0,0,0,0,0,,,,,,,,,,,,,,,,,,,,,,,,,0,10,10,7,,,,,,,,,,,,,,,,,,,,,prac,,,,,,,,,,,,,,,,,,,,,,,,,,,,,,,,,,,,,,,,,1,1,1,negative,neutral,1067.0109108000015,1067.0109108000015,1067.0109108000015,1067.0109108000015,1068.0167644000012,1068.0458526000002,k,k,1,0.995664800000668,1069.0116739000005,1069.0116739000005,1069.0116739000005,1069.0116739000005,1069.0116739000005,1069.0116739000005,,,,,,,,,,309,2022-10-05_13h58.54.932,Main,2022.2.2,60.25867845466649,
neutral,positive,1,l,j,1,0,1,0,0,0,0,0,,,,,,,,,,,,,,,,,,,,,,,,,0,11,11,8,,,,,,,,,,,,,,,,,,,,,prac,,,,,,,,,,,,,,,,,,,,,,,,,,,,,,,,,,,,,,,,,2,2,1,neutral,positive,1069.0116739000005,1069.0116739000005,1069.0116739000005,1069.0116739000005,1070.0030368000007,1070.0332909000008,j,j,1,1.1466041000003315,1071.1512502000005,1071.1512502000005,1071.1512502000005,1071.1512502000005,1071.1512502000005,1071.1512502000005,,,,,,,,,,309,2022-10-05_13h58.54.932,Main,2022.2.2,60.25867845466649,
negative,positive,2,l,j,1,0,1,0,0,0,0,0,,,,,,,,,,,,,,,,,,,,,,,,,0,12,12,14,,,,,,,,,,,,,,,,,,,,,prac,,,,,,,,,,,,,,,,,,,,,,,,,,,,,,,,,,,,,,,,,2,2,2,negative,positive,1071.1512502000005,1071.1512502000005,1071.1512502000005,1071.1512502000005,1072.1451402000002,1072.1766351000006,j,j,1,0.947433600000295,1073.1104976000006,1073.1104976000006,1073.1104976000006,1073.1104976000006,1073.1104976000006,1073.1104976000006,,,,,,,,,,309,2022-10-05_13h58.54.932,Main,2022.2.2,60.25867845466649,
negative,neutral,2,k,k,1,0,1,0,0,0,0,0,,,,,,,,,,,,,,,,,,,,,,,,,0,13,13,16,,,,,,,,,,,,,,,,,,,,,prac,,,,,,,,,,,,,,,,,,,,,,,,,,,,,,,,,,,,,,,,,2,2,2,negative,neutral,1073.1104976000006,1073.1104976000006,1073.1104976000006,1073.1104976000006,1074.0857160000014,1074.1516005000012,k,k,1,0.9665776000001642,1075.0744436000004,1075.0744436000004,1075.0744436000004,1075.0744436000004,1075.0744436000004,1075.0744436000004,,,,,,,,,,309,2022-10-05_13h58.54.932,Main,2022.2.2,60.25867845466649,
neutral,negative,2,j,l,1,0,1,0,0,0,0,0,,,,,,,,,,,,,,,,,,,,,,,,,0,14,14,12,,,,,,,,,,,,,,,,,,,,,prac,,,,,,,,,,,,,,,,,,,,,,,,,,,,,,,,,,,,,,,,,2,2,2,neutral,negative,1075.0744436000004,1075.0744436000004,1075.0744436000004,1075.0744436000004,1076.063581100001,1076.0964747000016,l,l,1,1.3797199000000546,1077.4649128,1077.4649128,1077.4649128,1077.4649128,1077.4649128,1077.4649128,,,,,,,,,,309,2022-10-05_13h58.54.932,Main,2022.2.2,60.25867845466649,
positive,negative,1,j,l,1,0,1,0,0,0,0,0,,,,,,,,,,,,,,,,,,,,,,,,,0,15,15,6,,,,,,,,,,,,,,,,,,,,,prac,,,,,,,,,,,,,,,,,,,,,,,,,,,,,,,,,,,,,,,,,2,2,1,positive,negative,1077.4649128,1077.4649128,1077.4649128,1077.4649128,1078.446434900001,1078.5081969000003,l,l,1,2.5538534999996045,1080.9882226000009,1080.9882226000009,1080.9882226000009,1082.0240244000015,1082.0240244000015,1082.0240244000015,,,,,,,,,,309,2022-10-05_13h58.54.932,Main,2022.2.2,60.25867845466649,
neutral,neutral,1,k,k,1,0,1,0,0,0,0,0,,,,,,,,,,,,,,,,,,,,,,,,,0,16,16,1,,,,,,,,,,,,,,,,,,,,,prac,,,,,,,,,,,,,,,,,,,,,,,,,,,,,,,,,,,,,,,,,1,1,1,neutral,neutral,1082.0240244000015,1082.0240244000015,1082.0240244000015,1082.0240244000015,1083.0071938,1083.0383973000007,k,k,1,1.0857378000000608,1084.1141708000014,1084.1141708000014,1084.1141708000014,1084.1141708000014,1084.1141708000014,1084.1141708000014,,,,,,,,,,309,2022-10-05_13h58.54.932,Main,2022.2.2,60.25867845466649,
neutral,positive,2,l,j,1,0,1,0,0,0,0,0,,,,,,,,,,,,,,,,,,,,,,,,,0,17,17,17,,,,,,,,,,,,,,,,,,,,,prac,,,,,,,,,,,,,,,,,,,,,,,,,,,,,,,,,,,,,,,,,1,1,2,neutral,positive,1084.1141708000014,1084.1141708000014,1084.1141708000014,1084.1141708000014,1085.0879729000008,1085.1518327000013,j,j,1,0.9785611999996036,1086.0899651,1086.0899651,1086.0899651,1086.0899651,1086.0899651,1086.0899651,,,,,,,,,,309,2022-10-05_13h58.54.932,Main,2022.2.2,60.25867845466649,
positive,neutral,2,k,k,1,0,1,0,0,0,0,0,,,,,,,,,,,,,,,,,,,,,,,,,1,0,18,13,,,,,,,,,,,,,,,,,,,,,prac,,,,,,,,,,,,,,,,,,,,,,,,,,,,,,,,,,,,,,,,,2,2,2,positive,neutral,1086.0899651,1086.0899651,1086.0899651,1086.0899651,1087.0635715000008,1087.122942,k,k,1,0.9656838999999309,1088.054541900001,1088.054541900001,1088.054541900001,1088.054541900001,1088.054541900001,1088.054541900001,,,,,,,,,,309,2022-10-05_13h58.54.932,Main,2022.2.2,60.25867845466649,
neutral,positive,1,l,j,1,0,1,0,0,0,0,0,,,,,,,,,,,,,,,,,,,,,,,,,1,1,19,8,,,,,,,,,,,,,,,,,,,,,prac,,,,,,,,,,,,,,,,,,,,,,,,,,,,,,,,,,,,,,,,,2,2,1,neutral,positive,1088.054541900001,1088.054541900001,1088.054541900001,1088.054541900001,1089.0482917000008,1089.0778966000016,j,j,1,1.0888047000007646,1090.1498589000003,1090.1498589000003,1090.1498589000003,1090.1498589000003,1090.1498589000003,1090.1498589000003,,,,,,,,,,309,2022-10-05_13h58.54.932,Main,2022.2.2,60.25867845466649,
positive,negative,1,j,l,1,0,1,0,0,0,0,0,,,,,,,,,,,,,,,,,,,,,,,,,1,2,20,6,,,,,,,,,,,,,,,,,,,,,prac,,,,,,,,,,,,,,,,,,,,,,,,,,,,,,,,,,,,,,,,,2,2,1,positive,negative,1090.1498589000003,1090.1498589000003,1090.1498589000003,1090.1498589000003,1091.1284476,1091.2005689000016,l,l,1,1.4906977000009647,1092.646257100001,1092.646257100001,1092.646257100001,1092.646257100001,1092.646257100001,1092.646257100001,,,,,,,,,,309,2022-10-05_13h58.54.932,Main,2022.2.2,60.25867845466649,
positive,positive,2,l,j,1,0,1,0,0,0,0,0,,,,,,,,,,,,,,,,,,,,,,,,,1,3,21,11,,,,,,,,,,,,,,,,,,,,,prac,,,,,,,,,,,,,,,,,,,,,,,,,,,,,,,,,,,,,,,,,1,1,2,positive,positive,1092.646257100001,1092.646257100001,1092.646257100001,1092.646257100001,1093.6312122,1093.6668341000004,j,j,1,1.7305517999993754,1095.3573964000007,1095.3573964000007,1095.3573964000007,1096.382305000001,1096.382305000001,1096.382305000001,,,,,,,,,,309,2022-10-05_13h58.54.932,Main,2022.2.2,60.25867845466649,
neutral,neutral,1,k,k,1,0,1,0,0,0,0,0,,,,,,,,,,,,,,,,,,,,,,,,,1,4,22,1,,,,,,,,,,,,,,,,,,,,,prac,,,,,,,,,,,,,,,,,,,,,,,,,,,,,,,,,,,,,,,,,2,2,1,neutral,neutral,1096.382305000001,1096.382305000001,1096.382305000001,1096.382305000001,1097.3704074000016,1097.400828400001,k,k,1,0.9493090999985725,1098.3384365000002,1098.3384365000002,1098.3384365000002,1098.3384365000002,1098.3384365000002,1098.3384365000002,,,,,,,,,,309,2022-10-05_13h58.54.932,Main,2022.2.2,60.25867845466649,
positive,negative,2,j,l,1,0,1,0,0,0,0,0,,,,,,,,,,,,,,,,,,,,,,,,,1,5,23,15,,,,,,,,,,,,,,,,,,,,,prac,,,,,,,,,,,,,,,,,,,,,,,,,,,,,,,,,,,,,,,,,1,1,2,positive,negative,1098.3384365000002,1098.3384365000002,1098.3384365000002,1098.3384365000002,1099.3381493000015,1099.368884200001,l,l,1,0.895606800000678,1100.2346534000008,1100.2346534000008,1100.2346534000008,1100.2346534000008,1100.2346534000008,1100.2346534000008,,,,,,,,,,309,2022-10-05_13h58.54.932,Main,2022.2.2,60.25867845466649,
neutral,neutral,2,k,k,1,0,1,0,0,0,0,0,,,,,,,,,,,,,,,,,,,,,,,,,1,6,24,10,,,,,,,,,,,,,,,,,,,,,prac,,,,,,,,,,,,,,,,,,,,,,,,,,,,,,,,,,,,,,,,,1,1,2,neutral,neutral,1100.2346534000008,1100.2346534000008,1100.2346534000008,1100.2346534000008,1101.2373215000007,1101.2679908999999,k,k,1,1.5572136999999202,1102.7711086,1102.7711086,1102.7711086,1103.8197980000004,1103.8197980000004,1103.8197980000004,,,,,,,,,,309,2022-10-05_13h58.54.932,Main,2022.2.2,60.25867845466649,
neutral,positive,2,l,j,1,0,1,0,0,0,0,0,,,,,,,,,,,,,,,,,,,,,,,,,1,7,25,17,,,,,,,,,,,,,,,,,,,,,prac,,,,,,,,,,,,,,,,,,,,,,,,,,,,,,,,,,,,,,,,,2,2,2,neutral,positive,1103.8197980000004,1103.8197980000004,1103.8197980000004,1103.8197980000004,1104.7922112000015,1104.8624723000012,j,j,1,1.3192665000005945,1106.1384590000016,1106.1384590000016,1106.1384590000016,1106.1384590000016,1106.1384590000016,1106.1384590000016,,,,,,,,,,309,2022-10-05_13h58.54.932,Main,2022.2.2,60.25867845466649,
negative,neutral,2,k,k,1,0,1,0,0,0,0,0,,,,,,,,,,,,,,,,,,,,,,,,,1,8,26,16,,,,,,,,,,,,,,,,,,,,,prac,,,,,,,,,,,,,,,,,,,,,,,,,,,,,,,,,,,,,,,,,1,1,2,negative,neutral,1106.1384590000016,1106.1384590000016,1106.1384590000016,1106.1384590000016,1107.1188805000002,1107.1815176,k,k,1,1.2051558999992267,1108.3450876000006,1108.3450876000006,1108.3450876000006,1108.3450876000006,1108.3450876000006,1108.3450876000006,,,,,,,,,,309,2022-10-05_13h58.54.932,Main,2022.2.2,60.25867845466649,
negative,negative,2,j,l,1,0,1,0,0,0,0,0,,,,,,,,,,,,,,,,,,,,,,,,,1,9,27,9,,,,,,,,,,,,,,,,,,,,,prac,,,,,,,,,,,,,,,,,,,,,,,,,,,,,,,,,,,,,,,,,2,2,2,negative,negative,1108.3450876000006,1108.3450876000006,1108.3450876000006,1108.3450876000006,1109.3367976000009,1109.3671352000001,l,l,1,0.8126367000004393,1110.1549283000004,1110.1549283000004,1110.1549283000004,1110.1549283000004,1110.1549283000004,1110.1549283000004,,,,,,,,,,309,2022-10-05_13h58.54.932,Main,2022.2.2,60.25867845466649,
negative,positive,2,l,j,1,0,1,0,0,0,0,0,,,,,,,,,,,,,,,,,,,,,,,,,1,10,28,14,,,,,,,,,,,,,,,,,,,,,prac,,,,,,,,,,,,,,,,,,,,,,,,,,,,,,,,,,,,,,,,,2,2,2,negative,positive,1110.1549283000004,1110.1549283000004,1110.1549283000004,1110.1549283000004,1111.1361941000014,1111.198249500001,j,j,1,1.0027174000006198,1112.1607779000005,1112.1607779000005,1112.1607779000005,1112.1607779000005,1112.1607779000005,1112.1607779000005,,,,,,,,,,309,2022-10-05_13h58.54.932,Main,2022.2.2,60.25867845466649,
positive,neutral,1,k,k,1,0,1,0,0,0,0,0,,,,,,,,,,,,,,,,,,,,,,,,,1,11,29,4,,,,,,,,,,,,,,,,,,,,,prac,,,,,,,,,,,,,,,,,,,,,,,,,,,,,,,,,,,,,,,,,1,1,1,positive,neutral,1112.1607779000005,1112.1607779000005,1112.1607779000005,1112.1607779000005,1113.1399527000012,1113.2053896000016,k,k,1,0.8544802999986132,1114.0218731000004,1114.0218731000004,1114.0218731000004,1114.0218731000004,1114.0218731000004,1114.0218731000004,,,,,,,,,,309,2022-10-05_13h58.54.932,Main,2022.2.2,60.25867845466649,
positive,positive,1,l,j,1,0,1,0,0,0,0,0,,,,,,,,,,,,,,,,,,,,,,,,,1,12,30,2,,,,,,,,,,,,,,,,,,,,,prac,,,,,,,,,,,,,,,,,,,,,,,,,,,,,,,,,,,,,,,,,2,2,1,positive,positive,1114.0218731000004,1114.0218731000004,1114.0218731000004,1114.0218731000004,1115.0086820000015,1115.0405228,j,j,1,1.0869504999991477,1116.104610800001,1116.104610800001,1116.104610800001,1116.104610800001,1116.104610800001,1116.104610800001,,,,,,,,,,309,2022-10-05_13h58.54.932,Main,2022.2.2,60.25867845466649,
neutral,negative,2,j,l,1,0,1,0,0,0,0,0,,,,,,,,,,,,,,,,,,,,,,,,,1,13,31,12,,,,,,,,,,,,,,,,,,,,,prac,,,,,,,,,,,,,,,,,,,,,,,,,,,,,,,,,,,,,,,,,1,1,2,neutral,negative,1116.104610800001,1116.104610800001,1116.104610800001,1116.104610800001,1117.0935181000004,1117.1235103,l,l,1,0.9184316999999282,1118.020149,1118.020149,1118.020149,1118.020149,1118.020149,1118.020149,,,,,,,,,,309,2022-10-05_13h58.54.932,Main,2022.2.2,60.25867845466649,
negative,negative,1,j,l,1,0,1,0,0,0,0,0,,,,,,,,,,,,,,,,,,,,,,,,,1,14,32,0,,,,,,,,,,,,,,,,,,,,,prac,,,,,,,,,,,,,,,,,,,,,,,,,,,,,,,,,,,,,,,,,1,1,1,negative,negative,1118.020149,1118.020149,1118.020149,1118.020149,1119.0055348000005,1119.0366736000014,l,l,1,0.9938215000001946,1120.020223200001,1120.020223200001,1120.020223200001,1120.020223200001,1120.020223200001,1120.020223200001,,,,,,,,,,309,2022-10-05_13h58.54.932,Main,2022.2.2,60.25867845466649,
neutral,negative,1,j,l,1,0,1,0,0,0,0,0,,,,,,,,,,,,,,,,,,,,,,,,,1,15,33,3,,,,,,,,,,,,,,,,,,,,,prac,,,,,,,,,,,,,,,,,,,,,,,,,,,,,,,,,,,,,,,,,1,1,1,neutral,negative,1120.020223200001,1120.020223200001,1120.020223200001,1120.020223200001,1121.0295986,1121.0622320000002,l,l,1,0.8154909999993833,1121.8407713000015,1121.8407713000015,1121.8407713000015,1121.8407713000015,1121.8407713000015,1121.8407713000015,,,,,,,,,,309,2022-10-05_13h58.54.932,Main,2022.2.2,60.25867845466649,
negative,neutral,1,k,k,1,0,1,0,0,0,0,0,,,,,,,,,,,,,,,,,,,,,,,,,1,16,34,7,,,,,,,,,,,,,,,,,,,,,prac,,,,,,,,,,,,,,,,,,,,,,,,,,,,,,,,,,,,,,,,,2,2,1,negative,neutral,1121.8407713000015,1121.8407713000015,1121.8407713000015,1121.8407713000015,1122.8192230000004,1122.8922396000016,k,k,1,0.8970114000003377,1123.7329193000005,1123.7329193000005,1123.7329193000005,1123.7329193000005,1123.7329193000005,1123.7329193000005,,,,,,,,,,309,2022-10-05_13h58.54.932,Main,2022.2.2,60.25867845466649,
negative,positive,1,l,j,1,0,1,0,0,0,0,0,,,,,,,,,,,,,,,,,,,,,,,,,1,17,35,5,,,,,,,,,,,,,,,,,,,,,prac,,,,,,,,,,,,,,,,,,,,,,,,,,,,,,,,,,,,,,,,,2,2,1,negative,positive,1123.7329193000005,1123.7329193000005,1123.7329193000005,1123.7329193000005,1124.7303724000012,1124.7597827000009,j,j,1,1.160534099999495,1125.8935729000004,1125.8935729000004,1125.8935729000004,1125.8935729000004,1125.8935729000004,1125.8935729000004,,,,,,,,,,309,2022-10-05_13h58.54.932,Main,2022.2.2,60.25867845466649,
positive,negative,2,j,l,1,0,1,0,0,0,0,0,,,,,,,,,,,,,,,,,,,,,,,,,,,,,0,0,0,15,,,,,,,,,,,,,,,,,main,,,,,,,,,,,,,,,,,,,,,,,,,,,,,,,,,,,,,,,,1128.1727926000003,2,2,2,positive,negative,1130.2250146000006,1130.2250146000006,1130.2250146000006,1130.2250146000006,1131.2197069000013,1131.2511708000002,l,l,1,0.880604999998468,1132.116256700001,1132.116256700001,1132.116256700001,1132.116256700001,1132.116256700001,1132.116256700001,1125.8935729000004,0.00017610000031709205,None,0.075,-0.09444444444444444,0,0,0,,309,2022-10-05_13h58.54.932,Main,2022.2.2,60.25867845466649,
