target,distractor,set,ans1,ans2,total_experiment.thisRepN,total_experiment.thisTrialN,total_experiment.thisN,total_experiment.thisIndex,boat.thisRepN,boat.thisTrialN,boat.thisN,boat.thisIndex,fl_rep_loop2.thisRepN,fl_rep_loop2.thisTrialN,fl_rep_loop2.thisN,fl_rep_loop2.thisIndex,flanker_prac_loop.thisRepN,flanker_prac_loop.thisTrialN,flanker_prac_loop.thisN,flanker_prac_loop.thisIndex,flanker_main_loop.thisRepN,flanker_main_loop.thisTrialN,flanker_main_loop.thisN,flanker_main_loop.thisIndex,flanker_rest.thisRepN,flanker_rest.thisTrialN,flanker_rest.thisN,flanker_rest.thisIndex,para.thisRepN,para.thisTrialN,para.thisN,para.thisIndex,para_rep_loop.thisRepN,para_rep_loop.thisTrialN,para_rep_loop.thisN,para_rep_loop.thisIndex,para_prac_loop.thisRepN,para_prac_loop.thisTrialN,para_prac_loop.thisN,para_prac_loop.thisIndex,para_main_loop.thisRepN,para_main_loop.thisTrialN,para_main_loop.thisN,para_main_loop.thisIndex,para_rest.thisRepN,para_rest.thisTrialN,para_rest.thisN,para_rest.thisIndex,fl_starter_back.started,fl_starter.started,fl_starter_text.started,fl_starter.keys,fl_starter.rt,fl_inst_resp.keys,fl_inst_resp.rt,fl_back.started,fl_mouse_prac.started,fl_mouse_prac.x,fl_mouse_prac.y,fl_mouse_prac.leftButton,fl_mouse_prac.midButton,fl_mouse_prac.rightButton,back_2.started,main_prac,fl_cold,fl_colt,fl_set,fl_dcond,fl_tcond,fl_fix.started,j_button.started,k_button.started,l_button.started,targ.started,fl_fix.stopped,fl_ans,fl_res,fl_corr,fl_rt,j_button2.started,k_button2.started,l_button2.started,j_button2.stopped,k_button2.stopped,l_button2.stopped,fl_mainback.started,fl_mouse_m.started,fl_key_resp.keys,fl_mouse_m.x,fl_mouse_m.y,fl_mouse_m.leftButton,fl_mouse_m.midButton,fl_mouse_m.rightButton,rest_text.started,rest_key.started,rest_inst_text.started,rest_time.started,rest_key.keys,exp_end_key.started,exp_end_back.started,exp_end_text.started,exp_end_key.keys,exp_end_key.rt,para_starter.started,para_starter_key.started,para_starter_key.keys,para_starter_key.rt,para_inst_sound.started,para_inst_key.keys,para_inst_key.rt,para_inst_image.started,para_prac_back.started,para_prac_text.started,para_fix_back.started,para_fix_2.started,para_back.started,st_ans,st_res,st_corr,st_rt,st2_resp.keys,st2_resp.corr,para_main_back.started,para_main_text.started,para_mouse.started,para_mouse.x,para_mouse.y,para_mouse.leftButton,para_mouse.midButton,para_mouse.rightButton,total_end_text.started,id*,date,expName,psychopyVersion,frameRate,
,,,,,0,0,0,0,0,0,0,0,0,0,0,0,,,,,,,,,,,,,,,,,,,,,,,,,,,,,,,,,59.647654800000055,59.647654800000055,61.636301900000035,space,31.72816089999992,space,60.46649699999989,152.9123666999999,,,,,,,,,,,,,,,,,,,,,,,,,,,,,,,,,,,,,,,,,,,,,,,,,,,,,,,,,,,,,,,,,,,,,,,,,,,,312,2022-10-12_10h14.37.705,Main,2022.2.2,60.228918071760525,
neutral,negative,2,k,k,0,0,0,0,0,0,0,0,,,,,0,0,0,16,,,,,,,,,,,,,,,,,,,,,,,,,,,,,,,,,,,,,0.0022733999999218213,0.009259259259259259,-0.34074074074074073,0,0,0,170.1833127,prac,1,1,2,negative,neutral,172.37104290000002,172.37104290000002,172.37104290000002,172.37104290000002,173.3545701999999,173.3868688,k,k,1,3.2897281000000476,176.64848469999993,176.64848469999993,176.64848469999993,177.70167130000004,177.70167130000004,177.70167130000004,,,,,,,,,,,,,,,,,,,,,,,,,,,,,,,,,,,,,,,,,,,,,,,312,2022-10-12_10h14.37.705,Main,2022.2.2,60.228918071760525,
positive,neutral,1,l,j,0,0,0,0,0,0,0,0,,,,,0,1,1,8,,,,,,,,,,,,,,,,,,,,,,,,,,,,,,,,,,,,,,,,,,,,prac,2,2,1,neutral,positive,177.70167130000004,177.70167130000004,177.70167130000004,177.70167130000004,178.6822517999999,178.7432056,l,l,1,1.9442180999999437,180.6170055,180.6170055,180.6170055,181.6649774,181.6649774,181.6649774,,,,,,,,,,,,,,,,,,,,,,,,,,,,,,,,,,,,,,,,,,,,,,,312,2022-10-12_10h14.37.705,Main,2022.2.2,60.228918071760525,
positive,positive,2,l,j,0,0,0,0,0,0,0,0,,,,,0,2,2,11,,,,,,,,,,,,,,,,,,,,,,,,,,,,,,,,,,,,,,,,,,,,prac,2,2,2,positive,positive,181.6649774,181.6649774,181.6649774,181.6649774,182.6596631,182.68858479999994,l,l,1,1.3280591000000186,183.99826529999996,183.99826529999996,183.99826529999996,183.99826529999996,183.99826529999996,183.99826529999996,,,,,,,,,,,,,,,,,,,,,,,,,,,,,,,,,,,,,,,,,,,,,,,312,2022-10-12_10h14.37.705,Main,2022.2.2,60.228918071760525,
neutral,neutral,2,k,k,0,0,0,0,0,0,0,0,,,,,0,3,3,10,,,,,,,,,,,,,,,,,,,,,,,,,,,,,,,,,,,,,,,,,,,,prac,2,2,2,neutral,neutral,183.99826529999996,183.99826529999996,183.99826529999996,183.99826529999996,184.98683970000002,185.01684369999998,k,k,1,1.1414455999999973,186.13178479999988,186.13178479999988,186.13178479999988,186.13178479999988,186.13178479999988,186.13178479999988,,,,,,,,,,,,,,,,,,,,,,,,,,,,,,,,,,,,,,,,,,,,,,,312,2022-10-12_10h14.37.705,Main,2022.2.2,60.228918071760525,
positive,negative,2,l,j,0,0,0,0,0,0,0,0,,,,,0,4,4,14,,,,,,,,,,,,,,,,,,,,,,,,,,,,,,,,,,,,,,,,,,,,prac,1,1,2,negative,positive,186.13178479999988,186.13178479999988,186.13178479999988,186.13178479999988,187.11795259999985,187.14892929999996,l,l,1,1.2751808000000437,188.41591160000007,188.41591160000007,188.41591160000007,188.41591160000007,188.41591160000007,188.41591160000007,,,,,,,,,,,,,,,,,,,,,,,,,,,,,,,,,,,,,,,,,,,,,,,312,2022-10-12_10h14.37.705,Main,2022.2.2,60.228918071760525,
negative,positive,2,j,l,0,0,0,0,0,0,0,0,,,,,0,5,5,15,,,,,,,,,,,,,,,,,,,,,,,,,,,,,,,,,,,,,,,,,,,,prac,1,1,2,positive,negative,188.41591160000007,188.41591160000007,188.41591160000007,188.41591160000007,189.40284199999996,189.4328607,j,j,1,1.1441497000000709,190.5693887,190.5693887,190.5693887,190.5693887,190.5693887,190.5693887,,,,,,,,,,,,,,,,,,,,,,,,,,,,,,,,,,,,,,,,,,,,,,,312,2022-10-12_10h14.37.705,Main,2022.2.2,60.228918071760525,
neutral,positive,1,k,k,0,0,0,0,0,0,0,0,,,,,0,6,6,4,,,,,,,,,,,,,,,,,,,,,,,,,,,,,,,,,,,,,,,,,,,,prac,1,1,1,positive,neutral,190.5693887,190.5693887,190.5693887,190.5693887,191.55961609999986,191.59213709999995,k,k,1,1.2898735000001125,192.85001839999995,192.85001839999995,192.85001839999995,192.85001839999995,192.85001839999995,192.85001839999995,,,,,,,,,,,,,,,,,,,,,,,,,,,,,,,,,,,,,,,,,,,,,,,312,2022-10-12_10h14.37.705,Main,2022.2.2,60.228918071760525,
positive,neutral,2,l,j,0,0,0,0,0,0,0,0,,,,,0,7,7,17,,,,,,,,,,,,,,,,,,,,,,,,,,,,,,,,,,,,,,,,,,,,prac,1,1,2,neutral,positive,192.85001839999995,192.85001839999995,192.85001839999995,192.85001839999995,193.8441906999999,193.87508550000007,l,l,1,1.5779708000000028,195.41833689999999,195.41833689999999,195.41833689999999,196.4555031,196.4555031,196.4555031,,,,,,,,,,,,,,,,,,,,,,,,,,,,,,,,,,,,,,,,,,,,,,,312,2022-10-12_10h14.37.705,Main,2022.2.2,60.228918071760525,
positive,positive,1,l,j,0,0,0,0,0,0,0,0,,,,,0,8,8,2,,,,,,,,,,,,,,,,,,,,,,,,,,,,,,,,,,,,,,,,,,,,prac,1,1,1,positive,positive,196.4555031,196.4555031,196.4555031,196.4555031,197.44103840000002,197.47138960000007,l,l,1,2.1932570999999825,199.62321599999996,199.62321599999996,199.62321599999996,200.68531770000004,200.68531770000004,200.68531770000004,,,,,,,,,,,,,,,,,,,,,,,,,,,,,,,,,,,,,,,,,,,,,,,312,2022-10-12_10h14.37.705,Main,2022.2.2,60.228918071760525,
negative,negative,2,j,l,0,0,0,0,0,0,0,0,,,,,0,9,9,9,,,,,,,,,,,,,,,,,,,,,,,,,,,,,,,,,,,,,,,,,,,,prac,2,2,2,negative,negative,200.68531770000004,200.68531770000004,200.68531770000004,200.68531770000004,201.66066109999997,201.7368775,j,j,1,1.5321686000002046,203.18047769999998,203.18047769999998,203.18047769999998,204.21824859999992,204.21824859999992,204.21824859999992,,,,,,,,,,,,,,,,,,,,,,,,,,,,,,,,,,,,,,,,,,,,,,,312,2022-10-12_10h14.37.705,Main,2022.2.2,60.228918071760525,
neutral,neutral,1,k,k,0,0,0,0,0,0,0,0,,,,,0,10,10,1,,,,,,,,,,,,,,,,,,,,,,,,,,,,,,,,,,,,,,,,,,,,prac,1,1,1,neutral,neutral,204.21824859999992,204.21824859999992,204.21824859999992,204.21824859999992,205.19782069999997,205.26214189999996,k,k,1,1.0566988999999012,206.27566189999993,206.27566189999993,206.27566189999993,206.27566189999993,206.27566189999993,206.27566189999993,,,,,,,,,,,,,,,,,,,,,,,,,,,,,,,,,,,,,,,,,,,,,,,312,2022-10-12_10h14.37.705,Main,2022.2.2,60.228918071760525,
positive,negative,1,l,j,0,0,0,0,0,0,0,0,,,,,0,11,11,5,,,,,,,,,,,,,,,,,,,,,,,,,,,,,,,,,,,,,,,,,,,,prac,2,2,1,negative,positive,206.27566189999993,206.27566189999993,206.27566189999993,206.27566189999993,207.27539019999995,207.3084457,l,l,1,1.0370527000000038,208.31027569999992,208.31027569999992,208.31027569999992,208.31027569999992,208.31027569999992,208.31027569999992,,,,,,,,,,,,,,,,,,,,,,,,,,,,,,,,,,,,,,,,,,,,,,,312,2022-10-12_10h14.37.705,Main,2022.2.2,60.228918071760525,
negative,neutral,2,j,l,0,0,0,0,0,0,0,0,,,,,0,12,12,12,,,,,,,,,,,,,,,,,,,,,,,,,,,,,,,,,,,,,,,,,,,,prac,2,2,2,neutral,negative,208.31027569999992,208.31027569999992,208.31027569999992,208.31027569999992,209.29724439999995,209.32672559999992,j,j,1,0.8841607000001659,210.20777299999986,210.20777299999986,210.20777299999986,210.20777299999986,210.20777299999986,210.20777299999986,,,,,,,,,,,,,,,,,,,,,,,,,,,,,,,,,,,,,,,,,,,,,,,312,2022-10-12_10h14.37.705,Main,2022.2.2,60.228918071760525,
negative,neutral,1,j,l,0,0,0,0,0,0,0,0,,,,,0,13,13,3,,,,,,,,,,,,,,,,,,,,,,,,,,,,,,,,,,,,,,,,,,,,prac,1,1,1,neutral,negative,210.20777299999986,210.20777299999986,210.20777299999986,210.20777299999986,211.2019373999999,211.23198660000003,j,j,1,1.441628400000127,212.65307340000004,212.65307340000004,212.65307340000004,212.65307340000004,212.65307340000004,212.65307340000004,,,,,,,,,,,,,,,,,,,,,,,,,,,,,,,,,,,,,,,,,,,,,,,312,2022-10-12_10h14.37.705,Main,2022.2.2,60.228918071760525,
negative,negative,1,j,l,0,0,0,0,0,0,0,0,,,,,0,14,14,0,,,,,,,,,,,,,,,,,,,,,,,,,,,,,,,,,,,,,,,,,,,,prac,2,2,1,negative,negative,212.65307340000004,212.65307340000004,212.65307340000004,212.65307340000004,213.6393602999999,213.67055419999997,j,j,1,0.9966950999998971,214.6487207,214.6487207,214.6487207,214.6487207,214.6487207,214.6487207,,,,,,,,,,,,,,,,,,,,,,,,,,,,,,,,,,,,,,,,,,,,,,,312,2022-10-12_10h14.37.705,Main,2022.2.2,60.228918071760525,
neutral,positive,2,k,k,0,0,0,0,0,0,0,0,,,,,0,15,15,13,,,,,,,,,,,,,,,,,,,,,,,,,,,,,,,,,,,,,,,,,,,,prac,1,1,2,positive,neutral,214.6487207,214.6487207,214.6487207,214.6487207,215.63843939999992,215.66856789999997,k,k,1,0.9958894999999757,216.64593179999997,216.64593179999997,216.64593179999997,216.64593179999997,216.64593179999997,216.64593179999997,,,,,,,,,,,,,,,,,,,,,,,,,,,,,,,,,,,,,,,,,,,,,,,312,2022-10-12_10h14.37.705,Main,2022.2.2,60.228918071760525,
negative,positive,1,j,l,0,0,0,0,0,0,0,0,,,,,0,16,16,6,,,,,,,,,,,,,,,,,,,,,,,,,,,,,,,,,,,,,,,,,,,,prac,1,1,1,positive,negative,216.64593179999997,216.64593179999997,216.64593179999997,216.64593179999997,217.6209085999999,217.68004859999996,j,j,1,1.099745799999937,218.75153449999993,218.75153449999993,218.75153449999993,218.75153449999993,218.75153449999993,218.75153449999993,,,,,,,,,,,,,,,,,,,,,,,,,,,,,,,,,,,,,,,,,,,,,,,312,2022-10-12_10h14.37.705,Main,2022.2.2,60.228918071760525,
neutral,negative,1,k,k,0,0,0,0,0,0,0,0,,,,,0,17,17,7,,,,,,,,,,,,,,,,,,,,,,,,,,,,,,,,,,,,,,,,,,,,prac,2,2,1,negative,neutral,218.75153449999993,218.75153449999993,218.75153449999993,218.75153449999993,219.73100909999994,219.79064900000003,k,k,1,0.9216249000000971,220.68152450000002,220.68152450000002,220.68152450000002,220.68152450000002,220.68152450000002,220.68152450000002,,,,,,,,,,,,,,,,,,,,,,,,,,,,,,,,,,,,,,,,,,,,,,,312,2022-10-12_10h14.37.705,Main,2022.2.2,60.228918071760525,
positive,positive,2,l,j,0,0,0,0,0,0,0,0,,,,,1,0,18,11,,,,,,,,,,,,,,,,,,,,,,,,,,,,,,,,,,,,,,,,,,,,prac,1,1,2,positive,positive,220.68152450000002,220.68152450000002,220.68152450000002,220.68152450000002,221.6657740999999,221.69674009999994,l,l,1,0.9889892999999574,222.6711447,222.6711447,222.6711447,222.6711447,222.6711447,222.6711447,,,,,,,,,,,,,,,,,,,,,,,,,,,,,,,,,,,,,,,,,,,,,,,312,2022-10-12_10h14.37.705,Main,2022.2.2,60.228918071760525,
negative,negative,2,j,l,0,0,0,0,0,0,0,0,,,,,1,1,19,9,,,,,,,,,,,,,,,,,,,,,,,,,,,,,,,,,,,,,,,,,,,,prac,1,1,2,negative,negative,222.6711447,222.6711447,222.6711447,222.6711447,223.6581721,223.6889710999999,j,j,1,0.9298633000000791,224.59706600000004,224.59706600000004,224.59706600000004,224.59706600000004,224.59706600000004,224.59706600000004,,,,,,,,,,,,,,,,,,,,,,,,,,,,,,,,,,,,,,,,,,,,,,,312,2022-10-12_10h14.37.705,Main,2022.2.2,60.228918071760525,
positive,negative,2,l,j,0,0,0,0,0,0,0,0,,,,,1,2,20,14,,,,,,,,,,,,,,,,,,,,,,,,,,,,,,,,,,,,,,,,,,,,prac,2,2,2,negative,positive,224.59706600000004,224.59706600000004,224.59706600000004,224.59706600000004,225.5999342,225.63243020000004,l,l,1,2.098502499999995,227.67618169999992,227.67618169999992,227.67618169999992,228.72568499999988,228.72568499999988,228.72568499999988,,,,,,,,,,,,,,,,,,,,,,,,,,,,,,,,,,,,,,,,,,,,,,,312,2022-10-12_10h14.37.705,Main,2022.2.2,60.228918071760525,
neutral,neutral,1,k,k,0,0,0,0,0,0,0,0,,,,,1,3,21,1,,,,,,,,,,,,,,,,,,,,,,,,,,,,,,,,,,,,,,,,,,,,prac,1,1,1,neutral,neutral,228.72568499999988,228.72568499999988,228.72568499999988,228.72568499999988,229.72625799999992,229.7557483999999,k,k,1,0.9738777999998547,230.69949180000003,230.69949180000003,230.69949180000003,230.69949180000003,230.69949180000003,230.69949180000003,,,,,,,,,,,,,,,,,,,,,,,,,,,,,,,,,,,,,,,,,,,,,,,312,2022-10-12_10h14.37.705,Main,2022.2.2,60.228918071760525,
positive,neutral,2,l,j,0,0,0,0,0,0,0,0,,,,,1,4,22,17,,,,,,,,,,,,,,,,,,,,,,,,,,,,,,,,,,,,,,,,,,,,prac,1,1,2,neutral,positive,230.69949180000003,230.69949180000003,230.69949180000003,230.69949180000003,231.69073690000005,231.7222761999999,l,l,1,1.3191007000000354,233.02260950000004,233.02260950000004,233.02260950000004,233.02260950000004,233.02260950000004,233.02260950000004,,,,,,,,,,,,,,,,,,,,,,,,,,,,,,,,,,,,,,,,,,,,,,,312,2022-10-12_10h14.37.705,Main,2022.2.2,60.228918071760525,
negative,neutral,1,j,l,0,0,0,0,0,0,0,0,,,,,1,5,23,3,,,,,,,,,,,,,,,,,,,,,,,,,,,,,,,,,,,,,,,,,,,,prac,2,2,1,neutral,negative,233.02260950000004,233.02260950000004,233.02260950000004,233.02260950000004,234.0198711999999,234.05050849999998,j,j,1,1.4510340000001634,235.478429,235.478429,235.478429,235.478429,235.478429,235.478429,,,,,,,,,,,,,,,,,,,,,,,,,,,,,,,,,,,,,,,,,,,,,,,312,2022-10-12_10h14.37.705,Main,2022.2.2,60.228918071760525,
positive,neutral,1,l,j,0,0,0,0,0,0,0,0,,,,,1,6,24,8,,,,,,,,,,,,,,,,,,,,,,,,,,,,,,,,,,,,,,,,,,,,prac,2,2,1,neutral,positive,235.478429,235.478429,235.478429,235.478429,236.47244899999987,236.5055731,l,l,1,2.051398099999915,238.50722010000004,238.50722010000004,238.50722010000004,239.55105690000005,239.55105690000005,239.55105690000005,,,,,,,,,,,,,,,,,,,,,,,,,,,,,,,,,,,,,,,,,,,,,,,312,2022-10-12_10h14.37.705,Main,2022.2.2,60.228918071760525,
neutral,neutral,2,k,k,0,0,0,0,0,0,0,0,,,,,1,7,25,10,,,,,,,,,,,,,,,,,,,,,,,,,,,,,,,,,,,,,,,,,,,,prac,1,1,2,neutral,neutral,239.55105690000005,239.55105690000005,239.55105690000005,239.55105690000005,240.54641279999987,240.5767426,k,k,1,1.4638617999999042,242.02769910000006,242.02769910000006,242.02769910000006,242.02769910000006,242.02769910000006,242.02769910000006,,,,,,,,,,,,,,,,,,,,,,,,,,,,,,,,,,,,,,,,,,,,,,,312,2022-10-12_10h14.37.705,Main,2022.2.2,60.228918071760525,
positive,positive,1,l,j,0,0,0,0,0,0,0,0,,,,,1,8,26,2,,,,,,,,,,,,,,,,,,,,,,,,,,,,,,,,,,,,,,,,,,,,prac,1,1,1,positive,positive,242.02769910000006,242.02769910000006,242.02769910000006,242.02769910000006,243.00507930000003,243.06945259999998,l,l,1,2.3321846999999707,245.32790569999997,245.32790569999997,245.32790569999997,246.35879,246.35879,246.35879,,,,,,,,,,,,,,,,,,,,,,,,,,,,,,,,,,,,,,,,,,,,,,,312,2022-10-12_10h14.37.705,Main,2022.2.2,60.228918071760525,
negative,positive,1,j,l,0,0,0,0,0,0,0,0,,,,,1,9,27,6,,,,,,,,,,,,,,,,,,,,,,,,,,,,,,,,,,,,,,,,,,,,prac,2,2,1,positive,negative,246.35879,246.35879,246.35879,246.35879,247.35693330000004,247.38858770000002,j,j,1,1.291407799999888,248.64781240000002,248.64781240000002,248.64781240000002,248.64781240000002,248.64781240000002,248.64781240000002,,,,,,,,,,,,,,,,,,,,,,,,,,,,,,,,,,,,,,,,,,,,,,,312,2022-10-12_10h14.37.705,Main,2022.2.2,60.228918071760525,
negative,positive,2,j,l,0,0,0,0,0,0,0,0,,,,,1,10,28,15,,,,,,,,,,,,,,,,,,,,,,,,,,,,,,,,,,,,,,,,,,,,prac,2,2,2,positive,negative,248.64781240000002,248.64781240000002,248.64781240000002,248.64781240000002,249.62530160000006,249.6915153,j,j,1,0.9345461000000341,250.58766179999998,250.58766179999998,250.58766179999998,250.58766179999998,250.58766179999998,250.58766179999998,,,,,,,,,,,,,,,,,,,,,,,,,,,,,,,,,,,,,,,,,,,,,,,312,2022-10-12_10h14.37.705,Main,2022.2.2,60.228918071760525,
neutral,negative,2,k,k,0,0,0,0,0,0,0,0,,,,,1,11,29,16,,,,,,,,,,,,,,,,,,,,,,,,,,,,,,,,,,,,,,,,,,,,prac,1,1,2,negative,neutral,250.58766179999998,250.58766179999998,250.58766179999998,250.58766179999998,251.56785309999987,251.6308959999999,k,k,1,1.088030900000149,252.67933849999986,252.67933849999986,252.67933849999986,252.67933849999986,252.67933849999986,252.67933849999986,,,,,,,,,,,,,,,,,,,,,,,,,,,,,,,,,,,,,,,,,,,,,,,312,2022-10-12_10h14.37.705,Main,2022.2.2,60.228918071760525,
positive,negative,1,l,j,0,0,0,0,0,0,0,0,,,,,1,12,30,5,,,,,,,,,,,,,,,,,,,,,,,,,,,,,,,,,,,,,,,,,,,,prac,1,1,1,negative,positive,252.67933849999986,252.67933849999986,252.67933849999986,252.67933849999986,253.65640940000003,253.71894959999986,l,l,1,0.9301915000000918,254.6165888999999,254.6165888999999,254.6165888999999,254.6165888999999,254.6165888999999,254.6165888999999,,,,,,,,,,,,,,,,,,,,,,,,,,,,,,,,,,,,,,,,,,,,,,,312,2022-10-12_10h14.37.705,Main,2022.2.2,60.228918071760525,
negative,neutral,2,j,l,0,0,0,0,0,0,0,0,,,,,1,13,31,12,,,,,,,,,,,,,,,,,,,,,,,,,,,,,,,,,,,,,,,,,,,,prac,2,2,2,neutral,negative,254.6165888999999,254.6165888999999,254.6165888999999,254.6165888999999,255.6076860999999,255.6539479999999,j,j,1,0.9784267999998519,256.5830464999999,256.5830464999999,256.5830464999999,256.5830464999999,256.5830464999999,256.5830464999999,,,,,,,,,,,,,,,,,,,,,,,,,,,,,,,,,,,,,,,,,,,,,,,312,2022-10-12_10h14.37.705,Main,2022.2.2,60.228918071760525,
negative,negative,1,j,l,0,0,0,0,0,0,0,0,,,,,1,14,32,0,,,,,,,,,,,,,,,,,,,,,,,,,,,,,,,,,,,,,,,,,,,,prac,1,1,1,negative,negative,256.5830464999999,256.5830464999999,256.5830464999999,256.5830464999999,257.5691575999999,257.60228570000004,j,j,1,1.0170969000000696,258.6138386,258.6138386,258.6138386,258.6138386,258.6138386,258.6138386,,,,,,,,,,,,,,,,,,,,,,,,,,,,,,,,,,,,,,,,,,,,,,,312,2022-10-12_10h14.37.705,Main,2022.2.2,60.228918071760525,
neutral,positive,2,k,k,0,0,0,0,0,0,0,0,,,,,1,15,33,13,,,,,,,,,,,,,,,,,,,,,,,,,,,,,,,,,,,,,,,,,,,,prac,2,2,2,positive,neutral,258.6138386,258.6138386,258.6138386,258.6138386,259.6063982999999,259.6441278,k,k,1,1.224349299999858,260.83559809999997,260.83559809999997,260.83559809999997,260.83559809999997,260.83559809999997,260.83559809999997,,,,,,,,,,,,,,,,,,,,,,,,,,,,,,,,,,,,,,,,,,,,,,,312,2022-10-12_10h14.37.705,Main,2022.2.2,60.228918071760525,
neutral,negative,1,k,k,0,0,0,0,0,0,0,0,,,,,1,16,34,7,,,,,,,,,,,,,,,,,,,,,,,,,,,,,,,,,,,,,,,,,,,,prac,2,2,1,negative,neutral,260.83559809999997,260.83559809999997,260.83559809999997,260.83559809999997,261.84005980000006,261.8708655999999,k,k,1,1.240436599999839,263.0773658999999,263.0773658999999,263.0773658999999,263.0773658999999,263.0773658999999,263.0773658999999,,,,,,,,,,,,,,,,,,,,,,,,,,,,,,,,,,,,,,,,,,,,,,,312,2022-10-12_10h14.37.705,Main,2022.2.2,60.228918071760525,
neutral,positive,1,k,k,0,0,0,0,0,0,0,0,,,,,1,17,35,4,,,,,,,,,,,,,,,,,,,,,,,,,,,,,,,,,,,,,,,,,,,,prac,2,2,1,positive,neutral,263.0773658999999,263.0773658999999,263.0773658999999,263.0773658999999,264.05643110000005,264.1181021,k,k,1,0.791022299999895,264.8548624,264.8548624,264.8548624,264.8548624,264.8548624,264.8548624,,,,,,,,,,,,,,,,,,,,,,,,,,,,,,,,,,,,,,,,,,,,,,,312,2022-10-12_10h14.37.705,Main,2022.2.2,60.228918071760525,
negative,negative,1,j,l,0,0,0,0,0,0,0,0,,,,,,,,,0,0,0,0,,,,,,,,,,,,,,,,,,,,,,,,,,,,,,,,,,,,,,,267.13893029999986,main,1,1,1,negative,negative,269.1878113999999,269.1878113999999,269.1878113999999,269.1878113999999,270.1636527999999,270.22361750000005,j,j,1,1.548775199999909,271.71525070000007,271.71525070000007,271.71525070000007,272.7623856,272.7623856,272.7623856,264.8548624,0.00019210000004932226,None,0.175,-0.16018518518518518,0,0,0,,,,,,,,,,,,,,,,,,,,,,,,,,,,,,,,,,,,,,,312,2022-10-12_10h14.37.705,Main,2022.2.2,60.228918071760525,
negative,neutral,2,j,l,0,0,0,0,0,0,0,0,,,,,,,,,0,1,1,12,,,,,,,,,,,,,,,,,,,,,,,,,,,,,,,,,,,,,,,,main,2,2,2,neutral,negative,272.7623856,272.7623856,272.7623856,272.7623856,273.74194620000003,273.8037583,j,j,1,0.7916188000001512,274.56423700000005,274.56423700000005,274.56423700000005,274.56423700000005,274.56423700000005,274.56423700000005,,,,,,,,,,,,,,,,,,,,,,,,,,,,,,,,,,,,,,,,,,,,,,,312,2022-10-12_10h14.37.705,Main,2022.2.2,60.228918071760525,
neutral,negative,1,k,k,0,0,0,0,0,0,0,0,,,,,,,,,0,2,2,7,,,,,,,,,,,,,,,,,,,,,,,,,,,,,,,,,,,,,,,,main,1,1,1,negative,neutral,274.56423700000005,274.56423700000005,274.56423700000005,274.56423700000005,275.54578489999994,275.6067135999999,k,k,1,0.9143884000000071,276.48165159999985,276.48165159999985,276.48165159999985,276.48165159999985,276.48165159999985,276.48165159999985,,,,,,,,,,,,,,,,,,,,,,,,,,,,,,,,,,,,,,,,,,,,,,,312,2022-10-12_10h14.37.705,Main,2022.2.2,60.228918071760525,
negative,negative,2,j,l,0,0,0,0,0,0,0,0,,,,,,,,,0,3,3,9,,,,,,,,,,,,,,,,,,,,,,,,,,,,,,,,,,,,,,,,main,2,2,2,negative,negative,276.48165159999985,276.48165159999985,276.48165159999985,276.48165159999985,277.46529140000007,277.4956886,j,j,1,0.8251414999999724,278.3136247,278.3136247,278.3136247,278.3136247,278.3136247,278.3136247,,,,,,,,,,,,,,,,,,,,,,,,,,,,,,,,,,,,,,,,,,,,,,,312,2022-10-12_10h14.37.705,Main,2022.2.2,60.228918071760525,
negative,positive,2,j,l,0,0,0,0,0,0,0,0,,,,,,,,,0,4,4,15,,,,,,,,,,,,,,,,,,,,,,,,,,,,,,,,,,,,,,,,main,2,2,2,positive,negative,278.3136247,278.3136247,278.3136247,278.3136247,279.2840285,279.34884050000005,j,j,1,0.8665719000000536,280.18377269999996,280.18377269999996,280.18377269999996,280.18377269999996,280.18377269999996,280.18377269999996,,,,,,,,,,,,,,,,,,,,,,,,,,,,,,,,,,,,,,,,,,,,,,,312,2022-10-12_10h14.37.705,Main,2022.2.2,60.228918071760525,
neutral,positive,2,k,k,0,0,0,0,0,0,0,0,,,,,,,,,0,5,5,13,,,,,,,,,,,,,,,,,,,,,,,,,,,,,,,,,,,,,,,,main,2,2,2,positive,neutral,280.18377269999996,280.18377269999996,280.18377269999996,280.18377269999996,281.1562159,281.2267179999999,k,k,1,0.8980724000000464,282.0943439,282.0943439,282.0943439,282.0943439,282.0943439,282.0943439,,,,,,,,,,,,,,,,,,,,,,,,,,,,,,,,,,,,,,,,,,,,,,,312,2022-10-12_10h14.37.705,Main,2022.2.2,60.228918071760525,
positive,positive,2,l,j,0,0,0,0,0,0,0,0,,,,,,,,,0,6,6,11,,,,,,,,,,,,,,,,,,,,,,,,,,,,,,,,,,,,,,,,main,1,1,2,positive,positive,282.0943439,282.0943439,282.0943439,282.0943439,283.08442620000005,283.11495149999996,l,l,1,0.9868444000001091,284.0755772,284.0755772,284.0755772,284.0755772,284.0755772,284.0755772,,,,,,,,,,,,,,,,,,,,,,,,,,,,,,,,,,,,,,,,,,,,,,,312,2022-10-12_10h14.37.705,Main,2022.2.2,60.228918071760525,
positive,neutral,1,l,j,0,0,0,0,0,0,0,0,,,,,,,,,0,7,7,8,,,,,,,,,,,,,,,,,,,,,,,,,,,,,,,,,,,,,,,,main,1,1,1,neutral,positive,284.0755772,284.0755772,284.0755772,284.0755772,285.05643929999997,285.1244870999999,l,l,1,0.8361207000000377,285.91190719999986,285.91190719999986,285.91190719999986,285.91190719999986,285.91190719999986,285.91190719999986,,,,,,,,,,,,,,,,,,,,,,,,,,,,,,,,,,,,,,,,,,,,,,,312,2022-10-12_10h14.37.705,Main,2022.2.2,60.228918071760525,
negative,positive,1,j,l,0,0,0,0,0,0,0,0,,,,,,,,,0,8,8,6,,,,,,,,,,,,,,,,,,,,,,,,,,,,,,,,,,,,,,,,main,1,1,1,positive,negative,285.91190719999986,285.91190719999986,285.91190719999986,285.91190719999986,286.88760780000007,286.9473261999999,j,j,1,1.212079600000152,288.1236615999999,288.1236615999999,288.1236615999999,288.1236615999999,288.1236615999999,288.1236615999999,,,,,,,,,,,,,,,,,,,,,,,,,,,,,,,,,,,,,,,,,,,,,,,312,2022-10-12_10h14.37.705,Main,2022.2.2,60.228918071760525,
neutral,positive,1,k,k,0,0,0,0,0,0,0,0,,,,,,,,,0,9,9,4,,,,,,,,,,,,,,,,,,,,,,,,,,,,,,,,,,,,,,,,main,1,1,1,positive,neutral,288.1236615999999,288.1236615999999,288.1236615999999,288.1236615999999,289.11169530000006,289.1427735,k,k,1,0.9297897999999805,290.0667529,290.0667529,290.0667529,290.0667529,290.0667529,290.0667529,,,,,,,,,,,,,,,,,,,,,,,,,,,,,,,,,,,,,,,,,,,,,,,312,2022-10-12_10h14.37.705,Main,2022.2.2,60.228918071760525,
positive,neutral,2,l,j,0,0,0,0,0,0,0,0,,,,,,,,,0,10,10,17,,,,,,,,,,,,,,,,,,,,,,,,,,,,,,,,,,,,,,,,main,2,2,2,neutral,positive,290.0667529,290.0667529,290.0667529,290.0667529,291.0490978,291.0805991,l,l,1,0.8765855000001466,291.95055449999995,291.95055449999995,291.95055449999995,291.95055449999995,291.95055449999995,291.95055449999995,,,,,,,,,,,,,,,,,,,,,,,,,,,,,,,,,,,,,,,,,,,,,,,312,2022-10-12_10h14.37.705,Main,2022.2.2,60.228918071760525,
positive,negative,1,l,j,0,0,0,0,0,0,0,0,,,,,,,,,0,11,11,5,,,,,,,,,,,,,,,,,,,,,,,,,,,,,,,,,,,,,,,,main,2,2,1,negative,positive,291.95055449999995,291.95055449999995,291.95055449999995,291.95055449999995,292.9420447,292.9778388,l,l,1,0.9392362999999477,293.8922104999999,293.8922104999999,293.8922104999999,293.8922104999999,293.8922104999999,293.8922104999999,,,,,,,,,,,,,,,,,,,,,,,,,,,,,,,,,,,,,,,,,,,,,,,312,2022-10-12_10h14.37.705,Main,2022.2.2,60.228918071760525,
positive,positive,1,l,j,0,0,0,0,0,0,0,0,,,,,,,,,0,12,12,2,,,,,,,,,,,,,,,,,,,,,,,,,,,,,,,,,,,,,,,,main,1,1,1,positive,positive,293.8922104999999,293.8922104999999,293.8922104999999,293.8922104999999,294.86844829999995,294.93131429999994,l,l,1,1.724547799999982,296.5939028999999,296.5939028999999,296.5939028999999,297.6323095,297.6323095,297.6323095,,,,,,,,,,,,,,,,,,,,,,,,,,,,,,,,,,,,,,,,,,,,,,,312,2022-10-12_10h14.37.705,Main,2022.2.2,60.228918071760525,
negative,neutral,1,j,l,0,0,0,0,0,0,0,0,,,,,,,,,0,13,13,3,,,,,,,,,,,,,,,,,,,,,,,,,,,,,,,,,,,,,,,,main,2,2,1,neutral,negative,297.6323095,297.6323095,297.6323095,297.6323095,298.6156529,298.6491739999999,j,j,1,0.9894954999999754,299.6340496,299.6340496,299.6340496,299.6340496,299.6340496,299.6340496,,,,,,,,,,,,,,,,,,,,,,,,,,,,,,,,,,,,,,,,,,,,,,,312,2022-10-12_10h14.37.705,Main,2022.2.2,60.228918071760525,
neutral,neutral,1,k,k,0,0,0,0,0,0,0,0,,,,,,,,,0,14,14,1,,,,,,,,,,,,,,,,,,,,,,,,,,,,,,,,,,,,,,,,main,2,2,1,neutral,neutral,299.6340496,299.6340496,299.6340496,299.6340496,300.63839669999993,300.6669775999999,k,k,1,0.9131523999999445,301.53880630000003,301.53880630000003,301.53880630000003,301.53880630000003,301.53880630000003,301.53880630000003,,,,,,,,,,,,,,,,,,,,,,,,,,,,,,,,,,,,,,,,,,,,,,,312,2022-10-12_10h14.37.705,Main,2022.2.2,60.228918071760525,
positive,negative,2,l,j,0,0,0,0,0,0,0,0,,,,,,,,,0,15,15,14,,,,,,,,,,,,,,,,,,,,,,,,,,,,,,,,,,,,,,,,main,1,1,2,negative,positive,301.53880630000003,301.53880630000003,301.53880630000003,301.53880630000003,302.5251131,302.5565494,l,l,1,0.980391900000086,303.53177600000004,303.53177600000004,303.53177600000004,303.53177600000004,303.53177600000004,303.53177600000004,,,,,,,,,,,,,,,,,,,,,,,,,,,,,,,,,,,,,,,,,,,,,,,312,2022-10-12_10h14.37.705,Main,2022.2.2,60.228918071760525,
neutral,neutral,2,k,k,0,0,0,0,0,0,0,0,,,,,,,,,0,16,16,10,,,,,,,,,,,,,,,,,,,,,,,,,,,,,,,,,,,,,,,,main,2,2,2,neutral,neutral,303.53177600000004,303.53177600000004,303.53177600000004,303.53177600000004,304.5121038,304.57512299999985,k,k,1,0.9498188000000027,305.4763542999999,305.4763542999999,305.4763542999999,305.4763542999999,305.4763542999999,305.4763542999999,,,,,,,,,,,,,,,,,,,,,,,,,,,,,,,,,,,,,,,,,,,,,,,312,2022-10-12_10h14.37.705,Main,2022.2.2,60.228918071760525,
neutral,negative,2,k,k,0,0,0,0,0,0,0,0,,,,,,,,,0,17,17,16,,,,,,,,,,,,,,,,,,,,,,,,,,,,,,,,,,,,,,,,main,2,2,2,negative,neutral,305.4763542999999,305.4763542999999,305.4763542999999,305.4763542999999,306.46205570000006,306.493878,k,k,1,0.8624154000001454,307.3476676999999,307.3476676999999,307.3476676999999,307.3476676999999,307.3476676999999,307.3476676999999,,,,,,,,,,,,,,,,,,,,,,,,,,,,,,,,,,,,,,,,,,,,,,,312,2022-10-12_10h14.37.705,Main,2022.2.2,60.228918071760525,
positive,neutral,2,l,j,0,0,0,0,0,0,0,0,,,,,,,,,1,0,18,17,,,,,,,,,,,,,,,,,,,,,,,,,,,,,,,,,,,,,,,,main,2,2,2,neutral,positive,307.3476676999999,307.3476676999999,307.3476676999999,307.3476676999999,308.33378300000004,308.3647902,l,l,1,0.8874912999999651,309.23312770000007,309.23312770000007,309.23312770000007,309.23312770000007,309.23312770000007,309.23312770000007,,,,,,,,,,,,,,,,,,,,,,,,,,,,,,,,,,,,,,,,,,,,,,,312,2022-10-12_10h14.37.705,Main,2022.2.2,60.228918071760525,
neutral,negative,1,k,k,0,0,0,0,0,0,0,0,,,,,,,,,1,1,19,7,,,,,,,,,,,,,,,,,,,,,,,,,,,,,,,,,,,,,,,,main,1,1,1,negative,neutral,309.23312770000007,309.23312770000007,309.23312770000007,309.23312770000007,310.2304629999999,310.26122899999996,k,k,1,1.100919900000008,311.34041389999993,311.34041389999993,311.34041389999993,311.34041389999993,311.34041389999993,311.34041389999993,,,,,,,,,,,,,,,,,,,,,,,,,,,,,,,,,,,,,,,,,,,,,,,312,2022-10-12_10h14.37.705,Main,2022.2.2,60.228918071760525,
positive,positive,1,l,j,0,0,0,0,0,0,0,0,,,,,,,,,1,2,20,2,,,,,,,,,,,,,,,,,,,,,,,,,,,,,,,,,,,,,,,,main,1,1,1,positive,positive,311.34041389999993,311.34041389999993,311.34041389999993,311.34041389999993,312.3374526,312.3713473,l,l,1,1.2145725000000311,313.5616273999999,313.5616273999999,313.5616273999999,313.5616273999999,313.5616273999999,313.5616273999999,,,,,,,,,,,,,,,,,,,,,,,,,,,,,,,,,,,,,,,,,,,,,,,312,2022-10-12_10h14.37.705,Main,2022.2.2,60.228918071760525,
negative,neutral,2,j,l,0,0,0,0,0,0,0,0,,,,,,,,,1,3,21,12,,,,,,,,,,,,,,,,,,,,,,,,,,,,,,,,,,,,,,,,main,1,1,2,neutral,negative,313.5616273999999,313.5616273999999,313.5616273999999,313.5616273999999,314.533629,314.59850989999995,j,j,1,0.7871760999998969,315.34904749999987,315.34904749999987,315.34904749999987,315.34904749999987,315.34904749999987,315.34904749999987,,,,,,,,,,,,,,,,,,,,,,,,,,,,,,,,,,,,,,,,,,,,,,,312,2022-10-12_10h14.37.705,Main,2022.2.2,60.228918071760525,
neutral,positive,2,k,k,0,0,0,0,0,0,0,0,,,,,,,,,1,4,22,13,,,,,,,,,,,,,,,,,,,,,,,,,,,,,,,,,,,,,,,,main,1,1,2,positive,neutral,315.34904749999987,315.34904749999987,315.34904749999987,315.34904749999987,316.34914660000004,316.38628500000004,k,k,1,1.4577269000001252,317.8156328,317.8156328,317.8156328,317.8156328,317.8156328,317.8156328,,,,,,,,,,,,,,,,,,,,,,,,,,,,,,,,,,,,,,,,,,,,,,,312,2022-10-12_10h14.37.705,Main,2022.2.2,60.228918071760525,
positive,negative,2,l,j,0,0,0,0,0,0,0,0,,,,,,,,,1,5,23,14,,,,,,,,,,,,,,,,,,,,,,,,,,,,,,,,,,,,,,,,main,2,2,2,negative,positive,317.8156328,317.8156328,317.8156328,317.8156328,318.8121355999999,318.8484266999999,l,l,1,0.932694999999967,319.7547371999999,319.7547371999999,319.7547371999999,319.7547371999999,319.7547371999999,319.7547371999999,,,,,,,,,,,,,,,,,,,,,,,,,,,,,,,,,,,,,,,,,,,,,,,312,2022-10-12_10h14.37.705,Main,2022.2.2,60.228918071760525,
neutral,neutral,2,k,k,0,0,0,0,0,0,0,0,,,,,,,,,1,6,24,10,,,,,,,,,,,,,,,,,,,,,,,,,,,,,,,,,,,,,,,,main,2,2,2,neutral,neutral,319.7547371999999,319.7547371999999,319.7547371999999,319.7547371999999,320.74725969999986,320.7820603,k,k,1,0.9612902000001213,321.719734,321.719734,321.719734,321.719734,321.719734,321.719734,,,,,,,,,,,,,,,,,,,,,,,,,,,,,,,,,,,,,,,,,,,,,,,312,2022-10-12_10h14.37.705,Main,2022.2.2,60.228918071760525,
negative,neutral,1,j,l,0,0,0,0,0,0,0,0,,,,,,,,,1,7,25,3,,,,,,,,,,,,,,,,,,,,,,,,,,,,,,,,,,,,,,,,main,2,2,1,neutral,negative,321.719734,321.719734,321.719734,321.719734,322.7109092999999,322.7425226999999,j,j,1,0.9717677000001004,323.6830829999999,323.6830829999999,323.6830829999999,323.6830829999999,323.6830829999999,323.6830829999999,,,,,,,,,,,,,,,,,,,,,,,,,,,,,,,,,,,,,,,,,,,,,,,312,2022-10-12_10h14.37.705,Main,2022.2.2,60.228918071760525,
positive,negative,1,l,j,0,0,0,0,0,0,0,0,,,,,,,,,1,8,26,5,,,,,,,,,,,,,,,,,,,,,,,,,,,,,,,,,,,,,,,,main,1,1,1,negative,positive,323.6830829999999,323.6830829999999,323.6830829999999,323.6830829999999,324.68893349999985,324.71928579999985,l,l,1,1.148692600000004,325.84142369999995,325.84142369999995,325.84142369999995,325.84142369999995,325.84142369999995,325.84142369999995,,,,,,,,,,,,,,,,,,,,,,,,,,,,,,,,,,,,,,,,,,,,,,,312,2022-10-12_10h14.37.705,Main,2022.2.2,60.228918071760525,
positive,neutral,1,l,j,0,0,0,0,0,0,0,0,,,,,,,,,1,9,27,8,,,,,,,,,,,,,,,,,,,,,,,,,,,,,,,,,,,,,,,,main,1,1,1,neutral,positive,325.84142369999995,325.84142369999995,325.84142369999995,325.84142369999995,326.8151734999999,326.8754208999999,l,l,1,0.8193931999999222,327.6627948999999,327.6627948999999,327.6627948999999,327.6627948999999,327.6627948999999,327.6627948999999,,,,,,,,,,,,,,,,,,,,,,,,,,,,,,,,,,,,,,,,,,,,,,,312,2022-10-12_10h14.37.705,Main,2022.2.2,60.228918071760525,
neutral,positive,1,k,k,0,0,0,0,0,0,0,0,,,,,,,,,1,10,28,4,,,,,,,,,,,,,,,,,,,,,,,,,,,,,,,,,,,,,,,,main,1,1,1,positive,neutral,327.6627948999999,327.6627948999999,327.6627948999999,327.6627948999999,328.6373331,328.6990303,k,k,1,1.0746661000000586,329.7385784999999,329.7385784999999,329.7385784999999,329.7385784999999,329.7385784999999,329.7385784999999,,,,,,,,,,,,,,,,,,,,,,,,,,,,,,,,,,,,,,,,,,,,,,,312,2022-10-12_10h14.37.705,Main,2022.2.2,60.228918071760525,
neutral,neutral,1,k,k,0,0,0,0,0,0,0,0,,,,,,,,,1,11,29,1,,,,,,,,,,,,,,,,,,,,,,,,,,,,,,,,,,,,,,,,main,1,1,1,neutral,neutral,329.7385784999999,329.7385784999999,329.7385784999999,329.7385784999999,330.71972729999993,330.77962419999994,k,k,1,0.7802135999997972,331.52740389999985,331.52740389999985,331.52740389999985,331.52740389999985,331.52740389999985,331.52740389999985,,,,,,,,,,,,,,,,,,,,,,,,,,,,,,,,,,,,,,,,,,,,,,,312,2022-10-12_10h14.37.705,Main,2022.2.2,60.228918071760525,
neutral,negative,2,k,k,0,0,0,0,0,0,0,0,,,,,,,,,1,12,30,16,,,,,,,,,,,,,,,,,,,,,,,,,,,,,,,,,,,,,,,,main,2,2,2,negative,neutral,331.52740389999985,331.52740389999985,331.52740389999985,331.52740389999985,332.513457,332.54466419999994,k,k,1,1.1477104999999028,333.66893189999996,333.66893189999996,333.66893189999996,333.66893189999996,333.66893189999996,333.66893189999996,,,,,,,,,,,,,,,,,,,,,,,,,,,,,,,,,,,,,,,,,,,,,,,312,2022-10-12_10h14.37.705,Main,2022.2.2,60.228918071760525,
negative,negative,2,j,l,0,0,0,0,0,0,0,0,,,,,,,,,1,13,31,9,,,,,,,,,,,,,,,,,,,,,,,,,,,,,,,,,,,,,,,,main,2,2,2,negative,negative,333.66893189999996,333.66893189999996,333.66893189999996,333.66893189999996,334.6826999,334.7140732999999,j,j,1,1.1243162000000666,335.8075028999999,335.8075028999999,335.8075028999999,335.8075028999999,335.8075028999999,335.8075028999999,,,,,,,,,,,,,,,,,,,,,,,,,,,,,,,,,,,,,,,,,,,,,,,312,2022-10-12_10h14.37.705,Main,2022.2.2,60.228918071760525,
negative,positive,1,j,l,0,0,0,0,0,0,0,0,,,,,,,,,1,14,32,6,,,,,,,,,,,,,,,,,,,,,,,,,,,,,,,,,,,,,,,,main,2,2,1,positive,negative,335.8075028999999,335.8075028999999,335.8075028999999,335.8075028999999,336.77950050000004,336.8451462999999,j,j,1,1.4226133999998183,338.2244429,338.2244429,338.2244429,338.2244429,338.2244429,338.2244429,,,,,,,,,,,,,,,,,,,,,,,,,,,,,,,,,,,,,,,,,,,,,,,312,2022-10-12_10h14.37.705,Main,2022.2.2,60.228918071760525,
negative,positive,2,j,l,0,0,0,0,0,0,0,0,,,,,,,,,1,15,33,15,,,,,,,,,,,,,,,,,,,,,,,,,,,,,,,,,,,,,,,,main,1,1,2,positive,negative,338.2244429,338.2244429,338.2244429,338.2244429,339.2056912999999,339.2731715,j,j,1,0.9880058999999619,340.2207045,340.2207045,340.2207045,340.2207045,340.2207045,340.2207045,,,,,,,,,,,,,,,,,,,,,,,,,,,,,,,,,,,,,,,,,,,,,,,312,2022-10-12_10h14.37.705,Main,2022.2.2,60.228918071760525,
negative,negative,1,j,l,0,0,0,0,0,0,0,0,,,,,,,,,1,16,34,0,,,,,,,,,,,,,,,,,,,,,,,,,,,,,,,,,,,,,,,,main,1,1,1,negative,negative,340.2207045,340.2207045,340.2207045,340.2207045,341.2186543999999,341.24682289999987,j,j,1,0.8820510000000468,342.0996825,342.0996825,342.0996825,342.0996825,342.0996825,342.0996825,,,,,,,,,,,,,,,,,,,,,,,,,,,,,,,,,,,,,,,,,,,,,,,312,2022-10-12_10h14.37.705,Main,2022.2.2,60.228918071760525,
positive,positive,2,l,j,0,0,0,0,0,0,0,0,,,,,,,,,1,17,35,11,,,,,,,,,,,,,,,,,,,,,,,,,,,,,,,,,,,,,,,,main,2,2,2,positive,positive,342.0996825,342.0996825,342.0996825,342.0996825,343.0844247,343.1150247999999,l,l,1,1.2938682000001336,344.40326159999995,344.40326159999995,344.40326159999995,344.40326159999995,344.40326159999995,344.40326159999995,,,,,,,,,,,,,,,,,,,,,,,,,,,,,,,,,,,,,,,,,,,,,,,312,2022-10-12_10h14.37.705,Main,2022.2.2,60.228918071760525,
neutral,positive,2,k,k,0,0,0,0,0,0,0,0,,,,,,,,,2,0,36,13,,,,,,,,,,,,,,,,,,,,,,,,,,,,,,,,,,,,,,,,main,1,1,2,positive,neutral,344.40326159999995,344.40326159999995,344.40326159999995,344.40326159999995,345.3808526,345.44403250000005,k,k,1,1.1327896000000237,346.53641500000003,346.53641500000003,346.53641500000003,346.53641500000003,346.53641500000003,346.53641500000003,,,,,,,,,,,,,,,,,,,,,,,,,,,,,,,,,,,,,,,,,,,,,,,312,2022-10-12_10h14.37.705,Main,2022.2.2,60.228918071760525,
negative,neutral,2,j,l,0,0,0,0,0,0,0,0,,,,,,,,,2,1,37,12,,,,,,,,,,,,,,,,,,,,,,,,,,,,,,,,,,,,,,,,main,2,2,2,neutral,negative,346.53641500000003,346.53641500000003,346.53641500000003,346.53641500000003,347.5323799,347.5660023999999,j,j,1,1.6270134999999755,349.13769690000004,349.13769690000004,349.13769690000004,350.1762627999999,350.1762627999999,350.1762627999999,,,,,,,,,,,,,,,,,,,,,,,,,,,,,,,,,,,,,,,,,,,,,,,312,2022-10-12_10h14.37.705,Main,2022.2.2,60.228918071760525,
neutral,positive,1,k,k,0,0,0,0,0,0,0,0,,,,,,,,,2,2,38,4,,,,,,,,,,,,,,,,,,,,,,,,,,,,,,,,,,,,,,,,main,1,1,1,positive,neutral,350.1762627999999,350.1762627999999,350.1762627999999,350.1762627999999,351.17759120000005,351.21080499999994,k,k,1,1.2049956999999267,352.38212410000006,352.38212410000006,352.38212410000006,352.38212410000006,352.38212410000006,352.38212410000006,,,,,,,,,,,,,,,,,,,,,,,,,,,,,,,,,,,,,,,,,,,,,,,312,2022-10-12_10h14.37.705,Main,2022.2.2,60.228918071760525,
positive,negative,1,l,j,0,0,0,0,0,0,0,0,,,,,,,,,2,3,39,5,,,,,,,,,,,,,,,,,,,,,,,,,,,,,,,,,,,,,,,,main,1,1,1,negative,positive,352.38212410000006,352.38212410000006,352.38212410000006,352.38212410000006,353.39173319999986,353.42264,l,l,1,1.185348200000135,354.5730148,354.5730148,354.5730148,354.5730148,354.5730148,354.5730148,,,,,,,,,,,,,,,,,,,,,,,,,,,,,,,,,,,,,,,,,,,,,,,312,2022-10-12_10h14.37.705,Main,2022.2.2,60.228918071760525,
negative,positive,1,j,l,0,0,0,0,0,0,0,0,,,,,,,,,2,4,40,6,,,,,,,,,,,,,,,,,,,,,,,,,,,,,,,,,,,,,,,,main,1,1,1,positive,negative,354.5730148,354.5730148,354.5730148,354.5730148,355.54803649999985,355.61667109999985,j,j,1,0.9969126999999389,356.5780069,356.5780069,356.5780069,356.5780069,356.5780069,356.5780069,,,,,,,,,,,,,,,,,,,,,,,,,,,,,,,,,,,,,,,,,,,,,,,312,2022-10-12_10h14.37.705,Main,2022.2.2,60.228918071760525,
negative,positive,2,j,l,0,0,0,0,0,0,0,0,,,,,,,,,2,5,41,15,,,,,,,,,,,,,,,,,,,,,,,,,,,,,,,,,,,,,,,,main,1,1,2,positive,negative,356.5780069,356.5780069,356.5780069,356.5780069,357.55183669999997,357.61693939999986,j,j,1,0.9358725999998114,358.51106649999997,358.51106649999997,358.51106649999997,358.51106649999997,358.51106649999997,358.51106649999997,,,,,,,,,,,,,,,,,,,,,,,,,,,,,,,,,,,,,,,,,,,,,,,312,2022-10-12_10h14.37.705,Main,2022.2.2,60.228918071760525,
negative,negative,2,j,l,0,0,0,0,0,0,0,0,,,,,,,,,2,6,42,9,,,,,,,,,,,,,,,,,,,,,,,,,,,,,,,,,,,,,,,,main,1,1,2,negative,negative,358.51106649999997,358.51106649999997,358.51106649999997,358.51106649999997,359.50416070000006,359.5358469999999,j,j,1,0.8470884000000751,360.3663687999999,360.3663687999999,360.3663687999999,360.3663687999999,360.3663687999999,360.3663687999999,,,,,,,,,,,,,,,,,,,,,,,,,,,,,,,,,,,,,,,,,,,,,,,312,2022-10-12_10h14.37.705,Main,2022.2.2,60.228918071760525,
positive,negative,2,l,j,0,0,0,0,0,0,0,0,,,,,,,,,2,7,43,14,,,,,,,,,,,,,,,,,,,,,,,,,,,,,,,,,,,,,,,,main,1,1,2,negative,positive,360.3663687999999,360.3663687999999,360.3663687999999,360.3663687999999,361.34764659999996,361.4156017,l,l,1,0.9712753000001157,362.3339854999999,362.3339854999999,362.3339854999999,362.3339854999999,362.3339854999999,362.3339854999999,,,,,,,,,,,,,,,,,,,,,,,,,,,,,,,,,,,,,,,,,,,,,,,312,2022-10-12_10h14.37.705,Main,2022.2.2,60.228918071760525,
neutral,negative,1,k,k,0,0,0,0,0,0,0,0,,,,,,,,,2,8,44,7,,,,,,,,,,,,,,,,,,,,,,,,,,,,,,,,,,,,,,,,main,2,2,1,negative,neutral,362.3339854999999,362.3339854999999,362.3339854999999,362.3339854999999,363.3313284999999,363.36204299999986,k,k,1,0.834544600000072,364.18017199999986,364.18017199999986,364.18017199999986,364.18017199999986,364.18017199999986,364.18017199999986,,,,,,,,,,,,,,,,,,,,,,,,,,,,,,,,,,,,,,,,,,,,,,,312,2022-10-12_10h14.37.705,Main,2022.2.2,60.228918071760525,
positive,positive,2,l,j,0,0,0,0,0,0,0,0,,,,,,,,,2,9,45,11,,,,,,,,,,,,,,,,,,,,,,,,,,,,,,,,,,,,,,,,main,2,2,2,positive,positive,364.18017199999986,364.18017199999986,364.18017199999986,364.18017199999986,365.1514692999999,365.21341140000004,l,l,1,0.8837570000000596,366.06062670000006,366.06062670000006,366.06062670000006,366.06062670000006,366.06062670000006,366.06062670000006,,,,,,,,,,,,,,,,,,,,,,,,,,,,,,,,,,,,,,,,,,,,,,,312,2022-10-12_10h14.37.705,Main,2022.2.2,60.228918071760525,
negative,negative,1,j,l,0,0,0,0,0,0,0,0,,,,,,,,,2,10,46,0,,,,,,,,,,,,,,,,,,,,,,,,,,,,,,,,,,,,,,,,main,1,1,1,negative,negative,366.06062670000006,366.06062670000006,366.06062670000006,366.06062670000006,367.04098079999994,367.10041980000005,j,j,1,0.9500562999999147,368.017738,368.017738,368.017738,368.017738,368.017738,368.017738,,,,,,,,,,,,,,,,,,,,,,,,,,,,,,,,,,,,,,,,,,,,,,,312,2022-10-12_10h14.37.705,Main,2022.2.2,60.228918071760525,
positive,positive,1,l,j,0,0,0,0,0,0,0,0,,,,,,,,,2,11,47,2,,,,,,,,,,,,,,,,,,,,,,,,,,,,,,,,,,,,,,,,main,1,1,1,positive,positive,368.017738,368.017738,368.017738,368.017738,368.99895479999986,369.06124980000004,l,l,1,0.978937999999971,370.00158710000005,370.00158710000005,370.00158710000005,370.00158710000005,370.00158710000005,370.00158710000005,,,,,,,,,,,,,,,,,,,,,,,,,,,,,,,,,,,,,,,,,,,,,,,312,2022-10-12_10h14.37.705,Main,2022.2.2,60.228918071760525,
positive,neutral,2,l,j,0,0,0,0,0,0,0,0,,,,,,,,,2,12,48,17,,,,,,,,,,,,,,,,,,,,,,,,,,,,,,,,,,,,,,,,main,1,1,2,neutral,positive,370.00158710000005,370.00158710000005,370.00158710000005,370.00158710000005,370.9945444,371.0333034,l,l,1,1.1218821999998454,372.1260075,372.1260075,372.1260075,372.1260075,372.1260075,372.1260075,,,,,,,,,,,,,,,,,,,,,,,,,,,,,,,,,,,,,,,,,,,,,,,312,2022-10-12_10h14.37.705,Main,2022.2.2,60.228918071760525,
neutral,neutral,2,k,k,0,0,0,0,0,0,0,0,,,,,,,,,2,13,49,10,,,,,,,,,,,,,,,,,,,,,,,,,,,,,,,,,,,,,,,,main,1,1,2,neutral,neutral,372.1260075,372.1260075,372.1260075,372.1260075,373.09686680000004,373.1572435999999,k,k,1,0.9563021999999819,374.0880112,374.0880112,374.0880112,374.0880112,374.0880112,374.0880112,,,,,,,,,,,,,,,,,,,,,,,,,,,,,,,,,,,,,,,,,,,,,,,312,2022-10-12_10h14.37.705,Main,2022.2.2,60.228918071760525,
positive,neutral,1,l,j,0,0,0,0,0,0,0,0,,,,,,,,,2,14,50,8,,,,,,,,,,,,,,,,,,,,,,,,,,,,,,,,,,,,,,,,main,1,1,1,neutral,positive,374.0880112,374.0880112,374.0880112,374.0880112,375.0687026999999,375.132421,l,l,1,1.6367350000000442,376.69751129999986,376.69751129999986,376.69751129999986,377.7266445999999,377.7266445999999,377.7266445999999,,,,,,,,,,,,,,,,,,,,,,,,,,,,,,,,,,,,,,,,,,,,,,,312,2022-10-12_10h14.37.705,Main,2022.2.2,60.228918071760525,
neutral,neutral,1,k,k,0,0,0,0,0,0,0,0,,,,,,,,,2,15,51,1,,,,,,,,,,,,,,,,,,,,,,,,,,,,,,,,,,,,,,,,main,1,1,1,neutral,neutral,377.7266445999999,377.7266445999999,377.7266445999999,377.7266445999999,378.70466310000006,378.7732028999999,k,k,1,0.9549775999998928,379.6886560999999,379.6886560999999,379.6886560999999,379.6886560999999,379.6886560999999,379.6886560999999,,,,,,,,,,,,,,,,,,,,,,,,,,,,,,,,,,,,,,,,,,,,,,,312,2022-10-12_10h14.37.705,Main,2022.2.2,60.228918071760525,
neutral,negative,2,k,k,0,0,0,0,0,0,0,0,,,,,,,,,2,16,52,16,,,,,,,,,,,,,,,,,,,,,,,,,,,,,,,,,,,,,,,,main,2,2,2,negative,neutral,379.6886560999999,379.6886560999999,379.6886560999999,379.6886560999999,380.66601990000004,380.73897250000005,k,k,1,0.8696985999999924,381.5649656999999,381.5649656999999,381.5649656999999,381.5649656999999,381.5649656999999,381.5649656999999,,,,,,,,,,,,,,,,,,,,,,,,,,,,,,,,,,,,,,,,,,,,,,,312,2022-10-12_10h14.37.705,Main,2022.2.2,60.228918071760525,
negative,neutral,1,j,l,0,0,0,0,0,0,0,0,,,,,,,,,2,17,53,3,,,,,,,,,,,,,,,,,,,,,,,,,,,,,,,,,,,,,,,,main,2,2,1,neutral,negative,381.5649656999999,381.5649656999999,381.5649656999999,381.5649656999999,382.54830119999997,382.57979320000004,j,j,1,1.2515622999999323,383.81476829999997,383.81476829999997,383.81476829999997,383.81476829999997,383.81476829999997,383.81476829999997,,,,,,,,,,,,,,,,,,,,,,,,,,,,,,,,,,,,,,,,,,,,,,,312,2022-10-12_10h14.37.705,Main,2022.2.2,60.228918071760525,
negative,negative,1,j,l,0,0,0,0,0,0,0,0,,,,,,,,,3,0,54,0,,,,,,,,,,,,,,,,,,,,,,,,,,,,,,,,,,,,,,,,main,2,2,1,negative,negative,383.81476829999997,383.81476829999997,383.81476829999997,383.81476829999997,384.7959779999999,384.8585699,j,j,1,0.8477038999999422,385.66972680000003,385.66972680000003,385.66972680000003,385.66972680000003,385.66972680000003,385.66972680000003,,,,,,,,,,,,,,,,,,,,,,,,,,,,,,,,,,,,,,,,,,,,,,,312,2022-10-12_10h14.37.705,Main,2022.2.2,60.228918071760525,
neutral,negative,2,k,k,0,0,0,0,0,0,0,0,,,,,,,,,3,1,55,16,,,,,,,,,,,,,,,,,,,,,,,,,,,,,,,,,,,,,,,,main,2,2,2,negative,neutral,385.66972680000003,385.66972680000003,385.66972680000003,385.66972680000003,386.65454909999994,386.6843675,k,k,1,1.3242029000000457,387.99385919999986,387.99385919999986,387.99385919999986,387.99385919999986,387.99385919999986,387.99385919999986,,,,,,,,,,,,,,,,,,,,,,,,,,,,,,,,,,,,,,,,,,,,,,,312,2022-10-12_10h14.37.705,Main,2022.2.2,60.228918071760525,
positive,negative,1,l,j,0,0,0,0,0,0,0,0,,,,,,,,,3,2,56,5,,,,,,,,,,,,,,,,,,,,,,,,,,,,,,,,,,,,,,,,main,2,2,1,negative,positive,387.99385919999986,387.99385919999986,387.99385919999986,387.99385919999986,388.9906796999999,389.01991369999996,l,l,1,0.9292247000000771,389.9262441999999,389.9262441999999,389.9262441999999,389.9262441999999,389.9262441999999,389.9262441999999,,,,,,,,,,,,,,,,,,,,,,,,,,,,,,,,,,,,,,,,,,,,,,,312,2022-10-12_10h14.37.705,Main,2022.2.2,60.228918071760525,
neutral,neutral,2,k,k,0,0,0,0,0,0,0,0,,,,,,,,,3,3,57,10,,,,,,,,,,,,,,,,,,,,,,,,,,,,,,,,,,,,,,,,main,2,2,2,neutral,neutral,389.9262441999999,389.9262441999999,389.9262441999999,389.9262441999999,390.92105530000003,390.95159409999997,k,k,1,1.0663463000000775,391.99713070000007,391.99713070000007,391.99713070000007,391.99713070000007,391.99713070000007,391.99713070000007,,,,,,,,,,,,,,,,,,,,,,,,,,,,,,,,,,,,,,,,,,,,,,,312,2022-10-12_10h14.37.705,Main,2022.2.2,60.228918071760525,
neutral,positive,2,k,k,0,0,0,0,0,0,0,0,,,,,,,,,3,4,58,13,,,,,,,,,,,,,,,,,,,,,,,,,,,,,,,,,,,,,,,,main,2,2,2,positive,neutral,391.99713070000007,391.99713070000007,391.99713070000007,391.99713070000007,392.9734945,393.04233539999996,k,k,1,0.7731507999999394,393.7679086999999,393.7679086999999,393.7679086999999,393.7679086999999,393.7679086999999,393.7679086999999,,,,,,,,,,,,,,,,,,,,,,,,,,,,,,,,,,,,,,,,,,,,,,,312,2022-10-12_10h14.37.705,Main,2022.2.2,60.228918071760525,
positive,neutral,2,l,j,0,0,0,0,0,0,0,0,,,,,,,,,3,5,59,17,,,,,,,,,,,,,,,,,,,,,,,,,,,,,,,,,,,,,,,,main,1,1,2,neutral,positive,393.7679086999999,393.7679086999999,393.7679086999999,393.7679086999999,394.76741049999987,394.79678769999987,l,l,1,0.8375746000001527,395.6154764999999,395.6154764999999,395.6154764999999,395.6154764999999,395.6154764999999,395.6154764999999,,,,,,,,,,,,,,,,,,,,,,,,,,,,,,,,,,,,,,,,,,,,,,,312,2022-10-12_10h14.37.705,Main,2022.2.2,60.228918071760525,
positive,neutral,1,l,j,0,0,0,0,0,0,0,0,,,,,,,,,3,6,60,8,,,,,,,,,,,,,,,,,,,,,,,,,,,,,,,,,,,,,,,,main,2,2,1,neutral,positive,395.6154764999999,395.6154764999999,395.6154764999999,395.6154764999999,396.5794051999999,396.64643309999997,l,l,1,0.9429628000000321,397.551289,397.551289,397.551289,397.551289,397.551289,397.551289,,,,,,,,,,,,,,,,,,,,,,,,,,,,,,,,,,,,,,,,,,,,,,,312,2022-10-12_10h14.37.705,Main,2022.2.2,60.228918071760525,
positive,negative,2,l,j,0,0,0,0,0,0,0,0,,,,,,,,,3,7,61,14,,,,,,,,,,,,,,,,,,,,,,,,,,,,,,,,,,,,,,,,main,2,2,2,negative,positive,397.551289,397.551289,397.551289,397.551289,398.5560068,398.58716630000004,l,l,1,1.4325521000000663,399.99379929999986,399.99379929999986,399.99379929999986,399.99379929999986,399.99379929999986,399.99379929999986,,,,,,,,,,,,,,,,,,,,,,,,,,,,,,,,,,,,,,,,,,,,,,,312,2022-10-12_10h14.37.705,Main,2022.2.2,60.228918071760525,
neutral,negative,1,k,k,0,0,0,0,0,0,0,0,,,,,,,,,3,8,62,7,,,,,,,,,,,,,,,,,,,,,,,,,,,,,,,,,,,,,,,,main,2,2,1,negative,neutral,399.99379929999986,399.99379929999986,399.99379929999986,399.99379929999986,400.99082939999994,401.0207467,k,k,1,0.852906300000086,401.84557389999986,401.84557389999986,401.84557389999986,401.84557389999986,401.84557389999986,401.84557389999986,,,,,,,,,,,,,,,,,,,,,,,,,,,,,,,,,,,,,,,,,,,,,,,312,2022-10-12_10h14.37.705,Main,2022.2.2,60.228918071760525,
neutral,neutral,1,k,k,0,0,0,0,0,0,0,0,,,,,,,,,3,9,63,1,,,,,,,,,,,,,,,,,,,,,,,,,,,,,,,,,,,,,,,,main,1,1,1,neutral,neutral,401.84557389999986,401.84557389999986,401.84557389999986,401.84557389999986,402.82922830000007,402.86016530000006,k,k,1,0.8869601999999759,403.7409267999999,403.7409267999999,403.7409267999999,403.7409267999999,403.7409267999999,403.7409267999999,,,,,,,,,,,,,,,,,,,,,,,,,,,,,,,,,,,,,,,,,,,,,,,312,2022-10-12_10h14.37.705,Main,2022.2.2,60.228918071760525,
neutral,positive,1,k,k,0,0,0,0,0,0,0,0,,,,,,,,,3,10,64,4,,,,,,,,,,,,,,,,,,,,,,,,,,,,,,,,,,,,,,,,main,2,2,1,positive,neutral,403.7409267999999,403.7409267999999,403.7409267999999,403.7409267999999,404.71542049999994,404.77751450000005,k,k,1,0.7444610000000011,405.48798970000007,405.48798970000007,405.48798970000007,405.48798970000007,405.48798970000007,405.48798970000007,,,,,,,,,,,,,,,,,,,,,,,,,,,,,,,,,,,,,,,,,,,,,,,312,2022-10-12_10h14.37.705,Main,2022.2.2,60.228918071760525,
negative,negative,2,j,l,0,0,0,0,0,0,0,0,,,,,,,,,3,11,65,9,,,,,,,,,,,,,,,,,,,,,,,,,,,,,,,,,,,,,,,,main,2,2,2,negative,negative,405.48798970000007,405.48798970000007,405.48798970000007,405.48798970000007,406.46698360000005,406.53406029999996,j,l,0,1.0102922000000945,407.48117419999994,407.48117419999994,407.48117419999994,408.53002390000006,408.53002390000006,408.53002390000006,,,,,,,,,,,,,,,,,,,,,,,,,,,,,,,,,,,,,,,,,,,,,,,312,2022-10-12_10h14.37.705,Main,2022.2.2,60.228918071760525,
negative,positive,2,j,l,0,0,0,0,0,0,0,0,,,,,,,,,3,12,66,15,,,,,,,,,,,,,,,,,,,,,,,,,,,,,,,,,,,,,,,,main,1,1,2,positive,negative,408.53002390000006,408.53002390000006,408.53002390000006,408.53002390000006,409.50846720000004,409.5705521,j,j,1,1.954011500000206,411.45909430000006,411.45909430000006,411.45909430000006,412.49400420000006,412.49400420000006,412.49400420000006,,,,,,,,,,,,,,,,,,,,,,,,,,,,,,,,,,,,,,,,,,,,,,,312,2022-10-12_10h14.37.705,Main,2022.2.2,60.228918071760525,
positive,positive,1,l,j,0,0,0,0,0,0,0,0,,,,,,,,,3,13,67,2,,,,,,,,,,,,,,,,,,,,,,,,,,,,,,,,,,,,,,,,main,1,1,1,positive,positive,412.49400420000006,412.49400420000006,412.49400420000006,412.49400420000006,413.4765064999999,413.5095646,l,l,1,1.0046193000000585,414.49899460000006,414.49899460000006,414.49899460000006,414.49899460000006,414.49899460000006,414.49899460000006,,,,,,,,,,,,,,,,,,,,,,,,,,,,,,,,,,,,,,,,,,,,,,,312,2022-10-12_10h14.37.705,Main,2022.2.2,60.228918071760525,
negative,neutral,1,j,l,0,0,0,0,0,0,0,0,,,,,,,,,3,14,68,3,,,,,,,,,,,,,,,,,,,,,,,,,,,,,,,,,,,,,,,,main,1,1,1,neutral,negative,414.49899460000006,414.49899460000006,414.49899460000006,414.49899460000006,415.49847009999985,415.5339901,j,j,1,1.0982740999997986,416.6088488999999,416.6088488999999,416.6088488999999,416.6088488999999,416.6088488999999,416.6088488999999,,,,,,,,,,,,,,,,,,,,,,,,,,,,,,,,,,,,,,,,,,,,,,,312,2022-10-12_10h14.37.705,Main,2022.2.2,60.228918071760525,
negative,positive,1,j,l,0,0,0,0,0,0,0,0,,,,,,,,,3,15,69,6,,,,,,,,,,,,,,,,,,,,,,,,,,,,,,,,,,,,,,,,main,1,1,1,positive,negative,416.6088488999999,416.6088488999999,416.6088488999999,416.6088488999999,417.6087124999999,417.6547771999999,j,j,1,0.768527499999891,418.3800887,418.3800887,418.3800887,418.3800887,418.3800887,418.3800887,,,,,,,,,,,,,,,,,,,,,,,,,,,,,,,,,,,,,,,,,,,,,,,312,2022-10-12_10h14.37.705,Main,2022.2.2,60.228918071760525,
negative,neutral,2,j,l,0,0,0,0,0,0,0,0,,,,,,,,,3,16,70,12,,,,,,,,,,,,,,,,,,,,,,,,,,,,,,,,,,,,,,,,main,1,1,2,neutral,negative,418.3800887,418.3800887,418.3800887,418.3800887,419.3756014999999,419.4064759999999,j,j,1,1.016439900000023,420.3976803999999,420.3976803999999,420.3976803999999,420.3976803999999,420.3976803999999,420.3976803999999,,,,,,,,,,,,,,,,,,,,,,,,,,,,,,,,,,,,,,,,,,,,,,,312,2022-10-12_10h14.37.705,Main,2022.2.2,60.228918071760525,
positive,positive,2,l,j,0,0,0,0,0,0,0,0,,,,,,,,,3,17,71,11,,,,,,,,,,,,,,,,,,,,,,,,,,,,,,,,,,,,,,,,main,2,2,2,positive,positive,420.3976803999999,420.3976803999999,420.3976803999999,420.3976803999999,421.3921106999999,421.42391870000006,l,l,1,1.0120558999999503,422.41695329999993,422.41695329999993,422.41695329999993,422.41695329999993,422.41695329999993,422.41695329999993,,,,,,,,,,,,,,,,,,,,,,,,,,,,,,,,,,,,,,,,,,,,,,,312,2022-10-12_10h14.37.705,Main,2022.2.2,60.228918071760525,
positive,negative,2,l,j,0,0,0,0,0,0,0,0,,,,,,,,,4,0,72,14,,,,,,,,,,,,,,,,,,,,,,,,,,,,,,,,,,,,,,,,main,1,1,2,negative,positive,422.41695329999993,422.41695329999993,422.41695329999993,422.41695329999993,423.39070130000005,423.4547284999999,l,l,1,0.809548599999971,424.22655669999995,424.22655669999995,424.22655669999995,424.22655669999995,424.22655669999995,424.22655669999995,,,,,,,,,,,,,,,,,,,,,,,,,,,,,,,,,,,,,,,,,,,,,,,312,2022-10-12_10h14.37.705,Main,2022.2.2,60.228918071760525,
positive,positive,1,l,j,0,0,0,0,0,0,0,0,,,,,,,,,4,1,73,2,,,,,,,,,,,,,,,,,,,,,,,,,,,,,,,,,,,,,,,,main,1,1,1,positive,positive,424.22655669999995,424.22655669999995,424.22655669999995,424.22655669999995,425.21700999999985,425.2469183999999,l,l,1,1.0138245000000552,426.23976229999994,426.23976229999994,426.23976229999994,426.23976229999994,426.23976229999994,426.23976229999994,,,,,,,,,,,,,,,,,,,,,,,,,,,,,,,,,,,,,,,,,,,,,,,312,2022-10-12_10h14.37.705,Main,2022.2.2,60.228918071760525,
negative,positive,2,j,l,0,0,0,0,0,0,0,0,,,,,,,,,4,2,74,15,,,,,,,,,,,,,,,,,,,,,,,,,,,,,,,,,,,,,,,,main,2,2,2,positive,negative,426.23976229999994,426.23976229999994,426.23976229999994,426.23976229999994,427.22008660000006,427.28624779999996,j,j,1,1.017859499999986,428.2655448999999,428.2655448999999,428.2655448999999,428.2655448999999,428.2655448999999,428.2655448999999,,,,,,,,,,,,,,,,,,,,,,,,,,,,,,,,,,,,,,,,,,,,,,,312,2022-10-12_10h14.37.705,Main,2022.2.2,60.228918071760525,
negative,positive,1,j,l,0,0,0,0,0,0,0,0,,,,,,,,,4,3,75,6,,,,,,,,,,,,,,,,,,,,,,,,,,,,,,,,,,,,,,,,main,2,2,1,positive,negative,428.2655448999999,428.2655448999999,428.2655448999999,428.2655448999999,429.24416599999995,429.3091910999999,j,j,1,0.9788532000000032,430.2442102,430.2442102,430.2442102,430.2442102,430.2442102,430.2442102,,,,,,,,,,,,,,,,,,,,,,,,,,,,,,,,,,,,,,,,,,,,,,,312,2022-10-12_10h14.37.705,Main,2022.2.2,60.228918071760525,
negative,neutral,1,j,l,0,0,0,0,0,0,0,0,,,,,,,,,4,4,76,3,,,,,,,,,,,,,,,,,,,,,,,,,,,,,,,,,,,,,,,,main,2,2,1,neutral,negative,430.2442102,430.2442102,430.2442102,430.2442102,431.2216928999999,431.28189169999996,j,j,1,0.805912699999908,432.05938249999986,432.05938249999986,432.05938249999986,432.05938249999986,432.05938249999986,432.05938249999986,,,,,,,,,,,,,,,,,,,,,,,,,,,,,,,,,,,,,,,,,,,,,,,312,2022-10-12_10h14.37.705,Main,2022.2.2,60.228918071760525,
positive,positive,2,l,j,0,0,0,0,0,0,0,0,,,,,,,,,4,5,77,11,,,,,,,,,,,,,,,,,,,,,,,,,,,,,,,,,,,,,,,,main,1,1,2,positive,positive,432.05938249999986,432.05938249999986,432.05938249999986,432.05938249999986,433.0508740999999,433.08684100000005,l,l,1,1.0537464999999884,434.11348329999987,434.11348329999987,434.11348329999987,434.11348329999987,434.11348329999987,434.11348329999987,,,,,,,,,,,,,,,,,,,,,,,,,,,,,,,,,,,,,,,,,,,,,,,312,2022-10-12_10h14.37.705,Main,2022.2.2,60.228918071760525,
neutral,negative,2,k,k,0,0,0,0,0,0,0,0,,,,,,,,,4,6,78,16,,,,,,,,,,,,,,,,,,,,,,,,,,,,,,,,,,,,,,,,main,1,1,2,negative,neutral,434.11348329999987,434.11348329999987,434.11348329999987,434.11348329999987,435.10308229999987,435.1341347,k,k,1,0.9909052000000429,436.10929799999985,436.10929799999985,436.10929799999985,436.10929799999985,436.10929799999985,436.10929799999985,,,,,,,,,,,,,,,,,,,,,,,,,,,,,,,,,,,,,,,,,,,,,,,312,2022-10-12_10h14.37.705,Main,2022.2.2,60.228918071760525,
neutral,negative,1,k,k,0,0,0,0,0,0,0,0,,,,,,,,,4,7,79,7,,,,,,,,,,,,,,,,,,,,,,,,,,,,,,,,,,,,,,,,main,2,2,1,negative,neutral,436.10929799999985,436.10929799999985,436.10929799999985,436.10929799999985,437.0816786999999,437.1480598999999,k,k,1,1.0119813999999678,438.1244128999999,438.1244128999999,438.1244128999999,438.1244128999999,438.1244128999999,438.1244128999999,,,,,,,,,,,,,,,,,,,,,,,,,,,,,,,,,,,,,,,,,,,,,,,312,2022-10-12_10h14.37.705,Main,2022.2.2,60.228918071760525,
positive,neutral,2,l,j,0,0,0,0,0,0,0,0,,,,,,,,,4,8,80,17,,,,,,,,,,,,,,,,,,,,,,,,,,,,,,,,,,,,,,,,main,1,1,2,neutral,positive,438.1244128999999,438.1244128999999,438.1244128999999,438.1244128999999,439.1273779999999,439.16012550000005,l,l,1,1.1323176000000785,440.2557256,440.2557256,440.2557256,440.2557256,440.2557256,440.2557256,,,,,,,,,,,,,,,,,,,,,,,,,,,,,,,,,,,,,,,,,,,,,,,312,2022-10-12_10h14.37.705,Main,2022.2.2,60.228918071760525,
neutral,neutral,2,k,k,0,0,0,0,0,0,0,0,,,,,,,,,4,9,81,10,,,,,,,,,,,,,,,,,,,,,,,,,,,,,,,,,,,,,,,,main,1,1,2,neutral,neutral,440.2557256,440.2557256,440.2557256,440.2557256,441.24998959999994,441.2784483999999,k,k,1,1.0962257999999565,442.35596399999986,442.35596399999986,442.35596399999986,442.35596399999986,442.35596399999986,442.35596399999986,,,,,,,,,,,,,,,,,,,,,,,,,,,,,,,,,,,,,,,,,,,,,,,312,2022-10-12_10h14.37.705,Main,2022.2.2,60.228918071760525,
negative,negative,1,j,l,0,0,0,0,0,0,0,0,,,,,,,,,4,10,82,0,,,,,,,,,,,,,,,,,,,,,,,,,,,,,,,,,,,,,,,,main,1,1,1,negative,negative,442.35596399999986,442.35596399999986,442.35596399999986,442.35596399999986,443.34249079999995,443.37910439999996,j,j,1,1.060379699999885,444.4238358,444.4238358,444.4238358,444.4238358,444.4238358,444.4238358,,,,,,,,,,,,,,,,,,,,,,,,,,,,,,,,,,,,,,,,,,,,,,,312,2022-10-12_10h14.37.705,Main,2022.2.2,60.228918071760525,
neutral,neutral,1,k,k,0,0,0,0,0,0,0,0,,,,,,,,,4,11,83,1,,,,,,,,,,,,,,,,,,,,,,,,,,,,,,,,,,,,,,,,main,1,1,1,neutral,neutral,444.4238358,444.4238358,444.4238358,444.4238358,445.40133319999995,445.4599017999999,k,k,1,0.9550862999999481,446.3803897,446.3803897,446.3803897,446.3803897,446.3803897,446.3803897,,,,,,,,,,,,,,,,,,,,,,,,,,,,,,,,,,,,,,,,,,,,,,,312,2022-10-12_10h14.37.705,Main,2022.2.2,60.228918071760525,
positive,neutral,1,l,j,0,0,0,0,0,0,0,0,,,,,,,,,4,12,84,8,,,,,,,,,,,,,,,,,,,,,,,,,,,,,,,,,,,,,,,,main,2,2,1,neutral,positive,446.3803897,446.3803897,446.3803897,446.3803897,447.3723084999999,447.40375100000006,l,l,1,1.1856305000001157,448.5697206,448.5697206,448.5697206,448.5697206,448.5697206,448.5697206,,,,,,,,,,,,,,,,,,,,,,,,,,,,,,,,,,,,,,,,,,,,,,,312,2022-10-12_10h14.37.705,Main,2022.2.2,60.228918071760525,
negative,negative,2,j,l,0,0,0,0,0,0,0,0,,,,,,,,,4,13,85,9,,,,,,,,,,,,,,,,,,,,,,,,,,,,,,,,,,,,,,,,main,1,1,2,negative,negative,448.5697206,448.5697206,448.5697206,448.5697206,449.5634556,449.5945153,j,j,1,0.9705507000001035,450.54312000000004,450.54312000000004,450.54312000000004,450.54312000000004,450.54312000000004,450.54312000000004,,,,,,,,,,,,,,,,,,,,,,,,,,,,,,,,,,,,,,,,,,,,,,,312,2022-10-12_10h14.37.705,Main,2022.2.2,60.228918071760525,
neutral,positive,1,k,k,0,0,0,0,0,0,0,0,,,,,,,,,4,14,86,4,,,,,,,,,,,,,,,,,,,,,,,,,,,,,,,,,,,,,,,,main,1,1,1,positive,neutral,450.54312000000004,450.54312000000004,450.54312000000004,450.54312000000004,451.54539380000006,451.5811346999999,k,k,1,0.963157899999942,452.5080498,452.5080498,452.5080498,452.5080498,452.5080498,452.5080498,,,,,,,,,,,,,,,,,,,,,,,,,,,,,,,,,,,,,,,,,,,,,,,312,2022-10-12_10h14.37.705,Main,2022.2.2,60.228918071760525,
negative,neutral,2,j,l,0,0,0,0,0,0,0,0,,,,,,,,,4,15,87,12,,,,,,,,,,,,,,,,,,,,,,,,,,,,,,,,,,,,,,,,main,1,1,2,neutral,negative,452.5080498,452.5080498,452.5080498,452.5080498,453.5060111,453.54076800000007,j,j,1,1.329709899999898,454.84570770000005,454.84570770000005,454.84570770000005,454.84570770000005,454.84570770000005,454.84570770000005,,,,,,,,,,,,,,,,,,,,,,,,,,,,,,,,,,,,,,,,,,,,,,,312,2022-10-12_10h14.37.705,Main,2022.2.2,60.228918071760525,
neutral,positive,2,k,k,0,0,0,0,0,0,0,0,,,,,,,,,4,16,88,13,,,,,,,,,,,,,,,,,,,,,,,,,,,,,,,,,,,,,,,,main,2,2,2,positive,neutral,454.84570770000005,454.84570770000005,454.84570770000005,454.84570770000005,455.82340299999987,455.89302939999993,k,k,1,0.9436739000000216,456.7943665,456.7943665,456.7943665,456.7943665,456.7943665,456.7943665,,,,,,,,,,,,,,,,,,,,,,,,,,,,,,,,,,,,,,,,,,,,,,,312,2022-10-12_10h14.37.705,Main,2022.2.2,60.228918071760525,
positive,negative,1,l,j,0,0,0,0,0,0,0,0,,,,,,,,,4,17,89,5,,,,,,,,,,,,,,,,,,,,,,,,,,,,,,,,,,,,,,,,main,2,2,1,negative,positive,456.7943665,456.7943665,456.7943665,456.7943665,457.7951894999999,457.8319145999999,l,l,1,0.9493592999999692,458.74517650000007,458.74517650000007,458.74517650000007,458.74517650000007,458.74517650000007,458.74517650000007,,,,,,,,,,,,,,,,,,,,,,,,,,,,,,,,,,,,,,,,,,,,,,,312,2022-10-12_10h14.37.705,Main,2022.2.2,60.228918071760525,
negative,positive,1,j,l,0,0,0,0,0,0,0,0,,,,,,,,,5,0,90,6,,,,,,,,,,,,,,,,,,,,,,,,,,,,,,,,,,,,,,,,main,2,2,1,positive,negative,458.74517650000007,458.74517650000007,458.74517650000007,458.74517650000007,459.71754809999993,459.78356510000003,j,j,1,1.0301357999999254,460.78081369999995,460.78081369999995,460.78081369999995,460.78081369999995,460.78081369999995,460.78081369999995,,,,,,,,,,,,,,,,,,,,,,,,,,,,,,,,,,,,,,,,,,,,,,,312,2022-10-12_10h14.37.705,Main,2022.2.2,60.228918071760525,
positive,neutral,2,l,j,0,0,0,0,0,0,0,0,,,,,,,,,5,1,91,17,,,,,,,,,,,,,,,,,,,,,,,,,,,,,,,,,,,,,,,,main,1,1,2,neutral,positive,460.78081369999995,460.78081369999995,460.78081369999995,460.78081369999995,461.76377920000004,461.79281879999985,l,l,1,1.0218047000000752,462.80785349999996,462.80785349999996,462.80785349999996,462.80785349999996,462.80785349999996,462.80785349999996,,,,,,,,,,,,,,,,,,,,,,,,,,,,,,,,,,,,,,,,,,,,,,,312,2022-10-12_10h14.37.705,Main,2022.2.2,60.228918071760525,
positive,neutral,1,l,j,0,0,0,0,0,0,0,0,,,,,,,,,5,2,92,8,,,,,,,,,,,,,,,,,,,,,,,,,,,,,,,,,,,,,,,,main,2,2,1,neutral,positive,462.80785349999996,462.80785349999996,462.80785349999996,462.80785349999996,463.8050057999999,463.8346328,l,l,1,0.915284500000098,464.72216579999986,464.72216579999986,464.72216579999986,464.72216579999986,464.72216579999986,464.72216579999986,,,,,,,,,,,,,,,,,,,,,,,,,,,,,,,,,,,,,,,,,,,,,,,312,2022-10-12_10h14.37.705,Main,2022.2.2,60.228918071760525,
neutral,negative,1,k,k,0,0,0,0,0,0,0,0,,,,,,,,,5,3,93,7,,,,,,,,,,,,,,,,,,,,,,,,,,,,,,,,,,,,,,,,main,2,2,1,negative,neutral,464.72216579999986,464.72216579999986,464.72216579999986,464.72216579999986,465.70781280000006,465.73801419999995,k,k,1,0.9509980999998788,466.6749425999999,466.6749425999999,466.6749425999999,466.6749425999999,466.6749425999999,466.6749425999999,,,,,,,,,,,,,,,,,,,,,,,,,,,,,,,,,,,,,,,,,,,,,,,312,2022-10-12_10h14.37.705,Main,2022.2.2,60.228918071760525,
positive,positive,1,l,j,0,0,0,0,0,0,0,0,,,,,,,,,5,4,94,2,,,,,,,,,,,,,,,,,,,,,,,,,,,,,,,,,,,,,,,,main,2,2,1,positive,positive,466.6749425999999,466.6749425999999,466.6749425999999,466.6749425999999,467.6716948999999,467.70800439999994,l,l,1,0.9305907000000389,468.61622779999993,468.61622779999993,468.61622779999993,468.61622779999993,468.61622779999993,468.61622779999993,,,,,,,,,,,,,,,,,,,,,,,,,,,,,,,,,,,,,,,,,,,,,,,312,2022-10-12_10h14.37.705,Main,2022.2.2,60.228918071760525,
neutral,neutral,1,k,k,0,0,0,0,0,0,0,0,,,,,,,,,5,5,95,1,,,,,,,,,,,,,,,,,,,,,,,,,,,,,,,,,,,,,,,,main,1,1,1,neutral,neutral,468.61622779999993,468.61622779999993,468.61622779999993,468.61622779999993,469.6163231999999,469.6484338999999,k,k,1,1.4761195000000953,471.08631760000003,471.08631760000003,471.08631760000003,471.08631760000003,471.08631760000003,471.08631760000003,,,,,,,,,,,,,,,,,,,,,,,,,,,,,,,,,,,,,,,,,,,,,,,312,2022-10-12_10h14.37.705,Main,2022.2.2,60.228918071760525,
negative,negative,1,j,l,0,0,0,0,0,0,0,0,,,,,,,,,5,6,96,0,,,,,,,,,,,,,,,,,,,,,,,,,,,,,,,,,,,,,,,,main,1,1,1,negative,negative,471.08631760000003,471.08631760000003,471.08631760000003,471.08631760000003,472.08486429999994,472.1206995,j,j,1,1.0186802000000625,473.1134884999999,473.1134884999999,473.1134884999999,473.1134884999999,473.1134884999999,473.1134884999999,,,,,,,,,,,,,,,,,,,,,,,,,,,,,,,,,,,,,,,,,,,,,,,312,2022-10-12_10h14.37.705,Main,2022.2.2,60.228918071760525,
positive,negative,2,l,j,0,0,0,0,0,0,0,0,,,,,,,,,5,7,97,14,,,,,,,,,,,,,,,,,,,,,,,,,,,,,,,,,,,,,,,,main,2,2,2,negative,positive,473.1134884999999,473.1134884999999,473.1134884999999,473.1134884999999,474.09321939999995,474.15613299999995,l,l,1,1.4211102000001574,475.5389611999999,475.5389611999999,475.5389611999999,475.5389611999999,475.5389611999999,475.5389611999999,,,,,,,,,,,,,,,,,,,,,,,,,,,,,,,,,,,,,,,,,,,,,,,312,2022-10-12_10h14.37.705,Main,2022.2.2,60.228918071760525,
neutral,positive,2,k,k,0,0,0,0,0,0,0,0,,,,,,,,,5,8,98,13,,,,,,,,,,,,,,,,,,,,,,,,,,,,,,,,,,,,,,,,main,1,1,2,positive,neutral,475.5389611999999,475.5389611999999,475.5389611999999,475.5389611999999,476.5319718999999,476.5617204,k,k,1,0.9560317999998915,477.49269619999995,477.49269619999995,477.49269619999995,477.49269619999995,477.49269619999995,477.49269619999995,,,,,,,,,,,,,,,,,,,,,,,,,,,,,,,,,,,,,,,,,,,,,,,312,2022-10-12_10h14.37.705,Main,2022.2.2,60.228918071760525,
neutral,positive,1,k,k,0,0,0,0,0,0,0,0,,,,,,,,,5,9,99,4,,,,,,,,,,,,,,,,,,,,,,,,,,,,,,,,,,,,,,,,main,2,2,1,positive,neutral,477.49269619999995,477.49269619999995,477.49269619999995,477.49269619999995,478.4937536,478.52324810000005,k,k,1,1.0229471000000103,479.52145900000005,479.52145900000005,479.52145900000005,479.52145900000005,479.52145900000005,479.52145900000005,,,,,,,,,,,,,,,,,,,,,,,,,,,,,,,,,,,,,,,,,,,,,,,312,2022-10-12_10h14.37.705,Main,2022.2.2,60.228918071760525,
neutral,neutral,2,k,k,0,0,0,0,0,0,0,0,,,,,,,,,5,10,100,10,,,,,,,,,,,,,,,,,,,,,,,,,,,,,,,,,,,,,,,,main,2,2,2,neutral,neutral,479.52145900000005,479.52145900000005,479.52145900000005,479.52145900000005,480.5025389,480.56352300000003,k,k,1,0.8133384000000206,481.3419303999999,481.3419303999999,481.3419303999999,481.3419303999999,481.3419303999999,481.3419303999999,,,,,,,,,,,,,,,,,,,,,,,,,,,,,,,,,,,,,,,,,,,,,,,312,2022-10-12_10h14.37.705,Main,2022.2.2,60.228918071760525,
positive,positive,2,l,j,0,0,0,0,0,0,0,0,,,,,,,,,5,11,101,11,,,,,,,,,,,,,,,,,,,,,,,,,,,,,,,,,,,,,,,,main,1,1,2,positive,positive,481.3419303999999,481.3419303999999,481.3419303999999,481.3419303999999,482.33819790000007,482.3698416,l,l,1,0.9942343000000164,483.3362055,483.3362055,483.3362055,483.3362055,483.3362055,483.3362055,,,,,,,,,,,,,,,,,,,,,,,,,,,,,,,,,,,,,,,,,,,,,,,312,2022-10-12_10h14.37.705,Main,2022.2.2,60.228918071760525,
neutral,negative,2,k,k,0,0,0,0,0,0,0,0,,,,,,,,,5,12,102,16,,,,,,,,,,,,,,,,,,,,,,,,,,,,,,,,,,,,,,,,main,1,1,2,negative,neutral,483.3362055,483.3362055,483.3362055,483.3362055,484.3172904999999,484.377512,k,k,1,0.8504146000000219,485.18445410000004,485.18445410000004,485.18445410000004,485.18445410000004,485.18445410000004,485.18445410000004,,,,,,,,,,,,,,,,,,,,,,,,,,,,,,,,,,,,,,,,,,,,,,,312,2022-10-12_10h14.37.705,Main,2022.2.2,60.228918071760525,
negative,neutral,2,j,l,0,0,0,0,0,0,0,0,,,,,,,,,5,13,103,12,,,,,,,,,,,,,,,,,,,,,,,,,,,,,,,,,,,,,,,,main,1,1,2,neutral,negative,485.18445410000004,485.18445410000004,485.18445410000004,485.18445410000004,486.1667654999999,486.2283726999999,j,j,1,0.9339152999998532,487.1315597999999,487.1315597999999,487.1315597999999,487.1315597999999,487.1315597999999,487.1315597999999,,,,,,,,,,,,,,,,,,,,,,,,,,,,,,,,,,,,,,,,,,,,,,,312,2022-10-12_10h14.37.705,Main,2022.2.2,60.228918071760525,
positive,negative,1,l,j,0,0,0,0,0,0,0,0,,,,,,,,,5,14,104,5,,,,,,,,,,,,,,,,,,,,,,,,,,,,,,,,,,,,,,,,main,2,2,1,negative,positive,487.1315597999999,487.1315597999999,487.1315597999999,487.1315597999999,488.10405279999986,488.1658431999999,l,l,1,1.3262231000001066,489.45535589999986,489.45535589999986,489.45535589999986,489.45535589999986,489.45535589999986,489.45535589999986,,,,,,,,,,,,,,,,,,,,,,,,,,,,,,,,,,,,,,,,,,,,,,,312,2022-10-12_10h14.37.705,Main,2022.2.2,60.228918071760525,
negative,positive,2,j,l,0,0,0,0,0,0,0,0,,,,,,,,,5,15,105,15,,,,,,,,,,,,,,,,,,,,,,,,,,,,,,,,,,,,,,,,main,2,2,2,positive,negative,489.45535589999986,489.45535589999986,489.45535589999986,489.45535589999986,490.43543380000006,490.5100029,j,j,1,1.4291269999998804,491.89249760000007,491.89249760000007,491.89249760000007,491.89249760000007,491.89249760000007,491.89249760000007,,,,,,,,,,,,,,,,,,,,,,,,,,,,,,,,,,,,,,,,,,,,,,,312,2022-10-12_10h14.37.705,Main,2022.2.2,60.228918071760525,
negative,negative,2,j,l,0,0,0,0,0,0,0,0,,,,,,,,,5,16,106,9,,,,,,,,,,,,,,,,,,,,,,,,,,,,,,,,,,,,,,,,main,2,2,2,negative,negative,491.89249760000007,491.89249760000007,491.89249760000007,491.89249760000007,492.8730805,492.93294889999993,j,j,1,0.9084347000000434,493.80951359999995,493.80951359999995,493.80951359999995,493.80951359999995,493.80951359999995,493.80951359999995,,,,,,,,,,,,,,,,,,,,,,,,,,,,,,,,,,,,,,,,,,,,,,,312,2022-10-12_10h14.37.705,Main,2022.2.2,60.228918071760525,
negative,neutral,1,j,l,0,0,0,0,0,0,0,0,,,,,,,,,5,17,107,3,,,,,,,,,,,,,,,,,,,,,,,,,,,,,,,,,,,,,,,,main,2,2,1,neutral,negative,493.80951359999995,493.80951359999995,493.80951359999995,493.80951359999995,494.7932249999999,494.82483839999986,j,j,1,0.7769585999999435,495.58139789999996,495.58139789999996,495.58139789999996,495.58139789999996,495.58139789999996,495.58139789999996,,,,,,,,,,,,,,,,,,,,,,,,,,,,,,,,,,,,,,,,,,,,,,,312,2022-10-12_10h14.37.705,Main,2022.2.2,60.228918071760525,
positive,neutral,1,l,j,0,0,0,0,0,0,0,0,,,,,,,,,6,0,108,8,,,,,,,,,,,,,,,,,,,,,,,,,,,,,,,,,,,,,,,,main,1,1,1,neutral,positive,495.58139789999996,495.58139789999996,495.58139789999996,495.58139789999996,496.57553570000005,496.6079947999999,l,l,1,0.9097635000000537,497.5030766,497.5030766,497.5030766,497.5030766,497.5030766,497.5030766,,,,,,,,,,,,,,,,,,,,,,,,,,,,,,,,,,,,,,,,,,,,,,,312,2022-10-12_10h14.37.705,Main,2022.2.2,60.228918071760525,
negative,positive,2,j,l,0,0,0,0,0,0,0,0,,,,,,,,,6,1,109,15,,,,,,,,,,,,,,,,,,,,,,,,,,,,,,,,,,,,,,,,main,1,1,2,positive,negative,497.5030766,497.5030766,497.5030766,497.5030766,498.48274790000005,498.54432870000005,j,j,1,0.8890950999998495,499.3941344,499.3941344,499.3941344,499.3941344,499.3941344,499.3941344,,,,,,,,,,,,,,,,,,,,,,,,,,,,,,,,,,,,,,,,,,,,,,,312,2022-10-12_10h14.37.705,Main,2022.2.2,60.228918071760525,
negative,neutral,1,j,l,0,0,0,0,0,0,0,0,,,,,,,,,6,2,110,3,,,,,,,,,,,,,,,,,,,,,,,,,,,,,,,,,,,,,,,,main,2,2,1,neutral,negative,499.3941344,499.3941344,499.3941344,499.3941344,500.40197390000003,500.43209550000006,j,j,1,1.163503700000092,501.55029149999996,501.55029149999996,501.55029149999996,501.55029149999996,501.55029149999996,501.55029149999996,,,,,,,,,,,,,,,,,,,,,,,,,,,,,,,,,,,,,,,,,,,,,,,312,2022-10-12_10h14.37.705,Main,2022.2.2,60.228918071760525,
positive,negative,1,l,j,0,0,0,0,0,0,0,0,,,,,,,,,6,3,111,5,,,,,,,,,,,,,,,,,,,,,,,,,,,,,,,,,,,,,,,,main,1,1,1,negative,positive,501.55029149999996,501.55029149999996,501.55029149999996,501.55029149999996,502.5280101999999,502.5905192,l,l,1,1.0868864999999914,503.64884129999996,503.64884129999996,503.64884129999996,503.64884129999996,503.64884129999996,503.64884129999996,,,,,,,,,,,,,,,,,,,,,,,,,,,,,,,,,,,,,,,,,,,,,,,312,2022-10-12_10h14.37.705,Main,2022.2.2,60.228918071760525,
negative,neutral,2,j,l,0,0,0,0,0,0,0,0,,,,,,,,,6,4,112,12,,,,,,,,,,,,,,,,,,,,,,,,,,,,,,,,,,,,,,,,main,2,2,2,neutral,negative,503.64884129999996,503.64884129999996,503.64884129999996,503.64884129999996,504.6379032,504.67100779999987,j,j,1,1.5609753999999612,506.1896778999999,506.1896778999999,506.1896778999999,507.22210789999986,507.22210789999986,507.22210789999986,,,,,,,,,,,,,,,,,,,,,,,,,,,,,,,,,,,,,,,,,,,,,,,312,2022-10-12_10h14.37.705,Main,2022.2.2,60.228918071760525,
neutral,neutral,1,k,k,0,0,0,0,0,0,0,0,,,,,,,,,6,5,113,1,,,,,,,,,,,,,,,,,,,,,,,,,,,,,,,,,,,,,,,,main,1,1,1,neutral,neutral,507.22210789999986,507.22210789999986,507.22210789999986,507.22210789999986,508.1989650999999,508.2646577999999,k,k,1,1.0960545000000366,509.32866190000004,509.32866190000004,509.32866190000004,509.32866190000004,509.32866190000004,509.32866190000004,,,,,,,,,,,,,,,,,,,,,,,,,,,,,,,,,,,,,,,,,,,,,,,312,2022-10-12_10h14.37.705,Main,2022.2.2,60.228918071760525,
negative,negative,1,j,l,0,0,0,0,0,0,0,0,,,,,,,,,6,6,114,0,,,,,,,,,,,,,,,,,,,,,,,,,,,,,,,,,,,,,,,,main,2,2,1,negative,negative,509.32866190000004,509.32866190000004,509.32866190000004,509.32866190000004,510.30767620000006,510.36978550000003,j,j,1,1.2778359999999793,511.61461529999997,511.61461529999997,511.61461529999997,511.61461529999997,511.61461529999997,511.61461529999997,,,,,,,,,,,,,,,,,,,,,,,,,,,,,,,,,,,,,,,,,,,,,,,312,2022-10-12_10h14.37.705,Main,2022.2.2,60.228918071760525,
neutral,positive,1,k,k,0,0,0,0,0,0,0,0,,,,,,,,,6,7,115,4,,,,,,,,,,,,,,,,,,,,,,,,,,,,,,,,,,,,,,,,main,2,2,1,positive,neutral,511.61461529999997,511.61461529999997,511.61461529999997,511.61461529999997,512.6119956,512.6436802000001,k,k,1,1.0075541999999587,513.6192343999999,513.6192343999999,513.6192343999999,513.6192343999999,513.6192343999999,513.6192343999999,,,,,,,,,,,,,,,,,,,,,,,,,,,,,,,,,,,,,,,,,,,,,,,312,2022-10-12_10h14.37.705,Main,2022.2.2,60.228918071760525,
positive,negative,2,l,j,0,0,0,0,0,0,0,0,,,,,,,,,6,8,116,14,,,,,,,,,,,,,,,,,,,,,,,,,,,,,,,,,,,,,,,,main,1,1,2,negative,positive,513.6192343999999,513.6192343999999,513.6192343999999,513.6192343999999,514.6099592,514.6411344999999,l,l,1,1.044351400000096,515.6723448,515.6723448,515.6723448,515.6723448,515.6723448,515.6723448,,,,,,,,,,,,,,,,,,,,,,,,,,,,,,,,,,,,,,,,,,,,,,,312,2022-10-12_10h14.37.705,Main,2022.2.2,60.228918071760525,
neutral,positive,2,k,k,0,0,0,0,0,0,0,0,,,,,,,,,6,9,117,13,,,,,,,,,,,,,,,,,,,,,,,,,,,,,,,,,,,,,,,,main,2,2,2,positive,neutral,515.6723448,515.6723448,515.6723448,515.6723448,516.6566416999999,516.6893201,k,k,1,1.6087582000000111,518.2549879000001,518.2549879000001,518.2549879000001,519.2862843999999,519.2862843999999,519.2862843999999,,,,,,,,,,,,,,,,,,,,,,,,,,,,,,,,,,,,,,,,,,,,,,,312,2022-10-12_10h14.37.705,Main,2022.2.2,60.228918071760525,
positive,positive,2,l,j,0,0,0,0,0,0,0,0,,,,,,,,,6,10,118,11,,,,,,,,,,,,,,,,,,,,,,,,,,,,,,,,,,,,,,,,main,2,2,2,positive,positive,519.2862843999999,519.2862843999999,519.2862843999999,519.2862843999999,520.3020852,520.3345944999999,l,l,1,0.9875243999999839,521.2790390999999,521.2790390999999,521.2790390999999,521.2790390999999,521.2790390999999,521.2790390999999,,,,,,,,,,,,,,,,,,,,,,,,,,,,,,,,,,,,,,,,,,,,,,,312,2022-10-12_10h14.37.705,Main,2022.2.2,60.228918071760525,
positive,neutral,2,l,j,0,0,0,0,0,0,0,0,,,,,,,,,6,11,119,17,,,,,,,,,,,,,,,,,,,,,,,,,,,,,,,,,,,,,,,,main,1,1,2,neutral,positive,521.2790390999999,521.2790390999999,521.2790390999999,521.2790390999999,522.2603565,522.3210291999999,l,l,1,1.4365932000000612,523.7208287999999,523.7208287999999,523.7208287999999,523.7208287999999,523.7208287999999,523.7208287999999,,,,,,,,,,,,,,,,,,,,,,,,,,,,,,,,,,,,,,,,,,,,,,,312,2022-10-12_10h14.37.705,Main,2022.2.2,60.228918071760525,
negative,positive,1,j,l,0,0,0,0,0,0,0,0,,,,,,,,,6,12,120,6,,,,,,,,,,,,,,,,,,,,,,,,,,,,,,,,,,,,,,,,main,1,1,1,positive,negative,523.7208287999999,523.7208287999999,523.7208287999999,523.7208287999999,524.6957074,524.7576721999999,j,j,1,1.0529666999998426,525.7801267,525.7801267,525.7801267,525.7801267,525.7801267,525.7801267,,,,,,,,,,,,,,,,,,,,,,,,,,,,,,,,,,,,,,,,,,,,,,,312,2022-10-12_10h14.37.705,Main,2022.2.2,60.228918071760525,
neutral,neutral,2,k,k,0,0,0,0,0,0,0,0,,,,,,,,,6,13,121,10,,,,,,,,,,,,,,,,,,,,,,,,,,,,,,,,,,,,,,,,main,2,2,2,neutral,neutral,525.7801267,525.7801267,525.7801267,525.7801267,526.7620626,526.8240968,k,k,1,1.135647600000084,527.9191652,527.9191652,527.9191652,527.9191652,527.9191652,527.9191652,,,,,,,,,,,,,,,,,,,,,,,,,,,,,,,,,,,,,,,,,,,,,,,312,2022-10-12_10h14.37.705,Main,2022.2.2,60.228918071760525,
neutral,negative,1,k,k,0,0,0,0,0,0,0,0,,,,,,,,,6,14,122,7,,,,,,,,,,,,,,,,,,,,,,,,,,,,,,,,,,,,,,,,main,1,1,1,negative,neutral,527.9191652,527.9191652,527.9191652,527.9191652,528.8996236999999,528.9617506,k,k,1,1.9426445000001422,530.8383531,530.8383531,530.8383531,531.8811504999999,531.8811504999999,531.8811504999999,,,,,,,,,,,,,,,,,,,,,,,,,,,,,,,,,,,,,,,,,,,,,,,312,2022-10-12_10h14.37.705,Main,2022.2.2,60.228918071760525,
positive,positive,1,l,j,0,0,0,0,0,0,0,0,,,,,,,,,6,15,123,2,,,,,,,,,,,,,,,,,,,,,,,,,,,,,,,,,,,,,,,,main,2,2,1,positive,positive,531.8811504999999,531.8811504999999,531.8811504999999,531.8811504999999,532.8668797,532.8981332999999,l,l,1,1.7420810000000984,534.6025373999998,534.6025373999998,534.6025373999998,535.6433549999999,535.6433549999999,535.6433549999999,,,,,,,,,,,,,,,,,,,,,,,,,,,,,,,,,,,,,,,,,,,,,,,312,2022-10-12_10h14.37.705,Main,2022.2.2,60.228918071760525,
negative,negative,2,j,l,0,0,0,0,0,0,0,0,,,,,,,,,6,16,124,9,,,,,,,,,,,,,,,,,,,,,,,,,,,,,,,,,,,,,,,,main,2,2,2,negative,negative,535.6433549999999,535.6433549999999,535.6433549999999,535.6433549999999,536.6430169,536.6819865,j,j,1,0.9814248000000134,537.6350313999999,537.6350313999999,537.6350313999999,537.6350313999999,537.6350313999999,537.6350313999999,,,,,,,,,,,,,,,,,,,,,,,,,,,,,,,,,,,,,,,,,,,,,,,312,2022-10-12_10h14.37.705,Main,2022.2.2,60.228918071760525,
neutral,negative,2,k,k,0,0,0,0,0,0,0,0,,,,,,,,,6,17,125,16,,,,,,,,,,,,,,,,,,,,,,,,,,,,,,,,,,,,,,,,main,2,2,2,negative,neutral,537.6350313999999,537.6350313999999,537.6350313999999,537.6350313999999,538.6340584,538.6653320999999,k,k,1,0.9226478000000498,539.5643748999998,539.5643748999998,539.5643748999998,539.5643748999998,539.5643748999998,539.5643748999998,,,,,,,,,,,,,,,,,,,,,,,,,,,,,,,,,,,,,,,,,,,,,,,312,2022-10-12_10h14.37.705,Main,2022.2.2,60.228918071760525,
neutral,neutral,2,k,k,0,0,0,0,0,0,0,0,,,,,,,,,7,0,126,10,,,,,,,,,,,,,,,,,,,,,,,,,,,,,,,,,,,,,,,,main,1,1,2,neutral,neutral,539.5643748999998,539.5643748999998,539.5643748999998,539.5643748999998,540.5535737,540.5858946999999,k,k,1,0.8312630999998873,541.3965576,541.3965576,541.3965576,541.3965576,541.3965576,541.3965576,,,,,,,,,,,,,,,,,,,,,,,,,,,,,,,,,,,,,,,,,,,,,,,312,2022-10-12_10h14.37.705,Main,2022.2.2,60.228918071760525,
neutral,negative,2,k,k,0,0,0,0,0,0,0,0,,,,,,,,,7,1,127,16,,,,,,,,,,,,,,,,,,,,,,,,,,,,,,,,,,,,,,,,main,1,1,2,negative,neutral,541.3965576,541.3965576,541.3965576,541.3965576,542.3683550999999,542.4402648,k,k,1,0.7476422000002003,543.1449882,543.1449882,543.1449882,543.1449882,543.1449882,543.1449882,,,,,,,,,,,,,,,,,,,,,,,,,,,,,,,,,,,,,,,,,,,,,,,312,2022-10-12_10h14.37.705,Main,2022.2.2,60.228918071760525,
negative,positive,2,j,l,0,0,0,0,0,0,0,0,,,,,,,,,7,2,128,15,,,,,,,,,,,,,,,,,,,,,,,,,,,,,,,,,,,,,,,,main,2,2,2,positive,negative,543.1449882,543.1449882,543.1449882,543.1449882,544.1365352999999,544.1677416,j,j,1,1.045344600000135,545.1946125,545.1946125,545.1946125,545.1946125,545.1946125,545.1946125,,,,,,,,,,,,,,,,,,,,,,,,,,,,,,,,,,,,,,,,,,,,,,,312,2022-10-12_10h14.37.705,Main,2022.2.2,60.228918071760525,
neutral,positive,2,k,k,0,0,0,0,0,0,0,0,,,,,,,,,7,3,129,13,,,,,,,,,,,,,,,,,,,,,,,,,,,,,,,,,,,,,,,,main,1,1,2,positive,neutral,545.1946125,545.1946125,545.1946125,545.1946125,546.1861658,546.2175404,k,k,1,1.1400832000001628,547.3398786999999,547.3398786999999,547.3398786999999,547.3398786999999,547.3398786999999,547.3398786999999,,,,,,,,,,,,,,,,,,,,,,,,,,,,,,,,,,,,,,,,,,,,,,,312,2022-10-12_10h14.37.705,Main,2022.2.2,60.228918071760525,
neutral,positive,1,k,k,0,0,0,0,0,0,0,0,,,,,,,,,7,4,130,4,,,,,,,,,,,,,,,,,,,,,,,,,,,,,,,,,,,,,,,,main,1,1,1,positive,neutral,547.3398786999999,547.3398786999999,547.3398786999999,547.3398786999999,548.3288026999999,548.3605325999999,k,k,1,1.2064525999999205,549.5489336999999,549.5489336999999,549.5489336999999,549.5489336999999,549.5489336999999,549.5489336999999,,,,,,,,,,,,,,,,,,,,,,,,,,,,,,,,,,,,,,,,,,,,,,,312,2022-10-12_10h14.37.705,Main,2022.2.2,60.228918071760525,
negative,negative,2,j,l,0,0,0,0,0,0,0,0,,,,,,,,,7,5,131,9,,,,,,,,,,,,,,,,,,,,,,,,,,,,,,,,,,,,,,,,main,2,2,2,negative,negative,549.5489336999999,549.5489336999999,549.5489336999999,549.5489336999999,550.5319342999999,550.5635325999999,j,j,1,1.130817400000069,551.6854312999999,551.6854312999999,551.6854312999999,551.6854312999999,551.6854312999999,551.6854312999999,,,,,,,,,,,,,,,,,,,,,,,,,,,,,,,,,,,,,,,,,,,,,,,312,2022-10-12_10h14.37.705,Main,2022.2.2,60.228918071760525,
negative,neutral,2,j,l,0,0,0,0,0,0,0,0,,,,,,,,,7,6,132,12,,,,,,,,,,,,,,,,,,,,,,,,,,,,,,,,,,,,,,,,main,2,2,2,neutral,negative,551.6854312999999,551.6854312999999,551.6854312999999,551.6854312999999,552.6718475999999,552.702624,j,j,1,1.262711900000113,553.9516163999999,553.9516163999999,553.9516163999999,553.9516163999999,553.9516163999999,553.9516163999999,,,,,,,,,,,,,,,,,,,,,,,,,,,,,,,,,,,,,,,,,,,,,,,312,2022-10-12_10h14.37.705,Main,2022.2.2,60.228918071760525,
positive,positive,1,l,j,0,0,0,0,0,0,0,0,,,,,,,,,7,7,133,2,,,,,,,,,,,,,,,,,,,,,,,,,,,,,,,,,,,,,,,,main,1,1,1,positive,positive,553.9516163999999,553.9516163999999,553.9516163999999,553.9516163999999,554.9547215,554.9850566999999,l,l,1,0.9639090000000579,555.9171337999999,555.9171337999999,555.9171337999999,555.9171337999999,555.9171337999999,555.9171337999999,,,,,,,,,,,,,,,,,,,,,,,,,,,,,,,,,,,,,,,,,,,,,,,312,2022-10-12_10h14.37.705,Main,2022.2.2,60.228918071760525,
neutral,negative,1,k,k,0,0,0,0,0,0,0,0,,,,,,,,,7,8,134,7,,,,,,,,,,,,,,,,,,,,,,,,,,,,,,,,,,,,,,,,main,2,2,1,negative,neutral,555.9171337999999,555.9171337999999,555.9171337999999,555.9171337999999,556.8936755,556.9664349,k,k,1,0.9360580000000027,557.8552941999999,557.8552941999999,557.8552941999999,557.8552941999999,557.8552941999999,557.8552941999999,,,,,,,,,,,,,,,,,,,,,,,,,,,,,,,,,,,,,,,,,,,,,,,312,2022-10-12_10h14.37.705,Main,2022.2.2,60.228918071760525,
negative,neutral,1,j,l,0,0,0,0,0,0,0,0,,,,,,,,,7,9,135,3,0,0,0,0,,,,,,,,,,,,,,,,,,,,,,,,,,,,,,,,,,,,main,2,2,1,neutral,negative,557.8552941999999,557.8552941999999,557.8552941999999,557.8552941999999,558.8549739,558.8914573,j,j,1,1.3067117000000508,560.1446214,560.1446214,560.1446214,560.1446214,560.1446214,560.1446214,,,,,,,,,560.1446214,560.1446214,560.1446214,560.1446214,None,,,,,,,,,,,,,,,,,,,,,,,,,,,,,,,,,,312,2022-10-12_10h14.37.705,Main,2022.2.2,60.228918071760525,
negative,neutral,1,j,l,0,0,0,0,0,0,0,0,,,,,,,,,7,9,135,3,,,,,,,,,,,,,,,,,,,,,,,,,,,,,,,,,,,,,,,,,,,,,,,,,,,,,,,,,,,,,,,,,,,,,,,,,,,,,,,,,,,,,,,,,,,,,,,,,,,,,,,,,,,,312,2022-10-12_10h14.37.705,Main,2022.2.2,60.228918071760525,
positive,neutral,1,l,j,0,0,0,0,0,0,0,0,,,,,,,,,7,10,136,8,,,,,,,,,,,,,,,,,,,,,,,,,,,,,,,,,,,,,,,,main,1,1,1,neutral,positive,620.1825125,620.1825125,620.1825125,620.1825125,621.1774029999999,621.2082121999999,l,l,1,1.2789621000001716,622.463135,622.463135,622.463135,622.463135,622.463135,622.463135,,,,,,,,,,,,,,,,,,,,,,,,,,,,,,,,,,,,,,,,,,,,,,,312,2022-10-12_10h14.37.705,Main,2022.2.2,60.228918071760525,
positive,neutral,2,l,j,0,0,0,0,0,0,0,0,,,,,,,,,7,11,137,17,,,,,,,,,,,,,,,,,,,,,,,,,,,,,,,,,,,,,,,,main,2,2,2,neutral,positive,622.463135,622.463135,622.463135,622.463135,623.4482232,623.4829497000001,l,l,1,0.8370716000001721,624.301305,624.301305,624.301305,624.301305,624.301305,624.301305,,,,,,,,,,,,,,,,,,,,,,,,,,,,,,,,,,,,,,,,,,,,,,,312,2022-10-12_10h14.37.705,Main,2022.2.2,60.228918071760525,
negative,negative,1,j,l,0,0,0,0,0,0,0,0,,,,,,,,,7,12,138,0,,,,,,,,,,,,,,,,,,,,,,,,,,,,,,,,,,,,,,,,main,2,2,1,negative,negative,624.301305,624.301305,624.301305,624.301305,625.3028253999998,625.3382408,j,j,1,0.9610694000000422,626.2645028,626.2645028,626.2645028,626.2645028,626.2645028,626.2645028,,,,,,,,,,,,,,,,,,,,,,,,,,,,,,,,,,,,,,,,,,,,,,,312,2022-10-12_10h14.37.705,Main,2022.2.2,60.228918071760525,
positive,negative,1,l,j,0,0,0,0,0,0,0,0,,,,,,,,,7,13,139,5,,,,,,,,,,,,,,,,,,,,,,,,,,,,,,,,,,,,,,,,main,2,2,1,negative,positive,626.2645028,626.2645028,626.2645028,626.2645028,627.2552401,627.2924544,l,l,1,0.9336614999999711,628.2024712,628.2024712,628.2024712,628.2024712,628.2024712,628.2024712,,,,,,,,,,,,,,,,,,,,,,,,,,,,,,,,,,,,,,,,,,,,,,,312,2022-10-12_10h14.37.705,Main,2022.2.2,60.228918071760525,
positive,negative,2,l,j,0,0,0,0,0,0,0,0,,,,,,,,,7,14,140,14,,,,,,,,,,,,,,,,,,,,,,,,,,,,,,,,,,,,,,,,main,1,1,2,negative,positive,628.2024712,628.2024712,628.2024712,628.2024712,629.2065757999999,629.2436776,l,l,1,0.8675034999998843,630.0783610999999,630.0783610999999,630.0783610999999,630.0783610999999,630.0783610999999,630.0783610999999,,,,,,,,,,,,,,,,,,,,,,,,,,,,,,,,,,,,,,,,,,,,,,,312,2022-10-12_10h14.37.705,Main,2022.2.2,60.228918071760525,
positive,positive,2,l,j,0,0,0,0,0,0,0,0,,,,,,,,,7,15,141,11,,,,,,,,,,,,,,,,,,,,,,,,,,,,,,,,,,,,,,,,main,1,1,2,positive,positive,630.0783610999999,630.0783610999999,630.0783610999999,630.0783610999999,631.0713533,631.1009704,l,l,1,0.7466795000000275,631.8244229,631.8244229,631.8244229,631.8244229,631.8244229,631.8244229,,,,,,,,,,,,,,,,,,,,,,,,,,,,,,,,,,,,,,,,,,,,,,,312,2022-10-12_10h14.37.705,Main,2022.2.2,60.228918071760525,
neutral,neutral,1,k,k,0,0,0,0,0,0,0,0,,,,,,,,,7,16,142,1,,,,,,,,,,,,,,,,,,,,,,,,,,,,,,,,,,,,,,,,main,2,2,1,neutral,neutral,631.8244229,631.8244229,631.8244229,631.8244229,632.8101598000001,632.8453150999999,k,k,1,1.0256521999999677,633.8558446,633.8558446,633.8558446,633.8558446,633.8558446,633.8558446,,,,,,,,,,,,,,,,,,,,,,,,,,,,,,,,,,,,,,,,,,,,,,,312,2022-10-12_10h14.37.705,Main,2022.2.2,60.228918071760525,
negative,positive,1,j,l,0,0,0,0,0,0,0,0,,,,,,,,,7,17,143,6,,,,,,,,,,,,,,,,,,,,,,,,,,,,,,,,,,,,,,,,main,1,1,1,positive,negative,633.8558446,633.8558446,633.8558446,633.8558446,634.8346601000001,634.8972111999999,j,j,1,1.171792600000117,636.0269088,636.0269088,636.0269088,636.0269088,636.0269088,636.0269088,,,,,,,,,,,,,,,,,,,,,,,,,,,,,,,,,,,,,,,,,,,,,,,312,2022-10-12_10h14.37.705,Main,2022.2.2,60.228918071760525,
negative,neutral,1,j,l,0,0,0,0,0,0,0,0,,,,,,,,,8,0,144,3,,,,,,,,,,,,,,,,,,,,,,,,,,,,,,,,,,,,,,,,main,2,2,1,neutral,negative,636.0269088,636.0269088,636.0269088,636.0269088,637.0248752999998,637.0561189,j,j,1,0.855988699999898,637.8853663,637.8853663,637.8853663,637.8853663,637.8853663,637.8853663,,,,,,,,,,,,,,,,,,,,,,,,,,,,,,,,,,,,,,,,,,,,,,,312,2022-10-12_10h14.37.705,Main,2022.2.2,60.228918071760525,
negative,negative,2,j,l,0,0,0,0,0,0,0,0,,,,,,,,,8,1,145,9,,,,,,,,,,,,,,,,,,,,,,,,,,,,,,,,,,,,,,,,main,1,1,2,negative,negative,637.8853663,637.8853663,637.8853663,637.8853663,638.8604754,638.9266109,j,j,1,1.4532617999998365,640.3367945,640.3367945,640.3367945,640.3367945,640.3367945,640.3367945,,,,,,,,,,,,,,,,,,,,,,,,,,,,,,,,,,,,,,,,,,,,,,,312,2022-10-12_10h14.37.705,Main,2022.2.2,60.228918071760525,
neutral,positive,1,k,k,0,0,0,0,0,0,0,0,,,,,,,,,8,2,146,4,,,,,,,,,,,,,,,,,,,,,,,,,,,,,,,,,,,,,,,,main,1,1,1,positive,neutral,640.3367945,640.3367945,640.3367945,640.3367945,641.3246248,641.3610610000001,k,k,1,0.8895734000000175,642.2319775999999,642.2319775999999,642.2319775999999,642.2319775999999,642.2319775999999,642.2319775999999,,,,,,,,,,,,,,,,,,,,,,,,,,,,,,,,,,,,,,,,,,,,,,,312,2022-10-12_10h14.37.705,Main,2022.2.2,60.228918071760525,
positive,negative,1,l,j,0,0,0,0,0,0,0,0,,,,,,,,,8,3,147,5,,,,,,,,,,,,,,,,,,,,,,,,,,,,,,,,,,,,,,,,main,2,2,1,negative,positive,642.2319775999999,642.2319775999999,642.2319775999999,642.2319775999999,643.2125673999999,643.2719293999999,l,l,1,0.8605276999999205,644.0983873999999,644.0983873999999,644.0983873999999,644.0983873999999,644.0983873999999,644.0983873999999,,,,,,,,,,,,,,,,,,,,,,,,,,,,,,,,,,,,,,,,,,,,,,,312,2022-10-12_10h14.37.705,Main,2022.2.2,60.228918071760525,
neutral,negative,1,k,k,0,0,0,0,0,0,0,0,,,,,,,,,8,4,148,7,,,,,,,,,,,,,,,,,,,,,,,,,,,,,,,,,,,,,,,,main,2,2,1,negative,neutral,644.0983873999999,644.0983873999999,644.0983873999999,644.0983873999999,645.0817382999999,645.1132657999999,k,k,1,0.8998765000001185,645.999213,645.999213,645.999213,645.999213,645.999213,645.999213,,,,,,,,,,,,,,,,,,,,,,,,,,,,,,,,,,,,,,,,,,,,,,,312,2022-10-12_10h14.37.705,Main,2022.2.2,60.228918071760525,
positive,positive,2,l,j,0,0,0,0,0,0,0,0,,,,,,,,,8,5,149,11,,,,,,,,,,,,,,,,,,,,,,,,,,,,,,,,,,,,,,,,main,2,2,2,positive,positive,645.999213,645.999213,645.999213,645.999213,646.9884898,647.0177131999999,l,l,1,1.560602400000107,648.5358613999999,648.5358613999999,648.5358613999999,649.5699279999999,649.5699279999999,649.5699279999999,,,,,,,,,,,,,,,,,,,,,,,,,,,,,,,,,,,,,,,,,,,,,,,312,2022-10-12_10h14.37.705,Main,2022.2.2,60.228918071760525,
negative,neutral,2,j,l,0,0,0,0,0,0,0,0,,,,,,,,,8,6,150,12,,,,,,,,,,,,,,,,,,,,,,,,,,,,,,,,,,,,,,,,main,1,1,2,neutral,negative,649.5699279999999,649.5699279999999,649.5699279999999,649.5699279999999,650.5492073999999,650.6130017,j,j,1,1.485954799999945,652.0581620999999,652.0581620999999,652.0581620999999,652.0581620999999,652.0581620999999,652.0581620999999,,,,,,,,,,,,,,,,,,,,,,,,,,,,,,,,,,,,,,,,,,,,,,,312,2022-10-12_10h14.37.705,Main,2022.2.2,60.228918071760525,
positive,positive,1,l,j,0,0,0,0,0,0,0,0,,,,,,,,,8,7,151,2,,,,,,,,,,,,,,,,,,,,,,,,,,,,,,,,,,,,,,,,main,1,1,1,positive,positive,652.0581620999999,652.0581620999999,652.0581620999999,652.0581620999999,653.0518305999999,653.0833623999999,l,l,1,0.9399777000000995,654.0063768,654.0063768,654.0063768,654.0063768,654.0063768,654.0063768,,,,,,,,,,,,,,,,,,,,,,,,,,,,,,,,,,,,,,,,,,,,,,,312,2022-10-12_10h14.37.705,Main,2022.2.2,60.228918071760525,
neutral,neutral,2,k,k,0,0,0,0,0,0,0,0,,,,,,,,,8,8,152,10,,,,,,,,,,,,,,,,,,,,,,,,,,,,,,,,,,,,,,,,main,2,2,2,neutral,neutral,654.0063768,654.0063768,654.0063768,654.0063768,654.9981934,655.0296447000001,k,k,1,0.9231296000000384,655.9309920000001,655.9309920000001,655.9309920000001,655.9309920000001,655.9309920000001,655.9309920000001,,,,,,,,,,,,,,,,,,,,,,,,,,,,,,,,,,,,,,,,,,,,,,,312,2022-10-12_10h14.37.705,Main,2022.2.2,60.228918071760525,
positive,negative,2,l,j,0,0,0,0,0,0,0,0,,,,,,,,,8,9,153,14,,,,,,,,,,,,,,,,,,,,,,,,,,,,,,,,,,,,,,,,main,2,2,2,negative,positive,655.9309920000001,655.9309920000001,655.9309920000001,655.9309920000001,656.9248969,656.9559789,l,l,1,0.9703166999997848,657.9037120999999,657.9037120999999,657.9037120999999,657.9037120999999,657.9037120999999,657.9037120999999,,,,,,,,,,,,,,,,,,,,,,,,,,,,,,,,,,,,,,,,,,,,,,,312,2022-10-12_10h14.37.705,Main,2022.2.2,60.228918071760525,
neutral,neutral,1,k,k,0,0,0,0,0,0,0,0,,,,,,,,,8,10,154,1,,,,,,,,,,,,,,,,,,,,,,,,,,,,,,,,,,,,,,,,main,1,1,1,neutral,neutral,657.9037120999999,657.9037120999999,657.9037120999999,657.9037120999999,658.8944124,658.9260239,k,k,1,0.8160257999998066,659.7229327,659.7229327,659.7229327,659.7229327,659.7229327,659.7229327,,,,,,,,,,,,,,,,,,,,,,,,,,,,,,,,,,,,,,,,,,,,,,,312,2022-10-12_10h14.37.705,Main,2022.2.2,60.228918071760525,
positive,neutral,2,l,j,0,0,0,0,0,0,0,0,,,,,,,,,8,11,155,17,,,,,,,,,,,,,,,,,,,,,,,,,,,,,,,,,,,,,,,,main,2,2,2,neutral,positive,659.7229327,659.7229327,659.7229327,659.7229327,660.7052489999999,660.7658174000001,l,l,1,0.8947107000001324,661.6214256000001,661.6214256000001,661.6214256000001,661.6214256000001,661.6214256000001,661.6214256000001,,,,,,,,,,,,,,,,,,,,,,,,,,,,,,,,,,,,,,,,,,,,,,,312,2022-10-12_10h14.37.705,Main,2022.2.2,60.228918071760525,
neutral,negative,2,k,k,0,0,0,0,0,0,0,0,,,,,,,,,8,12,156,16,,,,,,,,,,,,,,,,,,,,,,,,,,,,,,,,,,,,,,,,main,1,1,2,negative,neutral,661.6214256000001,661.6214256000001,661.6214256000001,661.6214256000001,662.6017793999999,662.6708472,k,k,1,1.131985099999838,663.7598582,663.7598582,663.7598582,663.7598582,663.7598582,663.7598582,,,,,,,,,,,,,,,,,,,,,,,,,,,,,,,,,,,,,,,,,,,,,,,312,2022-10-12_10h14.37.705,Main,2022.2.2,60.228918071760525,
negative,positive,2,j,l,0,0,0,0,0,0,0,0,,,,,,,,,8,13,157,15,,,,,,,,,,,,,,,,,,,,,,,,,,,,,,,,,,,,,,,,main,1,1,2,positive,negative,663.7598582,663.7598582,663.7598582,663.7598582,664.7375864,664.7992457999999,j,j,1,1.167676799999981,665.9280291999999,665.9280291999999,665.9280291999999,665.9280291999999,665.9280291999999,665.9280291999999,,,,,,,,,,,,,,,,,,,,,,,,,,,,,,,,,,,,,,,,,,,,,,,312,2022-10-12_10h14.37.705,Main,2022.2.2,60.228918071760525,
neutral,positive,2,k,k,0,0,0,0,0,0,0,0,,,,,,,,,8,14,158,13,,,,,,,,,,,,,,,,,,,,,,,,,,,,,,,,,,,,,,,,main,2,2,2,positive,neutral,665.9280291999999,665.9280291999999,665.9280291999999,665.9280291999999,666.9014634999999,666.9629496,k,k,1,0.8795018000000709,667.8129759999999,667.8129759999999,667.8129759999999,667.8129759999999,667.8129759999999,667.8129759999999,,,,,,,,,,,,,,,,,,,,,,,,,,,,,,,,,,,,,,,,,,,,,,,312,2022-10-12_10h14.37.705,Main,2022.2.2,60.228918071760525,
positive,neutral,1,l,j,0,0,0,0,0,0,0,0,,,,,,,,,8,15,159,8,,,,,,,,,,,,,,,,,,,,,,,,,,,,,,,,,,,,,,,,main,2,2,1,neutral,positive,667.8129759999999,667.8129759999999,667.8129759999999,667.8129759999999,668.8226500000001,668.8545655,l,l,1,0.8638267999999698,669.6817974,669.6817974,669.6817974,669.6817974,669.6817974,669.6817974,,,,,,,,,,,,,,,,,,,,,,,,,,,,,,,,,,,,,,,,,,,,,,,312,2022-10-12_10h14.37.705,Main,2022.2.2,60.228918071760525,
negative,positive,1,j,l,0,0,0,0,0,0,0,0,,,,,,,,,8,16,160,6,,,,,,,,,,,,,,,,,,,,,,,,,,,,,,,,,,,,,,,,main,1,1,1,positive,negative,669.6817974,669.6817974,669.6817974,669.6817974,670.6656035999999,670.6959373,j,j,1,0.9767566999998962,671.6623001999999,671.6623001999999,671.6623001999999,671.6623001999999,671.6623001999999,671.6623001999999,,,,,,,,,,,,,,,,,,,,,,,,,,,,,,,,,,,,,,,,,,,,,,,312,2022-10-12_10h14.37.705,Main,2022.2.2,60.228918071760525,
negative,negative,1,j,l,0,0,0,0,0,0,0,0,,,,,,,,,8,17,161,0,,,,,,,,,,,,,,,,,,,,,,,,,,,,,,,,,,,,,,,,main,2,2,1,negative,negative,671.6623001999999,671.6623001999999,671.6623001999999,671.6623001999999,672.6461245,672.674964,j,j,1,0.8899710999999115,673.5590382999999,673.5590382999999,673.5590382999999,673.5590382999999,673.5590382999999,673.5590382999999,,,,,,,,,,,,,,,,,,,,,,,,,,,,,,,,,,,,,,,,,,,,,,,312,2022-10-12_10h14.37.705,Main,2022.2.2,60.228918071760525,
neutral,neutral,2,k,k,0,0,0,0,0,0,0,0,,,,,,,,,9,0,162,10,,,,,,,,,,,,,,,,,,,,,,,,,,,,,,,,,,,,,,,,main,1,1,2,neutral,neutral,673.5590382999999,673.5590382999999,673.5590382999999,673.5590382999999,674.5327525,674.5948675,k,k,1,0.8291847000000416,675.3903579,675.3903579,675.3903579,675.3903579,675.3903579,675.3903579,,,,,,,,,,,,,,,,,,,,,,,,,,,,,,,,,,,,,,,,,,,,,,,312,2022-10-12_10h14.37.705,Main,2022.2.2,60.228918071760525,
positive,negative,2,l,j,0,0,0,0,0,0,0,0,,,,,,,,,9,1,163,14,,,,,,,,,,,,,,,,,,,,,,,,,,,,,,,,,,,,,,,,main,2,2,2,negative,positive,675.3903579,675.3903579,675.3903579,675.3903579,676.3864108,676.4152200999999,l,l,1,0.8886404999998376,677.2878349,677.2878349,677.2878349,677.2878349,677.2878349,677.2878349,,,,,,,,,,,,,,,,,,,,,,,,,,,,,,,,,,,,,,,,,,,,,,,312,2022-10-12_10h14.37.705,Main,2022.2.2,60.228918071760525,
neutral,positive,1,k,k,0,0,0,0,0,0,0,0,,,,,,,,,9,2,164,4,,,,,,,,,,,,,,,,,,,,,,,,,,,,,,,,,,,,,,,,main,2,2,1,positive,neutral,677.2878349,677.2878349,677.2878349,677.2878349,678.2755559,678.3067613999999,k,k,1,1.135865099999819,679.4221413999999,679.4221413999999,679.4221413999999,679.4221413999999,679.4221413999999,679.4221413999999,,,,,,,,,,,,,,,,,,,,,,,,,,,,,,,,,,,,,,,,,,,,,,,312,2022-10-12_10h14.37.705,Main,2022.2.2,60.228918071760525,
neutral,neutral,1,k,k,0,0,0,0,0,0,0,0,,,,,,,,,9,3,165,1,,,,,,,,,,,,,,,,,,,,,,,,,,,,,,,,,,,,,,,,main,1,1,1,neutral,neutral,679.4221413999999,679.4221413999999,679.4221413999999,679.4221413999999,680.4149883999999,680.4505626,k,k,1,0.8205346999998255,681.2467892,681.2467892,681.2467892,681.2467892,681.2467892,681.2467892,,,,,,,,,,,,,,,,,,,,,,,,,,,,,,,,,,,,,,,,,,,,,,,312,2022-10-12_10h14.37.705,Main,2022.2.2,60.228918071760525,
neutral,positive,2,k,k,0,0,0,0,0,0,0,0,,,,,,,,,9,4,166,13,,,,,,,,,,,,,,,,,,,,,,,,,,,,,,,,,,,,,,,,main,2,2,2,positive,neutral,681.2467892,681.2467892,681.2467892,681.2467892,682.2356545,682.2657033,k,k,1,1.0766188000000056,683.3281574999999,683.3281574999999,683.3281574999999,683.3281574999999,683.3281574999999,683.3281574999999,,,,,,,,,,,,,,,,,,,,,,,,,,,,,,,,,,,,,,,,,,,,,,,312,2022-10-12_10h14.37.705,Main,2022.2.2,60.228918071760525,
negative,neutral,1,j,l,0,0,0,0,0,0,0,0,,,,,,,,,9,5,167,3,,,,,,,,,,,,,,,,,,,,,,,,,,,,,,,,,,,,,,,,main,2,2,1,neutral,negative,683.3281574999999,683.3281574999999,683.3281574999999,683.3281574999999,684.3183293,684.3481076999999,j,j,1,1.119141799999852,685.447324,685.447324,685.447324,685.447324,685.447324,685.447324,,,,,,,,,,,,,,,,,,,,,,,,,,,,,,,,,,,,,,,,,,,,,,,312,2022-10-12_10h14.37.705,Main,2022.2.2,60.228918071760525,
negative,positive,2,j,l,0,0,0,0,0,0,0,0,,,,,,,,,9,6,168,15,,,,,,,,,,,,,,,,,,,,,,,,,,,,,,,,,,,,,,,,main,2,2,2,positive,negative,685.447324,685.447324,685.447324,685.447324,686.4299403999999,686.4601763000001,j,j,1,0.8850010000001021,687.3303888999999,687.3303888999999,687.3303888999999,687.3303888999999,687.3303888999999,687.3303888999999,,,,,,,,,,,,,,,,,,,,,,,,,,,,,,,,,,,,,,,,,,,,,,,312,2022-10-12_10h14.37.705,Main,2022.2.2,60.228918071760525,
negative,negative,2,j,l,0,0,0,0,0,0,0,0,,,,,,,,,9,7,169,9,,,,,,,,,,,,,,,,,,,,,,,,,,,,,,,,,,,,,,,,main,2,2,2,negative,negative,687.3303888999999,687.3303888999999,687.3303888999999,687.3303888999999,688.3182506999999,688.3472425,j,j,1,0.8293370000001232,689.1657608999999,689.1657608999999,689.1657608999999,689.1657608999999,689.1657608999999,689.1657608999999,,,,,,,,,,,,,,,,,,,,,,,,,,,,,,,,,,,,,,,,,,,,,,,312,2022-10-12_10h14.37.705,Main,2022.2.2,60.228918071760525,
positive,negative,1,l,j,0,0,0,0,0,0,0,0,,,,,,,,,9,8,170,5,,,,,,,,,,,,,,,,,,,,,,,,,,,,,,,,,,,,,,,,main,2,2,1,negative,positive,689.1657608999999,689.1657608999999,689.1657608999999,689.1657608999999,690.1580838,690.1933088000001,l,l,1,1.3144690000001447,691.488857,691.488857,691.488857,691.488857,691.488857,691.488857,,,,,,,,,,,,,,,,,,,,,,,,,,,,,,,,,,,,,,,,,,,,,,,312,2022-10-12_10h14.37.705,Main,2022.2.2,60.228918071760525,
negative,positive,1,j,l,0,0,0,0,0,0,0,0,,,,,,,,,9,9,171,6,,,,,,,,,,,,,,,,,,,,,,,,,,,,,,,,,,,,,,,,main,1,1,1,positive,negative,691.488857,691.488857,691.488857,691.488857,692.484172,692.5143507,j,j,1,1.0281117000001814,693.5166145999999,693.5166145999999,693.5166145999999,693.5166145999999,693.5166145999999,693.5166145999999,,,,,,,,,,,,,,,,,,,,,,,,,,,,,,,,,,,,,,,,,,,,,,,312,2022-10-12_10h14.37.705,Main,2022.2.2,60.228918071760525,
neutral,negative,2,k,k,0,0,0,0,0,0,0,0,,,,,,,,,9,10,172,16,,,,,,,,,,,,,,,,,,,,,,,,,,,,,,,,,,,,,,,,main,1,1,2,negative,neutral,693.5166145999999,693.5166145999999,693.5166145999999,693.5166145999999,694.5347807999999,694.5347807999999,k,k,1,1.1484631000000718,695.6678649,695.6678649,695.6678649,695.6678649,695.6678649,695.6678649,,,,,,,,,,,,,,,,,,,,,,,,,,,,,,,,,,,,,,,,,,,,,,,312,2022-10-12_10h14.37.705,Main,2022.2.2,60.228918071760525,
positive,positive,2,l,j,0,0,0,0,0,0,0,0,,,,,,,,,9,11,173,11,,,,,,,,,,,,,,,,,,,,,,,,,,,,,,,,,,,,,,,,main,1,1,2,positive,positive,695.6678649,695.6678649,695.6678649,695.6678649,696.6546496999999,696.6852297999999,l,l,1,0.9385283999999956,697.6090618000001,697.6090618000001,697.6090618000001,697.6090618000001,697.6090618000001,697.6090618000001,,,,,,,,,,,,,,,,,,,,,,,,,,,,,,,,,,,,,,,,,,,,,,,312,2022-10-12_10h14.37.705,Main,2022.2.2,60.228918071760525,
negative,neutral,2,j,l,0,0,0,0,0,0,0,0,,,,,,,,,9,12,174,12,,,,,,,,,,,,,,,,,,,,,,,,,,,,,,,,,,,,,,,,main,2,2,2,neutral,negative,697.6090618000001,697.6090618000001,697.6090618000001,697.6090618000001,698.6042961999999,698.6396141999999,j,j,1,1.3297867000001133,699.9429359000001,699.9429359000001,699.9429359000001,699.9429359000001,699.9429359000001,699.9429359000001,,,,,,,,,,,,,,,,,,,,,,,,,,,,,,,,,,,,,,,,,,,,,,,312,2022-10-12_10h14.37.705,Main,2022.2.2,60.228918071760525,
negative,negative,1,j,l,0,0,0,0,0,0,0,0,,,,,,,,,9,13,175,0,,,,,,,,,,,,,,,,,,,,,,,,,,,,,,,,,,,,,,,,main,2,2,1,negative,negative,699.9429359000001,699.9429359000001,699.9429359000001,699.9429359000001,700.9354911,700.9691315999999,j,j,1,0.8594840999999178,701.8024479999999,701.8024479999999,701.8024479999999,701.8024479999999,701.8024479999999,701.8024479999999,,,,,,,,,,,,,,,,,,,,,,,,,,,,,,,,,,,,,,,,,,,,,,,312,2022-10-12_10h14.37.705,Main,2022.2.2,60.228918071760525,
