distractor,target,set,ans1,ans2,total_experiment.thisRepN,total_experiment.thisTrialN,total_experiment.thisN,total_experiment.thisIndex,boat.thisRepN,boat.thisTrialN,boat.thisN,boat.thisIndex,para.thisRepN,para.thisTrialN,para.thisN,para.thisIndex,para_rep_loop.thisRepN,para_rep_loop.thisTrialN,para_rep_loop.thisN,para_rep_loop.thisIndex,para_prac_loop.thisRepN,para_prac_loop.thisTrialN,para_prac_loop.thisN,para_prac_loop.thisIndex,para_main_loop.thisRepN,para_main_loop.thisTrialN,para_main_loop.thisN,para_main_loop.thisIndex,para_rest.thisRepN,para_rest.thisTrialN,para_rest.thisN,para_rest.thisIndex,fl_rep_loop2.thisRepN,fl_rep_loop2.thisTrialN,fl_rep_loop2.thisN,fl_rep_loop2.thisIndex,flanker_prac_loop.thisRepN,flanker_prac_loop.thisTrialN,flanker_prac_loop.thisN,flanker_prac_loop.thisIndex,flanker_main_loop.thisRepN,flanker_main_loop.thisTrialN,flanker_main_loop.thisN,flanker_main_loop.thisIndex,flanker_rest.thisRepN,flanker_rest.thisTrialN,flanker_rest.thisN,flanker_rest.thisIndex,para_starter.started,para_starter_key.started,para_starter_key.keys,para_starter_key.rt,para_inst_sound.started,para_inst_key.keys,para_inst_key.rt,para_inst_image.started,para_prac_back.started,para_prac_text.started,para_fix_back.started,para_fix_2.started,main_prac,para_back.started,st_ans,st_res,st_corr,st_rt,st2_resp.keys,st2_resp.corr,para_main_back.started,para_main_text.started,para_mouse.started,para_mouse.x,para_mouse.y,para_mouse.leftButton,para_mouse.midButton,para_mouse.rightButton,rest_text.started,rest_key.started,rest_inst_text.started,rest_time.started,rest_key.keys,exp_end_key.started,exp_end_back.started,exp_end_text.started,exp_end_key.keys,fl_starter_back.started,fl_starter.started,fl_starter_text.started,fl_starter.keys,fl_starter.rt,fl_inst_resp.keys,fl_inst_resp.rt,fl_back.started,fl_mouse_prac.started,fl_mouse_prac.x,fl_mouse_prac.y,fl_mouse_prac.leftButton,fl_mouse_prac.midButton,fl_mouse_prac.rightButton,back_2.started,fl_cold,fl_colt,fl_set,fl_dcond,fl_tcond,fl_fix.started,j_button.started,k_button.started,l_button.started,targ.started,fl_fix.stopped,fl_ans,fl_res,fl_corr,fl_rt,j_button2.started,k_button2.started,l_button2.started,j_button2.stopped,k_button2.stopped,l_button2.stopped,fl_mainback.started,fl_mouse_m.started,fl_key_resp.keys,fl_mouse_m.x,fl_mouse_m.y,fl_mouse_m.leftButton,fl_mouse_m.midButton,fl_mouse_m.rightButton,exp_end_key.rt,total_end_text.started,id*,date,expName,psychopyVersion,frameRate,
,,,,,0,0,0,0,,,,,0,0,0,0,0,0,0,0,,,,,,,,,,,,,,,,,,,,,,,,,,,,,55.782781099999966,55.782781099999966,space,4.270079100000203,61.09176922999993,space,63.643422999999984,124.81201510000005,,,,,,,,,,,,,,,,,,,,,,,,,,,,,,,,,,,,,,,,,,,,,,,,,,,,,,,,,,,,,,,,,,,,,,,,,,,,313,2022-10-20_11h07.39.226,Main,2022.2.2,60.114036326863335,
positive,blue,1,k,None,0,0,0,0,,,,,0,0,0,0,,,,,0,0,0,15,,,,,,,,,,,,,,,,,,,,,,,,,,,,,,,,,126.08035799999993,126.08035799999993,128.05878110000003,128.05878110000003,prac,130.2808723999999,None,None,1,1.5054033999999774,None,1,,,,,,,,,,,,,,,,,,,,,,,,,,,,,,,,,,,,,,,,,,,,,,,,,,,,,,,,,,,,,,,,313,2022-10-20_11h07.39.226,Main,2022.2.2,60.114036326863335,
positive,yellow,1,None,k,0,0,0,0,,,,,0,0,0,0,,,,,0,1,1,3,,,,,,,,,,,,,,,,,,,,,,,,,,,,,,,,,,,,,prac,132.76958390000004,k,k,1,9.009251200000108,None,0,,,,,,,,,,,,,,,,,,,,,,,,,,,,,,,,,,,,,,,,,,,,,,,,,,,,,,,,,,,,,,,,313,2022-10-20_11h07.39.226,Main,2022.2.2,60.114036326863335,
negative,yellow,1,k,None,0,0,0,0,,,,,0,0,0,0,,,,,0,2,2,0,,,,,,,,,,,,,,,,,,,,,,,,,,,,,,,,,,,,,prac,143.85946790000003,None,None,1,1.514054299999998,None,1,,,,,,,,,,,,,,,,,,,,,,,,,,,,,,,,,,,,,,,,,,,,,,,,,,,,,,,,,,,,,,,,313,2022-10-20_11h07.39.226,Main,2022.2.2,60.114036326863335,
negative,red,1,None,None,0,0,0,0,,,,,0,0,0,0,,,,,0,3,3,7,,,,,,,,,,,,,,,,,,,,,,,,,,,,,,,,,,,,,prac,146.37874940000006,None,None,1,1.5332018999999946,None,1,,,,,,,,,,,,,,,,,,,,,,,,,,,,,,,,,,,,,,,,,,,,,,,,,,,,,,,,,,,,,,,,313,2022-10-20_11h07.39.226,Main,2022.2.2,60.114036326863335,
positive,blue,1,k,None,0,0,0,0,,,,,0,0,0,0,,,,,0,4,4,18,,,,,,,,,,,,,,,,,,,,,,,,,,,,,,,,,,,,,prac,148.90869410000005,None,None,1,1.523153000000093,None,1,,,,,,,,,,,,,,,,,,,,,,,,,,,,,,,,,,,,,,,,,,,,,,,,,,,,,,,,,,,,,,,,313,2022-10-20_11h07.39.226,Main,2022.2.2,60.114036326863335,
negative,blue,1,None,k,0,0,0,0,,,,,0,0,0,0,,,,,0,5,5,5,,,,,,,,,,,,,,,,,,,,,,,,,,,,,,,,,,,,,prac,151.4291736,k,k,1,0.8646870000000035,None,0,,,,,,,,,,,,,,,,,,,,,,,,,,,,,,,,,,,,,,,,,,,,,,,,,,,,,,,,,,,,,,,,313,2022-10-20_11h07.39.226,Main,2022.2.2,60.114036326863335,
positive,red,1,None,None,0,0,0,0,,,,,0,0,0,0,,,,,0,6,6,13,,,,,,,,,,,,,,,,,,,,,,,,,,,,,,,,,,,,,prac,153.2969974,None,None,1,1.51755530000014,None,1,,,,,,,,,,,,,,,,,,,,,,,,,,,,,,,,,,,,,,,,,,,,,,,,,,,,,,,,,,,,,,,,313,2022-10-20_11h07.39.226,Main,2022.2.2,60.114036326863335,
negative,yellow,2,k,None,0,0,0,0,,,,,0,0,0,0,,,,,0,7,7,6,,,,,,,,,,,,,,,,,,,,,,,,,,,,,,,,,,,,,prac,155.8195558,None,None,1,1.5137448999998924,None,1,,,,,,,,,,,,,,,,,,,,,,,,,,,,,,,,,,,,,,,,,,,,,,,,,,,,,,,,,,,,,,,,313,2022-10-20_11h07.39.226,Main,2022.2.2,60.114036326863335,
positive,red,2,None,None,0,0,0,0,,,,,0,0,0,0,,,,,0,8,8,1,,,,,,,,,,,,,,,,,,,,,,,,,,,,,,,,,,,,,prac,158.33772550000003,None,None,1,1.5202704999999241,None,1,,,,,,,,,,,,,,,,,,,,,,,,,,,,,,,,,,,,,,,,,,,,,,,,,,,,,,,,,,,,,,,,313,2022-10-20_11h07.39.226,Main,2022.2.2,60.114036326863335,
positive,yellow,1,None,k,0,0,0,0,,,,,0,0,0,0,,,,,0,9,9,19,,,,,,,,,,,,,,,,,,,,,,,,,,,,,,,,,,,,,prac,160.85885129999997,k,k,1,10.98022549999996,None,0,,,,,,,,,,,,,,,,,,,,,,,,,,,,,,,,,,,,,,,,,,,,,,,,,,,,,,,,,,,,,,,,313,2022-10-20_11h07.39.226,Main,2022.2.2,60.114036326863335,
positive,yellow,2,None,k,0,0,0,0,,,,,0,0,0,0,,,,,0,10,10,8,,,,,,,,,,,,,,,,,,,,,,,,,,,,,,,,,,,,,prac,173.8782816999999,k,k,1,4.695923799999946,None,0,,,,,,,,,,,,,,,,,,,,,,,,,,,,,,,,,,,,,,,,,,,,,,,,,,,,,,,,,,,,,,,,313,2022-10-20_11h07.39.226,Main,2022.2.2,60.114036326863335,
negative,blue,2,None,k,0,0,0,0,,,,,0,0,0,0,,,,,0,11,11,4,,,,,,,,,,,,,,,,,,,,,,,,,,,,,,,,,,,,,prac,180.5908356,k,k,1,1.061533099999906,None,0,,,,,,,,,,,,,,,,,,,,,,,,,,,,,,,,,,,,,,,,,,,,,,,,,,,,,,,,,,,,,,,,313,2022-10-20_11h07.39.226,Main,2022.2.2,60.114036326863335,
negative,yellow,2,k,None,0,0,0,0,,,,,0,0,0,0,,,,,0,12,12,11,,,,,,,,,,,,,,,,,,,,,,,,,,,,,,,,,,,,,prac,182.6597471,None,None,1,1.5150840000001153,None,1,,,,,,,,,,,,,,,,,,,,,,,,,,,,,,,,,,,,,,,,,,,,,,,,,,,,,,,,,,,,,,,,313,2022-10-20_11h07.39.226,Main,2022.2.2,60.114036326863335,
negative,yellow,1,k,None,0,0,0,0,,,,,0,0,0,0,,,,,0,13,13,9,,,,,,,,,,,,,,,,,,,,,,,,,,,,,,,,,,,,,prac,185.17107669999996,None,None,1,1.5179674000000887,None,1,,,,,,,,,,,,,,,,,,,,,,,,,,,,,,,,,,,,,,,,,,,,,,,,,,,,,,,,,,,,,,,,313,2022-10-20_11h07.39.226,Main,2022.2.2,60.114036326863335,
negative,blue,2,None,k,0,0,0,0,,,,,0,0,0,0,,,,,0,14,14,2,,,,,,,,,,,,,,,,,,,,,,,,,,,,,,,,,,,,,prac,187.69150309999986,k,k,1,1.207451600000013,None,0,,,,,,,,,,,,,,,,,,,,,,,,,,,,,,,,,,,,,,,,,,,,,,,,,,,,,,,,,,,,,,,,313,2022-10-20_11h07.39.226,Main,2022.2.2,60.114036326863335,
positive,blue,2,k,None,0,0,0,0,,,,,0,0,0,0,,,,,0,15,15,14,,,,,,,,,,,,,,,,,,,,,,,,,,,,,,,,,,,,,prac,189.90473929999985,None,None,1,1.5119979999999487,None,1,,,,,,,,,,,,,,,,,,,,,,,,,,,,,,,,,,,,,,,,,,,,,,,,,,,,,,,,,,,,,,,,313,2022-10-20_11h07.39.226,Main,2022.2.2,60.114036326863335,
negative,blue,1,None,k,0,0,0,0,,,,,0,0,0,0,,,,,0,16,16,16,,,,,,,,,,,,,,,,,,,,,,,,,,,,,,,,,,,,,prac,192.41512039999998,k,k,1,1.3339206000000559,None,0,,,,,,,,,,,,,,,,,,,,,,,,,,,,,,,,,,,,,,,,,,,,,,,,,,,,,,,,,,,,,,,,313,2022-10-20_11h07.39.226,Main,2022.2.2,60.114036326863335,
negative,red,2,None,None,0,0,0,0,,,,,0,0,0,0,,,,,0,17,17,12,,,,,,,,,,,,,,,,,,,,,,,,,,,,,,,,,,,,,prac,194.74873709999997,None,None,1,1.5219792000000325,None,1,,,,,,,,,,,,,,,,,,,,,,,,,,,,,,,,,,,,,,,,,,,,,,,,,,,,,,,,,,,,,,,,313,2022-10-20_11h07.39.226,Main,2022.2.2,60.114036326863335,
positive,blue,2,k,None,0,0,0,0,,,,,0,0,0,0,,,,,0,18,18,17,,,,,,,,,,,,,,,,,,,,,,,,,,,,,,,,,,,,,prac,197.2724278999999,None,None,1,1.5168204999999944,None,1,,,,,,,,,,,,,,,,,,,,,,,,,,,,,,,,,,,,,,,,,,,,,,,,,,,,,,,,,,,,,,,,313,2022-10-20_11h07.39.226,Main,2022.2.2,60.114036326863335,
positive,yellow,2,None,k,0,0,0,0,,,,,0,0,0,0,,,,,0,19,19,10,,,,,,,,,,,,,,,,,,,,,,,,,,,,,,,,,,,,,prac,199.79231570000002,k,k,1,1.1510461000000305,None,0,,,,,,,,,,,,,,,,,,,,,,,,,,,,,,,,,,,,,,,,,,,,,,,,,,,,,,,,,,,,,,,,313,2022-10-20_11h07.39.226,Main,2022.2.2,60.114036326863335,
negative,yellow,2,k,None,0,0,0,0,,,,,0,0,0,0,,,,,1,0,20,6,,,,,,,,,,,,,,,,,,,,,,,,,,,,,,,,,,,,,prac,201.94375719999994,None,None,1,1.5319695000000593,None,1,,,,,,,,,,,,,,,,,,,,,,,,,,,,,,,,,,,,,,,,,,,,,,,,,,,,,,,,,,,,,,,,313,2022-10-20_11h07.39.226,Main,2022.2.2,60.114036326863335,
negative,blue,2,None,k,0,0,0,0,,,,,0,0,0,0,,,,,1,1,21,2,,,,,,,,,,,,,,,,,,,,,,,,,,,,,,,,,,,,,prac,204.47719729999994,k,k,1,0.847242499999993,None,0,,,,,,,,,,,,,,,,,,,,,,,,,,,,,,,,,,,,,,,,,,,,,,,,,,,,,,,,,,,,,,,,313,2022-10-20_11h07.39.226,Main,2022.2.2,60.114036326863335,
positive,blue,1,k,None,0,0,0,0,,,,,0,0,0,0,,,,,1,2,22,18,,,,,,,,,,,,,,,,,,,,,,,,,,,,,,,,,,,,,prac,206.32825019999996,None,None,1,1.5313963999999487,None,1,,,,,,,,,,,,,,,,,,,,,,,,,,,,,,,,,,,,,,,,,,,,,,,,,,,,,,,,,,,,,,,,313,2022-10-20_11h07.39.226,Main,2022.2.2,60.114036326863335,
negative,red,2,None,None,0,0,0,0,,,,,0,0,0,0,,,,,1,3,23,12,,,,,,,,,,,,,,,,,,,,,,,,,,,,,,,,,,,,,prac,208.86721480000006,None,None,1,1.5206044999999904,None,1,,,,,,,,,,,,,,,,,,,,,,,,,,,,,,,,,,,,,,,,,,,,,,,,,,,,,,,,,,,,,,,,313,2022-10-20_11h07.39.226,Main,2022.2.2,60.114036326863335,
positive,red,2,None,None,0,0,0,0,,,,,0,0,0,0,,,,,1,4,24,1,,,,,,,,,,,,,,,,,,,,,,,,,,,,,,,,,,,,,prac,211.3889039999999,None,None,1,1.5082580999999209,None,1,,,,,,,,,,,,,,,,,,,,,,,,,,,,,,,,,,,,,,,,,,,,,,,,,,,,,,,,,,,,,,,,313,2022-10-20_11h07.39.226,Main,2022.2.2,60.114036326863335,
positive,blue,2,k,None,0,0,0,0,,,,,0,0,0,0,,,,,1,5,25,17,,,,,,,,,,,,,,,,,,,,,,,,,,,,,,,,,,,,,prac,213.90096670000003,None,None,1,1.5062785000000076,None,1,,,,,,,,,,,,,,,,,,,,,,,,,,,,,,,,,,,,,,,,,,,,,,,,,,,,,,,,,,,,,,,,313,2022-10-20_11h07.39.226,Main,2022.2.2,60.114036326863335,
negative,blue,1,None,k,0,0,0,0,,,,,0,0,0,0,,,,,1,6,26,16,,,,,,,,,,,,,,,,,,,,,,,,,,,,,,,,,,,,,prac,216.41237269999988,k,k,1,1.1751186999999845,None,0,,,,,,,,,,,,,,,,,,,,,,,,,,,,,,,,,,,,,,,,,,,,,,,,,,,,,,,,,,,,,,,,313,2022-10-20_11h07.39.226,Main,2022.2.2,60.114036326863335,
positive,yellow,1,None,k,0,0,0,0,,,,,0,0,0,0,,,,,1,7,27,3,,,,,,,,,,,,,,,,,,,,,,,,,,,,,,,,,,,,,prac,218.58956869999997,k,k,1,1.485292900000104,None,0,,,,,,,,,,,,,,,,,,,,,,,,,,,,,,,,,,,,,,,,,,,,,,,,,,,,,,,,,,,,,,,,313,2022-10-20_11h07.39.226,Main,2022.2.2,60.114036326863335,
negative,yellow,1,k,None,0,0,0,0,,,,,0,0,0,0,,,,,1,8,28,0,,,,,,,,,,,,,,,,,,,,,,,,,,,,,,,,,,,,,prac,221.08163760000002,None,None,1,1.5393655000000308,None,1,,,,,,,,,,,,,,,,,,,,,,,,,,,,,,,,,,,,,,,,,,,,,,,,,,,,,,,,,,,,,,,,313,2022-10-20_11h07.39.226,Main,2022.2.2,60.114036326863335,
positive,red,1,None,None,0,0,0,0,,,,,0,0,0,0,,,,,1,9,29,13,,,,,,,,,,,,,,,,,,,,,,,,,,,,,,,,,,,,,prac,223.62481649999995,None,None,1,1.518864300000132,None,1,,,,,,,,,,,,,,,,,,,,,,,,,,,,,,,,,,,,,,,,,,,,,,,,,,,,,,,,,,,,,,,,313,2022-10-20_11h07.39.226,Main,2022.2.2,60.114036326863335,
negative,yellow,2,k,None,0,0,0,0,,,,,0,0,0,0,,,,,1,10,30,11,,,,,,,,,,,,,,,,,,,,,,,,,,,,,,,,,,,,,prac,226.14166299999988,None,None,1,1.5246109999998225,None,1,,,,,,,,,,,,,,,,,,,,,,,,,,,,,,,,,,,,,,,,,,,,,,,,,,,,,,,,,,,,,,,,313,2022-10-20_11h07.39.226,Main,2022.2.2,60.114036326863335,
negative,red,1,None,None,0,0,0,0,,,,,0,0,0,0,,,,,1,11,31,7,,,,,,,,,,,,,,,,,,,,,,,,,,,,,,,,,,,,,prac,228.66997459999993,None,None,1,1.528443599999946,None,1,,,,,,,,,,,,,,,,,,,,,,,,,,,,,,,,,,,,,,,,,,,,,,,,,,,,,,,,,,,,,,,,313,2022-10-20_11h07.39.226,Main,2022.2.2,60.114036326863335,
positive,yellow,2,None,k,0,0,0,0,,,,,0,0,0,0,,,,,1,12,32,10,,,,,,,,,,,,,,,,,,,,,,,,,,,,,,,,,,,,,prac,231.20097420000002,k,k,1,2.2222360999999182,None,0,,,,,,,,,,,,,,,,,,,,,,,,,,,,,,,,,,,,,,,,,,,,,,,,,,,,,,,,,,,,,,,,313,2022-10-20_11h07.39.226,Main,2022.2.2,60.114036326863335,
positive,yellow,1,None,k,0,0,0,0,,,,,0,0,0,0,,,,,1,13,33,19,,,,,,,,,,,,,,,,,,,,,,,,,,,,,,,,,,,,,prac,235.45152719999987,k,k,1,1.324463299999934,None,0,,,,,,,,,,,,,,,,,,,,,,,,,,,,,,,,,,,,,,,,,,,,,,,,,,,,,,,,,,,,,,,,313,2022-10-20_11h07.39.226,Main,2022.2.2,60.114036326863335,
positive,blue,2,k,None,0,0,0,0,,,,,0,0,0,0,,,,,1,14,34,14,,,,,,,,,,,,,,,,,,,,,,,,,,,,,,,,,,,,,prac,237.78246330000002,None,None,1,1.5074405000000297,None,1,,,,,,,,,,,,,,,,,,,,,,,,,,,,,,,,,,,,,,,,,,,,,,,,,,,,,,,,,,,,,,,,313,2022-10-20_11h07.39.226,Main,2022.2.2,60.114036326863335,
negative,blue,2,None,k,0,0,0,0,,,,,0,0,0,0,,,,,1,15,35,4,,,,,,,,,,,,,,,,,,,,,,,,,,,,,,,,,,,,,prac,240.29057309999985,k,k,1,0.8828816000000188,None,0,,,,,,,,,,,,,,,,,,,,,,,,,,,,,,,,,,,,,,,,,,,,,,,,,,,,,,,,,,,,,,,,313,2022-10-20_11h07.39.226,Main,2022.2.2,60.114036326863335,
positive,yellow,2,None,k,0,0,0,0,,,,,0,0,0,0,,,,,1,16,36,8,,,,,,,,,,,,,,,,,,,,,,,,,,,,,,,,,,,,,prac,242.1771996,k,k,1,1.0406419000000824,None,0,,,,,,,,,,,,,,,,,,,,,,,,,,,,,,,,,,,,,,,,,,,,,,,,,,,,,,,,,,,,,,,,313,2022-10-20_11h07.39.226,Main,2022.2.2,60.114036326863335,
positive,blue,1,k,None,0,0,0,0,,,,,0,0,0,0,,,,,1,17,37,15,,,,,,,,,,,,,,,,,,,,,,,,,,,,,,,,,,,,,prac,244.22511859999986,None,None,1,1.5226552000001448,None,1,,,,,,,,,,,,,,,,,,,,,,,,,,,,,,,,,,,,,,,,,,,,,,,,,,,,,,,,,,,,,,,,313,2022-10-20_11h07.39.226,Main,2022.2.2,60.114036326863335,
negative,yellow,1,k,None,0,0,0,0,,,,,0,0,0,0,,,,,1,18,38,9,,,,,,,,,,,,,,,,,,,,,,,,,,,,,,,,,,,,,prac,246.74694799999997,None,None,1,1.5118519000000106,None,1,,,,,,,,,,,,,,,,,,,,,,,,,,,,,,,,,,,,,,,,,,,,,,,,,,,,,,,,,,,,,,,,313,2022-10-20_11h07.39.226,Main,2022.2.2,60.114036326863335,
negative,blue,1,None,k,0,0,0,0,,,,,0,0,0,0,,,,,1,19,39,5,,,,,,,,,,,,,,,,,,,,,,,,,,,,,,,,,,,,,prac,249.25735250000002,k,k,1,0.896814600000198,None,0,,,,,,,,,,,,,,,,,,,,,,,,,,,,,,,,,,,,,,,,,,,,,,,,,,,,,,,,,,,,,,,,313,2022-10-20_11h07.39.226,Main,2022.2.2,60.114036326863335,
positive,blue,1,k,None,0,0,0,0,,,,,0,0,0,0,,,,,,,,,0,0,0,82,,,,,,,,,,,,,,,,,,,,,,,,,,,,,,,255.99331129999996,255.99331129999996,main,258.07430679999993,None,None,1,1.5197138999999424,None,1,251.22329569999988,251.22329569999988,0.00021779999997306732,0.03888888888888889,0.017592592592592594,0,0,0,,,,,,,,,,,,,,,,,,,,,,,,,,,,,,,,,,,,,,,,,,,,,,,,,,,,,,,,313,2022-10-20_11h07.39.226,Main,2022.2.2,60.114036326863335,
negative,yellow,1,k,None,0,0,0,0,,,,,0,0,0,0,,,,,,,,,0,1,1,98,,,,,,,,,,,,,,,,,,,,,,,,,,,,,,,,,main,260.5966825999999,None,None,1,1.528318200000058,None,1,,,,,,,,,,,,,,,,,,,,,,,,,,,,,,,,,,,,,,,,,,,,,,,,,,,,,,,,,,,,,,,,313,2022-10-20_11h07.39.226,Main,2022.2.2,60.114036326863335,
negative,blue,1,None,k,0,0,0,0,,,,,0,0,0,0,,,,,,,,,0,2,2,94,,,,,,,,,,,,,,,,,,,,,,,,,,,,,,,,,main,263.13188739999987,k,k,1,1.2314006999999947,None,0,,,,,,,,,,,,,,,,,,,,,,,,,,,,,,,,,,,,,,,,,,,,,,,,,,,,,,,,,,,,,,,,313,2022-10-20_11h07.39.226,Main,2022.2.2,60.114036326863335,
positive,blue,2,k,None,0,0,0,0,,,,,0,0,0,0,,,,,,,,,0,3,3,233,,,,,,,,,,,,,,,,,,,,,,,,,,,,,,,,,main,265.3715030999999,None,None,1,1.51037139999994,None,1,,,,,,,,,,,,,,,,,,,,,,,,,,,,,,,,,,,,,,,,,,,,,,,,,,,,,,,,,,,,,,,,313,2022-10-20_11h07.39.226,Main,2022.2.2,60.114036326863335,
negative,blue,1,None,k,0,0,0,0,,,,,0,0,0,0,,,,,,,,,0,4,4,16,,,,,,,,,,,,,,,,,,,,,,,,,,,,,,,,,main,267.8801060999999,k,k,1,1.110404600000038,None,0,,,,,,,,,,,,,,,,,,,,,,,,,,,,,,,,,,,,,,,,,,,,,,,,,,,,,,,,,,,,,,,,313,2022-10-20_11h07.39.226,Main,2022.2.2,60.114036326863335,
positive,yellow,2,None,k,0,0,0,0,,,,,0,0,0,0,,,,,,,,,0,5,5,208,,,,,,,,,,,,,,,,,,,,,,,,,,,,,,,,,main,269.99939459999996,k,k,1,1.2109090999999808,None,0,,,,,,,,,,,,,,,,,,,,,,,,,,,,,,,,,,,,,,,,,,,,,,,,,,,,,,,,,,,,,,,,313,2022-10-20_11h07.39.226,Main,2022.2.2,60.114036326863335,
positive,yellow,2,None,k,0,0,0,0,,,,,0,0,0,0,,,,,,,,,0,6,6,5,,,,,,,,,,,,,,,,,,,,,,,,,,,,,,,,,main,272.2063971,k,k,1,1.477933000000121,None,0,,,,,,,,,,,,,,,,,,,,,,,,,,,,,,,,,,,,,,,,,,,,,,,,,,,,,,,,,,,,,,,,313,2022-10-20_11h07.39.226,Main,2022.2.2,60.114036326863335,
negative,yellow,1,k,None,0,0,0,0,,,,,0,0,0,0,,,,,,,,,0,7,7,212,,,,,,,,,,,,,,,,,,,,,,,,,,,,,,,,,main,274.7028697999999,None,None,1,1.5223683000001529,None,1,,,,,,,,,,,,,,,,,,,,,,,,,,,,,,,,,,,,,,,,,,,,,,,,,,,,,,,,,,,,,,,,313,2022-10-20_11h07.39.226,Main,2022.2.2,60.114036326863335,
positive,red,1,None,None,0,0,0,0,,,,,0,0,0,0,,,,,,,,,0,8,8,236,,,,,,,,,,,,,,,,,,,,,,,,,,,,,,,,,main,277.2177543,None,None,1,1.529136100000187,None,1,,,,,,,,,,,,,,,,,,,,,,,,,,,,,,,,,,,,,,,,,,,,,,,,,,,,,,,,,,,,,,,,313,2022-10-20_11h07.39.226,Main,2022.2.2,60.114036326863335,
positive,yellow,1,None,k,0,0,0,0,,,,,0,0,0,0,,,,,,,,,0,9,9,215,,,,,,,,,,,,,,,,,,,,,,,,,,,,,,,,,main,279.74928699999987,k,k,1,1.0987618999999995,None,0,,,,,,,,,,,,,,,,,,,,,,,,,,,,,,,,,,,,,,,,,,,,,,,,,,,,,,,,,,,,,,,,313,2022-10-20_11h07.39.226,Main,2022.2.2,60.114036326863335,
negative,yellow,2,k,None,0,0,0,0,,,,,0,0,0,0,,,,,,,,,0,10,10,151,,,,,,,,,,,,,,,,,,,,,,,,,,,,,,,,,main,281.85283779999986,None,None,1,1.5095189999999548,None,1,,,,,,,,,,,,,,,,,,,,,,,,,,,,,,,,,,,,,,,,,,,,,,,,,,,,,,,,,,,,,,,,313,2022-10-20_11h07.39.226,Main,2022.2.2,60.114036326863335,
negative,blue,2,None,k,0,0,0,0,,,,,0,0,0,0,,,,,,,,,0,11,11,132,,,,,,,,,,,,,,,,,,,,,,,,,,,,,,,,,main,284.36610040000005,k,k,1,0.9300556999999117,None,0,,,,,,,,,,,,,,,,,,,,,,,,,,,,,,,,,,,,,,,,,,,,,,,,,,,,,,,,,,,,,,,,313,2022-10-20_11h07.39.226,Main,2022.2.2,60.114036326863335,
positive,blue,2,k,None,0,0,0,0,,,,,0,0,0,0,,,,,,,,,0,12,12,84,,,,,,,,,,,,,,,,,,,,,,,,,,,,,,,,,main,286.30168579999986,None,None,1,1.5256358999999975,None,1,,,,,,,,,,,,,,,,,,,,,,,,,,,,,,,,,,,,,,,,,,,,,,,,,,,,,,,,,,,,,,,,313,2022-10-20_11h07.39.226,Main,2022.2.2,60.114036326863335,
positive,yellow,2,None,k,0,0,0,0,,,,,0,0,0,0,,,,,,,,,0,13,13,122,,,,,,,,,,,,,,,,,,,,,,,,,,,,,,,,,main,288.82002739999984,k,k,1,1.0136953999999605,None,0,,,,,,,,,,,,,,,,,,,,,,,,,,,,,,,,,,,,,,,,,,,,,,,,,,,,,,,,,,,,,,,,313,2022-10-20_11h07.39.226,Main,2022.2.2,60.114036326863335,
positive,yellow,1,None,k,0,0,0,0,,,,,0,0,0,0,,,,,,,,,0,14,14,48,,,,,,,,,,,,,,,,,,,,,,,,,,,,,,,,,main,290.8440045,k,k,1,2.4157450000000154,None,0,,,,,,,,,,,,,,,,,,,,,,,,,,,,,,,,,,,,,,,,,,,,,,,,,,,,,,,,,,,,,,,,313,2022-10-20_11h07.39.226,Main,2022.2.2,60.114036326863335,
negative,red,1,None,None,0,0,0,0,,,,,0,0,0,0,,,,,,,,,0,15,15,62,,,,,,,,,,,,,,,,,,,,,,,,,,,,,,,,,main,295.28401529999996,None,None,1,1.5166143999999804,None,1,,,,,,,,,,,,,,,,,,,,,,,,,,,,,,,,,,,,,,,,,,,,,,,,,,,,,,,,,,,,,,,,313,2022-10-20_11h07.39.226,Main,2022.2.2,60.114036326863335,
negative,yellow,1,k,None,0,0,0,0,,,,,0,0,0,0,,,,,,,,,0,16,16,61,,,,,,,,,,,,,,,,,,,,,,,,,,,,,,,,,main,297.8051135999999,None,k,0,0.920548300000064,None,1,,,,,,,,,,,,,,,,,,,,,,,,,,,,,,,,,,,,,,,,,,,,,,,,,,,,,,,,,,,,,,,,313,2022-10-20_11h07.39.226,Main,2022.2.2,60.114036326863335,
negative,blue,1,None,k,0,0,0,0,,,,,0,0,0,0,,,,,,,,,0,17,17,196,,,,,,,,,,,,,,,,,,,,,,,,,,,,,,,,,main,300.76816970000004,k,k,1,1.2929626000000098,None,0,,,,,,,,,,,,,,,,,,,,,,,,,,,,,,,,,,,,,,,,,,,,,,,,,,,,,,,,,,,,,,,,313,2022-10-20_11h07.39.226,Main,2022.2.2,60.114036326863335,
negative,blue,2,None,k,0,0,0,0,,,,,0,0,0,0,,,,,,,,,0,18,18,102,,,,,,,,,,,,,,,,,,,,,,,,,,,,,,,,,main,303.0717617,k,k,1,1.5279006000000663,None,0,,,,,,,,,,,,,,,,,,,,,,,,,,,,,,,,,,,,,,,,,,,,,,,,,,,,,,,,,,,,,,,,313,2022-10-20_11h07.39.226,Main,2022.2.2,60.114036326863335,
positive,blue,2,k,None,0,0,0,0,,,,,0,0,0,0,,,,,,,,,0,19,19,172,,,,,,,,,,,,,,,,,,,,,,,,,,,,,,,,,main,306.61487439999996,None,None,1,1.5210182999999233,None,1,,,,,,,,,,,,,,,,,,,,,,,,,,,,,,,,,,,,,,,,,,,,,,,,,,,,,,,,,,,,,,,,313,2022-10-20_11h07.39.226,Main,2022.2.2,60.114036326863335,
positive,yellow,1,None,k,0,0,0,0,,,,,0,0,0,0,,,,,,,,,0,20,20,85,,,,,,,,,,,,,,,,,,,,,,,,,,,,,,,,,main,309.137882,k,k,1,1.2708373000000392,None,0,,,,,,,,,,,,,,,,,,,,,,,,,,,,,,,,,,,,,,,,,,,,,,,,,,,,,,,,,,,,,,,,313,2022-10-20_11h07.39.226,Main,2022.2.2,60.114036326863335,
negative,yellow,1,k,None,0,0,0,0,,,,,0,0,0,0,,,,,,,,,0,21,21,191,,,,,,,,,,,,,,,,,,,,,,,,,,,,,,,,,main,311.4168035,None,None,1,1.5174818999998934,None,1,,,,,,,,,,,,,,,,,,,,,,,,,,,,,,,,,,,,,,,,,,,,,,,,,,,,,,,,,,,,,,,,313,2022-10-20_11h07.39.226,Main,2022.2.2,60.114036326863335,
negative,blue,2,None,k,0,0,0,0,,,,,0,0,0,0,,,,,,,,,0,22,22,199,,,,,,,,,,,,,,,,,,,,,,,,,,,,,,,,,main,313.9362377,k,k,1,1.0616726999999173,None,0,,,,,,,,,,,,,,,,,,,,,,,,,,,,,,,,,,,,,,,,,,,,,,,,,,,,,,,,,,,,,,,,313,2022-10-20_11h07.39.226,Main,2022.2.2,60.114036326863335,
negative,blue,1,None,k,0,0,0,0,,,,,0,0,0,0,,,,,,,,,0,23,23,127,,,,,,,,,,,,,,,,,,,,,,,,,,,,,,,,,main,316.00462249999987,k,k,1,1.047873399999844,None,0,,,,,,,,,,,,,,,,,,,,,,,,,,,,,,,,,,,,,,,,,,,,,,,,,,,,,,,,,,,,,,,,313,2022-10-20_11h07.39.226,Main,2022.2.2,60.114036326863335,
negative,red,2,None,None,0,0,0,0,,,,,0,0,0,0,,,,,,,,,0,24,24,116,,,,,,,,,,,,,,,,,,,,,,,,,,,,,,,,,main,318.05259980000005,None,None,1,1.5344013999999788,None,1,,,,,,,,,,,,,,,,,,,,,,,,,,,,,,,,,,,,,,,,,,,,,,,,,,,,,,,,,,,,,,,,313,2022-10-20_11h07.39.226,Main,2022.2.2,60.114036326863335,
positive,red,2,None,None,0,0,0,0,,,,,0,0,0,0,,,,,,,,,0,25,25,186,,,,,,,,,,,,,,,,,,,,,,,,,,,,,,,,,main,320.586779,None,None,1,1.5141889000001356,None,1,,,,,,,,,,,,,,,,,,,,,,,,,,,,,,,,,,,,,,,,,,,,,,,,,,,,,,,,,,,,,,,,313,2022-10-20_11h07.39.226,Main,2022.2.2,60.114036326863335,
positive,yellow,1,None,k,0,0,0,0,,,,,0,0,0,0,,,,,,,,,0,26,26,8,,,,,,,,,,,,,,,,,,,,,,,,,,,,,,,,,main,323.10347379999985,k,k,1,1.0040914000001067,None,0,,,,,,,,,,,,,,,,,,,,,,,,,,,,,,,,,,,,,,,,,,,,,,,,,,,,,,,,,,,,,,,,313,2022-10-20_11h07.39.226,Main,2022.2.2,60.114036326863335,
positive,yellow,1,None,k,0,0,0,0,,,,,0,0,0,0,,,,,,,,,0,27,27,177,,,,,,,,,,,,,,,,,,,,,,,,,,,,,,,,,main,325.11624229999984,k,k,1,0.8473346000000674,None,0,,,,,,,,,,,,,,,,,,,,,,,,,,,,,,,,,,,,,,,,,,,,,,,,,,,,,,,,,,,,,,,,313,2022-10-20_11h07.39.226,Main,2022.2.2,60.114036326863335,
negative,yellow,2,k,None,0,0,0,0,,,,,0,0,0,0,,,,,,,,,0,28,28,235,,,,,,,,,,,,,,,,,,,,,,,,,,,,,,,,,main,326.9658591,None,None,1,1.5201121999998577,None,1,,,,,,,,,,,,,,,,,,,,,,,,,,,,,,,,,,,,,,,,,,,,,,,,,,,,,,,,,,,,,,,,313,2022-10-20_11h07.39.226,Main,2022.2.2,60.114036326863335,
positive,yellow,1,None,k,0,0,0,0,,,,,0,0,0,0,,,,,,,,,0,29,29,139,,,,,,,,,,,,,,,,,,,,,,,,,,,,,,,,,main,329.48832619999985,k,k,1,1.3735993000000235,None,0,,,,,,,,,,,,,,,,,,,,,,,,,,,,,,,,,,,,,,,,,,,,,,,,,,,,,,,,,,,,,,,,313,2022-10-20_11h07.39.226,Main,2022.2.2,60.114036326863335,
positive,yellow,2,None,k,0,0,0,0,,,,,0,0,0,0,,,,,,,,,0,30,30,155,,,,,,,,,,,,,,,,,,,,,,,,,,,,,,,,,main,331.8665581,k,k,1,1.1325438999999733,None,0,,,,,,,,,,,,,,,,,,,,,,,,,,,,,,,,,,,,,,,,,,,,,,,,,,,,,,,,,,,,,,,,313,2022-10-20_11h07.39.226,Main,2022.2.2,60.114036326863335,
positive,blue,2,k,None,0,0,0,0,,,,,0,0,0,0,,,,,,,,,0,31,31,64,,,,,,,,,,,,,,,,,,,,,,,,,,,,,,,,,main,334.00494460000004,None,None,1,1.5452577999999448,None,1,,,,,,,,,,,,,,,,,,,,,,,,,,,,,,,,,,,,,,,,,,,,,,,,,,,,,,,,,,,,,,,,313,2022-10-20_11h07.39.226,Main,2022.2.2,60.114036326863335,
negative,yellow,1,k,None,0,0,0,0,,,,,0,0,0,0,,,,,,,,,0,32,32,91,,,,,,,,,,,,,,,,,,,,,,,,,,,,,,,,,main,336.5440687999999,None,None,1,1.52969609999991,None,1,,,,,,,,,,,,,,,,,,,,,,,,,,,,,,,,,,,,,,,,,,,,,,,,,,,,,,,,,,,,,,,,313,2022-10-20_11h07.39.226,Main,2022.2.2,60.114036326863335,
negative,yellow,2,k,None,0,0,0,0,,,,,0,0,0,0,,,,,,,,,0,33,33,59,,,,,,,,,,,,,,,,,,,,,,,,,,,,,,,,,main,339.07866109999986,None,k,0,1.315284100000099,None,1,,,,,,,,,,,,,,,,,,,,,,,,,,,,,,,,,,,,,,,,,,,,,,,,,,,,,,,,,,,,,,,,313,2022-10-20_11h07.39.226,Main,2022.2.2,60.114036326863335,
negative,blue,2,None,k,0,0,0,0,,,,,0,0,0,0,,,,,,,,,0,34,34,75,,,,,,,,,,,,,,,,,,,,,,,,,,,,,,,,,main,342.4180483,k,k,1,1.0853532999999516,None,0,,,,,,,,,,,,,,,,,,,,,,,,,,,,,,,,,,,,,,,,,,,,,,,,,,,,,,,,,,,,,,,,313,2022-10-20_11h07.39.226,Main,2022.2.2,60.114036326863335,
negative,red,1,None,None,0,0,0,0,,,,,0,0,0,0,,,,,,,,,0,35,35,181,,,,,,,,,,,,,,,,,,,,,,,,,,,,,,,,,main,344.50300219999986,None,None,1,1.518056599999909,None,1,,,,,,,,,,,,,,,,,,,,,,,,,,,,,,,,,,,,,,,,,,,,,,,,,,,,,,,,,,,,,,,,313,2022-10-20_11h07.39.226,Main,2022.2.2,60.114036326863335,
positive,red,1,None,None,0,0,0,0,,,,,0,0,0,0,,,,,,,,,0,36,36,157,,,,,,,,,,,,,,,,,,,,,,,,,,,,,,,,,main,347.0260564,None,None,1,1.538994799999955,None,1,,,,,,,,,,,,,,,,,,,,,,,,,,,,,,,,,,,,,,,,,,,,,,,,,,,,,,,,,,,,,,,,313,2022-10-20_11h07.39.226,Main,2022.2.2,60.114036326863335,
positive,yellow,1,None,k,0,0,0,0,,,,,0,0,0,0,,,,,,,,,0,37,37,97,,,,,,,,,,,,,,,,,,,,,,,,,,,,,,,,,main,349.56568719999996,k,k,1,1.4492972000000464,None,0,,,,,,,,,,,,,,,,,,,,,,,,,,,,,,,,,,,,,,,,,,,,,,,,,,,,,,,,,,,,,,,,313,2022-10-20_11h07.39.226,Main,2022.2.2,60.114036326863335,
negative,red,1,None,None,0,0,0,0,,,,,0,0,0,0,,,,,,,,,0,38,38,44,,,,,,,,,,,,,,,,,,,,,,,,,,,,,,,,,main,352.0235167999999,None,None,1,1.5264841000000615,None,1,,,,,,,,,,,,,,,,,,,,,,,,,,,,,,,,,,,,,,,,,,,,,,,,,,,,,,,,,,,,,,,,313,2022-10-20_11h07.39.226,Main,2022.2.2,60.114036326863335,
negative,blue,2,None,k,0,0,0,0,,,,,0,0,0,0,,,,,,,,,0,39,39,206,,,,,,,,,,,,,,,,,,,,,,,,,,,,,,,,,main,354.54785979999997,k,k,1,1.4136848999999074,None,0,,,,,,,,,,,,,,,,,,,,,,,,,,,,,,,,,,,,,,,,,,,,,,,,,,,,,,,,,,,,,,,,313,2022-10-20_11h07.39.226,Main,2022.2.2,60.114036326863335,
negative,blue,1,None,k,0,0,0,0,,,,,0,0,0,0,,,,,,,,,0,40,40,238,,,,,,,,,,,,,,,,,,,,,,,,,,,,,,,,,main,356.97082879999994,k,k,1,1.1274430999999367,None,0,,,,,,,,,,,,,,,,,,,,,,,,,,,,,,,,,,,,,,,,,,,,,,,,,,,,,,,,,,,,,,,,313,2022-10-20_11h07.39.226,Main,2022.2.2,60.114036326863335,
positive,red,2,None,None,0,0,0,0,,,,,0,0,0,0,,,,,,,,,0,41,41,23,,,,,,,,,,,,,,,,,,,,,,,,,,,,,,,,,main,359.1004823999999,None,None,1,1.507187199999862,None,1,,,,,,,,,,,,,,,,,,,,,,,,,,,,,,,,,,,,,,,,,,,,,,,,,,,,,,,,,,,,,,,,313,2022-10-20_11h07.39.226,Main,2022.2.2,60.114036326863335,
positive,yellow,1,None,k,0,0,0,0,,,,,0,0,0,0,,,,,,,,,0,42,42,39,,,,,,,,,,,,,,,,,,,,,,,,,,,,,,,,,main,361.60571349999987,k,k,1,1.095906100000093,None,0,,,,,,,,,,,,,,,,,,,,,,,,,,,,,,,,,,,,,,,,,,,,,,,,,,,,,,,,,,,,,,,,313,2022-10-20_11h07.39.226,Main,2022.2.2,60.114036326863335,
positive,blue,1,k,None,0,0,0,0,,,,,0,0,0,0,,,,,,,,,0,43,43,141,,,,,,,,,,,,,,,,,,,,,,,,,,,,,,,,,main,363.70205439999995,None,None,1,1.5314332000000377,None,1,,,,,,,,,,,,,,,,,,,,,,,,,,,,,,,,,,,,,,,,,,,,,,,,,,,,,,,,,,,,,,,,313,2022-10-20_11h07.39.226,Main,2022.2.2,60.114036326863335,
negative,yellow,2,k,None,0,0,0,0,,,,,0,0,0,0,,,,,,,,,0,44,44,225,,,,,,,,,,,,,,,,,,,,,,,,,,,,,,,,,main,366.23748780000005,None,None,1,1.5097690000000057,None,1,,,,,,,,,,,,,,,,,,,,,,,,,,,,,,,,,,,,,,,,,,,,,,,,,,,,,,,,,,,,,,,,313,2022-10-20_11h07.39.226,Main,2022.2.2,60.114036326863335,
positive,yellow,2,None,k,0,0,0,0,,,,,0,0,0,0,,,,,,,,,0,45,45,53,,,,,,,,,,,,,,,,,,,,,,,,,,,,,,,,,main,368.75040519999993,k,k,1,1.042062400000077,None,0,,,,,,,,,,,,,,,,,,,,,,,,,,,,,,,,,,,,,,,,,,,,,,,,,,,,,,,,,,,,,,,,313,2022-10-20_11h07.39.226,Main,2022.2.2,60.114036326863335,
negative,yellow,2,k,None,0,0,0,0,,,,,0,0,0,0,,,,,,,,,0,46,46,65,,,,,,,,,,,,,,,,,,,,,,,,,,,,,,,,,main,370.79046719999997,None,None,1,1.5304717999999866,None,1,,,,,,,,,,,,,,,,,,,,,,,,,,,,,,,,,,,,,,,,,,,,,,,,,,,,,,,,,,,,,,,,313,2022-10-20_11h07.39.226,Main,2022.2.2,60.114036326863335,
negative,blue,2,None,k,0,0,0,0,,,,,0,0,0,0,,,,,,,,,0,47,47,18,,,,,,,,,,,,,,,,,,,,,,,,,,,,,,,,,main,373.3246958,k,k,1,1.1785009000000173,None,0,,,,,,,,,,,,,,,,,,,,,,,,,,,,,,,,,,,,,,,,,,,,,,,,,,,,,,,,,,,,,,,,313,2022-10-20_11h07.39.226,Main,2022.2.2,60.114036326863335,
negative,red,2,None,None,0,0,0,0,,,,,0,0,0,0,,,,,,,,,0,48,48,210,,,,,,,,,,,,,,,,,,,,,,,,,,,,,,,,,main,375.51024289999987,None,None,1,1.5115880000000743,None,1,,,,,,,,,,,,,,,,,,,,,,,,,,,,,,,,,,,,,,,,,,,,,,,,,,,,,,,,,,,,,,,,313,2022-10-20_11h07.39.226,Main,2022.2.2,60.114036326863335,
positive,blue,1,k,None,0,0,0,0,,,,,0,0,0,0,,,,,,,,,0,49,49,176,,,,,,,,,,,,,,,,,,,,,,,,,,,,,,,,,main,378.01956959999984,None,None,1,1.5306441000000177,None,1,,,,,,,,,,,,,,,,,,,,,,,,,,,,,,,,,,,,,,,,,,,,,,,,,,,,,,,,,,,,,,,,313,2022-10-20_11h07.39.226,Main,2022.2.2,60.114036326863335,
positive,yellow,2,None,k,0,0,0,0,,,,,0,0,0,0,,,,,,,,,0,50,50,50,,,,,,,,,,,,,,,,,,,,,,,,,,,,,,,,,main,380.5571224999999,k,k,1,1.387022399999978,None,0,,,,,,,,,,,,,,,,,,,,,,,,,,,,,,,,,,,,,,,,,,,,,,,,,,,,,,,,,,,,,,,,313,2022-10-20_11h07.39.226,Main,2022.2.2,60.114036326863335,
negative,yellow,1,k,None,0,0,0,0,,,,,0,0,0,0,,,,,,,,,0,51,51,163,,,,,,,,,,,,,,,,,,,,,,,,,,,,,,,,,main,382.95035570000005,None,None,1,1.5161359999999604,None,1,,,,,,,,,,,,,,,,,,,,,,,,,,,,,,,,,,,,,,,,,,,,,,,,,,,,,,,,,,,,,,,,313,2022-10-20_11h07.39.226,Main,2022.2.2,60.114036326863335,
positive,yellow,2,None,k,0,0,0,0,,,,,0,0,0,0,,,,,,,,,0,52,52,66,,,,,,,,,,,,,,,,,,,,,,,,,,,,,,,,,main,385.46852179999996,k,k,1,1.1943393999999898,None,0,,,,,,,,,,,,,,,,,,,,,,,,,,,,,,,,,,,,,,,,,,,,,,,,,,,,,,,,,,,,,,,,313,2022-10-20_11h07.39.226,Main,2022.2.2,60.114036326863335,
positive,yellow,1,None,k,0,0,0,0,,,,,0,0,0,0,,,,,,,,,0,53,53,31,,,,,,,,,,,,,,,,,,,,,,,,,,,,,,,,,main,387.67246520000003,k,k,1,1.080800599999975,None,0,,,,,,,,,,,,,,,,,,,,,,,,,,,,,,,,,,,,,,,,,,,,,,,,,,,,,,,,,,,,,,,,313,2022-10-20_11h07.39.226,Main,2022.2.2,60.114036326863335,
negative,yellow,2,k,None,0,0,0,0,,,,,0,0,0,0,,,,,,,,,0,54,54,0,,,,,,,,,,,,,,,,,,,,,,,,,,,,,,,,,main,389.7569074999999,None,None,1,1.519628700000112,None,1,,,,,,,,,,,,,,,,,,,,,,,,,,,,,,,,,,,,,,,,,,,,,,,,,,,,,,,,,,,,,,,,313,2022-10-20_11h07.39.226,Main,2022.2.2,60.114036326863335,
positive,yellow,1,None,k,0,0,0,0,,,,,0,0,0,0,,,,,,,,,0,55,55,138,,,,,,,,,,,,,,,,,,,,,,,,,,,,,,,,,main,392.27108709999993,k,k,1,1.222357799999827,None,0,,,,,,,,,,,,,,,,,,,,,,,,,,,,,,,,,,,,,,,,,,,,,,,,,,,,,,,,,,,,,,,,313,2022-10-20_11h07.39.226,Main,2022.2.2,60.114036326863335,
positive,blue,1,k,None,0,0,0,0,,,,,0,0,0,0,,,,,,,,,0,56,56,79,,,,,,,,,,,,,,,,,,,,,,,,,,,,,,,,,main,394.50233449999996,None,None,1,1.5249785000000884,None,1,,,,,,,,,,,,,,,,,,,,,,,,,,,,,,,,,,,,,,,,,,,,,,,,,,,,,,,,,,,,,,,,313,2022-10-20_11h07.39.226,Main,2022.2.2,60.114036326863335,
negative,yellow,1,k,None,0,0,0,0,,,,,0,0,0,0,,,,,,,,,0,57,57,101,,,,,,,,,,,,,,,,,,,,,,,,,,,,,,,,,main,397.02604129999986,None,None,1,1.5243213999999625,None,1,,,,,,,,,,,,,,,,,,,,,,,,,,,,,,,,,,,,,,,,,,,,,,,,,,,,,,,,,,,,,,,,313,2022-10-20_11h07.39.226,Main,2022.2.2,60.114036326863335,
negative,yellow,1,k,None,0,0,0,0,,,,,0,0,0,0,,,,,,,,,0,58,58,128,,,,,,,,,,,,,,,,,,,,,,,,,,,,,,,,,main,399.553983,None,None,1,1.518891799999892,None,1,,,,,,,,,,,,,,,,,,,,,,,,,,,,,,,,,,,,,,,,,,,,,,,,,,,,,,,,,,,,,,,,313,2022-10-20_11h07.39.226,Main,2022.2.2,60.114036326863335,
positive,blue,2,k,None,0,0,0,0,,,,,0,0,0,0,,,,,,,,,0,59,59,197,,,,,,,,,,,,,,,,,,,,,,,,,,,,,,,,,main,402.07406279999987,None,None,1,1.5107140999998592,None,1,,,,,,,,,,,,,,,,,,,,,,,,,,,,,,,,,,,,,,,,,,,,,,,,,,,,,,,,,,,,,,,,313,2022-10-20_11h07.39.226,Main,2022.2.2,60.114036326863335,
negative,red,1,None,None,0,0,0,0,,,,,0,0,0,0,,,,,,,,,0,60,60,232,,,,,,,,,,,,,,,,,,,,,,,,,,,,,,,,,main,404.5865976,None,None,1,1.5237537000002703,None,1,,,,,,,,,,,,,,,,,,,,,,,,,,,,,,,,,,,,,,,,,,,,,,,,,,,,,,,,,,,,,,,,313,2022-10-20_11h07.39.226,Main,2022.2.2,60.114036326863335,
negative,red,1,None,None,0,0,0,0,,,,,0,0,0,0,,,,,,,,,0,61,61,22,,,,,,,,,,,,,,,,,,,,,,,,,,,,,,,,,main,407.1156271,None,None,1,1.529476799999884,None,1,,,,,,,,,,,,,,,,,,,,,,,,,,,,,,,,,,,,,,,,,,,,,,,,,,,,,,,,,,,,,,,,313,2022-10-20_11h07.39.226,Main,2022.2.2,60.114036326863335,
negative,red,1,None,None,0,0,0,0,,,,,0,0,0,0,,,,,,,,,0,62,62,114,,,,,,,,,,,,,,,,,,,,,,,,,,,,,,,,,main,409.6419771000001,None,None,1,1.514157200000227,None,1,,,,,,,,,,,,,,,,,,,,,,,,,,,,,,,,,,,,,,,,,,,,,,,,,,,,,,,,,,,,,,,,313,2022-10-20_11h07.39.226,Main,2022.2.2,60.114036326863335,
positive,red,2,None,None,0,0,0,0,,,,,0,0,0,0,,,,,,,,,0,63,63,156,,,,,,,,,,,,,,,,,,,,,,,,,,,,,,,,,main,412.16378299999997,None,None,1,1.5250507000000653,None,1,,,,,,,,,,,,,,,,,,,,,,,,,,,,,,,,,,,,,,,,,,,,,,,,,,,,,,,,,,,,,,,,313,2022-10-20_11h07.39.226,Main,2022.2.2,60.114036326863335,
negative,red,1,None,None,0,0,0,0,,,,,0,0,0,0,,,,,,,,,0,64,64,146,,,,,,,,,,,,,,,,,,,,,,,,,,,,,,,,,main,414.69074169999976,None,None,1,1.5238833999997041,None,1,,,,,,,,,,,,,,,,,,,,,,,,,,,,,,,,,,,,,,,,,,,,,,,,,,,,,,,,,,,,,,,,313,2022-10-20_11h07.39.226,Main,2022.2.2,60.114036326863335,
positive,blue,1,k,None,0,0,0,0,,,,,0,0,0,0,,,,,,,,,0,65,65,100,,,,,,,,,,,,,,,,,,,,,,,,,,,,,,,,,main,417.21464909999986,None,None,1,1.5068958000001658,None,1,,,,,,,,,,,,,,,,,,,,,,,,,,,,,,,,,,,,,,,,,,,,,,,,,,,,,,,,,,,,,,,,313,2022-10-20_11h07.39.226,Main,2022.2.2,60.114036326863335,
negative,yellow,2,k,None,0,0,0,0,,,,,0,0,0,0,,,,,,,,,0,66,66,32,,,,,,,,,,,,,,,,,,,,,,,,,,,,,,,,,main,419.7267219999999,None,None,1,1.5225384000000304,None,1,,,,,,,,,,,,,,,,,,,,,,,,,,,,,,,,,,,,,,,,,,,,,,,,,,,,,,,,,,,,,,,,313,2022-10-20_11h07.39.226,Main,2022.2.2,60.114036326863335,
positive,blue,2,k,None,0,0,0,0,,,,,0,0,0,0,,,,,,,,,0,67,67,25,,,,,,,,,,,,,,,,,,,,,,,,,,,,,,,,,main,422.25442310000017,None,None,1,1.5121872999998232,None,1,,,,,,,,,,,,,,,,,,,,,,,,,,,,,,,,,,,,,,,,,,,,,,,,,,,,,,,,,,,,,,,,313,2022-10-20_11h07.39.226,Main,2022.2.2,60.114036326863335,
negative,blue,1,None,k,0,0,0,0,,,,,0,0,0,0,,,,,,,,,0,68,68,131,,,,,,,,,,,,,,,,,,,,,,,,,,,,,,,,,main,424.7691814,k,k,1,0.9127042000000074,None,0,,,,,,,,,,,,,,,,,,,,,,,,,,,,,,,,,,,,,,,,,,,,,,,,,,,,,,,,,,,,,,,,313,2022-10-20_11h07.39.226,Main,2022.2.2,60.114036326863335,
positive,red,1,None,None,0,0,0,0,,,,,0,0,0,0,,,,,,,,,0,69,69,29,,,,,,,,,,,,,,,,,,,,,,,,,,,,,,,,,main,426.6890843000001,None,None,1,1.5263758999999482,None,1,,,,,,,,,,,,,,,,,,,,,,,,,,,,,,,,,,,,,,,,,,,,,,,,,,,,,,,,,,,,,,,,313,2022-10-20_11h07.39.226,Main,2022.2.2,60.114036326863335,
negative,blue,2,None,k,0,0,0,0,,,,,0,0,0,0,,,,,,,,,0,70,70,175,,,,,,,,,,,,,,,,,,,,,,,,,,,,,,,,,main,429.2133124000002,k,k,1,1.0340891999999258,None,0,,,,,,,,,,,,,,,,,,,,,,,,,,,,,,,,,,,,,,,,,,,,,,,,,,,,,,,,,,,,,,,,313,2022-10-20_11h07.39.226,Main,2022.2.2,60.114036326863335,
negative,yellow,2,k,None,0,0,0,0,,,,,0,0,0,0,,,,,,,,,0,71,71,4,,,,,,,,,,,,,,,,,,,,,,,,,,,,,,,,,main,431.26445090000016,None,None,1,1.5328428000002532,None,1,,,,,,,,,,,,,,,,,,,,,,,,,,,,,,,,,,,,,,,,,,,,,,,,,,,,,,,,,,,,,,,,313,2022-10-20_11h07.39.226,Main,2022.2.2,60.114036326863335,
positive,red,2,None,None,0,0,0,0,,,,,0,0,0,0,,,,,,,,,0,72,72,7,,,,,,,,,,,,,,,,,,,,,,,,,,,,,,,,,main,433.79106490000004,None,None,1,1.532719299999826,None,1,,,,,,,,,,,,,,,,,,,,,,,,,,,,,,,,,,,,,,,,,,,,,,,,,,,,,,,,,,,,,,,,313,2022-10-20_11h07.39.226,Main,2022.2.2,60.114036326863335,
negative,blue,1,None,k,0,0,0,0,,,,,0,0,0,0,,,,,,,,,0,73,73,19,,,,,,,,,,,,,,,,,,,,,,,,,,,,,,,,,main,436.3271946,k,k,1,1.0539773999998943,None,0,,,,,,,,,,,,,,,,,,,,,,,,,,,,,,,,,,,,,,,,,,,,,,,,,,,,,,,,,,,,,,,,313,2022-10-20_11h07.39.226,Main,2022.2.2,60.114036326863335,
negative,yellow,1,k,None,0,0,0,0,,,,,0,0,0,0,,,,,,,,,0,74,74,209,,,,,,,,,,,,,,,,,,,,,,,,,,,,,,,,,main,438.38929210000015,None,k,0,1.3035751000002165,None,1,,,,,,,,,,,,,,,,,,,,,,,,,,,,,,,,,,,,,,,,,,,,,,,,,,,,,,,,,,,,,,,,313,2022-10-20_11h07.39.226,Main,2022.2.2,60.114036326863335,
positive,blue,2,k,None,0,0,0,0,,,,,0,0,0,0,,,,,,,,,0,75,75,41,,,,,,,,,,,,,,,,,,,,,,,,,,,,,,,,,main,441.71178929999996,None,None,1,1.5164239000000634,None,1,,,,,,,,,,,,,,,,,,,,,,,,,,,,,,,,,,,,,,,,,,,,,,,,,,,,,,,,,,,,,,,,313,2022-10-20_11h07.39.226,Main,2022.2.2,60.114036326863335,
negative,red,2,None,None,0,0,0,0,,,,,0,0,0,0,,,,,,,,,0,76,76,54,,,,,,,,,,,,,,,,,,,,,,,,,,,,,,,,,main,444.2343029999997,None,None,1,1.5319701000003079,None,1,,,,,,,,,,,,,,,,,,,,,,,,,,,,,,,,,,,,,,,,,,,,,,,,,,,,,,,,,,,,,,,,313,2022-10-20_11h07.39.226,Main,2022.2.2,60.114036326863335,
positive,yellow,1,None,k,0,0,0,0,,,,,0,0,0,0,,,,,,,,,0,77,77,69,,,,,,,,,,,,,,,,,,,,,,,,,,,,,,,,,main,446.7696326999999,k,k,1,1.30069020000019,None,0,,,,,,,,,,,,,,,,,,,,,,,,,,,,,,,,,,,,,,,,,,,,,,,,,,,,,,,,,,,,,,,,313,2022-10-20_11h07.39.226,Main,2022.2.2,60.114036326863335,
positive,blue,2,k,None,0,0,0,0,,,,,0,0,0,0,,,,,,,,,0,78,78,168,,,,,,,,,,,,,,,,,,,,,,,,,,,,,,,,,main,449.07270519999975,None,None,1,1.5315734999999222,None,1,,,,,,,,,,,,,,,,,,,,,,,,,,,,,,,,,,,,,,,,,,,,,,,,,,,,,,,,,,,,,,,,313,2022-10-20_11h07.39.226,Main,2022.2.2,60.114036326863335,
positive,yellow,1,None,k,0,0,0,0,,,,,0,0,0,0,,,,,,,,,0,79,79,71,,,,,,,,,,,,,,,,,,,,,,,,,,,,,,,,,main,451.61421280000013,k,k,1,1.3247246999999334,None,0,,,,,,,,,,,,,,,,,,,,,,,,,,,,,,,,,,,,,,,,,,,,,,,,,,,,,,,,,,,,,,,,313,2022-10-20_11h07.39.226,Main,2022.2.2,60.114036326863335,
positive,yellow,2,None,k,0,0,0,0,,,,,0,0,0,0,,,,,,,,,0,80,80,37,,,,,,,,,,,,,,,,,,,,,,,,,,,,,,,,,main,453.9424570000001,k,k,1,1.210654599999998,None,0,,,,,,,,,,,,,,,,,,,,,,,,,,,,,,,,,,,,,,,,,,,,,,,,,,,,,,,,,,,,,,,,313,2022-10-20_11h07.39.226,Main,2022.2.2,60.114036326863335,
negative,red,2,None,None,0,0,0,0,,,,,0,0,0,0,,,,,,,,,0,81,81,73,,,,,,,,,,,,,,,,,,,,,,,,,,,,,,,,,main,456.15666039999996,None,None,1,1.512678600000072,None,1,,,,,,,,,,,,,,,,,,,,,,,,,,,,,,,,,,,,,,,,,,,,,,,,,,,,,,,,,,,,,,,,313,2022-10-20_11h07.39.226,Main,2022.2.2,60.114036326863335,
negative,yellow,1,k,None,0,0,0,0,,,,,0,0,0,0,,,,,,,,,0,82,82,234,,,,,,,,,,,,,,,,,,,,,,,,,,,,,,,,,main,458.6713722999998,None,None,1,1.5170293999999558,None,1,,,,,,,,,,,,,,,,,,,,,,,,,,,,,,,,,,,,,,,,,,,,,,,,,,,,,,,,,,,,,,,,313,2022-10-20_11h07.39.226,Main,2022.2.2,60.114036326863335,
positive,yellow,2,None,k,0,0,0,0,,,,,0,0,0,0,,,,,,,,,0,83,83,104,,,,,,,,,,,,,,,,,,,,,,,,,,,,,,,,,main,461.19162159999996,k,k,1,1.2342147999997906,None,0,,,,,,,,,,,,,,,,,,,,,,,,,,,,,,,,,,,,,,,,,,,,,,,,,,,,,,,,,,,,,,,,313,2022-10-20_11h07.39.226,Main,2022.2.2,60.114036326863335,
negative,blue,2,None,k,0,0,0,0,,,,,0,0,0,0,,,,,,,,,0,84,84,110,,,,,,,,,,,,,,,,,,,,,,,,,,,,,,,,,main,463.4352844,k,k,1,1.5102346000003308,None,0,,,,,,,,,,,,,,,,,,,,,,,,,,,,,,,,,,,,,,,,,,,,,,,,,,,,,,,,,,,,,,,,313,2022-10-20_11h07.39.226,Main,2022.2.2,60.114036326863335,
negative,blue,1,None,k,0,0,0,0,,,,,0,0,0,0,,,,,,,,,0,85,85,49,,,,,,,,,,,,,,,,,,,,,,,,,,,,,,,,,main,466.97751849999986,k,k,1,0.9540548999998464,None,0,,,,,,,,,,,,,,,,,,,,,,,,,,,,,,,,,,,,,,,,,,,,,,,,,,,,,,,,,,,,,,,,313,2022-10-20_11h07.39.226,Main,2022.2.2,60.114036326863335,
negative,yellow,2,k,None,0,0,0,0,,,,,0,0,0,0,,,,,,,,,0,86,86,144,,,,,,,,,,,,,,,,,,,,,,,,,,,,,,,,,main,468.94505739999977,None,None,1,1.511671799999931,None,1,,,,,,,,,,,,,,,,,,,,,,,,,,,,,,,,,,,,,,,,,,,,,,,,,,,,,,,,,,,,,,,,313,2022-10-20_11h07.39.226,Main,2022.2.2,60.114036326863335,
positive,blue,1,k,None,0,0,0,0,,,,,0,0,0,0,,,,,,,,,0,87,87,214,,,,,,,,,,,,,,,,,,,,,,,,,,,,,,,,,main,471.45677909999995,None,None,1,1.5125155000000632,None,1,,,,,,,,,,,,,,,,,,,,,,,,,,,,,,,,,,,,,,,,,,,,,,,,,,,,,,,,,,,,,,,,313,2022-10-20_11h07.39.226,Main,2022.2.2,60.114036326863335,
positive,blue,1,k,None,0,0,0,0,,,,,0,0,0,0,,,,,,,,,0,88,88,105,,,,,,,,,,,,,,,,,,,,,,,,,,,,,,,,,main,473.97286440000016,None,None,1,1.5253331000003527,None,1,,,,,,,,,,,,,,,,,,,,,,,,,,,,,,,,,,,,,,,,,,,,,,,,,,,,,,,,,,,,,,,,313,2022-10-20_11h07.39.226,Main,2022.2.2,60.114036326863335,
positive,blue,2,k,None,0,0,0,0,,,,,0,0,0,0,,,,,,,,,0,89,89,192,,,,,,,,,,,,,,,,,,,,,,,,,,,,,,,,,main,476.49294729999974,None,None,1,1.510871699999825,None,1,,,,,,,,,,,,,,,,,,,,,,,,,,,,,,,,,,,,,,,,,,,,,,,,,,,,,,,,,,,,,,,,313,2022-10-20_11h07.39.226,Main,2022.2.2,60.114036326863335,
positive,yellow,1,None,k,0,0,0,0,,,,,0,0,0,0,,,,,,,,,0,90,90,220,,,,,,,,,,,,,,,,,,,,,,,,,,,,,,,,,main,479.00810520000005,k,k,1,0.9159525000000031,None,0,,,,,,,,,,,,,,,,,,,,,,,,,,,,,,,,,,,,,,,,,,,,,,,,,,,,,,,,,,,,,,,,313,2022-10-20_11h07.39.226,Main,2022.2.2,60.114036326863335,
negative,yellow,2,k,None,0,0,0,0,,,,,0,0,0,0,,,,,,,,,0,91,91,124,,,,,,,,,,,,,,,,,,,,,,,,,,,,,,,,,main,480.93778759999987,None,None,1,1.507367499999873,None,1,,,,,,,,,,,,,,,,,,,,,,,,,,,,,,,,,,,,,,,,,,,,,,,,,,,,,,,,,,,,,,,,313,2022-10-20_11h07.39.226,Main,2022.2.2,60.114036326863335,
negative,yellow,2,k,None,0,0,0,0,,,,,0,0,0,0,,,,,,,,,0,92,92,202,,,,,,,,,,,,,,,,,,,,,,,,,,,,,,,,,main,483.44309810000004,None,None,1,1.505714199999602,None,1,,,,,,,,,,,,,,,,,,,,,,,,,,,,,,,,,,,,,,,,,,,,,,,,,,,,,,,,,,,,,,,,313,2022-10-20_11h07.39.226,Main,2022.2.2,60.114036326863335,
negative,blue,1,None,k,0,0,0,0,,,,,0,0,0,0,,,,,,,,,0,93,93,63,,,,,,,,,,,,,,,,,,,,,,,,,,,,,,,,,main,485.9523085000001,k,k,1,0.981711599999926,None,0,,,,,,,,,,,,,,,,,,,,,,,,,,,,,,,,,,,,,,,,,,,,,,,,,,,,,,,,,,,,,,,,313,2022-10-20_11h07.39.226,Main,2022.2.2,60.114036326863335,
positive,red,2,None,None,0,0,0,0,,,,,0,0,0,0,,,,,,,,,0,94,94,119,,,,,,,,,,,,,,,,,,,,,,,,,,,,,,,,,main,487.9367600999999,None,None,1,1.5274255999997877,None,1,,,,,,,,,,,,,,,,,,,,,,,,,,,,,,,,,,,,,,,,,,,,,,,,,,,,,,,,,,,,,,,,313,2022-10-20_11h07.39.226,Main,2022.2.2,60.114036326863335,
positive,red,2,None,None,0,0,0,0,,,,,0,0,0,0,,,,,,,,,0,95,95,219,,,,,,,,,,,,,,,,,,,,,,,,,,,,,,,,,main,490.46304629999986,None,None,1,1.5129220999997415,None,1,,,,,,,,,,,,,,,,,,,,,,,,,,,,,,,,,,,,,,,,,,,,,,,,,,,,,,,,,,,,,,,,313,2022-10-20_11h07.39.226,Main,2022.2.2,60.114036326863335,
negative,yellow,1,k,None,0,0,0,0,,,,,0,0,0,0,,,,,,,,,0,96,96,35,,,,,,,,,,,,,,,,,,,,,,,,,,,,,,,,,main,492.97997780000014,None,None,1,1.5191584000003786,None,1,,,,,,,,,,,,,,,,,,,,,,,,,,,,,,,,,,,,,,,,,,,,,,,,,,,,,,,,,,,,,,,,313,2022-10-20_11h07.39.226,Main,2022.2.2,60.114036326863335,
positive,blue,1,k,None,0,0,0,0,,,,,0,0,0,0,,,,,,,,,0,97,97,78,,,,,,,,,,,,,,,,,,,,,,,,,,,,,,,,,main,495.5061028,None,None,1,1.5210523999999168,None,1,,,,,,,,,,,,,,,,,,,,,,,,,,,,,,,,,,,,,,,,,,,,,,,,,,,,,,,,,,,,,,,,313,2022-10-20_11h07.39.226,Main,2022.2.2,60.114036326863335,
positive,yellow,1,None,k,0,0,0,0,,,,,0,0,0,0,,,,,,,,,0,98,98,165,,,,,,,,,,,,,,,,,,,,,,,,,,,,,,,,,main,498.03021050000007,k,k,1,0.9412343000003602,None,0,,,,,,,,,,,,,,,,,,,,,,,,,,,,,,,,,,,,,,,,,,,,,,,,,,,,,,,,,,,,,,,,313,2022-10-20_11h07.39.226,Main,2022.2.2,60.114036326863335,
positive,yellow,2,None,k,0,0,0,0,,,,,0,0,0,0,,,,,,,,,0,99,99,136,,,,,,,,,,,,,,,,,,,,,,,,,,,,,,,,,main,499.97280739999997,k,k,1,1.3769044000000576,None,0,,,,,,,,,,,,,,,,,,,,,,,,,,,,,,,,,,,,,,,,,,,,,,,,,,,,,,,,,,,,,,,,313,2022-10-20_11h07.39.226,Main,2022.2.2,60.114036326863335,
positive,yellow,2,None,k,0,0,0,0,,,,,0,0,0,0,,,,,,,,,0,100,100,14,,,,,,,,,,,,,,,,,,,,,,,,,,,,,,,,,main,502.3557744,k,k,1,0.8670243999999911,None,0,,,,,,,,,,,,,,,,,,,,,,,,,,,,,,,,,,,,,,,,,,,,,,,,,,,,,,,,,,,,,,,,313,2022-10-20_11h07.39.226,Main,2022.2.2,60.114036326863335,
negative,red,1,None,None,0,0,0,0,,,,,0,0,0,0,,,,,,,,,0,101,101,9,,,,,,,,,,,,,,,,,,,,,,,,,,,,,,,,,main,504.2281976999998,None,None,1,1.5078499000001102,None,1,,,,,,,,,,,,,,,,,,,,,,,,,,,,,,,,,,,,,,,,,,,,,,,,,,,,,,,,,,,,,,,,313,2022-10-20_11h07.39.226,Main,2022.2.2,60.114036326863335,
positive,blue,1,k,None,0,0,0,0,,,,,0,0,0,0,,,,,,,,,0,102,102,58,,,,,,,,,,,,,,,,,,,,,,,,,,,,,,,,,main,506.73894059999975,None,None,1,1.5183947999998963,None,1,,,,,,,,,,,,,,,,,,,,,,,,,,,,,,,,,,,,,,,,,,,,,,,,,,,,,,,,,,,,,,,,313,2022-10-20_11h07.39.226,Main,2022.2.2,60.114036326863335,
negative,yellow,1,k,None,0,0,0,0,,,,,0,0,0,0,,,,,,,,,0,103,103,45,,,,,,,,,,,,,,,,,,,,,,,,,,,,,,,,,main,509.2581415999998,None,None,1,1.5248735999998644,None,1,,,,,,,,,,,,,,,,,,,,,,,,,,,,,,,,,,,,,,,,,,,,,,,,,,,,,,,,,,,,,,,,313,2022-10-20_11h07.39.226,Main,2022.2.2,60.114036326863335,
negative,yellow,1,k,None,0,0,0,0,,,,,0,0,0,0,,,,,,,,,0,104,104,129,,,,,,,,,,,,,,,,,,,,,,,,,,,,,,,,,main,511.78425070000003,None,None,1,1.5244918999997026,None,1,,,,,,,,,,,,,,,,,,,,,,,,,,,,,,,,,,,,,,,,,,,,,,,,,,,,,,,,,,,,,,,,313,2022-10-20_11h07.39.226,Main,2022.2.2,60.114036326863335,
positive,blue,2,k,None,0,0,0,0,,,,,0,0,0,0,,,,,,,,,0,105,105,106,,,,,,,,,,,,,,,,,,,,,,,,,,,,,,,,,main,514.3126505999999,None,None,1,1.5272547999998096,None,1,,,,,,,,,,,,,,,,,,,,,,,,,,,,,,,,,,,,,,,,,,,,,,,,,,,,,,,,,,,,,,,,313,2022-10-20_11h07.39.226,Main,2022.2.2,60.114036326863335,
positive,blue,2,k,None,0,0,0,0,,,,,0,0,0,0,,,,,,,,,0,106,106,111,,,,,,,,,,,,,,,,,,,,,,,,,,,,,,,,,main,516.8452432999998,None,None,1,1.512882499999705,None,1,,,,,,,,,,,,,,,,,,,,,,,,,,,,,,,,,,,,,,,,,,,,,,,,,,,,,,,,,,,,,,,,313,2022-10-20_11h07.39.226,Main,2022.2.2,60.114036326863335,
negative,red,1,None,None,0,0,0,0,,,,,0,0,0,0,,,,,,,,,0,107,107,166,,,,,,,,,,,,,,,,,,,,,,,,,,,,,,,,,main,519.3618099,None,None,1,1.5126165000001492,None,1,,,,,,,,,,,,,,,,,,,,,,,,,,,,,,,,,,,,,,,,,,,,,,,,,,,,,,,,,,,,,,,,313,2022-10-20_11h07.39.226,Main,2022.2.2,60.114036326863335,
positive,blue,1,k,None,0,0,0,0,,,,,0,0,0,0,,,,,,,,,0,108,108,178,,,,,,,,,,,,,,,,,,,,,,,,,,,,,,,,,main,521.8752706999999,None,None,1,1.507620699999734,None,1,,,,,,,,,,,,,,,,,,,,,,,,,,,,,,,,,,,,,,,,,,,,,,,,,,,,,,,,,,,,,,,,313,2022-10-20_11h07.39.226,Main,2022.2.2,60.114036326863335,
negative,yellow,2,k,None,0,0,0,0,,,,,0,0,0,0,,,,,,,,,0,109,109,88,,,,,,,,,,,,,,,,,,,,,,,,,,,,,,,,,main,524.3874706000001,None,None,1,1.509182800000417,None,1,,,,,,,,,,,,,,,,,,,,,,,,,,,,,,,,,,,,,,,,,,,,,,,,,,,,,,,,,,,,,,,,313,2022-10-20_11h07.39.226,Main,2022.2.2,60.114036326863335,
positive,red,2,None,None,0,0,0,0,,,,,0,0,0,0,,,,,,,,,0,110,110,134,,,,,,,,,,,,,,,,,,,,,,,,,,,,,,,,,main,526.8969754,None,None,1,1.512619000000086,None,1,,,,,,,,,,,,,,,,,,,,,,,,,,,,,,,,,,,,,,,,,,,,,,,,,,,,,,,,,,,,,,,,313,2022-10-20_11h07.39.226,Main,2022.2.2,60.114036326863335,
negative,yellow,2,k,None,0,0,0,0,,,,,0,0,0,0,,,,,,,,,0,111,111,183,,,,,,,,,,,,,,,,,,,,,,,,,,,,,,,,,main,529.4162293999998,None,None,1,1.5132763000001432,None,1,,,,,,,,,,,,,,,,,,,,,,,,,,,,,,,,,,,,,,,,,,,,,,,,,,,,,,,,,,,,,,,,313,2022-10-20_11h07.39.226,Main,2022.2.2,60.114036326863335,
positive,yellow,2,None,k,0,0,0,0,,,,,0,0,0,0,,,,,,,,,0,112,112,108,,,,,,,,,,,,,,,,,,,,,,,,,,,,,,,,,main,531.9288997999997,k,k,1,1.1265368999997918,None,0,,,,,,,,,,,,,,,,,,,,,,,,,,,,,,,,,,,,,,,,,,,,,,,,,,,,,,,,,,,,,,,,313,2022-10-20_11h07.39.226,Main,2022.2.2,60.114036326863335,
negative,yellow,2,k,None,0,0,0,0,,,,,0,0,0,0,,,,,,,,,0,113,113,117,,,,,,,,,,,,,,,,,,,,,,,,,,,,,,,,,main,534.0541984000001,None,None,1,1.5305318000000625,None,1,,,,,,,,,,,,,,,,,,,,,,,,,,,,,,,,,,,,,,,,,,,,,,,,,,,,,,,,,,,,,,,,313,2022-10-20_11h07.39.226,Main,2022.2.2,60.114036326863335,
negative,red,2,None,None,0,0,0,0,,,,,0,0,0,0,,,,,,,,,0,114,114,92,,,,,,,,,,,,,,,,,,,,,,,,,,,,,,,,,main,536.5956578999999,None,None,1,1.5190995000002658,None,1,,,,,,,,,,,,,,,,,,,,,,,,,,,,,,,,,,,,,,,,,,,,,,,,,,,,,,,,,,,,,,,,313,2022-10-20_11h07.39.226,Main,2022.2.2,60.114036326863335,
negative,yellow,1,k,None,0,0,0,0,,,,,0,0,0,0,,,,,,,,,0,115,115,12,,,,,,,,,,,,,,,,,,,,,,,,,,,,,,,,,main,539.1142937999998,None,None,1,1.5220094999999674,None,1,,,,,,,,,,,,,,,,,,,,,,,,,,,,,,,,,,,,,,,,,,,,,,,,,,,,,,,,,,,,,,,,313,2022-10-20_11h07.39.226,Main,2022.2.2,60.114036326863335,
positive,blue,1,k,None,0,0,0,0,,,,,0,0,0,0,,,,,,,,,0,116,116,87,,,,,,,,,,,,,,,,,,,,,,,,,,,,,,,,,main,541.6407066000002,None,None,1,1.511758600000121,None,1,,,,,,,,,,,,,,,,,,,,,,,,,,,,,,,,,,,,,,,,,,,,,,,,,,,,,,,,,,,,,,,,313,2022-10-20_11h07.39.226,Main,2022.2.2,60.114036326863335,
positive,blue,2,k,None,0,0,0,0,,,,,0,0,0,0,,,,,,,,,0,117,117,86,,,,,,,,,,,,,,,,,,,,,,,,,,,,,,,,,main,544.1548487,None,None,1,1.5402520000002369,None,1,,,,,,,,,,,,,,,,,,,,,,,,,,,,,,,,,,,,,,,,,,,,,,,,,,,,,,,,,,,,,,,,313,2022-10-20_11h07.39.226,Main,2022.2.2,60.114036326863335,
negative,yellow,1,k,None,0,0,0,0,,,,,0,0,0,0,,,,,,,,,0,118,118,77,,,,,,,,,,,,,,,,,,,,,,,,,,,,,,,,,main,546.6944976,None,None,1,1.5049016000002666,None,1,,,,,,,,,,,,,,,,,,,,,,,,,,,,,,,,,,,,,,,,,,,,,,,,,,,,,,,,,,,,,,,,313,2022-10-20_11h07.39.226,Main,2022.2.2,60.114036326863335,
negative,yellow,1,k,None,0,0,0,0,,,,,0,0,0,0,,,,,,,,,0,119,119,188,,,,,,,,,,,,,,,,,,,,,,,,,,,,,,,,,main,549.2068174999999,None,None,1,1.523107799999707,None,1,,,,,,,,,,,,,,,,,,,,,,,,,,,,,,,,,,,,,,,,,,,,,,,,,,,,,,,,,,,,,,,,313,2022-10-20_11h07.39.226,Main,2022.2.2,60.114036326863335,
positive,blue,1,k,None,0,0,0,0,,,,,0,0,0,0,,,,,,,,,0,120,120,34,0,0,0,0,,,,,,,,,,,,,,,,,,,,,,,,,,,,,main,551.7343258000001,None,None,1,1.531177000000298,None,1,,,,,,,,,554.2781406999998,554.2781406999998,554.2781406999998,554.2781406999998,None,,,,,,,,,,,,,,,,,,,,,,,,,,,,,,,,,,,,,,,,,,,,,,,,,,,313,2022-10-20_11h07.39.226,Main,2022.2.2,60.114036326863335,
positive,blue,1,k,None,0,0,0,0,,,,,0,0,0,0,,,,,,,,,0,120,120,34,,,,,,,,,,,,,,,,,,,,,,,,,,,,,,,,,,,,,,,,,,,,,,,,,,,,,,,,,,,,,,,,,,,,,,,,,,,,,,,,,,,,,,,,,,,,,,,,,,,,,,,,313,2022-10-20_11h07.39.226,Main,2022.2.2,60.114036326863335,
negative,blue,1,None,k,0,0,0,0,,,,,0,0,0,0,,,,,,,,,0,121,121,161,,,,,,,,,,,,,,,,,,,,,,,,,,,,,,,,,main,614.2717591999999,k,k,1,1.1610772999997607,None,0,,,,,,,,,,,,,,,,,,,,,,,,,,,,,,,,,,,,,,,,,,,,,,,,,,,,,,,,,,,,,,,,313,2022-10-20_11h07.39.226,Main,2022.2.2,60.114036326863335,
positive,yellow,1,None,k,0,0,0,0,,,,,0,0,0,0,,,,,,,,,0,122,122,185,,,,,,,,,,,,,,,,,,,,,,,,,,,,,,,,,main,616.4407717999998,k,k,1,0.9002268999997796,None,0,,,,,,,,,,,,,,,,,,,,,,,,,,,,,,,,,,,,,,,,,,,,,,,,,,,,,,,,,,,,,,,,313,2022-10-20_11h07.39.226,Main,2022.2.2,60.114036326863335,
negative,red,1,None,None,0,0,0,0,,,,,0,0,0,0,,,,,,,,,0,123,123,96,,,,,,,,,,,,,,,,,,,,,,,,,,,,,,,,,main,618.356929,None,None,1,1.5291520000000673,None,1,,,,,,,,,,,,,,,,,,,,,,,,,,,,,,,,,,,,,,,,,,,,,,,,,,,,,,,,,,,,,,,,313,2022-10-20_11h07.39.226,Main,2022.2.2,60.114036326863335,
positive,red,2,None,None,0,0,0,0,,,,,0,0,0,0,,,,,,,,,0,124,124,169,,,,,,,,,,,,,,,,,,,,,,,,,,,,,,,,,main,620.8814025000001,None,None,1,1.5128745999995772,None,1,,,,,,,,,,,,,,,,,,,,,,,,,,,,,,,,,,,,,,,,,,,,,,,,,,,,,,,,,,,,,,,,313,2022-10-20_11h07.39.226,Main,2022.2.2,60.114036326863335,
positive,yellow,2,None,k,0,0,0,0,,,,,0,0,0,0,,,,,,,,,0,125,125,143,,,,,,,,,,,,,,,,,,,,,,,,,,,,,,,,,main,623.3964270000001,k,k,1,0.9160781000000497,None,0,,,,,,,,,,,,,,,,,,,,,,,,,,,,,,,,,,,,,,,,,,,,,,,,,,,,,,,,,,,,,,,,313,2022-10-20_11h07.39.226,Main,2022.2.2,60.114036326863335,
negative,yellow,2,k,None,0,0,0,0,,,,,0,0,0,0,,,,,,,,,0,126,126,40,,,,,,,,,,,,,,,,,,,,,,,,,,,,,,,,,main,625.3186402000001,None,None,1,1.528409499999725,None,1,,,,,,,,,,,,,,,,,,,,,,,,,,,,,,,,,,,,,,,,,,,,,,,,,,,,,,,,,,,,,,,,313,2022-10-20_11h07.39.226,Main,2022.2.2,60.114036326863335,
negative,red,2,None,None,0,0,0,0,,,,,0,0,0,0,,,,,,,,,0,127,127,123,,,,,,,,,,,,,,,,,,,,,,,,,,,,,,,,,main,627.8449848999999,None,None,1,1.5265734000004159,None,1,,,,,,,,,,,,,,,,,,,,,,,,,,,,,,,,,,,,,,,,,,,,,,,,,,,,,,,,,,,,,,,,313,2022-10-20_11h07.39.226,Main,2022.2.2,60.114036326863335,
negative,yellow,2,k,None,0,0,0,0,,,,,0,0,0,0,,,,,,,,,0,128,128,135,,,,,,,,,,,,,,,,,,,,,,,,,,,,,,,,,main,630.3743156999999,None,None,1,1.5138356000002204,None,1,,,,,,,,,,,,,,,,,,,,,,,,,,,,,,,,,,,,,,,,,,,,,,,,,,,,,,,,,,,,,,,,313,2022-10-20_11h07.39.226,Main,2022.2.2,60.114036326863335,
negative,red,2,None,None,0,0,0,0,,,,,0,0,0,0,,,,,,,,,0,129,129,194,,,,,,,,,,,,,,,,,,,,,,,,,,,,,,,,,main,632.8909269999999,None,None,1,1.5062089000002743,None,1,,,,,,,,,,,,,,,,,,,,,,,,,,,,,,,,,,,,,,,,,,,,,,,,,,,,,,,,,,,,,,,,313,2022-10-20_11h07.39.226,Main,2022.2.2,60.114036326863335,
positive,red,1,None,None,0,0,0,0,,,,,0,0,0,0,,,,,,,,,0,130,130,99,,,,,,,,,,,,,,,,,,,,,,,,,,,,,,,,,main,635.4025486999999,None,None,1,1.5085233999998309,None,1,,,,,,,,,,,,,,,,,,,,,,,,,,,,,,,,,,,,,,,,,,,,,,,,,,,,,,,,,,,,,,,,313,2022-10-20_11h07.39.226,Main,2022.2.2,60.114036326863335,
positive,yellow,2,None,k,0,0,0,0,,,,,0,0,0,0,,,,,,,,,0,131,131,224,,,,,,,,,,,,,,,,,,,,,,,,,,,,,,,,,main,637.9126403999999,k,k,1,1.5899105000003146,None,0,,,,,,,,,,,,,,,,,,,,,,,,,,,,,,,,,,,,,,,,,,,,,,,,,,,,,,,,,,,,,,,,313,2022-10-20_11h07.39.226,Main,2022.2.2,60.114036326863335,
positive,blue,2,k,None,0,0,0,0,,,,,0,0,0,0,,,,,,,,,0,132,132,142,,,,,,,,,,,,,,,,,,,,,,,,,,,,,,,,,main,641.5293696999997,None,None,1,1.523777699999755,None,1,,,,,,,,,,,,,,,,,,,,,,,,,,,,,,,,,,,,,,,,,,,,,,,,,,,,,,,,,,,,,,,,313,2022-10-20_11h07.39.226,Main,2022.2.2,60.114036326863335,
negative,blue,2,None,k,0,0,0,0,,,,,0,0,0,0,,,,,,,,,0,133,133,43,,,,,,,,,,,,,,,,,,,,,,,,,,,,,,,,,main,644.0537528999998,k,k,1,0.8793377000001783,None,0,,,,,,,,,,,,,,,,,,,,,,,,,,,,,,,,,,,,,,,,,,,,,,,,,,,,,,,,,,,,,,,,313,2022-10-20_11h07.39.226,Main,2022.2.2,60.114036326863335,
negative,blue,1,None,k,0,0,0,0,,,,,0,0,0,0,,,,,,,,,0,134,134,218,,,,,,,,,,,,,,,,,,,,,,,,,,,,,,,,,main,645.9444264999997,k,k,1,1.3791761000002225,None,0,,,,,,,,,,,,,,,,,,,,,,,,,,,,,,,,,,,,,,,,,,,,,,,,,,,,,,,,,,,,,,,,313,2022-10-20_11h07.39.226,Main,2022.2.2,60.114036326863335,
negative,blue,1,None,k,0,0,0,0,,,,,0,0,0,0,,,,,,,,,0,135,135,112,,,,,,,,,,,,,,,,,,,,,,,,,,,,,,,,,main,648.3292173,k,k,1,0.8813788000002205,None,0,,,,,,,,,,,,,,,,,,,,,,,,,,,,,,,,,,,,,,,,,,,,,,,,,,,,,,,,,,,,,,,,313,2022-10-20_11h07.39.226,Main,2022.2.2,60.114036326863335,
positive,blue,2,k,None,0,0,0,0,,,,,0,0,0,0,,,,,,,,,0,136,136,133,,,,,,,,,,,,,,,,,,,,,,,,,,,,,,,,,main,650.2098464999999,None,None,1,1.5138351999999031,None,1,,,,,,,,,,,,,,,,,,,,,,,,,,,,,,,,,,,,,,,,,,,,,,,,,,,,,,,,,,,,,,,,313,2022-10-20_11h07.39.226,Main,2022.2.2,60.114036326863335,
negative,yellow,1,k,None,0,0,0,0,,,,,0,0,0,0,,,,,,,,,0,137,137,26,,,,,,,,,,,,,,,,,,,,,,,,,,,,,,,,,main,652.7241633999997,None,None,1,1.5080160999996224,None,1,,,,,,,,,,,,,,,,,,,,,,,,,,,,,,,,,,,,,,,,,,,,,,,,,,,,,,,,,,,,,,,,313,2022-10-20_11h07.39.226,Main,2022.2.2,60.114036326863335,
positive,blue,2,k,None,0,0,0,0,,,,,0,0,0,0,,,,,,,,,0,138,138,74,,,,,,,,,,,,,,,,,,,,,,,,,,,,,,,,,main,655.2330363000001,None,None,1,1.548602899999878,None,1,,,,,,,,,,,,,,,,,,,,,,,,,,,,,,,,,,,,,,,,,,,,,,,,,,,,,,,,,,,,,,,,313,2022-10-20_11h07.39.226,Main,2022.2.2,60.114036326863335,
positive,blue,2,k,None,0,0,0,0,,,,,0,0,0,0,,,,,,,,,0,139,139,201,,,,,,,,,,,,,,,,,,,,,,,,,,,,,,,,,main,657.7842288000002,None,None,1,1.5277725000000828,None,1,,,,,,,,,,,,,,,,,,,,,,,,,,,,,,,,,,,,,,,,,,,,,,,,,,,,,,,,,,,,,,,,313,2022-10-20_11h07.39.226,Main,2022.2.2,60.114036326863335,
negative,yellow,1,k,None,0,0,0,0,,,,,0,0,0,0,,,,,,,,,0,140,140,11,,,,,,,,,,,,,,,,,,,,,,,,,,,,,,,,,main,660.3159804000002,None,None,1,1.5216042000001835,None,1,,,,,,,,,,,,,,,,,,,,,,,,,,,,,,,,,,,,,,,,,,,,,,,,,,,,,,,,,,,,,,,,313,2022-10-20_11h07.39.226,Main,2022.2.2,60.114036326863335,
positive,blue,1,k,None,0,0,0,0,,,,,0,0,0,0,,,,,,,,,0,141,141,213,,,,,,,,,,,,,,,,,,,,,,,,,,,,,,,,,main,662.8407149999998,None,None,1,1.51041720000012,None,1,,,,,,,,,,,,,,,,,,,,,,,,,,,,,,,,,,,,,,,,,,,,,,,,,,,,,,,,,,,,,,,,313,2022-10-20_11h07.39.226,Main,2022.2.2,60.114036326863335,
positive,blue,1,k,None,0,0,0,0,,,,,0,0,0,0,,,,,,,,,0,142,142,57,,,,,,,,,,,,,,,,,,,,,,,,,,,,,,,,,main,665.3502392,None,None,1,1.5154121999999006,None,1,,,,,,,,,,,,,,,,,,,,,,,,,,,,,,,,,,,,,,,,,,,,,,,,,,,,,,,,,,,,,,,,313,2022-10-20_11h07.39.226,Main,2022.2.2,60.114036326863335,
negative,blue,1,None,k,0,0,0,0,,,,,0,0,0,0,,,,,,,,,0,143,143,33,,,,,,,,,,,,,,,,,,,,,,,,,,,,,,,,,main,667.8724446000001,k,k,1,1.20116999999982,None,0,,,,,,,,,,,,,,,,,,,,,,,,,,,,,,,,,,,,,,,,,,,,,,,,,,,,,,,,,,,,,,,,313,2022-10-20_11h07.39.226,Main,2022.2.2,60.114036326863335,
negative,blue,2,None,k,0,0,0,0,,,,,0,0,0,0,,,,,,,,,0,144,144,152,,,,,,,,,,,,,,,,,,,,,,,,,,,,,,,,,main,670.0768220999998,k,k,1,0.9273627000002307,None,0,,,,,,,,,,,,,,,,,,,,,,,,,,,,,,,,,,,,,,,,,,,,,,,,,,,,,,,,,,,,,,,,313,2022-10-20_11h07.39.226,Main,2022.2.2,60.114036326863335,
positive,yellow,2,None,k,0,0,0,0,,,,,0,0,0,0,,,,,,,,,0,145,145,217,,,,,,,,,,,,,,,,,,,,,,,,,,,,,,,,,main,672.0111118,k,k,1,1.045246799999859,None,0,,,,,,,,,,,,,,,,,,,,,,,,,,,,,,,,,,,,,,,,,,,,,,,,,,,,,,,,,,,,,,,,313,2022-10-20_11h07.39.226,Main,2022.2.2,60.114036326863335,
positive,yellow,2,None,k,0,0,0,0,,,,,0,0,0,0,,,,,,,,,0,146,146,189,,,,,,,,,,,,,,,,,,,,,,,,,,,,,,,,,main,674.0686406,k,k,1,0.6807518000000528,None,0,,,,,,,,,,,,,,,,,,,,,,,,,,,,,,,,,,,,,,,,,,,,,,,,,,,,,,,,,,,,,,,,313,2022-10-20_11h07.39.226,Main,2022.2.2,60.114036326863335,
positive,red,1,None,None,0,0,0,0,,,,,0,0,0,0,,,,,,,,,0,147,147,125,,,,,,,,,,,,,,,,,,,,,,,,,,,,,,,,,main,675.7507299999997,None,None,1,1.517172599999867,None,1,,,,,,,,,,,,,,,,,,,,,,,,,,,,,,,,,,,,,,,,,,,,,,,,,,,,,,,,,,,,,,,,313,2022-10-20_11h07.39.226,Main,2022.2.2,60.114036326863335,
positive,blue,2,k,None,0,0,0,0,,,,,0,0,0,0,,,,,,,,,0,148,148,27,,,,,,,,,,,,,,,,,,,,,,,,,,,,,,,,,main,678.2655482,None,None,1,1.5317168000001402,None,1,,,,,,,,,,,,,,,,,,,,,,,,,,,,,,,,,,,,,,,,,,,,,,,,,,,,,,,,,,,,,,,,313,2022-10-20_11h07.39.226,Main,2022.2.2,60.114036326863335,
negative,red,1,None,None,0,0,0,0,,,,,0,0,0,0,,,,,,,,,0,149,149,121,,,,,,,,,,,,,,,,,,,,,,,,,,,,,,,,,main,680.7999913999997,None,None,1,1.5255566000000726,None,1,,,,,,,,,,,,,,,,,,,,,,,,,,,,,,,,,,,,,,,,,,,,,,,,,,,,,,,,,,,,,,,,313,2022-10-20_11h07.39.226,Main,2022.2.2,60.114036326863335,
positive,red,1,None,None,0,0,0,0,,,,,0,0,0,0,,,,,,,,,0,150,150,195,,,,,,,,,,,,,,,,,,,,,,,,,,,,,,,,,main,683.3303554999998,None,None,1,1.5145944000000782,None,1,,,,,,,,,,,,,,,,,,,,,,,,,,,,,,,,,,,,,,,,,,,,,,,,,,,,,,,,,,,,,,,,313,2022-10-20_11h07.39.226,Main,2022.2.2,60.114036326863335,
negative,blue,1,None,k,0,0,0,0,,,,,0,0,0,0,,,,,,,,,0,151,151,107,,,,,,,,,,,,,,,,,,,,,,,,,,,,,,,,,main,685.8467167999997,k,k,1,1.3536146000001281,None,0,,,,,,,,,,,,,,,,,,,,,,,,,,,,,,,,,,,,,,,,,,,,,,,,,,,,,,,,,,,,,,,,313,2022-10-20_11h07.39.226,Main,2022.2.2,60.114036326863335,
negative,blue,1,None,k,0,0,0,0,,,,,0,0,0,0,,,,,,,,,0,152,152,150,,,,,,,,,,,,,,,,,,,,,,,,,,,,,,,,,main,688.2026992000001,k,k,1,1.0470468999997138,None,0,,,,,,,,,,,,,,,,,,,,,,,,,,,,,,,,,,,,,,,,,,,,,,,,,,,,,,,,,,,,,,,,313,2022-10-20_11h07.39.226,Main,2022.2.2,60.114036326863335,
negative,blue,1,None,k,0,0,0,0,,,,,0,0,0,0,,,,,,,,,0,153,153,211,,,,,,,,,,,,,,,,,,,,,,,,,,,,,,,,,main,690.2537059000001,k,k,1,0.8082119999999122,None,0,,,,,,,,,,,,,,,,,,,,,,,,,,,,,,,,,,,,,,,,,,,,,,,,,,,,,,,,,,,,,,,,313,2022-10-20_11h07.39.226,Main,2022.2.2,60.114036326863335,
negative,blue,2,None,k,0,0,0,0,,,,,0,0,0,0,,,,,,,,,0,154,154,93,,,,,,,,,,,,,,,,,,,,,,,,,,,,,,,,,main,692.0623096999998,k,k,1,0.9284124000000702,None,0,,,,,,,,,,,,,,,,,,,,,,,,,,,,,,,,,,,,,,,,,,,,,,,,,,,,,,,,,,,,,,,,313,2022-10-20_11h07.39.226,Main,2022.2.2,60.114036326863335,
negative,blue,1,None,k,0,0,0,0,,,,,0,0,0,0,,,,,,,,,0,155,155,72,,,,,,,,,,,,,,,,,,,,,,,,,,,,,,,,,main,693.9930294999999,k,k,1,0.831942500000423,None,0,,,,,,,,,,,,,,,,,,,,,,,,,,,,,,,,,,,,,,,,,,,,,,,,,,,,,,,,,,,,,,,,313,2022-10-20_11h07.39.226,Main,2022.2.2,60.114036326863335,
positive,blue,2,k,None,0,0,0,0,,,,,0,0,0,0,,,,,,,,,0,156,156,228,,,,,,,,,,,,,,,,,,,,,,,,,,,,,,,,,main,695.8283241999998,None,None,1,1.5291662999998152,None,1,,,,,,,,,,,,,,,,,,,,,,,,,,,,,,,,,,,,,,,,,,,,,,,,,,,,,,,,,,,,,,,,313,2022-10-20_11h07.39.226,Main,2022.2.2,60.114036326863335,
negative,blue,2,None,k,0,0,0,0,,,,,0,0,0,0,,,,,,,,,0,157,157,231,,,,,,,,,,,,,,,,,,,,,,,,,,,,,,,,,main,698.3615043999998,k,k,1,0.8627950000000055,None,0,,,,,,,,,,,,,,,,,,,,,,,,,,,,,,,,,,,,,,,,,,,,,,,,,,,,,,,,,,,,,,,,313,2022-10-20_11h07.39.226,Main,2022.2.2,60.114036326863335,
negative,yellow,2,k,None,0,0,0,0,,,,,0,0,0,0,,,,,,,,,0,158,158,190,,,,,,,,,,,,,,,,,,,,,,,,,,,,,,,,,main,700.2298025999999,None,None,1,1.527538800000002,None,1,,,,,,,,,,,,,,,,,,,,,,,,,,,,,,,,,,,,,,,,,,,,,,,,,,,,,,,,,,,,,,,,313,2022-10-20_11h07.39.226,Main,2022.2.2,60.114036326863335,
positive,blue,2,k,None,0,0,0,0,,,,,0,0,0,0,,,,,,,,,0,159,159,17,,,,,,,,,,,,,,,,,,,,,,,,,,,,,,,,,main,702.7551355999999,None,None,1,1.533172899999954,None,1,,,,,,,,,,,,,,,,,,,,,,,,,,,,,,,,,,,,,,,,,,,,,,,,,,,,,,,,,,,,,,,,313,2022-10-20_11h07.39.226,Main,2022.2.2,60.114036326863335,
positive,yellow,2,None,k,0,0,0,0,,,,,0,0,0,0,,,,,,,,,0,160,160,90,,,,,,,,,,,,,,,,,,,,,,,,,,,,,,,,,main,705.2909745000002,k,k,1,0.8256669000002148,None,0,,,,,,,,,,,,,,,,,,,,,,,,,,,,,,,,,,,,,,,,,,,,,,,,,,,,,,,,,,,,,,,,313,2022-10-20_11h07.39.226,Main,2022.2.2,60.114036326863335,
negative,yellow,1,k,None,0,0,0,0,,,,,0,0,0,0,,,,,,,,,0,161,161,164,,,,,,,,,,,,,,,,,,,,,,,,,,,,,,,,,main,707.1260416999999,None,None,1,1.513679200000297,None,1,,,,,,,,,,,,,,,,,,,,,,,,,,,,,,,,,,,,,,,,,,,,,,,,,,,,,,,,,,,,,,,,313,2022-10-20_11h07.39.226,Main,2022.2.2,60.114036326863335,
positive,blue,1,k,None,0,0,0,0,,,,,0,0,0,0,,,,,,,,,0,162,162,221,,,,,,,,,,,,,,,,,,,,,,,,,,,,,,,,,main,709.6349565,None,None,1,1.5244300999997904,None,1,,,,,,,,,,,,,,,,,,,,,,,,,,,,,,,,,,,,,,,,,,,,,,,,,,,,,,,,,,,,,,,,313,2022-10-20_11h07.39.226,Main,2022.2.2,60.114036326863335,
positive,blue,1,k,None,0,0,0,0,,,,,0,0,0,0,,,,,,,,,0,163,163,15,,,,,,,,,,,,,,,,,,,,,,,,,,,,,,,,,main,712.1612126999999,None,None,1,1.5271348999999645,None,1,,,,,,,,,,,,,,,,,,,,,,,,,,,,,,,,,,,,,,,,,,,,,,,,,,,,,,,,,,,,,,,,313,2022-10-20_11h07.39.226,Main,2022.2.2,60.114036326863335,
positive,blue,1,k,None,0,0,0,0,,,,,0,0,0,0,,,,,,,,,0,164,164,137,,,,,,,,,,,,,,,,,,,,,,,,,,,,,,,,,main,714.6931134000001,None,None,1,1.5123223000000507,None,1,,,,,,,,,,,,,,,,,,,,,,,,,,,,,,,,,,,,,,,,,,,,,,,,,,,,,,,,,,,,,,,,313,2022-10-20_11h07.39.226,Main,2022.2.2,60.114036326863335,
positive,blue,2,k,None,0,0,0,0,,,,,0,0,0,0,,,,,,,,,0,165,165,158,,,,,,,,,,,,,,,,,,,,,,,,,,,,,,,,,main,717.2048568,None,None,1,1.525800899999922,None,1,,,,,,,,,,,,,,,,,,,,,,,,,,,,,,,,,,,,,,,,,,,,,,,,,,,,,,,,,,,,,,,,313,2022-10-20_11h07.39.226,Main,2022.2.2,60.114036326863335,
negative,yellow,1,k,None,0,0,0,0,,,,,0,0,0,0,,,,,,,,,0,166,166,159,,,,,,,,,,,,,,,,,,,,,,,,,,,,,,,,,main,719.7381151999998,None,None,1,1.5133690000002389,None,1,,,,,,,,,,,,,,,,,,,,,,,,,,,,,,,,,,,,,,,,,,,,,,,,,,,,,,,,,,,,,,,,313,2022-10-20_11h07.39.226,Main,2022.2.2,60.114036326863335,
negative,yellow,1,k,None,0,0,0,0,,,,,0,0,0,0,,,,,,,,,0,167,167,223,,,,,,,,,,,,,,,,,,,,,,,,,,,,,,,,,main,722.2507508999997,None,None,1,1.5174431999998887,None,1,,,,,,,,,,,,,,,,,,,,,,,,,,,,,,,,,,,,,,,,,,,,,,,,,,,,,,,,,,,,,,,,313,2022-10-20_11h07.39.226,Main,2022.2.2,60.114036326863335,
negative,blue,2,None,k,0,0,0,0,,,,,0,0,0,0,,,,,,,,,0,168,168,76,,,,,,,,,,,,,,,,,,,,,,,,,,,,,,,,,main,724.7716187000001,k,k,1,1.3073135999998158,None,0,,,,,,,,,,,,,,,,,,,,,,,,,,,,,,,,,,,,,,,,,,,,,,,,,,,,,,,,,,,,,,,,313,2022-10-20_11h07.39.226,Main,2022.2.2,60.114036326863335,
positive,blue,2,k,None,0,0,0,0,,,,,0,0,0,0,,,,,,,,,0,169,169,2,,,,,,,,,,,,,,,,,,,,,,,,,,,,,,,,,main,727.0881481000001,None,None,1,1.5084889999998268,None,1,,,,,,,,,,,,,,,,,,,,,,,,,,,,,,,,,,,,,,,,,,,,,,,,,,,,,,,,,,,,,,,,313,2022-10-20_11h07.39.226,Main,2022.2.2,60.114036326863335,
positive,blue,2,k,None,0,0,0,0,,,,,0,0,0,0,,,,,,,,,0,170,170,200,,,,,,,,,,,,,,,,,,,,,,,,,,,,,,,,,main,729.5956118999998,None,None,1,1.5110622000001968,None,1,,,,,,,,,,,,,,,,,,,,,,,,,,,,,,,,,,,,,,,,,,,,,,,,,,,,,,,,,,,,,,,,313,2022-10-20_11h07.39.226,Main,2022.2.2,60.114036326863335,
positive,yellow,1,None,k,0,0,0,0,,,,,0,0,0,0,,,,,,,,,0,171,171,148,,,,,,,,,,,,,,,,,,,,,,,,,,,,,,,,,main,732.1051324999999,k,k,1,1.397010500000306,None,0,,,,,,,,,,,,,,,,,,,,,,,,,,,,,,,,,,,,,,,,,,,,,,,,,,,,,,,,,,,,,,,,313,2022-10-20_11h07.39.226,Main,2022.2.2,60.114036326863335,
positive,yellow,2,None,k,0,0,0,0,,,,,0,0,0,0,,,,,,,,,0,172,172,81,,,,,,,,,,,,,,,,,,,,,,,,,,,,,,,,,main,734.5036863,k,k,1,1.0859379000003173,None,0,,,,,,,,,,,,,,,,,,,,,,,,,,,,,,,,,,,,,,,,,,,,,,,,,,,,,,,,,,,,,,,,313,2022-10-20_11h07.39.226,Main,2022.2.2,60.114036326863335,
negative,blue,2,None,k,0,0,0,0,,,,,0,0,0,0,,,,,,,,,0,173,173,198,,,,,,,,,,,,,,,,,,,,,,,,,,,,,,,,,main,736.5994864999998,k,k,1,1.1590103999997154,None,0,,,,,,,,,,,,,,,,,,,,,,,,,,,,,,,,,,,,,,,,,,,,,,,,,,,,,,,,,,,,,,,,313,2022-10-20_11h07.39.226,Main,2022.2.2,60.114036326863335,
positive,blue,1,k,None,0,0,0,0,,,,,0,0,0,0,,,,,,,,,0,174,174,3,,,,,,,,,,,,,,,,,,,,,,,,,,,,,,,,,main,738.7605162999998,None,None,1,1.5092886000002181,None,1,,,,,,,,,,,,,,,,,,,,,,,,,,,,,,,,,,,,,,,,,,,,,,,,,,,,,,,,,,,,,,,,313,2022-10-20_11h07.39.226,Main,2022.2.2,60.114036326863335,
negative,red,2,None,None,0,0,0,0,,,,,0,0,0,0,,,,,,,,,0,175,175,160,,,,,,,,,,,,,,,,,,,,,,,,,,,,,,,,,main,741.2695322999998,None,None,1,1.5317215000000033,None,1,,,,,,,,,,,,,,,,,,,,,,,,,,,,,,,,,,,,,,,,,,,,,,,,,,,,,,,,,,,,,,,,313,2022-10-20_11h07.39.226,Main,2022.2.2,60.114036326863335,
negative,yellow,2,k,None,0,0,0,0,,,,,0,0,0,0,,,,,,,,,0,176,176,83,,,,,,,,,,,,,,,,,,,,,,,,,,,,,,,,,main,743.8025521,None,None,1,1.523528499999884,None,1,,,,,,,,,,,,,,,,,,,,,,,,,,,,,,,,,,,,,,,,,,,,,,,,,,,,,,,,,,,,,,,,313,2022-10-20_11h07.39.226,Main,2022.2.2,60.114036326863335,
negative,yellow,2,k,None,0,0,0,0,,,,,0,0,0,0,,,,,,,,,0,177,177,167,,,,,,,,,,,,,,,,,,,,,,,,,,,,,,,,,main,746.3261757,None,None,1,1.5121931999997287,None,1,,,,,,,,,,,,,,,,,,,,,,,,,,,,,,,,,,,,,,,,,,,,,,,,,,,,,,,,,,,,,,,,313,2022-10-20_11h07.39.226,Main,2022.2.2,60.114036326863335,
negative,yellow,2,k,None,0,0,0,0,,,,,0,0,0,0,,,,,,,,,0,178,178,70,,,,,,,,,,,,,,,,,,,,,,,,,,,,,,,,,main,748.8454222999999,None,None,1,1.5098471999999674,None,1,,,,,,,,,,,,,,,,,,,,,,,,,,,,,,,,,,,,,,,,,,,,,,,,,,,,,,,,,,,,,,,,313,2022-10-20_11h07.39.226,Main,2022.2.2,60.114036326863335,
positive,blue,1,k,None,0,0,0,0,,,,,0,0,0,0,,,,,,,,,0,179,179,130,,,,,,,,,,,,,,,,,,,,,,,,,,,,,,,,,main,751.3575154999999,None,None,1,1.5206293000001097,None,1,,,,,,,,,,,,,,,,,,,,,,,,,,,,,,,,,,,,,,,,,,,,,,,,,,,,,,,,,,,,,,,,313,2022-10-20_11h07.39.226,Main,2022.2.2,60.114036326863335,
positive,yellow,1,None,k,0,0,0,0,,,,,0,0,0,0,,,,,,,,,0,180,180,113,,,,,,,,,,,,,,,,,,,,,,,,,,,,,,,,,main,753.8790101,k,k,1,1.2979980999998588,None,0,,,,,,,,,,,,,,,,,,,,,,,,,,,,,,,,,,,,,,,,,,,,,,,,,,,,,,,,,,,,,,,,313,2022-10-20_11h07.39.226,Main,2022.2.2,60.114036326863335,
positive,yellow,1,None,k,0,0,0,0,,,,,0,0,0,0,,,,,,,,,0,181,181,118,,,,,,,,,,,,,,,,,,,,,,,,,,,,,,,,,main,756.1807549,k,k,1,0.8823904999999286,None,0,,,,,,,,,,,,,,,,,,,,,,,,,,,,,,,,,,,,,,,,,,,,,,,,,,,,,,,,,,,,,,,,313,2022-10-20_11h07.39.226,Main,2022.2.2,60.114036326863335,
positive,yellow,1,None,k,0,0,0,0,,,,,0,0,0,0,,,,,,,,,0,182,182,193,,,,,,,,,,,,,,,,,,,,,,,,,,,,,,,,,main,758.0752816999998,k,k,1,0.8098049000000174,None,0,,,,,,,,,,,,,,,,,,,,,,,,,,,,,,,,,,,,,,,,,,,,,,,,,,,,,,,,,,,,,,,,313,2022-10-20_11h07.39.226,Main,2022.2.2,60.114036326863335,
positive,red,1,None,None,0,0,0,0,,,,,0,0,0,0,,,,,,,,,0,183,183,1,,,,,,,,,,,,,,,,,,,,,,,,,,,,,,,,,main,759.8827888999999,None,None,1,1.5342540000001463,None,1,,,,,,,,,,,,,,,,,,,,,,,,,,,,,,,,,,,,,,,,,,,,,,,,,,,,,,,,,,,,,,,,313,2022-10-20_11h07.39.226,Main,2022.2.2,60.114036326863335,
negative,blue,1,None,k,0,0,0,0,,,,,0,0,0,0,,,,,,,,,0,184,184,51,,,,,,,,,,,,,,,,,,,,,,,,,,,,,,,,,main,762.4220031,k,k,1,1.1235042000002977,None,0,,,,,,,,,,,,,,,,,,,,,,,,,,,,,,,,,,,,,,,,,,,,,,,,,,,,,,,,,,,,,,,,313,2022-10-20_11h07.39.226,Main,2022.2.2,60.114036326863335,
negative,blue,2,None,k,0,0,0,0,,,,,0,0,0,0,,,,,,,,,0,185,185,204,,,,,,,,,,,,,,,,,,,,,,,,,,,,,,,,,main,764.5427288999999,k,k,1,0.6987131000000772,None,0,,,,,,,,,,,,,,,,,,,,,,,,,,,,,,,,,,,,,,,,,,,,,,,,,,,,,,,,,,,,,,,,313,2022-10-20_11h07.39.226,Main,2022.2.2,60.114036326863335,
positive,blue,2,k,None,0,0,0,0,,,,,0,0,0,0,,,,,,,,,0,186,186,120,,,,,,,,,,,,,,,,,,,,,,,,,,,,,,,,,main,766.2505701,None,None,1,1.5311329999999543,None,1,,,,,,,,,,,,,,,,,,,,,,,,,,,,,,,,,,,,,,,,,,,,,,,,,,,,,,,,,,,,,,,,313,2022-10-20_11h07.39.226,Main,2022.2.2,60.114036326863335,
positive,blue,1,k,None,0,0,0,0,,,,,0,0,0,0,,,,,,,,,0,187,187,239,,,,,,,,,,,,,,,,,,,,,,,,,,,,,,,,,main,768.7852389,None,None,1,1.5114825999999084,None,1,,,,,,,,,,,,,,,,,,,,,,,,,,,,,,,,,,,,,,,,,,,,,,,,,,,,,,,,,,,,,,,,313,2022-10-20_11h07.39.226,Main,2022.2.2,60.114036326863335,
positive,yellow,2,None,k,0,0,0,0,,,,,0,0,0,0,,,,,,,,,0,188,188,222,,,,,,,,,,,,,,,,,,,,,,,,,,,,,,,,,main,771.2939255000001,k,k,1,0.8451709000000847,None,0,,,,,,,,,,,,,,,,,,,,,,,,,,,,,,,,,,,,,,,,,,,,,,,,,,,,,,,,,,,,,,,,313,2022-10-20_11h07.39.226,Main,2022.2.2,60.114036326863335,
negative,yellow,2,k,None,0,0,0,0,,,,,0,0,0,0,,,,,,,,,0,189,189,173,,,,,,,,,,,,,,,,,,,,,,,,,,,,,,,,,main,773.1474502000001,None,None,1,1.5239551999998184,None,1,,,,,,,,,,,,,,,,,,,,,,,,,,,,,,,,,,,,,,,,,,,,,,,,,,,,,,,,,,,,,,,,313,2022-10-20_11h07.39.226,Main,2022.2.2,60.114036326863335,
positive,blue,2,k,None,0,0,0,0,,,,,0,0,0,0,,,,,,,,,0,190,190,42,,,,,,,,,,,,,,,,,,,,,,,,,,,,,,,,,main,775.6699613999999,None,None,1,1.5288737999999285,None,1,,,,,,,,,,,,,,,,,,,,,,,,,,,,,,,,,,,,,,,,,,,,,,,,,,,,,,,,,,,,,,,,313,2022-10-20_11h07.39.226,Main,2022.2.2,60.114036326863335,
negative,red,2,None,None,0,0,0,0,,,,,0,0,0,0,,,,,,,,,0,191,191,149,,,,,,,,,,,,,,,,,,,,,,,,,,,,,,,,,main,778.2006459999998,None,None,1,1.5138090000000375,None,1,,,,,,,,,,,,,,,,,,,,,,,,,,,,,,,,,,,,,,,,,,,,,,,,,,,,,,,,,,,,,,,,313,2022-10-20_11h07.39.226,Main,2022.2.2,60.114036326863335,
positive,blue,1,k,None,0,0,0,0,,,,,0,0,0,0,,,,,,,,,0,192,192,30,,,,,,,,,,,,,,,,,,,,,,,,,,,,,,,,,main,780.7175873000001,None,None,1,1.5191677000002528,None,1,,,,,,,,,,,,,,,,,,,,,,,,,,,,,,,,,,,,,,,,,,,,,,,,,,,,,,,,,,,,,,,,313,2022-10-20_11h07.39.226,Main,2022.2.2,60.114036326863335,
positive,yellow,2,None,k,0,0,0,0,,,,,0,0,0,0,,,,,,,,,0,193,193,36,,,,,,,,,,,,,,,,,,,,,,,,,,,,,,,,,main,783.2394681000001,k,k,1,0.9897390000000996,None,0,,,,,,,,,,,,,,,,,,,,,,,,,,,,,,,,,,,,,,,,,,,,,,,,,,,,,,,,,,,,,,,,313,2022-10-20_11h07.39.226,Main,2022.2.2,60.114036326863335,
negative,red,2,None,None,0,0,0,0,,,,,0,0,0,0,,,,,,,,,0,194,194,13,,,,,,,,,,,,,,,,,,,,,,,,,,,,,,,,,main,785.2377235999998,None,None,1,1.5204020999999557,None,1,,,,,,,,,,,,,,,,,,,,,,,,,,,,,,,,,,,,,,,,,,,,,,,,,,,,,,,,,,,,,,,,313,2022-10-20_11h07.39.226,Main,2022.2.2,60.114036326863335,
negative,yellow,1,k,None,0,0,0,0,,,,,0,0,0,0,,,,,,,,,0,195,195,109,,,,,,,,,,,,,,,,,,,,,,,,,,,,,,,,,main,787.7533309,None,None,1,1.5279816000002029,None,1,,,,,,,,,,,,,,,,,,,,,,,,,,,,,,,,,,,,,,,,,,,,,,,,,,,,,,,,,,,,,,,,313,2022-10-20_11h07.39.226,Main,2022.2.2,60.114036326863335,
negative,red,1,None,None,0,0,0,0,,,,,0,0,0,0,,,,,,,,,0,196,196,205,,,,,,,,,,,,,,,,,,,,,,,,,,,,,,,,,main,790.2832954999999,None,None,1,1.5160330000003341,None,1,,,,,,,,,,,,,,,,,,,,,,,,,,,,,,,,,,,,,,,,,,,,,,,,,,,,,,,,,,,,,,,,313,2022-10-20_11h07.39.226,Main,2022.2.2,60.114036326863335,
negative,yellow,1,k,None,0,0,0,0,,,,,0,0,0,0,,,,,,,,,0,197,197,153,,,,,,,,,,,,,,,,,,,,,,,,,,,,,,,,,main,792.8072321999998,None,None,1,1.5305058999997527,None,1,,,,,,,,,,,,,,,,,,,,,,,,,,,,,,,,,,,,,,,,,,,,,,,,,,,,,,,,,,,,,,,,313,2022-10-20_11h07.39.226,Main,2022.2.2,60.114036326863335,
negative,blue,1,None,k,0,0,0,0,,,,,0,0,0,0,,,,,,,,,0,198,198,229,,,,,,,,,,,,,,,,,,,,,,,,,,,,,,,,,main,795.3364926999998,k,k,1,1.1944525999997495,None,0,,,,,,,,,,,,,,,,,,,,,,,,,,,,,,,,,,,,,,,,,,,,,,,,,,,,,,,,,,,,,,,,313,2022-10-20_11h07.39.226,Main,2022.2.2,60.114036326863335,
positive,yellow,2,None,k,0,0,0,0,,,,,0,0,0,0,,,,,,,,,0,199,199,174,,,,,,,,,,,,,,,,,,,,,,,,,,,,,,,,,main,797.5435683000001,k,k,1,1.0080501000002187,None,0,,,,,,,,,,,,,,,,,,,,,,,,,,,,,,,,,,,,,,,,,,,,,,,,,,,,,,,,,,,,,,,,313,2022-10-20_11h07.39.226,Main,2022.2.2,60.114036326863335,
negative,yellow,2,k,None,0,0,0,0,,,,,0,0,0,0,,,,,,,,,0,200,200,207,,,,,,,,,,,,,,,,,,,,,,,,,,,,,,,,,main,799.5435572000001,None,None,1,1.5353405999999268,None,1,,,,,,,,,,,,,,,,,,,,,,,,,,,,,,,,,,,,,,,,,,,,,,,,,,,,,,,,,,,,,,,,313,2022-10-20_11h07.39.226,Main,2022.2.2,60.114036326863335,
negative,blue,2,None,k,0,0,0,0,,,,,0,0,0,0,,,,,,,,,0,201,201,89,,,,,,,,,,,,,,,,,,,,,,,,,,,,,,,,,main,802.0893419999998,k,k,1,-0.6588856999997006,None,0,,,,,,,,,,,,,,,,,,,,,,,,,,,,,,,,,,,,,,,,,,,,,,,,,,,,,,,,,,,,,,,,313,2022-10-20_11h07.39.226,Main,2022.2.2,60.114036326863335,
positive,red,2,None,None,0,0,0,0,,,,,0,0,0,0,,,,,,,,,0,202,202,52,,,,,,,,,,,,,,,,,,,,,,,,,,,,,,,,,main,805.4646222000001,None,None,1,1.520953400000053,None,1,,,,,,,,,,,,,,,,,,,,,,,,,,,,,,,,,,,,,,,,,,,,,,,,,,,,,,,,,,,,,,,,313,2022-10-20_11h07.39.226,Main,2022.2.2,60.114036326863335,
positive,red,1,None,None,0,0,0,0,,,,,0,0,0,0,,,,,,,,,0,203,203,68,,,,,,,,,,,,,,,,,,,,,,,,,,,,,,,,,main,807.9840998999998,None,None,1,1.5443664999997964,None,1,,,,,,,,,,,,,,,,,,,,,,,,,,,,,,,,,,,,,,,,,,,,,,,,,,,,,,,,,,,,,,,,313,2022-10-20_11h07.39.226,Main,2022.2.2,60.114036326863335,
positive,blue,1,k,None,0,0,0,0,,,,,0,0,0,0,,,,,,,,,0,204,204,180,,,,,,,,,,,,,,,,,,,,,,,,,,,,,,,,,main,810.5330715,None,None,1,1.528969099999813,None,1,,,,,,,,,,,,,,,,,,,,,,,,,,,,,,,,,,,,,,,,,,,,,,,,,,,,,,,,,,,,,,,,313,2022-10-20_11h07.39.226,Main,2022.2.2,60.114036326863335,
positive,red,1,None,None,0,0,0,0,,,,,0,0,0,0,,,,,,,,,0,205,205,115,,,,,,,,,,,,,,,,,,,,,,,,,,,,,,,,,main,813.0635641999997,None,None,1,1.5283294000000751,None,1,,,,,,,,,,,,,,,,,,,,,,,,,,,,,,,,,,,,,,,,,,,,,,,,,,,,,,,,,,,,,,,,313,2022-10-20_11h07.39.226,Main,2022.2.2,60.114036326863335,
negative,blue,2,None,k,0,0,0,0,,,,,0,0,0,0,,,,,,,,,0,206,206,226,,,,,,,,,,,,,,,,,,,,,,,,,,,,,,,,,main,815.5989985000001,k,k,1,1.116613099999995,None,0,,,,,,,,,,,,,,,,,,,,,,,,,,,,,,,,,,,,,,,,,,,,,,,,,,,,,,,,,,,,,,,,313,2022-10-20_11h07.39.226,Main,2022.2.2,60.114036326863335,
positive,yellow,1,None,k,0,0,0,0,,,,,0,0,0,0,,,,,,,,,0,207,207,216,,,,,,,,,,,,,,,,,,,,,,,,,,,,,,,,,main,817.7225656,k,k,1,0.9989685999998983,None,0,,,,,,,,,,,,,,,,,,,,,,,,,,,,,,,,,,,,,,,,,,,,,,,,,,,,,,,,,,,,,,,,313,2022-10-20_11h07.39.226,Main,2022.2.2,60.114036326863335,
negative,blue,1,None,k,0,0,0,0,,,,,0,0,0,0,,,,,,,,,0,208,208,162,,,,,,,,,,,,,,,,,,,,,,,,,,,,,,,,,main,819.7266773000001,k,k,1,0.9245046000000912,None,0,,,,,,,,,,,,,,,,,,,,,,,,,,,,,,,,,,,,,,,,,,,,,,,,,,,,,,,,,,,,,,,,313,2022-10-20_11h07.39.226,Main,2022.2.2,60.114036326863335,
positive,yellow,2,None,k,0,0,0,0,,,,,0,0,0,0,,,,,,,,,0,209,209,67,,,,,,,,,,,,,,,,,,,,,,,,,,,,,,,,,main,821.6551101,k,k,1,0.7871196999999484,None,0,,,,,,,,,,,,,,,,,,,,,,,,,,,,,,,,,,,,,,,,,,,,,,,,,,,,,,,,,,,,,,,,313,2022-10-20_11h07.39.226,Main,2022.2.2,60.114036326863335,
negative,red,2,None,None,0,0,0,0,,,,,0,0,0,0,,,,,,,,,0,210,210,24,,,,,,,,,,,,,,,,,,,,,,,,,,,,,,,,,main,823.4482717999999,None,None,1,1.5096945000000233,None,1,,,,,,,,,,,,,,,,,,,,,,,,,,,,,,,,,,,,,,,,,,,,,,,,,,,,,,,,,,,,,,,,313,2022-10-20_11h07.39.226,Main,2022.2.2,60.114036326863335,
positive,red,1,None,None,0,0,0,0,,,,,0,0,0,0,,,,,,,,,0,211,211,203,,,,,,,,,,,,,,,,,,,,,,,,,,,,,,,,,main,825.9572591000001,None,None,1,1.5288414000001467,None,1,,,,,,,,,,,,,,,,,,,,,,,,,,,,,,,,,,,,,,,,,,,,,,,,,,,,,,,,,,,,,,,,313,2022-10-20_11h07.39.226,Main,2022.2.2,60.114036326863335,
positive,red,1,None,None,0,0,0,0,,,,,0,0,0,0,,,,,,,,,0,212,212,47,,,,,,,,,,,,,,,,,,,,,,,,,,,,,,,,,main,828.4889692000002,None,None,1,1.5098102000001745,None,1,,,,,,,,,,,,,,,,,,,,,,,,,,,,,,,,,,,,,,,,,,,,,,,,,,,,,,,,,,,,,,,,313,2022-10-20_11h07.39.226,Main,2022.2.2,60.114036326863335,
negative,blue,1,None,k,0,0,0,0,,,,,0,0,0,0,,,,,,,,,0,213,213,182,,,,,,,,,,,,,,,,,,,,,,,,,,,,,,,,,main,831.0012735,k,k,1,0.960963499999707,None,0,,,,,,,,,,,,,,,,,,,,,,,,,,,,,,,,,,,,,,,,,,,,,,,,,,,,,,,,,,,,,,,,313,2022-10-20_11h07.39.226,Main,2022.2.2,60.114036326863335,
negative,red,2,None,None,0,0,0,0,,,,,0,0,0,0,,,,,,,,,0,214,214,237,,,,,,,,,,,,,,,,,,,,,,,,,,,,,,,,,main,832.9722376999998,None,None,1,1.5141805999996905,None,1,,,,,,,,,,,,,,,,,,,,,,,,,,,,,,,,,,,,,,,,,,,,,,,,,,,,,,,,,,,,,,,,313,2022-10-20_11h07.39.226,Main,2022.2.2,60.114036326863335,
positive,red,2,None,None,0,0,0,0,,,,,0,0,0,0,,,,,,,,,0,215,215,60,,,,,,,,,,,,,,,,,,,,,,,,,,,,,,,,,main,835.4809549000001,None,None,1,1.5281519999998636,None,1,,,,,,,,,,,,,,,,,,,,,,,,,,,,,,,,,,,,,,,,,,,,,,,,,,,,,,,,,,,,,,,,313,2022-10-20_11h07.39.226,Main,2022.2.2,60.114036326863335,
positive,yellow,2,None,k,0,0,0,0,,,,,0,0,0,0,,,,,,,,,0,216,216,179,,,,,,,,,,,,,,,,,,,,,,,,,,,,,,,,,main,838.0132887,k,k,1,0.8903127000003224,None,0,,,,,,,,,,,,,,,,,,,,,,,,,,,,,,,,,,,,,,,,,,,,,,,,,,,,,,,,,,,,,,,,313,2022-10-20_11h07.39.226,Main,2022.2.2,60.114036326863335,
negative,yellow,1,k,None,0,0,0,0,,,,,0,0,0,0,,,,,,,,,0,217,217,46,,,,,,,,,,,,,,,,,,,,,,,,,,,,,,,,,main,839.9122640999999,None,None,1,1.5297796999998354,None,1,,,,,,,,,,,,,,,,,,,,,,,,,,,,,,,,,,,,,,,,,,,,,,,,,,,,,,,,,,,,,,,,313,2022-10-20_11h07.39.226,Main,2022.2.2,60.114036326863335,
negative,blue,2,None,k,0,0,0,0,,,,,0,0,0,0,,,,,,,,,0,218,218,56,,,,,,,,,,,,,,,,,,,,,,,,,,,,,,,,,main,842.4374698000001,k,k,1,0.9799676999996336,None,0,,,,,,,,,,,,,,,,,,,,,,,,,,,,,,,,,,,,,,,,,,,,,,,,,,,,,,,,,,,,,,,,313,2022-10-20_11h07.39.226,Main,2022.2.2,60.114036326863335,
positive,yellow,1,None,k,0,0,0,0,,,,,0,0,0,0,,,,,,,,,0,219,219,10,,,,,,,,,,,,,,,,,,,,,,,,,,,,,,,,,main,844.4301553999999,k,k,1,0.8748833000004197,None,0,,,,,,,,,,,,,,,,,,,,,,,,,,,,,,,,,,,,,,,,,,,,,,,,,,,,,,,,,,,,,,,,313,2022-10-20_11h07.39.226,Main,2022.2.2,60.114036326863335,
negative,blue,2,None,k,0,0,0,0,,,,,0,0,0,0,,,,,,,,,0,220,220,145,,,,,,,,,,,,,,,,,,,,,,,,,,,,,,,,,main,846.2976809000002,k,k,1,0.9094939999999951,None,0,,,,,,,,,,,,,,,,,,,,,,,,,,,,,,,,,,,,,,,,,,,,,,,,,,,,,,,,,,,,,,,,313,2022-10-20_11h07.39.226,Main,2022.2.2,60.114036326863335,
negative,yellow,2,k,None,0,0,0,0,,,,,0,0,0,0,,,,,,,,,0,221,221,38,,,,,,,,,,,,,,,,,,,,,,,,,,,,,,,,,main,848.2169688999998,None,k,0,0.7701919999999518,None,1,,,,,,,,,,,,,,,,,,,,,,,,,,,,,,,,,,,,,,,,,,,,,,,,,,,,,,,,,,,,,,,,313,2022-10-20_11h07.39.226,Main,2022.2.2,60.114036326863335,
negative,blue,2,None,k,0,0,0,0,,,,,0,0,0,0,,,,,,,,,0,222,222,126,,,,,,,,,,,,,,,,,,,,,,,,,,,,,,,,,main,851.0019594999999,k,k,1,1.0757189999999355,None,0,,,,,,,,,,,,,,,,,,,,,,,,,,,,,,,,,,,,,,,,,,,,,,,,,,,,,,,,,,,,,,,,313,2022-10-20_11h07.39.226,Main,2022.2.2,60.114036326863335,
positive,yellow,1,None,k,0,0,0,0,,,,,0,0,0,0,,,,,,,,,0,223,223,140,,,,,,,,,,,,,,,,,,,,,,,,,,,,,,,,,main,853.0869280000002,k,k,1,0.9092525000000933,None,0,,,,,,,,,,,,,,,,,,,,,,,,,,,,,,,,,,,,,,,,,,,,,,,,,,,,,,,,,,,,,,,,313,2022-10-20_11h07.39.226,Main,2022.2.2,60.114036326863335,
negative,blue,2,None,k,0,0,0,0,,,,,0,0,0,0,,,,,,,,,0,224,224,21,,,,,,,,,,,,,,,,,,,,,,,,,,,,,,,,,main,855.0023304000001,k,k,1,0.9775825000001532,None,0,,,,,,,,,,,,,,,,,,,,,,,,,,,,,,,,,,,,,,,,,,,,,,,,,,,,,,,,,,,,,,,,313,2022-10-20_11h07.39.226,Main,2022.2.2,60.114036326863335,
negative,yellow,2,k,None,0,0,0,0,,,,,0,0,0,0,,,,,,,,,0,225,225,103,,,,,,,,,,,,,,,,,,,,,,,,,,,,,,,,,main,856.9720059000001,None,None,1,1.5207014000002346,None,1,,,,,,,,,,,,,,,,,,,,,,,,,,,,,,,,,,,,,,,,,,,,,,,,,,,,,,,,,,,,,,,,313,2022-10-20_11h07.39.226,Main,2022.2.2,60.114036326863335,
negative,blue,1,None,k,0,0,0,0,,,,,0,0,0,0,,,,,,,,,0,226,226,154,,,,,,,,,,,,,,,,,,,,,,,,,,,,,,,,,main,859.499084,k,k,1,0.9400209000000359,None,0,,,,,,,,,,,,,,,,,,,,,,,,,,,,,,,,,,,,,,,,,,,,,,,,,,,,,,,,,,,,,,,,313,2022-10-20_11h07.39.226,Main,2022.2.2,60.114036326863335,
positive,red,1,None,None,0,0,0,0,,,,,0,0,0,0,,,,,,,,,0,227,227,170,,,,,,,,,,,,,,,,,,,,,,,,,,,,,,,,,main,861.4521561000001,None,None,1,1.5267567000000781,None,1,,,,,,,,,,,,,,,,,,,,,,,,,,,,,,,,,,,,,,,,,,,,,,,,,,,,,,,,,,,,,,,,313,2022-10-20_11h07.39.226,Main,2022.2.2,60.114036326863335,
positive,yellow,2,None,k,0,0,0,0,,,,,0,0,0,0,,,,,,,,,0,228,228,184,,,,,,,,,,,,,,,,,,,,,,,,,,,,,,,,,main,863.9736176000001,k,k,1,0.8128833999999188,None,0,,,,,,,,,,,,,,,,,,,,,,,,,,,,,,,,,,,,,,,,,,,,,,,,,,,,,,,,,,,,,,,,313,2022-10-20_11h07.39.226,Main,2022.2.2,60.114036326863335,
positive,red,2,None,None,0,0,0,0,,,,,0,0,0,0,,,,,,,,,0,229,229,80,,,,,,,,,,,,,,,,,,,,,,,,,,,,,,,,,main,865.7997971999998,None,None,1,1.5281736000001729,None,1,,,,,,,,,,,,,,,,,,,,,,,,,,,,,,,,,,,,,,,,,,,,,,,,,,,,,,,,,,,,,,,,313,2022-10-20_11h07.39.226,Main,2022.2.2,60.114036326863335,
positive,blue,1,k,None,0,0,0,0,,,,,0,0,0,0,,,,,,,,,0,230,230,147,,,,,,,,,,,,,,,,,,,,,,,,,,,,,,,,,main,868.3208242999999,None,None,1,1.51755890000004,None,1,,,,,,,,,,,,,,,,,,,,,,,,,,,,,,,,,,,,,,,,,,,,,,,,,,,,,,,,,,,,,,,,313,2022-10-20_11h07.39.226,Main,2022.2.2,60.114036326863335,
positive,red,2,None,None,0,0,0,0,,,,,0,0,0,0,,,,,,,,,0,231,231,227,,,,,,,,,,,,,,,,,,,,,,,,,,,,,,,,,main,870.8396456999999,None,None,1,1.5326152999996339,None,1,,,,,,,,,,,,,,,,,,,,,,,,,,,,,,,,,,,,,,,,,,,,,,,,,,,,,,,,,,,,,,,,313,2022-10-20_11h07.39.226,Main,2022.2.2,60.114036326863335,
positive,yellow,1,None,k,0,0,0,0,,,,,0,0,0,0,,,,,,,,,0,232,232,230,,,,,,,,,,,,,,,,,,,,,,,,,,,,,,,,,main,873.3782185,k,k,1,0.8950199000000794,None,0,,,,,,,,,,,,,,,,,,,,,,,,,,,,,,,,,,,,,,,,,,,,,,,,,,,,,,,,,,,,,,,,313,2022-10-20_11h07.39.226,Main,2022.2.2,60.114036326863335,
positive,yellow,1,None,k,0,0,0,0,,,,,0,0,0,0,,,,,,,,,0,233,233,55,,,,,,,,,,,,,,,,,,,,,,,,,,,,,,,,,main,875.2808936000001,k,k,1,0.7439600999996401,None,0,,,,,,,,,,,,,,,,,,,,,,,,,,,,,,,,,,,,,,,,,,,,,,,,,,,,,,,,,,,,,,,,313,2022-10-20_11h07.39.226,Main,2022.2.2,60.114036326863335,
negative,blue,1,None,k,0,0,0,0,,,,,0,0,0,0,,,,,,,,,0,234,234,20,,,,,,,,,,,,,,,,,,,,,,,,,,,,,,,,,main,877.0188749999998,k,k,1,1.030307300000004,None,0,,,,,,,,,,,,,,,,,,,,,,,,,,,,,,,,,,,,,,,,,,,,,,,,,,,,,,,,,,,,,,,,313,2022-10-20_11h07.39.226,Main,2022.2.2,60.114036326863335,
negative,blue,2,None,k,0,0,0,0,,,,,0,0,0,0,,,,,,,,,0,235,235,171,,,,,,,,,,,,,,,,,,,,,,,,,,,,,,,,,main,879.0518732999999,k,k,1,0.8220764000002418,None,0,,,,,,,,,,,,,,,,,,,,,,,,,,,,,,,,,,,,,,,,,,,,,,,,,,,,,,,,,,,,,,,,313,2022-10-20_11h07.39.226,Main,2022.2.2,60.114036326863335,
positive,blue,1,k,None,0,0,0,0,,,,,0,0,0,0,,,,,,,,,0,236,236,187,,,,,,,,,,,,,,,,,,,,,,,,,,,,,,,,,main,880.8796560000001,None,None,1,1.5086461000000781,None,1,,,,,,,,,,,,,,,,,,,,,,,,,,,,,,,,,,,,,,,,,,,,,,,,,,,,,,,,,,,,,,,,313,2022-10-20_11h07.39.226,Main,2022.2.2,60.114036326863335,
negative,blue,2,None,k,0,0,0,0,,,,,0,0,0,0,,,,,,,,,0,237,237,28,,,,,,,,,,,,,,,,,,,,,,,,,,,,,,,,,main,883.3934813000001,k,k,1,0.817362900000262,None,0,,,,,,,,,,,,,,,,,,,,,,,,,,,,,,,,,,,,,,,,,,,,,,,,,,,,,,,,,,,,,,,,313,2022-10-20_11h07.39.226,Main,2022.2.2,60.114036326863335,
negative,blue,1,None,k,0,0,0,0,,,,,0,0,0,0,,,,,,,,,0,238,238,95,,,,,,,,,,,,,,,,,,,,,,,,,,,,,,,,,main,885.2222145000001,k,k,1,0.9660101999998005,None,0,,,,,,,,,,,,,,,,,,,,,,,,,,,,,,,,,,,,,,,,,,,,,,,,,,,,,,,,,,,,,,,,313,2022-10-20_11h07.39.226,Main,2022.2.2,60.114036326863335,
negative,blue,2,None,k,0,0,0,0,,,,,0,0,0,0,,,,,,,,,0,239,239,6,,,,,,,,,,,,,,,,,,,,,,,,,,,,,,,,,main,887.1902469000001,k,k,1,0.8300742999999784,None,0,,,,,,,,,,,,,,,,,,,,,,,,,,,,,,,,,,,,,,,,,,,,,,,,,,,,,,,,,,,,,,,,313,2022-10-20_11h07.39.226,Main,2022.2.2,60.114036326863335,
,,,,,0,0,0,0,,,,,0,0,0,0,,,,,,,,,,,,,,,,,,,,,,,,,,,,,,,,,,,,,,,,,,,,,,,,,,,,,,,,,,,,,,,,,,889.0090599999999,889.0090599999999,889.0090599999999,None,,,,,,,,,,,,,,,,,,,,,,,,,,,,,,,,,,,,,,,,,,,,,,,313,2022-10-20_11h07.39.226,Main,2022.2.2,60.114036326863335,
,,,,,0,0,0,0,,,,,,,,,,,,,,,,,,,,,,,,,,,,,,,,,,,,,,,,,,,,,,,,,,,,,,,,,,,,,,,,,,,,,,,,,,,,,,,,,,,,,,,,,,,,,,,,,,,,,,,,,,,,,,,,,,,,,,,,,,,,313,2022-10-20_11h07.39.226,Main,2022.2.2,60.114036326863335,
,,,,,1,0,1,0,0,0,0,0,,,,,,,,,,,,,,,,,,,,,0,0,0,0,,,,,,,,,,,,,,,,,,,,,,,,,,,,,,,,,,,,,,,,,,,,,,,,,,949.0446173,949.0446173,951.0268510999999,space,3.70064739999998,space,52.1905369000001,1006.0285079,,,,,,,,,,,,,,,,,,,,,,,,,,,,,,,,,,,,,,,313,2022-10-20_11h07.39.226,Main,2022.2.2,60.114036326863335,
positive,negative,2,j,l,1,0,1,0,0,0,0,0,,,,,,,,,,,,,,,,,,,,,,,,,0,0,0,15,,,,,,,,,,,,,,,,,,,,,prac,,,,,,,,,,,,,,,,,,,,,,,,,,,,,,,,,0.0005594999997811101,0.29074074074074074,-0.22407407407407406,0,0,0,1010.3567509999998,2,2,2,positive,negative,1012.4234609,1012.4234609,1012.4234609,1012.4234609,1013.3816683,1013.4564175,l,l,1,1.5956692999998268,1014.9921709999999,1014.9921709999999,1014.9921709999999,1016.0306332,1016.0306332,1016.0306332,,,,,,,,,,,313,2022-10-20_11h07.39.226,Main,2022.2.2,60.114036326863335,
negative,neutral,2,k,k,1,0,1,0,0,0,0,0,,,,,,,,,,,,,,,,,,,,,,,,,0,1,1,16,,,,,,,,,,,,,,,,,,,,,prac,,,,,,,,,,,,,,,,,,,,,,,,,,,,,,,,,,,,,,,,2,2,2,negative,neutral,1016.0306332,1016.0306332,1016.0306332,1016.0306332,1017.0293206000001,1017.0656098,k,k,1,1.1570323999999346,1018.1986244,1018.1986244,1018.1986244,1018.1986244,1018.1986244,1018.1986244,,,,,,,,,,,313,2022-10-20_11h07.39.226,Main,2022.2.2,60.114036326863335,
neutral,negative,2,j,l,1,0,1,0,0,0,0,0,,,,,,,,,,,,,,,,,,,,,,,,,0,2,2,12,,,,,,,,,,,,,,,,,,,,,prac,,,,,,,,,,,,,,,,,,,,,,,,,,,,,,,,,,,,,,,,1,1,2,neutral,negative,1018.1986244,1018.1986244,1018.1986244,1018.1986244,1019.170948,1019.2320654,l,l,1,1.0874724000000242,1020.2785374,1020.2785374,1020.2785374,1020.2785374,1020.2785374,1020.2785374,,,,,,,,,,,313,2022-10-20_11h07.39.226,Main,2022.2.2,60.114036326863335,
negative,neutral,1,k,k,1,0,1,0,0,0,0,0,,,,,,,,,,,,,,,,,,,,,,,,,0,3,3,7,,,,,,,,,,,,,,,,,,,,,prac,,,,,,,,,,,,,,,,,,,,,,,,,,,,,,,,,,,,,,,,2,2,1,negative,neutral,1020.2785374,1020.2785374,1020.2785374,1020.2785374,1021.2524027,1021.319094,k,k,1,1.1814190000000053,1022.4618136999998,1022.4618136999998,1022.4618136999998,1022.4618136999998,1022.4618136999998,1022.4618136999998,,,,,,,,,,,313,2022-10-20_11h07.39.226,Main,2022.2.2,60.114036326863335,
negative,negative,1,j,l,1,0,1,0,0,0,0,0,,,,,,,,,,,,,,,,,,,,,,,,,0,4,4,0,,,,,,,,,,,,,,,,,,,,,prac,,,,,,,,,,,,,,,,,,,,,,,,,,,,,,,,,,,,,,,,1,1,1,negative,negative,1022.4618136999998,1022.4618136999998,1022.4618136999998,1022.4618136999998,1023.4377577999999,1023.4975510999998,l,l,1,1.004686799999945,1024.4654415999998,1024.4654415999998,1024.4654415999998,1024.4654415999998,1024.4654415999998,1024.4654415999998,,,,,,,,,,,313,2022-10-20_11h07.39.226,Main,2022.2.2,60.114036326863335,
neutral,neutral,1,k,k,1,0,1,0,0,0,0,0,,,,,,,,,,,,,,,,,,,,,,,,,0,5,5,1,,,,,,,,,,,,,,,,,,,,,prac,,,,,,,,,,,,,,,,,,,,,,,,,,,,,,,,,,,,,,,,2,2,1,neutral,neutral,1024.4654415999998,1024.4654415999998,1024.4654415999998,1024.4654415999998,1025.4437675999998,1025.5025345999998,k,k,1,0.9041911999997865,1026.3745402,1026.3745402,1026.3745402,1026.3745402,1026.3745402,1026.3745402,,,,,,,,,,,313,2022-10-20_11h07.39.226,Main,2022.2.2,60.114036326863335,
neutral,neutral,2,k,k,1,0,1,0,0,0,0,0,,,,,,,,,,,,,,,,,,,,,,,,,0,6,6,10,,,,,,,,,,,,,,,,,,,,,prac,,,,,,,,,,,,,,,,,,,,,,,,,,,,,,,,,,,,,,,,1,1,2,neutral,neutral,1026.3745402,1026.3745402,1026.3745402,1026.3745402,1027.3478156,1027.4074918000001,k,k,1,0.9943934000002628,1028.3720708,1028.3720708,1028.3720708,1028.3720708,1028.3720708,1028.3720708,,,,,,,,,,,313,2022-10-20_11h07.39.226,Main,2022.2.2,60.114036326863335,
negative,positive,2,l,j,1,0,1,0,0,0,0,0,,,,,,,,,,,,,,,,,,,,,,,,,0,7,7,14,,,,,,,,,,,,,,,,,,,,,prac,,,,,,,,,,,,,,,,,,,,,,,,,,,,,,,,,,,,,,,,1,1,2,negative,positive,1028.3720708,1028.3720708,1028.3720708,1028.3720708,1029.3642673,1029.3950771,j,j,1,1.1008679000001393,1030.4769105999999,1030.4769105999999,1030.4769105999999,1030.4769105999999,1030.4769105999999,1030.4769105999999,,,,,,,,,,,313,2022-10-20_11h07.39.226,Main,2022.2.2,60.114036326863335,
negative,positive,1,l,j,1,0,1,0,0,0,0,0,,,,,,,,,,,,,,,,,,,,,,,,,0,8,8,5,,,,,,,,,,,,,,,,,,,,,prac,,,,,,,,,,,,,,,,,,,,,,,,,,,,,,,,,,,,,,,,2,2,1,negative,positive,1030.4769105999999,1030.4769105999999,1030.4769105999999,1030.4769105999999,1031.4488556000001,1031.5119374,j,j,1,1.1563363000000209,1032.6355239999998,1032.6355239999998,1032.6355239999998,1032.6355239999998,1032.6355239999998,1032.6355239999998,,,,,,,,,,,313,2022-10-20_11h07.39.226,Main,2022.2.2,60.114036326863335,
positive,positive,1,l,j,1,0,1,0,0,0,0,0,,,,,,,,,,,,,,,,,,,,,,,,,0,9,9,2,,,,,,,,,,,,,,,,,,,,,prac,,,,,,,,,,,,,,,,,,,,,,,,,,,,,,,,,,,,,,,,1,1,1,positive,positive,1032.6355239999998,1032.6355239999998,1032.6355239999998,1032.6355239999998,1033.6100310000002,1033.6712312999998,j,j,1,0.8239433999997345,1034.4921630999997,1034.4921630999997,1034.4921630999997,1034.4921630999997,1034.4921630999997,1034.4921630999997,,,,,,,,,,,313,2022-10-20_11h07.39.226,Main,2022.2.2,60.114036326863335,
positive,neutral,1,k,k,1,0,1,0,0,0,0,0,,,,,,,,,,,,,,,,,,,,,,,,,0,10,10,4,,,,,,,,,,,,,,,,,,,,,prac,,,,,,,,,,,,,,,,,,,,,,,,,,,,,,,,,,,,,,,,2,2,1,positive,neutral,1034.4921630999997,1034.4921630999997,1034.4921630999997,1034.4921630999997,1035.4382292,1035.5320367,k,k,1,0.8281803999998374,1036.2855396,1036.2855396,1036.2855396,1036.2855396,1036.2855396,1036.2855396,,,,,,,,,,,313,2022-10-20_11h07.39.226,Main,2022.2.2,60.114036326863335,
neutral,negative,1,j,l,1,0,1,0,0,0,0,0,,,,,,,,,,,,,,,,,,,,,,,,,0,11,11,3,,,,,,,,,,,,,,,,,,,,,prac,,,,,,,,,,,,,,,,,,,,,,,,,,,,,,,,,,,,,,,,2,2,1,neutral,negative,1036.2855396,1036.2855396,1036.2855396,1036.2855396,1037.2655495999998,1037.3279689,l,l,1,0.9994142000000465,1038.2950769999998,1038.2950769999998,1038.2950769999998,1038.2950769999998,1038.2950769999998,1038.2950769999998,,,,,,,,,,,313,2022-10-20_11h07.39.226,Main,2022.2.2,60.114036326863335,
neutral,positive,2,l,j,1,0,1,0,0,0,0,0,,,,,,,,,,,,,,,,,,,,,,,,,0,12,12,17,,,,,,,,,,,,,,,,,,,,,prac,,,,,,,,,,,,,,,,,,,,,,,,,,,,,,,,,,,,,,,,2,2,2,neutral,positive,1038.2950769999998,1038.2950769999998,1038.2950769999998,1038.2950769999998,1039.2977425,1039.3272883,j,j,1,0.8963208999998642,1040.1885751999998,1040.1885751999998,1040.1885751999998,1040.1885751999998,1040.1885751999998,1040.1885751999998,,,,,,,,,,,313,2022-10-20_11h07.39.226,Main,2022.2.2,60.114036326863335,
positive,neutral,2,k,k,1,0,1,0,0,0,0,0,,,,,,,,,,,,,,,,,,,,,,,,,0,13,13,13,,,,,,,,,,,,,,,,,,,,,prac,,,,,,,,,,,,,,,,,,,,,,,,,,,,,,,,,,,,,,,,2,2,2,positive,neutral,1040.1885751999998,1040.1885751999998,1040.1885751999998,1040.1885751999998,1041.1780608999998,1041.2072110999998,k,k,1,0.8490460000002713,1042.0416775999997,1042.0416775999997,1042.0416775999997,1042.0416775999997,1042.0416775999997,1042.0416775999997,,,,,,,,,,,313,2022-10-20_11h07.39.226,Main,2022.2.2,60.114036326863335,
negative,negative,2,j,l,1,0,1,0,0,0,0,0,,,,,,,,,,,,,,,,,,,,,,,,,0,14,14,9,,,,,,,,,,,,,,,,,,,,,prac,,,,,,,,,,,,,,,,,,,,,,,,,,,,,,,,,,,,,,,,1,1,2,negative,negative,1042.0416775999997,1042.0416775999997,1042.0416775999997,1042.0416775999997,1043.0377282,1043.0705868999999,l,l,1,1.0489532000001418,1044.0845364000002,1044.0845364000002,1044.0845364000002,1044.0845364000002,1044.0845364000002,1044.0845364000002,,,,,,,,,,,313,2022-10-20_11h07.39.226,Main,2022.2.2,60.114036326863335,
neutral,positive,1,l,j,1,0,1,0,0,0,0,0,,,,,,,,,,,,,,,,,,,,,,,,,0,15,15,8,,,,,,,,,,,,,,,,,,,,,prac,,,,,,,,,,,,,,,,,,,,,,,,,,,,,,,,,,,,,,,,2,2,1,neutral,positive,1044.0845364000002,1044.0845364000002,1044.0845364000002,1044.0845364000002,1045.0803772,1045.1120173999998,j,j,1,0.9400747999998202,1046.0329109,1046.0329109,1046.0329109,1046.0329109,1046.0329109,1046.0329109,,,,,,,,,,,313,2022-10-20_11h07.39.226,Main,2022.2.2,60.114036326863335,
positive,positive,2,l,j,1,0,1,0,0,0,0,0,,,,,,,,,,,,,,,,,,,,,,,,,0,16,16,11,,,,,,,,,,,,,,,,,,,,,prac,,,,,,,,,,,,,,,,,,,,,,,,,,,,,,,,,,,,,,,,1,1,2,positive,positive,1046.0329109,1046.0329109,1046.0329109,1046.0329109,1047.0242595999998,1047.0551804000002,j,j,1,0.9214676000001418,1047.9593645999998,1047.9593645999998,1047.9593645999998,1047.9593645999998,1047.9593645999998,1047.9593645999998,,,,,,,,,,,313,2022-10-20_11h07.39.226,Main,2022.2.2,60.114036326863335,
positive,negative,1,j,l,1,0,1,0,0,0,0,0,,,,,,,,,,,,,,,,,,,,,,,,,0,17,17,6,,,,,,,,,,,,,,,,,,,,,prac,,,,,,,,,,,,,,,,,,,,,,,,,,,,,,,,,,,,,,,,2,2,1,positive,negative,1047.9593645999998,1047.9593645999998,1047.9593645999998,1047.9593645999998,1048.9531815999999,1048.9845673999998,l,l,1,1.3581884000000173,1050.3141763999997,1050.3141763999997,1050.3141763999997,1050.3141763999997,1050.3141763999997,1050.3141763999997,,,,,,,,,,,313,2022-10-20_11h07.39.226,Main,2022.2.2,60.114036326863335,
negative,neutral,2,k,k,1,0,1,0,0,0,0,0,,,,,,,,,,,,,,,,,,,,,,,,,1,0,18,16,,,,,,,,,,,,,,,,,,,,,prac,,,,,,,,,,,,,,,,,,,,,,,,,,,,,,,,,,,,,,,,2,2,2,negative,neutral,1050.3141763999997,1050.3141763999997,1050.3141763999997,1050.3141763999997,1051.2922641,1051.3521253999997,k,k,1,0.7752071999998407,1052.0928121000002,1052.0928121000002,1052.0928121000002,1052.0928121000002,1052.0928121000002,1052.0928121000002,,,,,,,,,,,313,2022-10-20_11h07.39.226,Main,2022.2.2,60.114036326863335,
negative,neutral,1,k,k,1,0,1,0,0,0,0,0,,,,,,,,,,,,,,,,,,,,,,,,,1,1,19,7,,,,,,,,,,,,,,,,,,,,,prac,,,,,,,,,,,,,,,,,,,,,,,,,,,,,,,,,,,,,,,,2,2,1,negative,neutral,1052.0928121000002,1052.0928121000002,1052.0928121000002,1052.0928121000002,1053.0744559,1053.1514112999998,k,k,1,0.9153364999997393,1054.0065624999997,1054.0065624999997,1054.0065624999997,1054.0065624999997,1054.0065624999997,1054.0065624999997,,,,,,,,,,,313,2022-10-20_11h07.39.226,Main,2022.2.2,60.114036326863335,
positive,positive,1,l,j,1,0,1,0,0,0,0,0,,,,,,,,,,,,,,,,,,,,,,,,,1,2,20,2,,,,,,,,,,,,,,,,,,,,,prac,,,,,,,,,,,,,,,,,,,,,,,,,,,,,,,,,,,,,,,,2,2,1,positive,positive,1054.0065624999997,1054.0065624999997,1054.0065624999997,1054.0065624999997,1054.9973847,1055.0358697000001,j,j,1,0.860958600000231,1055.8638746000001,1055.8638746000001,1055.8638746000001,1055.8638746000001,1055.8638746000001,1055.8638746000001,,,,,,,,,,,313,2022-10-20_11h07.39.226,Main,2022.2.2,60.114036326863335,
neutral,negative,2,j,l,1,0,1,0,0,0,0,0,,,,,,,,,,,,,,,,,,,,,,,,,1,3,21,12,,,,,,,,,,,,,,,,,,,,,prac,,,,,,,,,,,,,,,,,,,,,,,,,,,,,,,,,,,,,,,,2,2,2,neutral,negative,1055.8638746000001,1055.8638746000001,1055.8638746000001,1055.8638746000001,1056.8589874999998,1056.8975154,l,l,1,0.8971510999999737,1057.7696949,1057.7696949,1057.7696949,1057.7696949,1057.7696949,1057.7696949,,,,,,,,,,,313,2022-10-20_11h07.39.226,Main,2022.2.2,60.114036326863335,
neutral,neutral,1,k,k,1,0,1,0,0,0,0,0,,,,,,,,,,,,,,,,,,,,,,,,,1,4,22,1,,,,,,,,,,,,,,,,,,,,,prac,,,,,,,,,,,,,,,,,,,,,,,,,,,,,,,,,,,,,,,,2,2,1,neutral,neutral,1057.7696949,1057.7696949,1057.7696949,1057.7696949,1058.7572642,1058.7865605000002,k,k,1,0.9102584000002025,1059.6802775,1059.6802775,1059.6802775,1059.6802775,1059.6802775,1059.6802775,,,,,,,,,,,313,2022-10-20_11h07.39.226,Main,2022.2.2,60.114036326863335,
negative,negative,2,j,l,1,0,1,0,0,0,0,0,,,,,,,,,,,,,,,,,,,,,,,,,1,5,23,9,,,,,,,,,,,,,,,,,,,,,prac,,,,,,,,,,,,,,,,,,,,,,,,,,,,,,,,,,,,,,,,1,1,2,negative,negative,1059.6802775,1059.6802775,1059.6802775,1059.6802775,1060.6784904,1060.7084387999998,l,l,1,0.9923232000001008,1061.6780528,1061.6780528,1061.6780528,1061.6780528,1061.6780528,1061.6780528,,,,,,,,,,,313,2022-10-20_11h07.39.226,Main,2022.2.2,60.114036326863335,
neutral,negative,1,j,l,1,0,1,0,0,0,0,0,,,,,,,,,,,,,,,,,,,,,,,,,1,6,24,3,,,,,,,,,,,,,,,,,,,,,prac,,,,,,,,,,,,,,,,,,,,,,,,,,,,,,,,,,,,,,,,1,1,1,neutral,negative,1061.6780528,1061.6780528,1061.6780528,1061.6780528,1062.6758470999998,1062.7123121,l,l,1,0.8382419999998092,1063.5202914000001,1063.5202914000001,1063.5202914000001,1063.5202914000001,1063.5202914000001,1063.5202914000001,,,,,,,,,,,313,2022-10-20_11h07.39.226,Main,2022.2.2,60.114036326863335,
positive,positive,2,l,j,1,0,1,0,0,0,0,0,,,,,,,,,,,,,,,,,,,,,,,,,1,7,25,11,,,,,,,,,,,,,,,,,,,,,prac,,,,,,,,,,,,,,,,,,,,,,,,,,,,,,,,,,,,,,,,1,1,2,positive,positive,1063.5202914000001,1063.5202914000001,1063.5202914000001,1063.5202914000001,1064.4939727,1064.5521697999998,j,j,1,0.8533874999998261,1065.3742638999997,1065.3742638999997,1065.3742638999997,1065.3742638999997,1065.3742638999997,1065.3742638999997,,,,,,,,,,,313,2022-10-20_11h07.39.226,Main,2022.2.2,60.114036326863335,
positive,negative,2,j,l,1,0,1,0,0,0,0,0,,,,,,,,,,,,,,,,,,,,,,,,,1,8,26,15,,,,,,,,,,,,,,,,,,,,,prac,,,,,,,,,,,,,,,,,,,,,,,,,,,,,,,,,,,,,,,,2,2,2,positive,negative,1065.3742638999997,1065.3742638999997,1065.3742638999997,1065.3742638999997,1066.3611013,1066.3907128,l,l,1,0.9687610999999379,1067.3439251999998,1067.3439251999998,1067.3439251999998,1067.3439251999998,1067.3439251999998,1067.3439251999998,,,,,,,,,,,313,2022-10-20_11h07.39.226,Main,2022.2.2,60.114036326863335,
negative,positive,2,l,j,1,0,1,0,0,0,0,0,,,,,,,,,,,,,,,,,,,,,,,,,1,9,27,14,,,,,,,,,,,,,,,,,,,,,prac,,,,,,,,,,,,,,,,,,,,,,,,,,,,,,,,,,,,,,,,1,1,2,negative,positive,1067.3439251999998,1067.3439251999998,1067.3439251999998,1067.3439251999998,1068.3218499999998,1068.3810405999998,j,j,1,0.9027581999998802,1069.2500767000001,1069.2500767000001,1069.2500767000001,1069.2500767000001,1069.2500767000001,1069.2500767000001,,,,,,,,,,,313,2022-10-20_11h07.39.226,Main,2022.2.2,60.114036326863335,
positive,neutral,1,k,k,1,0,1,0,0,0,0,0,,,,,,,,,,,,,,,,,,,,,,,,,1,10,28,4,,,,,,,,,,,,,,,,,,,,,prac,,,,,,,,,,,,,,,,,,,,,,,,,,,,,,,,,,,,,,,,2,2,1,positive,neutral,1069.2500767000001,1069.2500767000001,1069.2500767000001,1069.2500767000001,1070.2393186,1070.2751614,k,k,1,0.8005858999999873,1071.0525151000002,1071.0525151000002,1071.0525151000002,1071.0525151000002,1071.0525151000002,1071.0525151000002,,,,,,,,,,,313,2022-10-20_11h07.39.226,Main,2022.2.2,60.114036326863335,
positive,negative,1,j,l,1,0,1,0,0,0,0,0,,,,,,,,,,,,,,,,,,,,,,,,,1,11,29,6,,,,,,,,,,,,,,,,,,,,,prac,,,,,,,,,,,,,,,,,,,,,,,,,,,,,,,,,,,,,,,,2,2,1,positive,negative,1071.0525151000002,1071.0525151000002,1071.0525151000002,1071.0525151000002,1072.0410094,1072.0732884999998,l,l,1,0.8759759999998096,1072.9249463,1072.9249463,1072.9249463,1072.9249463,1072.9249463,1072.9249463,,,,,,,,,,,313,2022-10-20_11h07.39.226,Main,2022.2.2,60.114036326863335,
negative,negative,1,j,l,1,0,1,0,0,0,0,0,,,,,,,,,,,,,,,,,,,,,,,,,1,12,30,0,,,,,,,,,,,,,,,,,,,,,prac,,,,,,,,,,,,,,,,,,,,,,,,,,,,,,,,,,,,,,,,1,1,1,negative,negative,1072.9249463,1072.9249463,1072.9249463,1072.9249463,1073.9182781999998,1073.9530046,l,l,1,0.909103199999663,1074.8392281000001,1074.8392281000001,1074.8392281000001,1074.8392281000001,1074.8392281000001,1074.8392281000001,,,,,,,,,,,313,2022-10-20_11h07.39.226,Main,2022.2.2,60.114036326863335,
neutral,positive,2,l,j,1,0,1,0,0,0,0,0,,,,,,,,,,,,,,,,,,,,,,,,,1,13,31,17,,,,,,,,,,,,,,,,,,,,,prac,,,,,,,,,,,,,,,,,,,,,,,,,,,,,,,,,,,,,,,,2,2,2,neutral,positive,1074.8392281000001,1074.8392281000001,1074.8392281000001,1074.8392281000001,1075.8330775999998,1075.8638188,j,j,1,0.8189179999999396,1076.6628301,1076.6628301,1076.6628301,1076.6628301,1076.6628301,1076.6628301,,,,,,,,,,,313,2022-10-20_11h07.39.226,Main,2022.2.2,60.114036326863335,
neutral,positive,1,l,j,1,0,1,0,0,0,0,0,,,,,,,,,,,,,,,,,,,,,,,,,1,14,32,8,,,,,,,,,,,,,,,,,,,,,prac,,,,,,,,,,,,,,,,,,,,,,,,,,,,,,,,,,,,,,,,2,2,1,neutral,positive,1076.6628301,1076.6628301,1076.6628301,1076.6628301,1077.649085,1077.6816404,j,j,1,1.0787187999999333,1078.7423834,1078.7423834,1078.7423834,1078.7423834,1078.7423834,1078.7423834,,,,,,,,,,,313,2022-10-20_11h07.39.226,Main,2022.2.2,60.114036326863335,
neutral,neutral,2,k,k,1,0,1,0,0,0,0,0,,,,,,,,,,,,,,,,,,,,,,,,,1,15,33,10,,,,,,,,,,,,,,,,,,,,,prac,,,,,,,,,,,,,,,,,,,,,,,,,,,,,,,,,,,,,,,,2,2,2,neutral,neutral,1078.7423834,1078.7423834,1078.7423834,1078.7423834,1079.7328312,1079.7652610999999,k,k,1,0.8676274000004014,1080.6076982,1080.6076982,1080.6076982,1080.6076982,1080.6076982,1080.6076982,,,,,,,,,,,313,2022-10-20_11h07.39.226,Main,2022.2.2,60.114036326863335,
positive,neutral,2,k,k,1,0,1,0,0,0,0,0,,,,,,,,,,,,,,,,,,,,,,,,,1,16,34,13,,,,,,,,,,,,,,,,,,,,,prac,,,,,,,,,,,,,,,,,,,,,,,,,,,,,,,,,,,,,,,,2,2,2,positive,neutral,1080.6076982,1080.6076982,1080.6076982,1080.6076982,1081.6064814000001,1081.6363722,k,k,1,0.7760757999999441,1082.3924719000001,1082.3924719000001,1082.3924719000001,1082.3924719000001,1082.3924719000001,1082.3924719000001,,,,,,,,,,,313,2022-10-20_11h07.39.226,Main,2022.2.2,60.114036326863335,
negative,positive,1,l,j,1,0,1,0,0,0,0,0,,,,,,,,,,,,,,,,,,,,,,,,,1,17,35,5,,,,,,,,,,,,,,,,,,,,,prac,,,,,,,,,,,,,,,,,,,,,,,,,,,,,,,,,,,,,,,,2,2,1,negative,positive,1082.3924719000001,1082.3924719000001,1082.3924719000001,1082.3924719000001,1083.3674173999998,1083.4293966,j,j,1,0.8984128000001874,1084.29437,1084.29437,1084.29437,1084.29437,1084.29437,1084.29437,,,,,,,,,,,313,2022-10-20_11h07.39.226,Main,2022.2.2,60.114036326863335,
positive,negative,1,j,l,1,0,1,0,0,0,0,0,,,,,,,,,,,,,,,,,,,,,,,,,,,,,0,0,0,6,,,,,,,,,,,,,,,,,main,,,,,,,,,,,,,,,,,,,,,,,,,,,,,,,,,,,,,,,1085.6601726999997,2,2,1,positive,negative,1087.7260925,1087.7260925,1087.7260925,1087.7260925,1088.7245016000002,1088.7555449000001,l,l,1,0.9544055000001208,1089.6871501,1089.6871501,1089.6871501,1089.6871501,1089.6871501,1089.6871501,1084.29437,0.00016310000000885339,None,0.5981481481481481,-0.21666666666666667,0,0,0,,,313,2022-10-20_11h07.39.226,Main,2022.2.2,60.114036326863335,
neutral,positive,2,l,j,1,0,1,0,0,0,0,0,,,,,,,,,,,,,,,,,,,,,,,,,,,,,0,1,1,17,,,,,,,,,,,,,,,,,main,,,,,,,,,,,,,,,,,,,,,,,,,,,,,,,,,,,,,,,,2,2,2,neutral,positive,1089.6871501,1089.6871501,1089.6871501,1089.6871501,1090.6680867999999,1090.7301849,j,j,1,0.8277659999998832,1091.5187572,1091.5187572,1091.5187572,1091.5187572,1091.5187572,1091.5187572,,,,,,,,,,,313,2022-10-20_11h07.39.226,Main,2022.2.2,60.114036326863335,
positive,neutral,1,k,k,1,0,1,0,0,0,0,0,,,,,,,,,,,,,,,,,,,,,,,,,,,,,0,2,2,4,,,,,,,,,,,,,,,,,main,,,,,,,,,,,,,,,,,,,,,,,,,,,,,,,,,,,,,,,,2,2,1,positive,neutral,1091.5187572,1091.5187572,1091.5187572,1091.5187572,1092.5194047999998,1092.5487816999998,k,k,1,0.7749453999999787,1093.3036259,1093.3036259,1093.3036259,1093.3036259,1093.3036259,1093.3036259,,,,,,,,,,,313,2022-10-20_11h07.39.226,Main,2022.2.2,60.114036326863335,
