target,distractor,set,ans1,ans2,total_experiment.thisRepN,total_experiment.thisTrialN,total_experiment.thisN,total_experiment.thisIndex,boat.thisRepN,boat.thisTrialN,boat.thisN,boat.thisIndex,fl_rep_loop2.thisRepN,fl_rep_loop2.thisTrialN,fl_rep_loop2.thisN,fl_rep_loop2.thisIndex,flanker_prac_loop.thisRepN,flanker_prac_loop.thisTrialN,flanker_prac_loop.thisN,flanker_prac_loop.thisIndex,flanker_main_loop.thisRepN,flanker_main_loop.thisTrialN,flanker_main_loop.thisN,flanker_main_loop.thisIndex,flanker_rest.thisRepN,flanker_rest.thisTrialN,flanker_rest.thisN,flanker_rest.thisIndex,para.thisRepN,para.thisTrialN,para.thisN,para.thisIndex,para_rep_loop.thisRepN,para_rep_loop.thisTrialN,para_rep_loop.thisN,para_rep_loop.thisIndex,para_prac_loop.thisRepN,para_prac_loop.thisTrialN,para_prac_loop.thisN,para_prac_loop.thisIndex,para_main_loop.thisRepN,para_main_loop.thisTrialN,para_main_loop.thisN,para_main_loop.thisIndex,para_rest.thisRepN,para_rest.thisTrialN,para_rest.thisN,para_rest.thisIndex,fl_starter_back.started,fl_starter.started,fl_starter_text.started,fl_starter.keys,fl_starter.rt,fl_inst_resp.keys,fl_inst_resp.rt,fl_back.started,fl_mouse_prac.started,fl_mouse_prac.x,fl_mouse_prac.y,fl_mouse_prac.leftButton,fl_mouse_prac.midButton,fl_mouse_prac.rightButton,back_2.started,main_prac,fl_cold,fl_colt,fl_set,fl_dcond,fl_tcond,fl_fix.started,j_button.started,k_button.started,l_button.started,targ.started,fl_fix.stopped,fl_ans,fl_res,fl_corr,fl_rt,j_button2.started,k_button2.started,l_button2.started,j_button2.stopped,k_button2.stopped,l_button2.stopped,fl_mainback.started,fl_mouse_m.started,fl_key_resp.keys,fl_mouse_m.x,fl_mouse_m.y,fl_mouse_m.leftButton,fl_mouse_m.midButton,fl_mouse_m.rightButton,rest_text.started,rest_key.started,rest_inst_text.started,rest_time.started,rest_key.keys,exp_end_key.started,exp_end_back.started,exp_end_text.started,exp_end_key.keys,para_starter.started,para_starter_key.started,para_starter_key.keys,para_starter_key.rt,para_inst_sound.started,para_inst_key.keys,para_inst_key.rt,para_inst_image.started,para_prac_back.started,para_prac_text.started,para_fix_back.started,para_fix_2.started,para_back.started,st_ans,st_res,st_corr,st_rt,st2_resp.keys,st2_resp.corr,para_main_back.started,para_main_text.started,para_mouse.started,para_mouse.x,para_mouse.y,para_mouse.leftButton,para_mouse.midButton,para_mouse.rightButton,exp_end_key.rt,total_end_text.started,id*,date,expName,psychopyVersion,frameRate,
,,,,,0,0,0,0,0,0,0,0,0,0,0,0,,,,,,,,,,,,,,,,,,,,,,,,,,,,,,,,,59.50641819999987,59.50641819999987,61.493353899999875,space,3.013584900000069,space,54.86017800000013,118.44780530000003,,,,,,,,,,,,,,,,,,,,,,,,,,,,,,,,,,,,,,,,,,,,,,,,,,,,,,,,,,,,,,,,,,,,,,,,,,,,314,2022-11-02_11h35.29.661,Main,2022.2.2,60.67040800855385,
neutral,positive,2,k,k,0,0,0,0,0,0,0,0,,,,,0,0,0,13,,,,,,,,,,,,,,,,,,,,,,,,,,,,,,,,,,,,,0.004746400000158246,0.005555555555555556,-0.2537037037037037,0,0,0,121.74054819999992,prac,2,2,2,positive,neutral,123.90544720000003,123.90544720000003,123.90544720000003,123.90544720000003,124.88066709999998,124.95392249999986,k,k,1,8.164545500000031,133.06821300000001,133.06821300000001,133.06821300000001,134.11268819999987,134.11268819999987,134.11268819999987,,,,,,,,,,,,,,,,,,,,,,,,,,,,,,,,,,,,,,,,,,,,,,,314,2022-11-02_11h35.29.661,Main,2022.2.2,60.67040800855385,
negative,neutral,2,j,l,0,0,0,0,0,0,0,0,,,,,0,1,1,12,,,,,,,,,,,,,,,,,,,,,,,,,,,,,,,,,,,,,,,,,,,,prac,1,1,2,neutral,negative,134.11268819999987,134.11268819999987,134.11268819999987,134.11268819999987,135.08290999999986,135.14594739999984,j,j,1,2.445432100000062,137.5331546,137.5331546,137.5331546,138.58168780000005,138.58168780000005,138.58168780000005,,,,,,,,,,,,,,,,,,,,,,,,,,,,,,,,,,,,,,,,,,,,,,,314,2022-11-02_11h35.29.661,Main,2022.2.2,60.67040800855385,
positive,positive,1,l,j,0,0,0,0,0,0,0,0,,,,,0,2,2,2,,,,,,,,,,,,,,,,,,,,,,,,,,,,,,,,,,,,,,,,,,,,prac,2,2,1,positive,positive,138.58168780000005,138.58168780000005,138.58168780000005,138.58168780000005,139.5745895,139.60863089999998,l,l,1,1.576677600000039,141.13341409999998,141.13341409999998,141.13341409999998,142.17578479999997,142.17578479999997,142.17578479999997,,,,,,,,,,,,,,,,,,,,,,,,,,,,,,,,,,,,,,,,,,,,,,,314,2022-11-02_11h35.29.661,Main,2022.2.2,60.67040800855385,
negative,negative,1,j,l,0,0,0,0,0,0,0,0,,,,,0,3,3,0,,,,,,,,,,,,,,,,,,,,,,,,,,,,,,,,,,,,,,,,,,,,prac,1,1,1,negative,negative,142.17578479999997,142.17578479999997,142.17578479999997,142.17578479999997,143.1765370999999,143.2143747,j,j,1,2.1170296000000235,145.26844600000004,145.26844600000004,145.26844600000004,146.3102770999999,146.3102770999999,146.3102770999999,,,,,,,,,,,,,,,,,,,,,,,,,,,,,,,,,,,,,,,,,,,,,,,314,2022-11-02_11h35.29.661,Main,2022.2.2,60.67040800855385,
neutral,positive,1,k,k,0,0,0,0,0,0,0,0,,,,,0,4,4,4,,,,,,,,,,,,,,,,,,,,,,,,,,,,,,,,,,,,,,,,,,,,prac,2,2,1,positive,neutral,146.3102770999999,146.3102770999999,146.3102770999999,146.3102770999999,147.28126599999996,147.35125870000002,k,k,1,1.3296781000001374,148.64379129999998,148.64379129999998,148.64379129999998,148.64379129999998,148.64379129999998,148.64379129999998,,,,,,,,,,,,,,,,,,,,,,,,,,,,,,,,,,,,,,,,,,,,,,,314,2022-11-02_11h35.29.661,Main,2022.2.2,60.67040800855385,
negative,positive,1,j,l,0,0,0,0,0,0,0,0,,,,,0,5,5,6,,,,,,,,,,,,,,,,,,,,,,,,,,,,,,,,,,,,,,,,,,,,prac,2,2,1,positive,negative,148.64379129999998,148.64379129999998,148.64379129999998,148.64379129999998,149.63109259999987,149.66381539999998,j,k,0,1.835375799999838,151.4762108,151.4762108,151.4762108,152.51123949999987,152.51123949999987,152.51123949999987,,,,,,,,,,,,,,,,,,,,,,,,,,,,,,,,,,,,,,,,,,,,,,,314,2022-11-02_11h35.29.661,Main,2022.2.2,60.67040800855385,
neutral,negative,2,k,k,0,0,0,0,0,0,0,0,,,,,0,6,6,16,,,,,,,,,,,,,,,,,,,,,,,,,,,,,,,,,,,,,,,,,,,,prac,1,1,2,negative,neutral,152.51123949999987,152.51123949999987,152.51123949999987,152.51123949999987,153.52059599999984,153.57383519999985,k,k,1,1.335548000000017,154.8527486999999,154.8527486999999,154.8527486999999,154.8527486999999,154.8527486999999,154.8527486999999,,,,,,,,,,,,,,,,,,,,,,,,,,,,,,,,,,,,,,,,,,,,,,,314,2022-11-02_11h35.29.661,Main,2022.2.2,60.67040800855385,
negative,negative,2,j,l,0,0,0,0,0,0,0,0,,,,,0,7,7,9,,,,,,,,,,,,,,,,,,,,,,,,,,,,,,,,,,,,,,,,,,,,prac,2,2,2,negative,negative,154.8527486999999,154.8527486999999,154.8527486999999,154.8527486999999,155.8502719999999,155.88283269999988,j,j,1,1.3103903000001083,157.16725509999992,157.16725509999992,157.16725509999992,157.16725509999992,157.16725509999992,157.16725509999992,,,,,,,,,,,,,,,,,,,,,,,,,,,,,,,,,,,,,,,,,,,,,,,314,2022-11-02_11h35.29.661,Main,2022.2.2,60.67040800855385,
neutral,negative,1,k,k,0,0,0,0,0,0,0,0,,,,,0,8,8,7,,,,,,,,,,,,,,,,,,,,,,,,,,,,,,,,,,,,,,,,,,,,prac,2,2,1,negative,neutral,157.16725509999992,157.16725509999992,157.16725509999992,157.16725509999992,158.14093890000004,158.20730779999985,k,k,1,1.0889329999999973,159.2554513,159.2554513,159.2554513,159.2554513,159.2554513,159.2554513,,,,,,,,,,,,,,,,,,,,,,,,,,,,,,,,,,,,,,,,,,,,,,,314,2022-11-02_11h35.29.661,Main,2022.2.2,60.67040800855385,
positive,neutral,1,l,j,0,0,0,0,0,0,0,0,,,,,0,9,9,8,,,,,,,,,,,,,,,,,,,,,,,,,,,,,,,,,,,,,,,,,,,,prac,2,2,1,neutral,positive,159.2554513,159.2554513,159.2554513,159.2554513,160.23659129999987,160.30569100000002,l,l,1,1.2312271000000692,161.49107860000004,161.49107860000004,161.49107860000004,161.49107860000004,161.49107860000004,161.49107860000004,,,,,,,,,,,,,,,,,,,,,,,,,,,,,,,,,,,,,,,,,,,,,,,314,2022-11-02_11h35.29.661,Main,2022.2.2,60.67040800855385,
negative,neutral,1,j,l,0,0,0,0,0,0,0,0,,,,,0,10,10,3,,,,,,,,,,,,,,,,,,,,,,,,,,,,,,,,,,,,,,,,,,,,prac,1,1,1,neutral,negative,161.49107860000004,161.49107860000004,161.49107860000004,161.49107860000004,162.47202289999996,162.5399187999999,j,j,1,1.48454189999984,163.9763688999999,163.9763688999999,163.9763688999999,163.9763688999999,163.9763688999999,163.9763688999999,,,,,,,,,,,,,,,,,,,,,,,,,,,,,,,,,,,,,,,,,,,,,,,314,2022-11-02_11h35.29.661,Main,2022.2.2,60.67040800855385,
positive,positive,2,l,j,0,0,0,0,0,0,0,0,,,,,0,11,11,11,,,,,,,,,,,,,,,,,,,,,,,,,,,,,,,,,,,,,,,,,,,,prac,2,2,2,positive,positive,163.9763688999999,163.9763688999999,163.9763688999999,163.9763688999999,164.95247889999996,165.01783520000004,l,l,1,1.3601092000001245,166.33640079999986,166.33640079999986,166.33640079999986,166.33640079999986,166.33640079999986,166.33640079999986,,,,,,,,,,,,,,,,,,,,,,,,,,,,,,,,,,,,,,,,,,,,,,,314,2022-11-02_11h35.29.661,Main,2022.2.2,60.67040800855385,
neutral,neutral,1,k,k,0,0,0,0,0,0,0,0,,,,,0,12,12,1,,,,,,,,,,,,,,,,,,,,,,,,,,,,,,,,,,,,,,,,,,,,prac,1,1,1,neutral,neutral,166.33640079999986,166.33640079999986,166.33640079999986,166.33640079999986,167.32578250000006,167.36177359999988,k,k,1,1.1299553999999716,168.51492319999988,168.51492319999988,168.51492319999988,168.51492319999988,168.51492319999988,168.51492319999988,,,,,,,,,,,,,,,,,,,,,,,,,,,,,,,,,,,,,,,,,,,,,,,314,2022-11-02_11h35.29.661,Main,2022.2.2,60.67040800855385,
positive,neutral,2,l,j,0,0,0,0,0,0,0,0,,,,,0,13,13,17,,,,,,,,,,,,,,,,,,,,,,,,,,,,,,,,,,,,,,,,,,,,prac,1,1,2,neutral,positive,168.51492319999988,168.51492319999988,168.51492319999988,168.51492319999988,169.46645409999996,169.53236379999998,l,l,1,1.4788370999999643,170.94858139999997,170.94858139999997,170.94858139999997,170.94858139999997,170.94858139999997,170.94858139999997,,,,,,,,,,,,,,,,,,,,,,,,,,,,,,,,,,,,,,,,,,,,,,,314,2022-11-02_11h35.29.661,Main,2022.2.2,60.67040800855385,
positive,negative,2,l,j,0,0,0,0,0,0,0,0,,,,,0,14,14,14,,,,,,,,,,,,,,,,,,,,,,,,,,,,,,,,,,,,,,,,,,,,prac,2,2,2,negative,positive,170.94858139999997,170.94858139999997,170.94858139999997,170.94858139999997,171.92651899999987,171.99490939999987,l,l,1,1.0969654000000446,173.05257630000006,173.05257630000006,173.05257630000006,173.05257630000006,173.05257630000006,173.05257630000006,,,,,,,,,,,,,,,,,,,,,,,,,,,,,,,,,,,,,,,,,,,,,,,314,2022-11-02_11h35.29.661,Main,2022.2.2,60.67040800855385,
neutral,neutral,2,k,k,0,0,0,0,0,0,0,0,,,,,0,15,15,10,,,,,,,,,,,,,,,,,,,,,,,,,,,,,,,,,,,,,,,,,,,,prac,2,2,2,neutral,neutral,173.05257630000006,173.05257630000006,173.05257630000006,173.05257630000006,174.02641129999984,174.09474090000003,k,k,1,1.1870108999999047,175.2366070999999,175.2366070999999,175.2366070999999,175.2366070999999,175.2366070999999,175.2366070999999,,,,,,,,,,,,,,,,,,,,,,,,,,,,,,,,,,,,,,,,,,,,,,,314,2022-11-02_11h35.29.661,Main,2022.2.2,60.67040800855385,
negative,positive,2,j,l,0,0,0,0,0,0,0,0,,,,,0,16,16,15,,,,,,,,,,,,,,,,,,,,,,,,,,,,,,,,,,,,,,,,,,,,prac,1,1,2,positive,negative,175.2366070999999,175.2366070999999,175.2366070999999,175.2366070999999,176.23848049999992,176.27396739999995,j,j,1,1.5842523999999685,177.7994245,177.7994245,177.7994245,178.8417981,178.8417981,178.8417981,,,,,,,,,,,,,,,,,,,,,,,,,,,,,,,,,,,,,,,,,,,,,,,314,2022-11-02_11h35.29.661,Main,2022.2.2,60.67040800855385,
positive,negative,1,l,j,0,0,0,0,0,0,0,0,,,,,0,17,17,5,,,,,,,,,,,,,,,,,,,,,,,,,,,,,,,,,,,,,,,,,,,,prac,2,2,1,negative,positive,178.8417981,178.8417981,178.8417981,178.8417981,179.8358530999999,179.8702060999999,l,j,0,1.9162295999999515,181.74443889999998,181.74443889999998,181.74443889999998,182.79021799999987,182.79021799999987,182.79021799999987,,,,,,,,,,,,,,,,,,,,,,,,,,,,,,,,,,,,,,,,,,,,,,,314,2022-11-02_11h35.29.661,Main,2022.2.2,60.67040800855385,
positive,negative,2,l,j,0,0,0,0,0,0,0,0,,,,,1,0,18,14,,,,,,,,,,,,,,,,,,,,,,,,,,,,,,,,,,,,,,,,,,,,prac,2,2,2,negative,positive,182.79021799999987,182.79021799999987,182.79021799999987,182.79021799999987,183.77762009999992,183.8120217999999,l,l,1,1.5171712999999727,185.28726110000002,185.28726110000002,185.28726110000002,186.33134539999992,186.33134539999992,186.33134539999992,,,,,,,,,,,,,,,,,,,,,,,,,,,,,,,,,,,,,,,,,,,,,,,314,2022-11-02_11h35.29.661,Main,2022.2.2,60.67040800855385,
positive,positive,1,l,j,0,0,0,0,0,0,0,0,,,,,1,1,19,2,,,,,,,,,,,,,,,,,,,,,,,,,,,,,,,,,,,,,,,,,,,,prac,2,2,1,positive,positive,186.33134539999992,186.33134539999992,186.33134539999992,186.33134539999992,187.31088060000002,187.3863879999999,l,l,1,1.4331119999999373,188.76943649999998,188.76943649999998,188.76943649999998,188.76943649999998,188.76943649999998,188.76943649999998,,,,,,,,,,,,,,,,,,,,,,,,,,,,,,,,,,,,,,,,,,,,,,,314,2022-11-02_11h35.29.661,Main,2022.2.2,60.67040800855385,
neutral,neutral,1,k,k,0,0,0,0,0,0,0,0,,,,,1,2,20,1,,,,,,,,,,,,,,,,,,,,,,,,,,,,,,,,,,,,,,,,,,,,prac,1,1,1,neutral,neutral,188.76943649999998,188.76943649999998,188.76943649999998,188.76943649999998,189.7582422999999,189.79438379999988,k,k,1,1.227096099999926,191.00374820000002,191.00374820000002,191.00374820000002,191.00374820000002,191.00374820000002,191.00374820000002,,,,,,,,,,,,,,,,,,,,,,,,,,,,,,,,,,,,,,,,,,,,,,,314,2022-11-02_11h35.29.661,Main,2022.2.2,60.67040800855385,
neutral,negative,1,k,k,0,0,0,0,0,0,0,0,,,,,1,3,21,7,,,,,,,,,,,,,,,,,,,,,,,,,,,,,,,,,,,,,,,,,,,,prac,2,2,1,negative,neutral,191.00374820000002,191.00374820000002,191.00374820000002,191.00374820000002,191.99661969999988,192.0333427999999,k,k,1,1.0477258999999322,193.05512269999986,193.05512269999986,193.05512269999986,193.05512269999986,193.05512269999986,193.05512269999986,,,,,,,,,,,,,,,,,,,,,,,,,,,,,,,,,,,,,,,,,,,,,,,314,2022-11-02_11h35.29.661,Main,2022.2.2,60.67040800855385,
neutral,positive,2,k,k,0,0,0,0,0,0,0,0,,,,,1,4,22,13,,,,,,,,,,,,,,,,,,,,,,,,,,,,,,,,,,,,,,,,,,,,prac,2,2,2,positive,neutral,193.05512269999986,193.05512269999986,193.05512269999986,193.05512269999986,194.04603599999996,194.08169869999983,k,k,1,1.1920036999999866,195.24437650000004,195.24437650000004,195.24437650000004,195.24437650000004,195.24437650000004,195.24437650000004,,,,,,,,,,,,,,,,,,,,,,,,,,,,,,,,,,,,,,,,,,,,,,,314,2022-11-02_11h35.29.661,Main,2022.2.2,60.67040800855385,
positive,neutral,1,l,j,0,0,0,0,0,0,0,0,,,,,1,5,23,8,,,,,,,,,,,,,,,,,,,,,,,,,,,,,,,,,,,,,,,,,,,,prac,2,2,1,neutral,positive,195.24437650000004,195.24437650000004,195.24437650000004,195.24437650000004,196.24576049999996,196.28190099999983,l,l,1,1.2040716999999859,197.45125110000004,197.45125110000004,197.45125110000004,197.45125110000004,197.45125110000004,197.45125110000004,,,,,,,,,,,,,,,,,,,,,,,,,,,,,,,,,,,,,,,,,,,,,,,314,2022-11-02_11h35.29.661,Main,2022.2.2,60.67040800855385,
negative,neutral,2,j,l,0,0,0,0,0,0,0,0,,,,,1,6,24,12,,,,,,,,,,,,,,,,,,,,,,,,,,,,,,,,,,,,,,,,,,,,prac,2,2,2,neutral,negative,197.45125110000004,197.45125110000004,197.45125110000004,197.45125110000004,198.42844909999985,198.49698639999997,j,j,1,1.1283029999999599,199.58035229999996,199.58035229999996,199.58035229999996,199.58035229999996,199.58035229999996,199.58035229999996,,,,,,,,,,,,,,,,,,,,,,,,,,,,,,,,,,,,,,,,,,,,,,,314,2022-11-02_11h35.29.661,Main,2022.2.2,60.67040800855385,
neutral,negative,2,k,k,0,0,0,0,0,0,0,0,,,,,1,7,25,16,,,,,,,,,,,,,,,,,,,,,,,,,,,,,,,,,,,,,,,,,,,,prac,1,1,2,negative,neutral,199.58035229999996,199.58035229999996,199.58035229999996,199.58035229999996,200.56191620000004,200.63273860000004,k,k,1,1.060499499999878,201.64360859999988,201.64360859999988,201.64360859999988,201.64360859999988,201.64360859999988,201.64360859999988,,,,,,,,,,,,,,,,,,,,,,,,,,,,,,,,,,,,,,,,,,,,,,,314,2022-11-02_11h35.29.661,Main,2022.2.2,60.67040800855385,
positive,positive,2,l,j,0,0,0,0,0,0,0,0,,,,,1,8,26,11,,,,,,,,,,,,,,,,,,,,,,,,,,,,,,,,,,,,,,,,,,,,prac,1,1,2,positive,positive,201.64360859999988,201.64360859999988,201.64360859999988,201.64360859999988,202.62552819999996,202.69895139999994,l,l,1,0.9899419999999282,203.63208199999985,203.63208199999985,203.63208199999985,203.63208199999985,203.63208199999985,203.63208199999985,,,,,,,,,,,,,,,,,,,,,,,,,,,,,,,,,,,,,,,,,,,,,,,314,2022-11-02_11h35.29.661,Main,2022.2.2,60.67040800855385,
negative,neutral,1,j,l,0,0,0,0,0,0,0,0,,,,,1,9,27,3,,,,,,,,,,,,,,,,,,,,,,,,,,,,,,,,,,,,,,,,,,,,prac,1,1,1,neutral,negative,203.63208199999985,203.63208199999985,203.63208199999985,203.63208199999985,204.62168870000005,204.65797010000006,j,j,1,1.4996954000000642,206.1394894,206.1394894,206.1394894,206.1394894,206.1394894,206.1394894,,,,,,,,,,,,,,,,,,,,,,,,,,,,,,,,,,,,,,,,,,,,,,,314,2022-11-02_11h35.29.661,Main,2022.2.2,60.67040800855385,
negative,positive,2,j,l,0,0,0,0,0,0,0,0,,,,,1,10,28,15,,,,,,,,,,,,,,,,,,,,,,,,,,,,,,,,,,,,,,,,,,,,prac,2,2,2,positive,negative,206.1394894,206.1394894,206.1394894,206.1394894,207.117569,207.19075229999999,j,j,1,1.26603329999989,208.40830170000004,208.40830170000004,208.40830170000004,208.40830170000004,208.40830170000004,208.40830170000004,,,,,,,,,,,,,,,,,,,,,,,,,,,,,,,,,,,,,,,,,,,,,,,314,2022-11-02_11h35.29.661,Main,2022.2.2,60.67040800855385,
negative,negative,2,j,l,0,0,0,0,0,0,0,0,,,,,1,11,29,9,,,,,,,,,,,,,,,,,,,,,,,,,,,,,,,,,,,,,,,,,,,,prac,2,2,2,negative,negative,208.40830170000004,208.40830170000004,208.40830170000004,208.40830170000004,209.38499679999995,209.45642279999993,j,j,1,1.0093372000001182,210.4208432999999,210.4208432999999,210.4208432999999,210.4208432999999,210.4208432999999,210.4208432999999,,,,,,,,,,,,,,,,,,,,,,,,,,,,,,,,,,,,,,,,,,,,,,,314,2022-11-02_11h35.29.661,Main,2022.2.2,60.67040800855385,
neutral,positive,1,k,k,0,0,0,0,0,0,0,0,,,,,1,12,30,4,,,,,,,,,,,,,,,,,,,,,,,,,,,,,,,,,,,,,,,,,,,,prac,1,1,1,positive,neutral,210.4208432999999,210.4208432999999,210.4208432999999,210.4208432999999,211.39713189999998,211.46118449999994,k,k,1,1.0613609000001816,212.48461709999992,212.48461709999992,212.48461709999992,212.48461709999992,212.48461709999992,212.48461709999992,,,,,,,,,,,,,,,,,,,,,,,,,,,,,,,,,,,,,,,,,,,,,,,314,2022-11-02_11h35.29.661,Main,2022.2.2,60.67040800855385,
negative,positive,1,j,l,0,0,0,0,0,0,0,0,,,,,1,13,31,6,,,,,,,,,,,,,,,,,,,,,,,,,,,,,,,,,,,,,,,,,,,,prac,1,1,1,positive,negative,212.48461709999992,212.48461709999992,212.48461709999992,212.48461709999992,213.45814769999993,213.52473129999998,j,j,1,1.2757156999998642,214.75586009999984,214.75586009999984,214.75586009999984,214.75586009999984,214.75586009999984,214.75586009999984,,,,,,,,,,,,,,,,,,,,,,,,,,,,,,,,,,,,,,,,,,,,,,,314,2022-11-02_11h35.29.661,Main,2022.2.2,60.67040800855385,
positive,neutral,2,l,j,0,0,0,0,0,0,0,0,,,,,1,14,32,17,,,,,,,,,,,,,,,,,,,,,,,,,,,,,,,,,,,,,,,,,,,,prac,2,2,2,neutral,positive,214.75586009999984,214.75586009999984,214.75586009999984,214.75586009999984,215.75484979999987,215.78664149999986,l,l,1,1.334803299999976,217.09350419999987,217.09350419999987,217.09350419999987,217.09350419999987,217.09350419999987,217.09350419999987,,,,,,,,,,,,,,,,,,,,,,,,,,,,,,,,,,,,,,,,,,,,,,,314,2022-11-02_11h35.29.661,Main,2022.2.2,60.67040800855385,
neutral,neutral,2,k,k,0,0,0,0,0,0,0,0,,,,,1,15,33,10,,,,,,,,,,,,,,,,,,,,,,,,,,,,,,,,,,,,,,,,,,,,prac,2,2,2,neutral,neutral,217.09350419999987,217.09350419999987,217.09350419999987,217.09350419999987,218.09028379999995,218.12512259999994,k,k,1,1.0743660999999065,219.16951229999995,219.16951229999995,219.16951229999995,219.16951229999995,219.16951229999995,219.16951229999995,,,,,,,,,,,,,,,,,,,,,,,,,,,,,,,,,,,,,,,,,,,,,,,314,2022-11-02_11h35.29.661,Main,2022.2.2,60.67040800855385,
negative,negative,1,j,l,0,0,0,0,0,0,0,0,,,,,1,16,34,0,,,,,,,,,,,,,,,,,,,,,,,,,,,,,,,,,,,,,,,,,,,,prac,2,2,1,negative,negative,219.16951229999995,219.16951229999995,219.16951229999995,219.16951229999995,220.15131410000004,220.21681399999989,j,j,1,1.4834250000001248,221.65715350000005,221.65715350000005,221.65715350000005,221.65715350000005,221.65715350000005,221.65715350000005,,,,,,,,,,,,,,,,,,,,,,,,,,,,,,,,,,,,,,,,,,,,,,,314,2022-11-02_11h35.29.661,Main,2022.2.2,60.67040800855385,
positive,negative,1,l,j,0,0,0,0,0,0,0,0,,,,,1,17,35,5,,,,,,,,,,,,,,,,,,,,,,,,,,,,,,,,,,,,,,,,,,,,prac,1,1,1,negative,positive,221.65715350000005,221.65715350000005,221.65715350000005,221.65715350000005,222.63873990000002,222.7091714999999,l,l,1,1.1043899000001147,223.74259400000005,223.74259400000005,223.74259400000005,223.74259400000005,223.74259400000005,223.74259400000005,,,,,,,,,,,,,,,,,,,,,,,,,,,,,,,,,,,,,,,,,,,,,,,314,2022-11-02_11h35.29.661,Main,2022.2.2,60.67040800855385,
negative,negative,1,j,l,0,0,0,0,0,0,0,0,,,,,,,,,0,0,0,0,,,,,,,,,,,,,,,,,,,,,,,,,,,,,,,,,,,,,,,229.12755629999992,main,1,1,1,negative,negative,231.18806659999996,231.18806659999996,231.18806659999996,231.18806659999996,232.18703809999988,232.2217596999999,j,j,1,1.3625661000000946,233.56214290000003,233.56214290000003,233.56214290000003,233.56214290000003,233.56214290000003,233.56214290000003,223.74259400000005,0.00022749999993720849,None,0.5361111111111111,-0.2712962962962963,0,0,0,,,,,,,,,,,,,,,,,,,,,,,,,,,,,,,,,,,,,,,314,2022-11-02_11h35.29.661,Main,2022.2.2,60.67040800855385,
neutral,negative,2,k,k,0,0,0,0,0,0,0,0,,,,,,,,,0,1,1,16,,,,,,,,,,,,,,,,,,,,,,,,,,,,,,,,,,,,,,,,main,2,2,2,negative,neutral,233.56214290000003,233.56214290000003,233.56214290000003,233.56214290000003,234.53938049999988,234.61207509999986,k,k,1,1.0524215000000368,235.61077849999992,235.61077849999992,235.61077849999992,235.61077849999992,235.61077849999992,235.61077849999992,,,,,,,,,,,,,,,,,,,,,,,,,,,,,,,,,,,,,,,,,,,,,,,314,2022-11-02_11h35.29.661,Main,2022.2.2,60.67040800855385,
positive,neutral,1,l,j,0,0,0,0,0,0,0,0,,,,,,,,,0,2,2,8,,,,,,,,,,,,,,,,,,,,,,,,,,,,,,,,,,,,,,,,main,2,2,1,neutral,positive,235.61077849999992,235.61077849999992,235.61077849999992,235.61077849999992,236.59894629999985,236.63376889999995,l,l,1,1.3251497999999629,237.94193299999984,237.94193299999984,237.94193299999984,237.94193299999984,237.94193299999984,237.94193299999984,,,,,,,,,,,,,,,,,,,,,,,,,,,,,,,,,,,,,,,,,,,,,,,314,2022-11-02_11h35.29.661,Main,2022.2.2,60.67040800855385,
neutral,positive,2,k,k,0,0,0,0,0,0,0,0,,,,,,,,,0,3,3,13,,,,,,,,,,,,,,,,,,,,,,,,,,,,,,,,,,,,,,,,main,2,2,2,positive,neutral,237.94193299999984,237.94193299999984,237.94193299999984,237.94193299999984,238.9143262,238.98316509999995,k,k,1,1.0277760000001308,239.96955460000004,239.96955460000004,239.96955460000004,239.96955460000004,239.96955460000004,239.96955460000004,,,,,,,,,,,,,,,,,,,,,,,,,,,,,,,,,,,,,,,,,,,,,,,314,2022-11-02_11h35.29.661,Main,2022.2.2,60.67040800855385,
neutral,neutral,1,k,k,0,0,0,0,0,0,0,0,,,,,,,,,0,4,4,1,,,,,,,,,,,,,,,,,,,,,,,,,,,,,,,,,,,,,,,,main,1,1,1,neutral,neutral,239.96955460000004,239.96955460000004,239.96955460000004,239.96955460000004,240.95728039999995,240.98918430000003,k,k,1,1.061950300000035,242.03750089999994,242.03750089999994,242.03750089999994,242.03750089999994,242.03750089999994,242.03750089999994,,,,,,,,,,,,,,,,,,,,,,,,,,,,,,,,,,,,,,,,,,,,,,,314,2022-11-02_11h35.29.661,Main,2022.2.2,60.67040800855385,
positive,positive,2,l,j,0,0,0,0,0,0,0,0,,,,,,,,,0,5,5,11,,,,,,,,,,,,,,,,,,,,,,,,,,,,,,,,,,,,,,,,main,2,2,2,positive,positive,242.03750089999994,242.03750089999994,242.03750089999994,242.03750089999994,243.01908189999995,243.08542709999983,l,l,1,1.1273045000000366,244.16319139999996,244.16319139999996,244.16319139999996,244.16319139999996,244.16319139999996,244.16319139999996,,,,,,,,,,,,,,,,,,,,,,,,,,,,,,,,,,,,,,,,,,,,,,,314,2022-11-02_11h35.29.661,Main,2022.2.2,60.67040800855385,
positive,neutral,2,l,j,0,0,0,0,0,0,0,0,,,,,,,,,0,6,6,17,,,,,,,,,,,,,,,,,,,,,,,,,,,,,,,,,,,,,,,,main,2,2,2,neutral,positive,244.16319139999996,244.16319139999996,244.16319139999996,244.16319139999996,245.14063379999993,245.2096790999999,l,l,1,1.0030185000000529,246.17377239999996,246.17377239999996,246.17377239999996,246.17377239999996,246.17377239999996,246.17377239999996,,,,,,,,,,,,,,,,,,,,,,,,,,,,,,,,,,,,,,,,,,,,,,,314,2022-11-02_11h35.29.661,Main,2022.2.2,60.67040800855385,
neutral,negative,1,k,k,0,0,0,0,0,0,0,0,,,,,,,,,0,7,7,7,,,,,,,,,,,,,,,,,,,,,,,,,,,,,,,,,,,,,,,,main,1,1,1,negative,neutral,246.17377239999996,246.17377239999996,246.17377239999996,246.17377239999996,247.1510785999999,247.22326679999992,k,k,1,1.0179313000001002,248.1970647999999,248.1970647999999,248.1970647999999,248.1970647999999,248.1970647999999,248.1970647999999,,,,,,,,,,,,,,,,,,,,,,,,,,,,,,,,,,,,,,,,,,,,,,,314,2022-11-02_11h35.29.661,Main,2022.2.2,60.67040800855385,
positive,negative,1,l,j,0,0,0,0,0,0,0,0,,,,,,,,,0,8,8,5,,,,,,,,,,,,,,,,,,,,,,,,,,,,,,,,,,,,,,,,main,1,1,1,negative,positive,248.1970647999999,248.1970647999999,248.1970647999999,248.1970647999999,249.1879363999999,249.22199439999986,l,l,1,1.1267351999999846,250.3187329,250.3187329,250.3187329,250.3187329,250.3187329,250.3187329,,,,,,,,,,,,,,,,,,,,,,,,,,,,,,,,,,,,,,,,,,,,,,,314,2022-11-02_11h35.29.661,Main,2022.2.2,60.67040800855385,
neutral,neutral,2,k,k,0,0,0,0,0,0,0,0,,,,,,,,,0,9,9,10,,,,,,,,,,,,,,,,,,,,,,,,,,,,,,,,,,,,,,,,main,1,1,2,neutral,neutral,250.3187329,250.3187329,250.3187329,250.3187329,251.30376039999987,251.3363078,k,k,1,1.0142668999999387,252.34171500000002,252.34171500000002,252.34171500000002,252.34171500000002,252.34171500000002,252.34171500000002,,,,,,,,,,,,,,,,,,,,,,,,,,,,,,,,,,,,,,,,,,,,,,,314,2022-11-02_11h35.29.661,Main,2022.2.2,60.67040800855385,
negative,positive,1,j,l,0,0,0,0,0,0,0,0,,,,,,,,,0,10,10,6,,,,,,,,,,,,,,,,,,,,,,,,,,,,,,,,,,,,,,,,main,2,2,1,positive,negative,252.34171500000002,252.34171500000002,252.34171500000002,252.34171500000002,253.3133972999999,253.37936390000004,j,l,0,1.8254369999999653,255.1466309,255.1466309,255.1466309,256.18522729999995,256.18522729999995,256.18522729999995,,,,,,,,,,,,,,,,,,,,,,,,,,,,,,,,,,,,,,,,,,,,,,,314,2022-11-02_11h35.29.661,Main,2022.2.2,60.67040800855385,
negative,negative,2,j,l,0,0,0,0,0,0,0,0,,,,,,,,,0,11,11,9,,,,,,,,,,,,,,,,,,,,,,,,,,,,,,,,,,,,,,,,main,1,1,2,negative,negative,256.18522729999995,256.18522729999995,256.18522729999995,256.18522729999995,257.16885490000004,257.2074892999999,j,j,1,1.171391099999937,258.35571979999986,258.35571979999986,258.35571979999986,258.35571979999986,258.35571979999986,258.35571979999986,,,,,,,,,,,,,,,,,,,,,,,,,,,,,,,,,,,,,,,,,,,,,,,314,2022-11-02_11h35.29.661,Main,2022.2.2,60.67040800855385,
positive,negative,2,l,j,0,0,0,0,0,0,0,0,,,,,,,,,0,12,12,14,,,,,,,,,,,,,,,,,,,,,,,,,,,,,,,,,,,,,,,,main,1,1,2,negative,positive,258.35571979999986,258.35571979999986,258.35571979999986,258.35571979999986,259.35575619999986,259.39520019999986,l,l,1,1.0472925999999916,260.41000299999996,260.41000299999996,260.41000299999996,260.41000299999996,260.41000299999996,260.41000299999996,,,,,,,,,,,,,,,,,,,,,,,,,,,,,,,,,,,,,,,,,,,,,,,314,2022-11-02_11h35.29.661,Main,2022.2.2,60.67040800855385,
negative,neutral,1,j,l,0,0,0,0,0,0,0,0,,,,,,,,,0,13,13,3,,,,,,,,,,,,,,,,,,,,,,,,,,,,,,,,,,,,,,,,main,2,2,1,neutral,negative,260.41000299999996,260.41000299999996,260.41000299999996,260.41000299999996,261.40950969999994,261.4424354999999,j,j,1,1.1405721999999514,262.54987630000005,262.54987630000005,262.54987630000005,262.54987630000005,262.54987630000005,262.54987630000005,,,,,,,,,,,,,,,,,,,,,,,,,,,,,,,,,,,,,,,,,,,,,,,314,2022-11-02_11h35.29.661,Main,2022.2.2,60.67040800855385,
positive,positive,1,l,j,0,0,0,0,0,0,0,0,,,,,,,,,0,14,14,2,,,,,,,,,,,,,,,,,,,,,,,,,,,,,,,,,,,,,,,,main,2,2,1,positive,positive,262.54987630000005,262.54987630000005,262.54987630000005,262.54987630000005,263.52484489999983,263.59475,l,l,1,0.9799982999998065,264.5352576,264.5352576,264.5352576,264.5352576,264.5352576,264.5352576,,,,,,,,,,,,,,,,,,,,,,,,,,,,,,,,,,,,,,,,,,,,,,,314,2022-11-02_11h35.29.661,Main,2022.2.2,60.67040800855385,
neutral,positive,1,k,k,0,0,0,0,0,0,0,0,,,,,,,,,0,15,15,4,,,,,,,,,,,,,,,,,,,,,,,,,,,,,,,,,,,,,,,,main,2,2,1,positive,neutral,264.5352576,264.5352576,264.5352576,264.5352576,265.52810929999987,265.5694194,k,k,1,0.9773056999999881,266.51443159999985,266.51443159999985,266.51443159999985,266.51443159999985,266.51443159999985,266.51443159999985,,,,,,,,,,,,,,,,,,,,,,,,,,,,,,,,,,,,,,,,,,,,,,,314,2022-11-02_11h35.29.661,Main,2022.2.2,60.67040800855385,
negative,neutral,2,j,l,0,0,0,0,0,0,0,0,,,,,,,,,0,16,16,12,,,,,,,,,,,,,,,,,,,,,,,,,,,,,,,,,,,,,,,,main,1,1,2,neutral,negative,266.51443159999985,266.51443159999985,266.51443159999985,266.51443159999985,267.50531,267.5390849999999,j,j,1,1.0962729000000309,268.6116835999999,268.6116835999999,268.6116835999999,268.6116835999999,268.6116835999999,268.6116835999999,,,,,,,,,,,,,,,,,,,,,,,,,,,,,,,,,,,,,,,,,,,,,,,314,2022-11-02_11h35.29.661,Main,2022.2.2,60.67040800855385,
negative,positive,2,j,l,0,0,0,0,0,0,0,0,,,,,,,,,0,17,17,15,,,,,,,,,,,,,,,,,,,,,,,,,,,,,,,,,,,,,,,,main,2,2,2,positive,negative,268.6116835999999,268.6116835999999,268.6116835999999,268.6116835999999,269.60275090000005,269.63940090000006,j,j,1,1.0595782000000327,270.67771429999993,270.67771429999993,270.67771429999993,270.67771429999993,270.67771429999993,270.67771429999993,,,,,,,,,,,,,,,,,,,,,,,,,,,,,,,,,,,,,,,,,,,,,,,314,2022-11-02_11h35.29.661,Main,2022.2.2,60.67040800855385,
positive,neutral,2,l,j,0,0,0,0,0,0,0,0,,,,,,,,,1,0,18,17,,,,,,,,,,,,,,,,,,,,,,,,,,,,,,,,,,,,,,,,main,1,1,2,neutral,positive,270.67771429999993,270.67771429999993,270.67771429999993,270.67771429999993,271.65638880000006,271.72302390000004,l,l,1,1.0463910000000851,272.72675230000004,272.72675230000004,272.72675230000004,272.72675230000004,272.72675230000004,272.72675230000004,,,,,,,,,,,,,,,,,,,,,,,,,,,,,,,,,,,,,,,,,,,,,,,314,2022-11-02_11h35.29.661,Main,2022.2.2,60.67040800855385,
neutral,neutral,2,k,k,0,0,0,0,0,0,0,0,,,,,,,,,1,1,19,10,,,,,,,,,,,,,,,,,,,,,,,,,,,,,,,,,,,,,,,,main,2,2,2,neutral,neutral,272.72675230000004,272.72675230000004,272.72675230000004,272.72675230000004,273.70061609999993,273.77030509999986,k,k,1,0.9289805999999317,274.65824810000004,274.65824810000004,274.65824810000004,274.65824810000004,274.65824810000004,274.65824810000004,,,,,,,,,,,,,,,,,,,,,,,,,,,,,,,,,,,,,,,,,,,,,,,314,2022-11-02_11h35.29.661,Main,2022.2.2,60.67040800855385,
neutral,negative,1,k,k,0,0,0,0,0,0,0,0,,,,,,,,,1,2,20,7,,,,,,,,,,,,,,,,,,,,,,,,,,,,,,,,,,,,,,,,main,2,2,1,negative,neutral,274.65824810000004,274.65824810000004,274.65824810000004,274.65824810000004,275.6565542999999,275.68932930000005,k,k,1,0.9568169999997735,276.6207339,276.6207339,276.6207339,276.6207339,276.6207339,276.6207339,,,,,,,,,,,,,,,,,,,,,,,,,,,,,,,,,,,,,,,,,,,,,,,314,2022-11-02_11h35.29.661,Main,2022.2.2,60.67040800855385,
positive,positive,1,l,j,0,0,0,0,0,0,0,0,,,,,,,,,1,3,21,2,,,,,,,,,,,,,,,,,,,,,,,,,,,,,,,,,,,,,,,,main,1,1,1,positive,positive,276.6207339,276.6207339,276.6207339,276.6207339,277.6119710999999,277.6450786999999,l,l,1,1.6340586000001167,279.23227459999976,279.23227459999976,279.23227459999976,280.2653355,280.2653355,280.2653355,,,,,,,,,,,,,,,,,,,,,,,,,,,,,,,,,,,,,,,,,,,,,,,314,2022-11-02_11h35.29.661,Main,2022.2.2,60.67040800855385,
negative,negative,2,j,l,0,0,0,0,0,0,0,0,,,,,,,,,1,4,22,9,,,,,,,,,,,,,,,,,,,,,,,,,,,,,,,,,,,,,,,,main,1,1,2,negative,negative,280.2653355,280.2653355,280.2653355,280.2653355,281.2558182,281.28911719999974,j,j,1,1.1658635000003414,282.4495137000001,282.4495137000001,282.4495137000001,282.4495137000001,282.4495137000001,282.4495137000001,,,,,,,,,,,,,,,,,,,,,,,,,,,,,,,,,,,,,,,,,,,,,,,314,2022-11-02_11h35.29.661,Main,2022.2.2,60.67040800855385,
neutral,negative,2,k,k,0,0,0,0,0,0,0,0,,,,,,,,,1,5,23,16,,,,,,,,,,,,,,,,,,,,,,,,,,,,,,,,,,,,,,,,main,2,2,2,negative,neutral,282.4495137000001,282.4495137000001,282.4495137000001,282.4495137000001,283.4413496999998,283.48175560000004,k,k,1,1.0609662000001663,284.50495509999996,284.50495509999996,284.50495509999996,284.50495509999996,284.50495509999996,284.50495509999996,,,,,,,,,,,,,,,,,,,,,,,,,,,,,,,,,,,,,,,,,,,,,,,314,2022-11-02_11h35.29.661,Main,2022.2.2,60.67040800855385,
negative,positive,2,j,l,0,0,0,0,0,0,0,0,,,,,,,,,1,6,24,15,,,,,,,,,,,,,,,,,,,,,,,,,,,,,,,,,,,,,,,,main,2,2,2,positive,negative,284.50495509999996,284.50495509999996,284.50495509999996,284.50495509999996,285.4866393,285.5553720999999,j,j,1,1.1348026999999092,286.6474572999998,286.6474572999998,286.6474572999998,286.6474572999998,286.6474572999998,286.6474572999998,,,,,,,,,,,,,,,,,,,,,,,,,,,,,,,,,,,,,,,,,,,,,,,314,2022-11-02_11h35.29.661,Main,2022.2.2,60.67040800855385,
positive,negative,1,l,j,0,0,0,0,0,0,0,0,,,,,,,,,1,7,25,5,,,,,,,,,,,,,,,,,,,,,,,,,,,,,,,,,,,,,,,,main,2,2,1,negative,positive,286.6474572999998,286.6474572999998,286.6474572999998,286.6474572999998,287.6230828999999,287.70038139999974,l,l,1,0.9154684999998608,288.56439769999974,288.56439769999974,288.56439769999974,288.56439769999974,288.56439769999974,288.56439769999974,,,,,,,,,,,,,,,,,,,,,,,,,,,,,,,,,,,,,,,,,,,,,,,314,2022-11-02_11h35.29.661,Main,2022.2.2,60.67040800855385,
positive,neutral,1,l,j,0,0,0,0,0,0,0,0,,,,,,,,,1,8,26,8,,,,,,,,,,,,,,,,,,,,,,,,,,,,,,,,,,,,,,,,main,1,1,1,neutral,positive,288.56439769999974,288.56439769999974,288.56439769999974,288.56439769999974,289.5445351999999,289.61490519999984,l,l,1,1.027984800000013,290.6088551,290.6088551,290.6088551,290.6088551,290.6088551,290.6088551,,,,,,,,,,,,,,,,,,,,,,,,,,,,,,,,,,,,,,,,,,,,,,,314,2022-11-02_11h35.29.661,Main,2022.2.2,60.67040800855385,
negative,neutral,2,j,l,0,0,0,0,0,0,0,0,,,,,,,,,1,9,27,12,,,,,,,,,,,,,,,,,,,,,,,,,,,,,,,,,,,,,,,,main,1,1,2,neutral,negative,290.6088551,290.6088551,290.6088551,290.6088551,291.59485789999985,291.62746330000004,j,j,1,1.084101699999792,292.6874571999999,292.6874571999999,292.6874571999999,292.6874571999999,292.6874571999999,292.6874571999999,,,,,,,,,,,,,,,,,,,,,,,,,,,,,,,,,,,,,,,,,,,,,,,314,2022-11-02_11h35.29.661,Main,2022.2.2,60.67040800855385,
positive,positive,2,l,j,0,0,0,0,0,0,0,0,,,,,,,,,1,10,28,11,,,,,,,,,,,,,,,,,,,,,,,,,,,,,,,,,,,,,,,,main,1,1,2,positive,positive,292.6874571999999,292.6874571999999,292.6874571999999,292.6874571999999,293.6933495999999,293.7331412000001,l,l,1,0.9963520000001154,294.6840565,294.6840565,294.6840565,294.6840565,294.6840565,294.6840565,,,,,,,,,,,,,,,,,,,,,,,,,,,,,,,,,,,,,,,,,,,,,,,314,2022-11-02_11h35.29.661,Main,2022.2.2,60.67040800855385,
positive,negative,2,l,j,0,0,0,0,0,0,0,0,,,,,,,,,1,11,29,14,,,,,,,,,,,,,,,,,,,,,,,,,,,,,,,,,,,,,,,,main,2,2,2,negative,positive,294.6840565,294.6840565,294.6840565,294.6840565,295.66079909999985,295.7300438999998,l,l,1,1.0521440000002258,296.7452261000001,296.7452261000001,296.7452261000001,296.7452261000001,296.7452261000001,296.7452261000001,,,,,,,,,,,,,,,,,,,,,,,,,,,,,,,,,,,,,,,,,,,,,,,314,2022-11-02_11h35.29.661,Main,2022.2.2,60.67040800855385,
negative,negative,1,j,l,0,0,0,0,0,0,0,0,,,,,,,,,1,12,30,0,,,,,,,,,,,,,,,,,,,,,,,,,,,,,,,,,,,,,,,,main,1,1,1,negative,negative,296.7452261000001,296.7452261000001,296.7452261000001,296.7452261000001,297.7263504,297.7942891,j,j,1,1.0874324999999772,298.83327589999976,298.83327589999976,298.83327589999976,298.83327589999976,298.83327589999976,298.83327589999976,,,,,,,,,,,,,,,,,,,,,,,,,,,,,,,,,,,,,,,,,,,,,,,314,2022-11-02_11h35.29.661,Main,2022.2.2,60.67040800855385,
negative,neutral,1,j,l,0,0,0,0,0,0,0,0,,,,,,,,,1,13,31,3,,,,,,,,,,,,,,,,,,,,,,,,,,,,,,,,,,,,,,,,main,2,2,1,neutral,negative,298.83327589999976,298.83327589999976,298.83327589999976,298.83327589999976,299.82490649999977,299.8598414999999,j,j,1,1.2051581000000624,301.04081500000007,301.04081500000007,301.04081500000007,301.04081500000007,301.04081500000007,301.04081500000007,,,,,,,,,,,,,,,,,,,,,,,,,,,,,,,,,,,,,,,,,,,,,,,314,2022-11-02_11h35.29.661,Main,2022.2.2,60.67040800855385,
neutral,neutral,1,k,k,0,0,0,0,0,0,0,0,,,,,,,,,1,14,32,1,,,,,,,,,,,,,,,,,,,,,,,,,,,,,,,,,,,,,,,,main,1,1,1,neutral,neutral,301.04081500000007,301.04081500000007,301.04081500000007,301.04081500000007,302.02244959999985,302.0908732999999,k,k,1,1.0399856000003638,303.1001561999999,303.1001561999999,303.1001561999999,303.1001561999999,303.1001561999999,303.1001561999999,,,,,,,,,,,,,,,,,,,,,,,,,,,,,,,,,,,,,,,,,,,,,,,314,2022-11-02_11h35.29.661,Main,2022.2.2,60.67040800855385,
neutral,positive,1,k,k,0,0,0,0,0,0,0,0,,,,,,,,,1,15,33,4,,,,,,,,,,,,,,,,,,,,,,,,,,,,,,,,,,,,,,,,main,2,2,1,positive,neutral,303.1001561999999,303.1001561999999,303.1001561999999,303.1001561999999,304.08686409999996,304.1197900999998,k,k,1,1.0226188000001457,305.11642289999986,305.11642289999986,305.11642289999986,305.11642289999986,305.11642289999986,305.11642289999986,,,,,,,,,,,,,,,,,,,,,,,,,,,,,,,,,,,,,,,,,,,,,,,314,2022-11-02_11h35.29.661,Main,2022.2.2,60.67040800855385,
neutral,positive,2,k,k,0,0,0,0,0,0,0,0,,,,,,,,,1,16,34,13,,,,,,,,,,,,,,,,,,,,,,,,,,,,,,,,,,,,,,,,main,2,2,2,positive,neutral,305.11642289999986,305.11642289999986,305.11642289999986,305.11642289999986,306.11183659999983,306.14424140000006,k,k,1,0.969658100000288,307.0881941,307.0881941,307.0881941,307.0881941,307.0881941,307.0881941,,,,,,,,,,,,,,,,,,,,,,,,,,,,,,,,,,,,,,,,,,,,,,,314,2022-11-02_11h35.29.661,Main,2022.2.2,60.67040800855385,
negative,positive,1,j,l,0,0,0,0,0,0,0,0,,,,,,,,,1,17,35,6,,,,,,,,,,,,,,,,,,,,,,,,,,,,,,,,,,,,,,,,main,1,1,1,positive,negative,307.0881941,307.0881941,307.0881941,307.0881941,308.0872157000001,308.12131680000016,j,j,1,1.2305591999997887,309.33516440000017,309.33516440000017,309.33516440000017,309.33516440000017,309.33516440000017,309.33516440000017,,,,,,,,,,,,,,,,,,,,,,,,,,,,,,,,,,,,,,,,,,,,,,,314,2022-11-02_11h35.29.661,Main,2022.2.2,60.67040800855385,
neutral,neutral,1,k,k,0,0,0,0,0,0,0,0,,,,,,,,,2,0,36,1,,,,,,,,,,,,,,,,,,,,,,,,,,,,,,,,,,,,,,,,main,1,1,1,neutral,neutral,309.33516440000017,309.33516440000017,309.33516440000017,309.33516440000017,310.3008947000001,310.36684739999987,k,k,1,0.9795454999998583,311.3157794000001,311.3157794000001,311.3157794000001,311.3157794000001,311.3157794000001,311.3157794000001,,,,,,,,,,,,,,,,,,,,,,,,,,,,,,,,,,,,,,,,,,,,,,,314,2022-11-02_11h35.29.661,Main,2022.2.2,60.67040800855385,
neutral,negative,1,k,k,0,0,0,0,0,0,0,0,,,,,,,,,2,1,37,7,,,,,,,,,,,,,,,,,,,,,,,,,,,,,,,,,,,,,,,,main,1,1,1,negative,neutral,311.3157794000001,311.3157794000001,311.3157794000001,311.3157794000001,312.2745696999998,312.34004759999993,k,k,1,0.9135052999999971,313.22368759999995,313.22368759999995,313.22368759999995,313.22368759999995,313.22368759999995,313.22368759999995,,,,,,,,,,,,,,,,,,,,,,,,,,,,,,,,,,,,,,,,,,,,,,,314,2022-11-02_11h35.29.661,Main,2022.2.2,60.67040800855385,
neutral,neutral,2,k,k,0,0,0,0,0,0,0,0,,,,,,,,,2,2,38,10,,,,,,,,,,,,,,,,,,,,,,,,,,,,,,,,,,,,,,,,main,2,2,2,neutral,neutral,313.22368759999995,313.22368759999995,313.22368759999995,313.22368759999995,314.2110224999999,314.2455994999998,k,k,1,0.9837316999996801,315.21243470000013,315.21243470000013,315.21243470000013,315.21243470000013,315.21243470000013,315.21243470000013,,,,,,,,,,,,,,,,,,,,,,,,,,,,,,,,,,,,,,,,,,,,,,,314,2022-11-02_11h35.29.661,Main,2022.2.2,60.67040800855385,
negative,neutral,1,j,l,0,0,0,0,0,0,0,0,,,,,,,,,2,3,39,3,,,,,,,,,,,,,,,,,,,,,,,,,,,,,,,,,,,,,,,,main,2,2,1,neutral,negative,315.21243470000013,315.21243470000013,315.21243470000013,315.21243470000013,316.19386999999983,316.2643393000001,j,j,1,1.2993129000001318,317.5119228000001,317.5119228000001,317.5119228000001,317.5119228000001,317.5119228000001,317.5119228000001,,,,,,,,,,,,,,,,,,,,,,,,,,,,,,,,,,,,,,,,,,,,,,,314,2022-11-02_11h35.29.661,Main,2022.2.2,60.67040800855385,
positive,neutral,2,l,j,0,0,0,0,0,0,0,0,,,,,,,,,2,4,40,17,,,,,,,,,,,,,,,,,,,,,,,,,,,,,,,,,,,,,,,,main,2,2,2,neutral,positive,317.5119228000001,317.5119228000001,317.5119228000001,317.5119228000001,318.486897,318.55571929999974,l,l,1,0.982036099999732,319.49485519999985,319.49485519999985,319.49485519999985,319.49485519999985,319.49485519999985,319.49485519999985,,,,,,,,,,,,,,,,,,,,,,,,,,,,,,,,,,,,,,,,,,,,,,,314,2022-11-02_11h35.29.661,Main,2022.2.2,60.67040800855385,
positive,negative,2,l,j,0,0,0,0,0,0,0,0,,,,,,,,,2,5,41,14,,,,,,,,,,,,,,,,,,,,,,,,,,,,,,,,,,,,,,,,main,1,1,2,negative,positive,319.49485519999985,319.49485519999985,319.49485519999985,319.49485519999985,320.49548230000005,320.5291940999998,l,l,1,0.9128550999998879,321.4128358999999,321.4128358999999,321.4128358999999,321.4128358999999,321.4128358999999,321.4128358999999,,,,,,,,,,,,,,,,,,,,,,,,,,,,,,,,,,,,,,,,,,,,,,,314,2022-11-02_11h35.29.661,Main,2022.2.2,60.67040800855385,
negative,negative,1,j,l,0,0,0,0,0,0,0,0,,,,,,,,,2,6,42,0,,,,,,,,,,,,,,,,,,,,,,,,,,,,,,,,,,,,,,,,main,1,1,1,negative,negative,321.4128358999999,321.4128358999999,321.4128358999999,321.4128358999999,322.4035658,322.4385193999999,j,j,1,1.0903450000000703,323.5078302999998,323.5078302999998,323.5078302999998,323.5078302999998,323.5078302999998,323.5078302999998,,,,,,,,,,,,,,,,,,,,,,,,,,,,,,,,,,,,,,,,,,,,,,,314,2022-11-02_11h35.29.661,Main,2022.2.2,60.67040800855385,
neutral,positive,2,k,k,0,0,0,0,0,0,0,0,,,,,,,,,2,7,43,13,,,,,,,,,,,,,,,,,,,,,,,,,,,,,,,,,,,,,,,,main,1,1,2,positive,neutral,323.5078302999998,323.5078302999998,323.5078302999998,323.5078302999998,324.49926889999983,324.5337705999998,k,k,1,0.9266325999997207,325.4308190999998,325.4308190999998,325.4308190999998,325.4308190999998,325.4308190999998,325.4308190999998,,,,,,,,,,,,,,,,,,,,,,,,,,,,,,,,,,,,,,,,,,,,,,,314,2022-11-02_11h35.29.661,Main,2022.2.2,60.67040800855385,
positive,positive,1,l,j,0,0,0,0,0,0,0,0,,,,,,,,,2,8,44,2,,,,,,,,,,,,,,,,,,,,,,,,,,,,,,,,,,,,,,,,main,2,2,1,positive,positive,325.4308190999998,325.4308190999998,325.4308190999998,325.4308190999998,326.4211680000001,326.4544675999998,l,l,1,0.9025327000003927,327.3404377999998,327.3404377999998,327.3404377999998,327.3404377999998,327.3404377999998,327.3404377999998,,,,,,,,,,,,,,,,,,,,,,,,,,,,,,,,,,,,,,,,,,,,,,,314,2022-11-02_11h35.29.661,Main,2022.2.2,60.67040800855385,
negative,neutral,2,j,l,0,0,0,0,0,0,0,0,,,,,,,,,2,9,45,12,,,,,,,,,,,,,,,,,,,,,,,,,,,,,,,,,,,,,,,,main,2,2,2,neutral,negative,327.3404377999998,327.3404377999998,327.3404377999998,327.3404377999998,328.3262701000001,328.36051539999994,j,j,1,1.059667200000149,329.40564370000016,329.40564370000016,329.40564370000016,329.40564370000016,329.40564370000016,329.40564370000016,,,,,,,,,,,,,,,,,,,,,,,,,,,,,,,,,,,,,,,,,,,,,,,314,2022-11-02_11h35.29.661,Main,2022.2.2,60.67040800855385,
positive,positive,2,l,j,0,0,0,0,0,0,0,0,,,,,,,,,2,10,46,11,,,,,,,,,,,,,,,,,,,,,,,,,,,,,,,,,,,,,,,,main,2,2,2,positive,positive,329.40564370000016,329.40564370000016,329.40564370000016,329.40564370000016,330.4043172999998,330.44025480000005,l,l,1,1.0319312999999966,331.4399013,331.4399013,331.4399013,331.4399013,331.4399013,331.4399013,,,,,,,,,,,,,,,,,,,,,,,,,,,,,,,,,,,,,,,,,,,,,,,314,2022-11-02_11h35.29.661,Main,2022.2.2,60.67040800855385,
negative,positive,1,j,l,0,0,0,0,0,0,0,0,,,,,,,,,2,11,47,6,,,,,,,,,,,,,,,,,,,,,,,,,,,,,,,,,,,,,,,,main,2,2,1,positive,negative,331.4399013,331.4399013,331.4399013,331.4399013,332.445113,332.47871839999993,j,j,1,1.1997867000000042,333.64796420000016,333.64796420000016,333.64796420000016,333.64796420000016,333.64796420000016,333.64796420000016,,,,,,,,,,,,,,,,,,,,,,,,,,,,,,,,,,,,,,,,,,,,,,,314,2022-11-02_11h35.29.661,Main,2022.2.2,60.67040800855385,
negative,positive,2,j,l,0,0,0,0,0,0,0,0,,,,,,,,,2,12,48,15,,,,,,,,,,,,,,,,,,,,,,,,,,,,,,,,,,,,,,,,main,1,1,2,positive,negative,333.64796420000016,333.64796420000016,333.64796420000016,333.64796420000016,334.64537319999977,334.6888398999997,j,j,1,1.1670933999998852,335.81595140000013,335.81595140000013,335.81595140000013,335.81595140000013,335.81595140000013,335.81595140000013,,,,,,,,,,,,,,,,,,,,,,,,,,,,,,,,,,,,,,,,,,,,,,,314,2022-11-02_11h35.29.661,Main,2022.2.2,60.67040800855385,
positive,negative,1,l,j,0,0,0,0,0,0,0,0,,,,,,,,,2,13,49,5,,,,,,,,,,,,,,,,,,,,,,,,,,,,,,,,,,,,,,,,main,2,2,1,negative,positive,335.81595140000013,335.81595140000013,335.81595140000013,335.81595140000013,336.81970049999995,336.8529953999998,l,l,1,1.076176800000212,337.89531599999987,337.89531599999987,337.89531599999987,337.89531599999987,337.89531599999987,337.89531599999987,,,,,,,,,,,,,,,,,,,,,,,,,,,,,,,,,,,,,,,,,,,,,,,314,2022-11-02_11h35.29.661,Main,2022.2.2,60.67040800855385,
positive,neutral,1,l,j,0,0,0,0,0,0,0,0,,,,,,,,,2,14,50,8,,,,,,,,,,,,,,,,,,,,,,,,,,,,,,,,,,,,,,,,main,1,1,1,neutral,positive,337.89531599999987,337.89531599999987,337.89531599999987,337.89531599999987,338.8650341,338.9296518999997,l,l,1,1.073033099999975,339.9692557000001,339.9692557000001,339.9692557000001,339.9692557000001,339.9692557000001,339.9692557000001,,,,,,,,,,,,,,,,,,,,,,,,,,,,,,,,,,,,,,,,,,,,,,,314,2022-11-02_11h35.29.661,Main,2022.2.2,60.67040800855385,
neutral,positive,1,k,k,0,0,0,0,0,0,0,0,,,,,,,,,2,15,51,4,,,,,,,,,,,,,,,,,,,,,,,,,,,,,,,,,,,,,,,,main,2,2,1,positive,neutral,339.9692557000001,339.9692557000001,339.9692557000001,339.9692557000001,340.9583992999999,340.99122090000014,k,k,1,1.0151080000000547,341.9910966,341.9910966,341.9910966,341.9910966,341.9910966,341.9910966,,,,,,,,,,,,,,,,,,,,,,,,,,,,,,,,,,,,,,,,,,,,,,,314,2022-11-02_11h35.29.661,Main,2022.2.2,60.67040800855385,
negative,negative,2,j,l,0,0,0,0,0,0,0,0,,,,,,,,,2,16,52,9,,,,,,,,,,,,,,,,,,,,,,,,,,,,,,,,,,,,,,,,main,2,2,2,negative,negative,341.9910966,341.9910966,341.9910966,341.9910966,342.98277410000014,343.02027310000017,j,j,1,1.1599773999996614,344.1538757999999,344.1538757999999,344.1538757999999,344.1538757999999,344.1538757999999,344.1538757999999,,,,,,,,,,,,,,,,,,,,,,,,,,,,,,,,,,,,,,,,,,,,,,,314,2022-11-02_11h35.29.661,Main,2022.2.2,60.67040800855385,
neutral,negative,2,k,k,0,0,0,0,0,0,0,0,,,,,,,,,2,17,53,16,,,,,,,,,,,,,,,,,,,,,,,,,,,,,,,,,,,,,,,,main,1,1,2,negative,neutral,344.1538757999999,344.1538757999999,344.1538757999999,344.1538757999999,345.1340984000001,345.2016861999998,k,k,1,1.0674057000001085,346.2225347000001,346.2225347000001,346.2225347000001,346.2225347000001,346.2225347000001,346.2225347000001,,,,,,,,,,,,,,,,,,,,,,,,,,,,,,,,,,,,,,,,,,,,,,,314,2022-11-02_11h35.29.661,Main,2022.2.2,60.67040800855385,
positive,negative,2,l,j,0,0,0,0,0,0,0,0,,,,,,,,,3,0,54,14,,,,,,,,,,,,,,,,,,,,,,,,,,,,,,,,,,,,,,,,main,2,2,2,negative,positive,346.2225347000001,346.2225347000001,346.2225347000001,346.2225347000001,347.2046646000001,347.283365,l,l,1,0.9446577999997317,348.17236819999994,348.17236819999994,348.17236819999994,348.17236819999994,348.17236819999994,348.17236819999994,,,,,,,,,,,,,,,,,,,,,,,,,,,,,,,,,,,,,,,,,,,,,,,314,2022-11-02_11h35.29.661,Main,2022.2.2,60.67040800855385,
neutral,negative,2,k,k,0,0,0,0,0,0,0,0,,,,,,,,,3,1,55,16,,,,,,,,,,,,,,,,,,,,,,,,,,,,,,,,,,,,,,,,main,2,2,2,negative,neutral,348.17236819999994,348.17236819999994,348.17236819999994,348.17236819999994,349.1724579999998,349.2045366,k,k,1,0.9901568999998744,350.1587283000001,350.1587283000001,350.1587283000001,350.1587283000001,350.1587283000001,350.1587283000001,,,,,,,,,,,,,,,,,,,,,,,,,,,,,,,,,,,,,,,,,,,,,,,314,2022-11-02_11h35.29.661,Main,2022.2.2,60.67040800855385,
neutral,negative,1,k,k,0,0,0,0,0,0,0,0,,,,,,,,,3,2,56,7,,,,,,,,,,,,,,,,,,,,,,,,,,,,,,,,,,,,,,,,main,1,1,1,negative,neutral,350.1587283000001,350.1587283000001,350.1587283000001,350.1587283000001,351.1551035,351.1877437999999,k,k,1,1.1170917999997982,352.2850907999998,352.2850907999998,352.2850907999998,352.2850907999998,352.2850907999998,352.2850907999998,,,,,,,,,,,,,,,,,,,,,,,,,,,,,,,,,,,,,,,,,,,,,,,314,2022-11-02_11h35.29.661,Main,2022.2.2,60.67040800855385,
positive,neutral,2,l,j,0,0,0,0,0,0,0,0,,,,,,,,,3,3,57,17,,,,,,,,,,,,,,,,,,,,,,,,,,,,,,,,,,,,,,,,main,1,1,2,neutral,positive,352.2850907999998,352.2850907999998,352.2850907999998,352.2850907999998,353.2650292000001,353.3391687999999,l,l,1,1.0933383000001413,354.3788483999999,354.3788483999999,354.3788483999999,354.3788483999999,354.3788483999999,354.3788483999999,,,,,,,,,,,,,,,,,,,,,,,,,,,,,,,,,,,,,,,,,,,,,,,314,2022-11-02_11h35.29.661,Main,2022.2.2,60.67040800855385,
neutral,positive,2,k,k,0,0,0,0,0,0,0,0,,,,,,,,,3,4,58,13,,,,,,,,,,,,,,,,,,,,,,,,,,,,,,,,,,,,,,,,main,2,2,2,positive,neutral,354.3788483999999,354.3788483999999,354.3788483999999,354.3788483999999,355.3735801999999,355.4063023000001,k,k,1,1.0332797999999457,356.41753159999985,356.41753159999985,356.41753159999985,356.41753159999985,356.41753159999985,356.41753159999985,,,,,,,,,,,,,,,,,,,,,,,,,,,,,,,,,,,,,,,,,,,,,,,314,2022-11-02_11h35.29.661,Main,2022.2.2,60.67040800855385,
negative,negative,2,j,l,0,0,0,0,0,0,0,0,,,,,,,,,3,5,59,9,,,,,,,,,,,,,,,,,,,,,,,,,,,,,,,,,,,,,,,,main,2,2,2,negative,negative,356.41753159999985,356.41753159999985,356.41753159999985,356.41753159999985,357.3871462999998,357.4549940999998,j,j,1,1.1725736999997025,358.5899569999999,358.5899569999999,358.5899569999999,358.5899569999999,358.5899569999999,358.5899569999999,,,,,,,,,,,,,,,,,,,,,,,,,,,,,,,,,,,,,,,,,,,,,,,314,2022-11-02_11h35.29.661,Main,2022.2.2,60.67040800855385,
negative,positive,2,j,l,0,0,0,0,0,0,0,0,,,,,,,,,3,6,60,15,,,,,,,,,,,,,,,,,,,,,,,,,,,,,,,,,,,,,,,,main,2,2,2,positive,negative,358.5899569999999,358.5899569999999,358.5899569999999,358.5899569999999,359.56598640000016,359.65253849999976,j,j,1,1.031024499999603,360.6253503999999,360.6253503999999,360.6253503999999,360.6253503999999,360.6253503999999,360.6253503999999,,,,,,,,,,,,,,,,,,,,,,,,,,,,,,,,,,,,,,,,,,,,,,,314,2022-11-02_11h35.29.661,Main,2022.2.2,60.67040800855385,
positive,positive,2,l,j,0,0,0,0,0,0,0,0,,,,,,,,,3,7,61,11,,,,,,,,,,,,,,,,,,,,,,,,,,,,,,,,,,,,,,,,main,2,2,2,positive,positive,360.6253503999999,360.6253503999999,360.6253503999999,360.6253503999999,361.62452039999994,361.6559313999999,l,l,1,1.1412593000000015,362.76910680000015,362.76910680000015,362.76910680000015,362.76910680000015,362.76910680000015,362.76910680000015,,,,,,,,,,,,,,,,,,,,,,,,,,,,,,,,,,,,,,,,,,,,,,,314,2022-11-02_11h35.29.661,Main,2022.2.2,60.67040800855385,
negative,positive,1,j,l,0,0,0,0,0,0,0,0,,,,,,,,,3,8,62,6,,,,,,,,,,,,,,,,,,,,,,,,,,,,,,,,,,,,,,,,main,1,1,1,positive,negative,362.76910680000015,362.76910680000015,362.76910680000015,362.76910680000015,363.7643037999999,363.79869299999996,j,j,1,1.1202438999998776,364.89361239999994,364.89361239999994,364.89361239999994,364.89361239999994,364.89361239999994,364.89361239999994,,,,,,,,,,,,,,,,,,,,,,,,,,,,,,,,,,,,,,,,,,,,,,,314,2022-11-02_11h35.29.661,Main,2022.2.2,60.67040800855385,
negative,neutral,2,j,l,0,0,0,0,0,0,0,0,,,,,,,,,3,9,63,12,,,,,,,,,,,,,,,,,,,,,,,,,,,,,,,,,,,,,,,,main,1,1,2,neutral,negative,364.89361239999994,364.89361239999994,364.89361239999994,364.89361239999994,365.86365139999975,365.94947290000005,j,j,1,1.0890048000001116,366.98610559999975,366.98610559999975,366.98610559999975,366.98610559999975,366.98610559999975,366.98610559999975,,,,,,,,,,,,,,,,,,,,,,,,,,,,,,,,,,,,,,,,,,,,,,,314,2022-11-02_11h35.29.661,Main,2022.2.2,60.67040800855385,
positive,negative,1,l,j,0,0,0,0,0,0,0,0,,,,,,,,,3,10,64,5,,,,,,,,,,,,,,,,,,,,,,,,,,,,,,,,,,,,,,,,main,2,2,1,negative,positive,366.98610559999975,366.98610559999975,366.98610559999975,366.98610559999975,367.9599612999998,368.0269062,l,l,1,1.0743750000001455,369.05676659999995,369.05676659999995,369.05676659999995,369.05676659999995,369.05676659999995,369.05676659999995,,,,,,,,,,,,,,,,,,,,,,,,,,,,,,,,,,,,,,,,,,,,,,,314,2022-11-02_11h35.29.661,Main,2022.2.2,60.67040800855385,
neutral,neutral,2,k,k,0,0,0,0,0,0,0,0,,,,,,,,,3,11,65,10,,,,,,,,,,,,,,,,,,,,,,,,,,,,,,,,,,,,,,,,main,1,1,2,neutral,neutral,369.05676659999995,369.05676659999995,369.05676659999995,369.05676659999995,370.04206369999997,370.07604979999974,k,k,1,0.9974880999998277,371.0627121,371.0627121,371.0627121,371.0627121,371.0627121,371.0627121,,,,,,,,,,,,,,,,,,,,,,,,,,,,,,,,,,,,,,,,,,,,,,,314,2022-11-02_11h35.29.661,Main,2022.2.2,60.67040800855385,
negative,negative,1,j,l,0,0,0,0,0,0,0,0,,,,,,,,,3,12,66,0,,,,,,,,,,,,,,,,,,,,,,,,,,,,,,,,,,,,,,,,main,2,2,1,negative,negative,371.0627121,371.0627121,371.0627121,371.0627121,372.0403033,372.1074565000001,j,j,1,1.2875562999997783,373.35379869999974,373.35379869999974,373.35379869999974,373.35379869999974,373.35379869999974,373.35379869999974,,,,,,,,,,,,,,,,,,,,,,,,,,,,,,,,,,,,,,,,,,,,,,,314,2022-11-02_11h35.29.661,Main,2022.2.2,60.67040800855385,
positive,neutral,1,l,j,0,0,0,0,0,0,0,0,,,,,,,,,3,13,67,8,,,,,,,,,,,,,,,,,,,,,,,,,,,,,,,,,,,,,,,,main,2,2,1,neutral,positive,373.35379869999974,373.35379869999974,373.35379869999974,373.35379869999974,374.32942019999996,374.3999409999999,l,l,1,1.1887841999996454,375.5458256999998,375.5458256999998,375.5458256999998,375.5458256999998,375.5458256999998,375.5458256999998,,,,,,,,,,,,,,,,,,,,,,,,,,,,,,,,,,,,,,,,,,,,,,,314,2022-11-02_11h35.29.661,Main,2022.2.2,60.67040800855385,
negative,neutral,1,j,l,0,0,0,0,0,0,0,0,,,,,,,,,3,14,68,3,,,,,,,,,,,,,,,,,,,,,,,,,,,,,,,,,,,,,,,,main,2,2,1,neutral,negative,375.5458256999998,375.5458256999998,375.5458256999998,375.5458256999998,376.51867530000004,376.58553879999977,j,j,1,1.007098799999767,377.55905700000017,377.55905700000017,377.55905700000017,377.55905700000017,377.55905700000017,377.55905700000017,,,,,,,,,,,,,,,,,,,,,,,,,,,,,,,,,,,,,,,,,,,,,,,314,2022-11-02_11h35.29.661,Main,2022.2.2,60.67040800855385,
positive,positive,1,l,j,0,0,0,0,0,0,0,0,,,,,,,,,3,15,69,2,,,,,,,,,,,,,,,,,,,,,,,,,,,,,,,,,,,,,,,,main,2,2,1,positive,positive,377.55905700000017,377.55905700000017,377.55905700000017,377.55905700000017,378.5373916000001,378.60517619999996,l,l,1,1.27709859999959,379.83965280000007,379.83965280000007,379.83965280000007,379.83965280000007,379.83965280000007,379.83965280000007,,,,,,,,,,,,,,,,,,,,,,,,,,,,,,,,,,,,,,,,,,,,,,,314,2022-11-02_11h35.29.661,Main,2022.2.2,60.67040800855385,
neutral,neutral,1,k,k,0,0,0,0,0,0,0,0,,,,,,,,,3,16,70,1,,,,,,,,,,,,,,,,,,,,,,,,,,,,,,,,,,,,,,,,main,2,2,1,neutral,neutral,379.83965280000007,379.83965280000007,379.83965280000007,379.83965280000007,380.8185728000001,380.88403110000013,k,k,1,0.9948112000001856,381.83449570000016,381.83449570000016,381.83449570000016,381.83449570000016,381.83449570000016,381.83449570000016,,,,,,,,,,,,,,,,,,,,,,,,,,,,,,,,,,,,,,,,,,,,,,,314,2022-11-02_11h35.29.661,Main,2022.2.2,60.67040800855385,
neutral,positive,1,k,k,0,0,0,0,0,0,0,0,,,,,,,,,3,17,71,4,,,,,,,,,,,,,,,,,,,,,,,,,,,,,,,,,,,,,,,,main,1,1,1,positive,neutral,381.83449570000016,381.83449570000016,381.83449570000016,381.83449570000016,382.8043623000001,382.8687275,k,k,1,0.9120603000001211,383.74666779999984,383.74666779999984,383.74666779999984,383.74666779999984,383.74666779999984,383.74666779999984,,,,,,,,,,,,,,,,,,,,,,,,,,,,,,,,,,,,,,,,,,,,,,,314,2022-11-02_11h35.29.661,Main,2022.2.2,60.67040800855385,
positive,neutral,2,l,j,0,0,0,0,0,0,0,0,,,,,,,,,4,0,72,17,,,,,,,,,,,,,,,,,,,,,,,,,,,,,,,,,,,,,,,,main,1,1,2,neutral,positive,383.74666779999984,383.74666779999984,383.74666779999984,383.74666779999984,384.73409590000006,384.7678819999999,l,l,1,1.4778425999998035,386.2297741,386.2297741,386.2297741,386.2297741,386.2297741,386.2297741,,,,,,,,,,,,,,,,,,,,,,,,,,,,,,,,,,,,,,,,,,,,,,,314,2022-11-02_11h35.29.661,Main,2022.2.2,60.67040800855385,
positive,negative,2,l,j,0,0,0,0,0,0,0,0,,,,,,,,,4,1,73,14,,,,,,,,,,,,,,,,,,,,,,,,,,,,,,,,,,,,,,,,main,1,1,2,negative,positive,386.2297741,386.2297741,386.2297741,386.2297741,387.2087651999998,387.2782036000001,l,l,1,0.9649662000001626,388.19492130000003,388.19492130000003,388.19492130000003,388.19492130000003,388.19492130000003,388.19492130000003,,,,,,,,,,,,,,,,,,,,,,,,,,,,,,,,,,,,,,,,,,,,,,,314,2022-11-02_11h35.29.661,Main,2022.2.2,60.67040800855385,
neutral,negative,1,k,k,0,0,0,0,0,0,0,0,,,,,,,,,4,2,74,7,,,,,,,,,,,,,,,,,,,,,,,,,,,,,,,,,,,,,,,,main,2,2,1,negative,neutral,388.19492130000003,388.19492130000003,388.19492130000003,388.19492130000003,389.17311510000013,389.24244969999995,k,k,1,1.0251853999998275,390.2268338000001,390.2268338000001,390.2268338000001,390.2268338000001,390.2268338000001,390.2268338000001,,,,,,,,,,,,,,,,,,,,,,,,,,,,,,,,,,,,,,,,,,,,,,,314,2022-11-02_11h35.29.661,Main,2022.2.2,60.67040800855385,
negative,negative,2,j,l,0,0,0,0,0,0,0,0,,,,,,,,,4,3,75,9,,,,,,,,,,,,,,,,,,,,,,,,,,,,,,,,,,,,,,,,main,2,2,2,negative,negative,390.2268338000001,390.2268338000001,390.2268338000001,390.2268338000001,391.2216698999998,391.25504209999986,j,j,1,1.2551235999999335,392.4853396000001,392.4853396000001,392.4853396000001,392.4853396000001,392.4853396000001,392.4853396000001,,,,,,,,,,,,,,,,,,,,,,,,,,,,,,,,,,,,,,,,,,,,,,,314,2022-11-02_11h35.29.661,Main,2022.2.2,60.67040800855385,
positive,negative,1,l,j,0,0,0,0,0,0,0,0,,,,,,,,,4,4,76,5,,,,,,,,,,,,,,,,,,,,,,,,,,,,,,,,,,,,,,,,main,1,1,1,negative,positive,392.4853396000001,392.4853396000001,392.4853396000001,392.4853396000001,393.45425,393.52370159999987,l,l,1,1.0691906000001836,394.5565340999999,394.5565340999999,394.5565340999999,394.5565340999999,394.5565340999999,394.5565340999999,,,,,,,,,,,,,,,,,,,,,,,,,,,,,,,,,,,,,,,,,,,,,,,314,2022-11-02_11h35.29.661,Main,2022.2.2,60.67040800855385,
negative,neutral,1,j,l,0,0,0,0,0,0,0,0,,,,,,,,,4,5,77,3,,,,,,,,,,,,,,,,,,,,,,,,,,,,,,,,,,,,,,,,main,2,2,1,neutral,negative,394.5565340999999,394.5565340999999,394.5565340999999,394.5565340999999,395.54127919999996,395.57352430000014,j,j,1,1.1970123999999487,396.7566297000001,396.7566297000001,396.7566297000001,396.7566297000001,396.7566297000001,396.7566297000001,,,,,,,,,,,,,,,,,,,,,,,,,,,,,,,,,,,,,,,,,,,,,,,314,2022-11-02_11h35.29.661,Main,2022.2.2,60.67040800855385,
neutral,negative,2,k,k,0,0,0,0,0,0,0,0,,,,,,,,,4,6,78,16,,,,,,,,,,,,,,,,,,,,,,,,,,,,,,,,,,,,,,,,main,1,1,2,negative,neutral,396.7566297000001,396.7566297000001,396.7566297000001,396.7566297000001,397.73289249999993,397.8010259,k,k,1,0.9696388000002116,398.7320913000001,398.7320913000001,398.7320913000001,398.7320913000001,398.7320913000001,398.7320913000001,,,,,,,,,,,,,,,,,,,,,,,,,,,,,,,,,,,,,,,,,,,,,,,314,2022-11-02_11h35.29.661,Main,2022.2.2,60.67040800855385,
neutral,neutral,1,k,k,0,0,0,0,0,0,0,0,,,,,,,,,4,7,79,1,,,,,,,,,,,,,,,,,,,,,,,,,,,,,,,,,,,,,,,,main,1,1,1,neutral,neutral,398.7320913000001,398.7320913000001,398.7320913000001,398.7320913000001,399.7141312000001,399.78073960000006,k,k,1,0.9666806999998698,400.69924560000004,400.69924560000004,400.69924560000004,400.69924560000004,400.69924560000004,400.69924560000004,,,,,,,,,,,,,,,,,,,,,,,,,,,,,,,,,,,,,,,,,,,,,,,314,2022-11-02_11h35.29.661,Main,2022.2.2,60.67040800855385,
negative,neutral,2,j,l,0,0,0,0,0,0,0,0,,,,,,,,,4,8,80,12,,,,,,,,,,,,,,,,,,,,,,,,,,,,,,,,,,,,,,,,main,2,2,2,neutral,negative,400.69924560000004,400.69924560000004,400.69924560000004,400.69924560000004,401.6784446999998,401.74677510000015,j,j,1,1.1360736000001452,402.8463055999998,402.8463055999998,402.8463055999998,402.8463055999998,402.8463055999998,402.8463055999998,,,,,,,,,,,,,,,,,,,,,,,,,,,,,,,,,,,,,,,,,,,,,,,314,2022-11-02_11h35.29.661,Main,2022.2.2,60.67040800855385,
neutral,positive,2,k,k,0,0,0,0,0,0,0,0,,,,,,,,,4,9,81,13,,,,,,,,,,,,,,,,,,,,,,,,,,,,,,,,,,,,,,,,main,1,1,2,positive,neutral,402.8463055999998,402.8463055999998,402.8463055999998,402.8463055999998,403.8105214999998,403.87664830000017,k,k,1,1.070709799999804,404.91467899999975,404.91467899999975,404.91467899999975,404.91467899999975,404.91467899999975,404.91467899999975,,,,,,,,,,,,,,,,,,,,,,,,,,,,,,,,,,,,,,,,,,,,,,,314,2022-11-02_11h35.29.661,Main,2022.2.2,60.67040800855385,
positive,positive,1,l,j,0,0,0,0,0,0,0,0,,,,,,,,,4,10,82,2,,,,,,,,,,,,,,,,,,,,,,,,,,,,,,,,,,,,,,,,main,1,1,1,positive,positive,404.91467899999975,404.91467899999975,404.91467899999975,404.91467899999975,405.9104415999998,405.94339990000003,l,l,1,1.2458302000000003,407.1642341999998,407.1642341999998,407.1642341999998,407.1642341999998,407.1642341999998,407.1642341999998,,,,,,,,,,,,,,,,,,,,,,,,,,,,,,,,,,,,,,,,,,,,,,,314,2022-11-02_11h35.29.661,Main,2022.2.2,60.67040800855385,
negative,negative,1,j,l,0,0,0,0,0,0,0,0,,,,,,,,,4,11,83,0,,,,,,,,,,,,,,,,,,,,,,,,,,,,,,,,,,,,,,,,main,2,2,1,negative,negative,407.1642341999998,407.1642341999998,407.1642341999998,407.1642341999998,408.13704380000013,408.2049635999999,j,j,1,1.1779711999997744,409.3450319000001,409.3450319000001,409.3450319000001,409.3450319000001,409.3450319000001,409.3450319000001,,,,,,,,,,,,,,,,,,,,,,,,,,,,,,,,,,,,,,,,,,,,,,,314,2022-11-02_11h35.29.661,Main,2022.2.2,60.67040800855385,
negative,positive,2,j,l,0,0,0,0,0,0,0,0,,,,,,,,,4,12,84,15,,,,,,,,,,,,,,,,,,,,,,,,,,,,,,,,,,,,,,,,main,1,1,2,positive,negative,409.3450319000001,409.3450319000001,409.3450319000001,409.3450319000001,410.33368910000013,410.36864260000016,j,j,1,1.1041584999998122,411.45428590000006,411.45428590000006,411.45428590000006,411.45428590000006,411.45428590000006,411.45428590000006,,,,,,,,,,,,,,,,,,,,,,,,,,,,,,,,,,,,,,,,,,,,,,,314,2022-11-02_11h35.29.661,Main,2022.2.2,60.67040800855385,
negative,positive,1,j,l,0,0,0,0,0,0,0,0,,,,,,,,,4,13,85,6,,,,,,,,,,,,,,,,,,,,,,,,,,,,,,,,,,,,,,,,main,2,2,1,positive,negative,411.45428590000006,411.45428590000006,411.45428590000006,411.45428590000006,412.4527915000001,412.48601840000015,j,j,1,1.0985132999999223,413.55544480000003,413.55544480000003,413.55544480000003,413.55544480000003,413.55544480000003,413.55544480000003,,,,,,,,,,,,,,,,,,,,,,,,,,,,,,,,,,,,,,,,,,,,,,,314,2022-11-02_11h35.29.661,Main,2022.2.2,60.67040800855385,
neutral,positive,1,k,k,0,0,0,0,0,0,0,0,,,,,,,,,4,14,86,4,,,,,,,,,,,,,,,,,,,,,,,,,,,,,,,,,,,,,,,,main,1,1,1,positive,neutral,413.55544480000003,413.55544480000003,413.55544480000003,413.55544480000003,414.5340300999999,414.6026285999999,k,k,1,1.0725667000001522,415.63359669999977,415.63359669999977,415.63359669999977,415.63359669999977,415.63359669999977,415.63359669999977,,,,,,,,,,,,,,,,,,,,,,,,,,,,,,,,,,,,,,,,,,,,,,,314,2022-11-02_11h35.29.661,Main,2022.2.2,60.67040800855385,
neutral,neutral,2,k,k,0,0,0,0,0,0,0,0,,,,,,,,,4,15,87,10,,,,,,,,,,,,,,,,,,,,,,,,,,,,,,,,,,,,,,,,main,1,1,2,neutral,neutral,415.63359669999977,415.63359669999977,415.63359669999977,415.63359669999977,416.6173394,416.65245260000006,k,k,1,0.9029425999997329,417.5370725,417.5370725,417.5370725,417.5370725,417.5370725,417.5370725,,,,,,,,,,,,,,,,,,,,,,,,,,,,,,,,,,,,,,,,,,,,,,,314,2022-11-02_11h35.29.661,Main,2022.2.2,60.67040800855385,
positive,neutral,1,l,j,0,0,0,0,0,0,0,0,,,,,,,,,4,16,88,8,,,,,,,,,,,,,,,,,,,,,,,,,,,,,,,,,,,,,,,,main,1,1,1,neutral,positive,417.5370725,417.5370725,417.5370725,417.5370725,418.51417160000005,418.58140549999985,l,l,1,1.0507947000000968,419.59807350000005,419.59807350000005,419.59807350000005,419.59807350000005,419.59807350000005,419.59807350000005,,,,,,,,,,,,,,,,,,,,,,,,,,,,,,,,,,,,,,,,,,,,,,,314,2022-11-02_11h35.29.661,Main,2022.2.2,60.67040800855385,
positive,positive,2,l,j,0,0,0,0,0,0,0,0,,,,,,,,,4,17,89,11,,,,,,,,,,,,,,,,,,,,,,,,,,,,,,,,,,,,,,,,main,2,2,2,positive,positive,419.59807350000005,419.59807350000005,419.59807350000005,419.59807350000005,420.5656031000001,420.63178219999986,l,l,1,1.2581562000000304,421.85323189999986,421.85323189999986,421.85323189999986,421.85323189999986,421.85323189999986,421.85323189999986,,,,,,,,,,,,,,,,,,,,,,,,,,,,,,,,,,,,,,,,,,,,,,,314,2022-11-02_11h35.29.661,Main,2022.2.2,60.67040800855385,
positive,positive,1,l,j,0,0,0,0,0,0,0,0,,,,,,,,,5,0,90,2,,,,,,,,,,,,,,,,,,,,,,,,,,,,,,,,,,,,,,,,main,1,1,1,positive,positive,421.85323189999986,421.85323189999986,421.85323189999986,421.85323189999986,422.8429177999999,422.876618,l,l,1,1.1485807999997633,424.00550420000013,424.00550420000013,424.00550420000013,424.00550420000013,424.00550420000013,424.00550420000013,,,,,,,,,,,,,,,,,,,,,,,,,,,,,,,,,,,,,,,,,,,,,,,314,2022-11-02_11h35.29.661,Main,2022.2.2,60.67040800855385,
neutral,negative,2,k,k,0,0,0,0,0,0,0,0,,,,,,,,,5,1,91,16,,,,,,,,,,,,,,,,,,,,,,,,,,,,,,,,,,,,,,,,main,2,2,2,negative,neutral,424.00550420000013,424.00550420000013,424.00550420000013,424.00550420000013,424.99041710000006,425.02350709999996,k,k,1,0.9925865000000158,426.0098706000001,426.0098706000001,426.0098706000001,426.0098706000001,426.0098706000001,426.0098706000001,,,,,,,,,,,,,,,,,,,,,,,,,,,,,,,,,,,,,,,,,,,,,,,314,2022-11-02_11h35.29.661,Main,2022.2.2,60.67040800855385,
positive,negative,2,l,j,0,0,0,0,0,0,0,0,,,,,,,,,5,2,92,14,,,,,,,,,,,,,,,,,,,,,,,,,,,,,,,,,,,,,,,,main,2,2,2,negative,positive,426.0098706000001,426.0098706000001,426.0098706000001,426.0098706000001,426.9771755999998,427.04425590000005,l,l,1,1.0988572999999633,428.1082620999998,428.1082620999998,428.1082620999998,428.1082620999998,428.1082620999998,428.1082620999998,,,,,,,,,,,,,,,,,,,,,,,,,,,,,,,,,,,,,,,,,,,,,,,314,2022-11-02_11h35.29.661,Main,2022.2.2,60.67040800855385,
negative,positive,1,j,l,0,0,0,0,0,0,0,0,,,,,,,,,5,3,93,6,,,,,,,,,,,,,,,,,,,,,,,,,,,,,,,,,,,,,,,,main,2,2,1,positive,negative,428.1082620999998,428.1082620999998,428.1082620999998,428.1082620999998,429.07773489999977,429.1446352999999,j,j,1,1.2553176999999778,430.3659820999999,430.3659820999999,430.3659820999999,430.3659820999999,430.3659820999999,430.3659820999999,,,,,,,,,,,,,,,,,,,,,,,,,,,,,,,,,,,,,,,,,,,,,,,314,2022-11-02_11h35.29.661,Main,2022.2.2,60.67040800855385,
positive,positive,2,l,j,0,0,0,0,0,0,0,0,,,,,,,,,5,4,94,11,,,,,,,,,,,,,,,,,,,,,,,,,,,,,,,,,,,,,,,,main,2,2,2,positive,positive,430.3659820999999,430.3659820999999,430.3659820999999,430.3659820999999,431.35409760000016,431.39487669999994,l,l,1,0.9999301000002561,432.37470389999976,432.37470389999976,432.37470389999976,432.37470389999976,432.37470389999976,432.37470389999976,,,,,,,,,,,,,,,,,,,,,,,,,,,,,,,,,,,,,,,,,,,,,,,314,2022-11-02_11h35.29.661,Main,2022.2.2,60.67040800855385,
negative,negative,1,j,l,0,0,0,0,0,0,0,0,,,,,,,,,5,5,95,0,,,,,,,,,,,,,,,,,,,,,,,,,,,,,,,,,,,,,,,,main,2,2,1,negative,negative,432.37470389999976,432.37470389999976,432.37470389999976,432.37470389999976,433.35249409999983,433.41862149999974,j,j,1,1.3937716999998884,434.76637030000006,434.76637030000006,434.76637030000006,434.76637030000006,434.76637030000006,434.76637030000006,,,,,,,,,,,,,,,,,,,,,,,,,,,,,,,,,,,,,,,,,,,,,,,314,2022-11-02_11h35.29.661,Main,2022.2.2,60.67040800855385,
negative,neutral,2,j,l,0,0,0,0,0,0,0,0,,,,,,,,,5,6,96,12,,,,,,,,,,,,,,,,,,,,,,,,,,,,,,,,,,,,,,,,main,2,2,2,neutral,negative,434.76637030000006,434.76637030000006,434.76637030000006,434.76637030000006,435.7481320999998,435.8161027999997,j,j,1,1.1683984999999666,436.94082589999994,436.94082589999994,436.94082589999994,436.94082589999994,436.94082589999994,436.94082589999994,,,,,,,,,,,,,,,,,,,,,,,,,,,,,,,,,,,,,,,,,,,,,,,314,2022-11-02_11h35.29.661,Main,2022.2.2,60.67040800855385,
neutral,neutral,2,k,k,0,0,0,0,0,0,0,0,,,,,,,,,5,7,97,10,,,,,,,,,,,,,,,,,,,,,,,,,,,,,,,,,,,,,,,,main,1,1,2,neutral,neutral,436.94082589999994,436.94082589999994,436.94082589999994,436.94082589999994,437.9313461999998,437.9665346999998,k,k,1,1.124527500000113,439.06991889999995,439.06991889999995,439.06991889999995,439.06991889999995,439.06991889999995,439.06991889999995,,,,,,,,,,,,,,,,,,,,,,,,,,,,,,,,,,,,,,,,,,,,,,,314,2022-11-02_11h35.29.661,Main,2022.2.2,60.67040800855385,
neutral,positive,1,k,k,0,0,0,0,0,0,0,0,,,,,,,,,5,8,98,4,,,,,,,,,,,,,,,,,,,,,,,,,,,,,,,,,,,,,,,,main,2,2,1,positive,neutral,439.06991889999995,439.06991889999995,439.06991889999995,439.06991889999995,440.0632675999998,440.0984022,k,k,1,1.23086289999992,441.30240160000017,441.30240160000017,441.30240160000017,441.30240160000017,441.30240160000017,441.30240160000017,,,,,,,,,,,,,,,,,,,,,,,,,,,,,,,,,,,,,,,,,,,,,,,314,2022-11-02_11h35.29.661,Main,2022.2.2,60.67040800855385,
negative,neutral,1,j,l,0,0,0,0,0,0,0,0,,,,,,,,,5,9,99,3,,,,,,,,,,,,,,,,,,,,,,,,,,,,,,,,,,,,,,,,main,2,2,1,neutral,negative,441.30240160000017,441.30240160000017,441.30240160000017,441.30240160000017,442.2928918,442.3259661999998,j,j,1,1.1782410999999229,443.4810645,443.4810645,443.4810645,443.4810645,443.4810645,443.4810645,,,,,,,,,,,,,,,,,,,,,,,,,,,,,,,,,,,,,,,,,,,,,,,314,2022-11-02_11h35.29.661,Main,2022.2.2,60.67040800855385,
neutral,positive,2,k,k,0,0,0,0,0,0,0,0,,,,,,,,,5,10,100,13,,,,,,,,,,,,,,,,,,,,,,,,,,,,,,,,,,,,,,,,main,2,2,2,positive,neutral,443.4810645,443.4810645,443.4810645,443.4810645,444.47489710000013,444.51067839999973,k,k,1,1.1175458999996408,445.6004876999998,445.6004876999998,445.6004876999998,445.6004876999998,445.6004876999998,445.6004876999998,,,,,,,,,,,,,,,,,,,,,,,,,,,,,,,,,,,,,,,,,,,,,,,314,2022-11-02_11h35.29.661,Main,2022.2.2,60.67040800855385,
positive,neutral,1,l,j,0,0,0,0,0,0,0,0,,,,,,,,,5,11,101,8,,,,,,,,,,,,,,,,,,,,,,,,,,,,,,,,,,,,,,,,main,1,1,1,neutral,positive,445.6004876999998,445.6004876999998,445.6004876999998,445.6004876999998,446.60482079999997,446.63853529999983,l,j,0,1.1903899000003548,447.77572799999984,447.77572799999984,447.77572799999984,448.8078423999998,448.8078423999998,448.8078423999998,,,,,,,,,,,,,,,,,,,,,,,,,,,,,,,,,,,,,,,,,,,,,,,314,2022-11-02_11h35.29.661,Main,2022.2.2,60.67040800855385,
negative,negative,2,j,l,0,0,0,0,0,0,0,0,,,,,,,,,5,12,102,9,,,,,,,,,,,,,,,,,,,,,,,,,,,,,,,,,,,,,,,,main,2,2,2,negative,negative,448.8078423999998,448.8078423999998,448.8078423999998,448.8078423999998,449.7853521999998,449.8542455999998,j,j,1,1.2223908000000847,451.0482909,451.0482909,451.0482909,451.0482909,451.0482909,451.0482909,,,,,,,,,,,,,,,,,,,,,,,,,,,,,,,,,,,,,,,,,,,,,,,314,2022-11-02_11h35.29.661,Main,2022.2.2,60.67040800855385,
negative,positive,2,j,l,0,0,0,0,0,0,0,0,,,,,,,,,5,13,103,15,,,,,,,,,,,,,,,,,,,,,,,,,,,,,,,,,,,,,,,,main,2,2,2,positive,negative,451.0482909,451.0482909,451.0482909,451.0482909,452.0246546000001,452.08898750000003,j,j,1,1.0756619999997383,453.1215977999998,453.1215977999998,453.1215977999998,453.1215977999998,453.1215977999998,453.1215977999998,,,,,,,,,,,,,,,,,,,,,,,,,,,,,,,,,,,,,,,,,,,,,,,314,2022-11-02_11h35.29.661,Main,2022.2.2,60.67040800855385,
positive,neutral,2,l,j,0,0,0,0,0,0,0,0,,,,,,,,,5,14,104,17,,,,,,,,,,,,,,,,,,,,,,,,,,,,,,,,,,,,,,,,main,2,2,2,neutral,positive,453.1215977999998,453.1215977999998,453.1215977999998,453.1215977999998,454.0963506999999,454.16569860000004,l,l,1,1.326987100000224,455.4514289000001,455.4514289000001,455.4514289000001,455.4514289000001,455.4514289000001,455.4514289000001,,,,,,,,,,,,,,,,,,,,,,,,,,,,,,,,,,,,,,,,,,,,,,,314,2022-11-02_11h35.29.661,Main,2022.2.2,60.67040800855385,
neutral,negative,1,k,k,0,0,0,0,0,0,0,0,,,,,,,,,5,15,105,7,,,,,,,,,,,,,,,,,,,,,,,,,,,,,,,,,,,,,,,,main,2,2,1,negative,neutral,455.4514289000001,455.4514289000001,455.4514289000001,455.4514289000001,456.45088269999974,456.49130630000013,k,k,1,1.0462161999998898,457.49602279999976,457.49602279999976,457.49602279999976,457.49602279999976,457.49602279999976,457.49602279999976,,,,,,,,,,,,,,,,,,,,,,,,,,,,,,,,,,,,,,,,,,,,,,,314,2022-11-02_11h35.29.661,Main,2022.2.2,60.67040800855385,
neutral,neutral,1,k,k,0,0,0,0,0,0,0,0,,,,,,,,,5,16,106,1,,,,,,,,,,,,,,,,,,,,,,,,,,,,,,,,,,,,,,,,main,1,1,1,neutral,neutral,457.49602279999976,457.49602279999976,457.49602279999976,457.49602279999976,458.4846488999999,458.51984819999984,k,k,1,0.9893810000003214,459.49189739999997,459.49189739999997,459.49189739999997,459.49189739999997,459.49189739999997,459.49189739999997,,,,,,,,,,,,,,,,,,,,,,,,,,,,,,,,,,,,,,,,,,,,,,,314,2022-11-02_11h35.29.661,Main,2022.2.2,60.67040800855385,
positive,negative,1,l,j,0,0,0,0,0,0,0,0,,,,,,,,,5,17,107,5,,,,,,,,,,,,,,,,,,,,,,,,,,,,,,,,,,,,,,,,main,1,1,1,negative,positive,459.49189739999997,459.49189739999997,459.49189739999997,459.49189739999997,460.47271350000005,460.54272719999994,l,l,1,1.2525163000000248,461.7480632999998,461.7480632999998,461.7480632999998,461.7480632999998,461.7480632999998,461.7480632999998,,,,,,,,,,,,,,,,,,,,,,,,,,,,,,,,,,,,,,,,,,,,,,,314,2022-11-02_11h35.29.661,Main,2022.2.2,60.67040800855385,
positive,negative,2,l,j,0,0,0,0,0,0,0,0,,,,,,,,,6,0,108,14,,,,,,,,,,,,,,,,,,,,,,,,,,,,,,,,,,,,,,,,main,2,2,2,negative,positive,461.7480632999998,461.7480632999998,461.7480632999998,461.7480632999998,462.7238169,462.79705230000013,l,l,1,1.1098176000000421,463.85997539999994,463.85997539999994,463.85997539999994,463.85997539999994,463.85997539999994,463.85997539999994,,,,,,,,,,,,,,,,,,,,,,,,,,,,,,,,,,,,,,,,,,,,,,,314,2022-11-02_11h35.29.661,Main,2022.2.2,60.67040800855385,
neutral,positive,2,k,k,0,0,0,0,0,0,0,0,,,,,,,,,6,1,109,13,,,,,,,,,,,,,,,,,,,,,,,,,,,,,,,,,,,,,,,,main,2,2,2,positive,neutral,463.85997539999994,463.85997539999994,463.85997539999994,463.85997539999994,464.85488169999985,464.88987759999986,k,k,1,1.1972319000001335,466.05748199999994,466.05748199999994,466.05748199999994,466.05748199999994,466.05748199999994,466.05748199999994,,,,,,,,,,,,,,,,,,,,,,,,,,,,,,,,,,,,,,,,,,,,,,,314,2022-11-02_11h35.29.661,Main,2022.2.2,60.67040800855385,
negative,negative,1,j,l,0,0,0,0,0,0,0,0,,,,,,,,,6,2,110,0,,,,,,,,,,,,,,,,,,,,,,,,,,,,,,,,,,,,,,,,main,2,2,1,negative,negative,466.05748199999994,466.05748199999994,466.05748199999994,466.05748199999994,467.03560600000014,467.1039042,j,j,1,1.5461041000003206,468.5878145999998,468.5878145999998,468.5878145999998,469.62450060000015,469.62450060000015,469.62450060000015,,,,,,,,,,,,,,,,,,,,,,,,,,,,,,,,,,,,,,,,,,,,,,,314,2022-11-02_11h35.29.661,Main,2022.2.2,60.67040800855385,
negative,neutral,2,j,l,0,0,0,0,0,0,0,0,,,,,,,,,6,3,111,12,,,,,,,,,,,,,,,,,,,,,,,,,,,,,,,,,,,,,,,,main,1,1,2,neutral,negative,469.62450060000015,469.62450060000015,469.62450060000015,469.62450060000015,470.6154678999999,470.6495953000001,j,j,1,1.207576699999663,471.84172609999973,471.84172609999973,471.84172609999973,471.84172609999973,471.84172609999973,471.84172609999973,,,,,,,,,,,,,,,,,,,,,,,,,,,,,,,,,,,,,,,,,,,,,,,314,2022-11-02_11h35.29.661,Main,2022.2.2,60.67040800855385,
negative,positive,2,j,l,0,0,0,0,0,0,0,0,,,,,,,,,6,4,112,15,,,,,,,,,,,,,,,,,,,,,,,,,,,,,,,,,,,,,,,,main,2,2,2,positive,negative,471.84172609999973,471.84172609999973,471.84172609999973,471.84172609999973,472.84092320000013,472.87608669999986,j,j,1,1.0344728000000032,473.87668340000005,473.87668340000005,473.87668340000005,473.87668340000005,473.87668340000005,473.87668340000005,,,,,,,,,,,,,,,,,,,,,,,,,,,,,,,,,,,,,,,,,,,,,,,314,2022-11-02_11h35.29.661,Main,2022.2.2,60.67040800855385,
positive,neutral,2,l,j,0,0,0,0,0,0,0,0,,,,,,,,,6,5,113,17,,,,,,,,,,,,,,,,,,,,,,,,,,,,,,,,,,,,,,,,main,1,1,2,neutral,positive,473.87668340000005,473.87668340000005,473.87668340000005,473.87668340000005,474.8695114999998,474.90533230000005,l,l,1,1.0380228999997598,475.9182595,475.9182595,475.9182595,475.9182595,475.9182595,475.9182595,,,,,,,,,,,,,,,,,,,,,,,,,,,,,,,,,,,,,,,,,,,,,,,314,2022-11-02_11h35.29.661,Main,2022.2.2,60.67040800855385,
positive,negative,1,l,j,0,0,0,0,0,0,0,0,,,,,,,,,6,6,114,5,,,,,,,,,,,,,,,,,,,,,,,,,,,,,,,,,,,,,,,,main,2,2,1,negative,positive,475.9182595,475.9182595,475.9182595,475.9182595,476.89417879999996,476.96091649999994,l,l,1,1.1014690000001792,478.02553909999983,478.02553909999983,478.02553909999983,478.02553909999983,478.02553909999983,478.02553909999983,,,,,,,,,,,,,,,,,,,,,,,,,,,,,,,,,,,,,,,,,,,,,,,314,2022-11-02_11h35.29.661,Main,2022.2.2,60.67040800855385,
positive,positive,1,l,j,0,0,0,0,0,0,0,0,,,,,,,,,6,7,115,2,,,,,,,,,,,,,,,,,,,,,,,,,,,,,,,,,,,,,,,,main,2,2,1,positive,positive,478.02553909999983,478.02553909999983,478.02553909999983,478.02553909999983,479.01097330000016,479.0510155999998,l,l,1,0.873970399999962,479.90384990000007,479.90384990000007,479.90384990000007,479.90384990000007,479.90384990000007,479.90384990000007,,,,,,,,,,,,,,,,,,,,,,,,,,,,,,,,,,,,,,,,,,,,,,,314,2022-11-02_11h35.29.661,Main,2022.2.2,60.67040800855385,
neutral,neutral,2,k,k,0,0,0,0,0,0,0,0,,,,,,,,,6,8,116,10,,,,,,,,,,,,,,,,,,,,,,,,,,,,,,,,,,,,,,,,main,2,2,2,neutral,neutral,479.90384990000007,479.90384990000007,479.90384990000007,479.90384990000007,480.87453819999996,480.94071199999985,k,k,1,1.0362477999997282,481.9450755999999,481.9450755999999,481.9450755999999,481.9450755999999,481.9450755999999,481.9450755999999,,,,,,,,,,,,,,,,,,,,,,,,,,,,,,,,,,,,,,,,,,,,,,,314,2022-11-02_11h35.29.661,Main,2022.2.2,60.67040800855385,
negative,positive,1,j,l,0,0,0,0,0,0,0,0,,,,,,,,,6,9,117,6,,,,,,,,,,,,,,,,,,,,,,,,,,,,,,,,,,,,,,,,main,1,1,1,positive,negative,481.9450755999999,481.9450755999999,481.9450755999999,481.9450755999999,482.93338979999976,482.96416620000014,j,j,1,1.305402999999842,484.2540606,484.2540606,484.2540606,484.2540606,484.2540606,484.2540606,,,,,,,,,,,,,,,,,,,,,,,,,,,,,,,,,,,,,,,,,,,,,,,314,2022-11-02_11h35.29.661,Main,2022.2.2,60.67040800855385,
negative,negative,2,j,l,0,0,0,0,0,0,0,0,,,,,,,,,6,10,118,9,,,,,,,,,,,,,,,,,,,,,,,,,,,,,,,,,,,,,,,,main,1,1,2,negative,negative,484.2540606,484.2540606,484.2540606,484.2540606,485.2253902,485.2963477999999,j,j,1,1.0968972999999096,486.35141799999997,486.35141799999997,486.35141799999997,486.35141799999997,486.35141799999997,486.35141799999997,,,,,,,,,,,,,,,,,,,,,,,,,,,,,,,,,,,,,,,,,,,,,,,314,2022-11-02_11h35.29.661,Main,2022.2.2,60.67040800855385,
positive,neutral,1,l,j,0,0,0,0,0,0,0,0,,,,,,,,,6,11,119,8,,,,,,,,,,,,,,,,,,,,,,,,,,,,,,,,,,,,,,,,main,2,2,1,neutral,positive,486.35141799999997,486.35141799999997,486.35141799999997,486.35141799999997,487.3481297999999,487.38297510000007,l,l,1,1.1640457000003153,488.5180042999998,488.5180042999998,488.5180042999998,488.5180042999998,488.5180042999998,488.5180042999998,,,,,,,,,,,,,,,,,,,,,,,,,,,,,,,,,,,,,,,,,,,,,,,314,2022-11-02_11h35.29.661,Main,2022.2.2,60.67040800855385,
positive,positive,2,l,j,0,0,0,0,0,0,0,0,,,,,,,,,6,12,120,11,,,,,,,,,,,,,,,,,,,,,,,,,,,,,,,,,,,,,,,,main,2,2,2,positive,positive,488.5180042999998,488.5180042999998,488.5180042999998,488.5180042999998,489.4969459000001,489.5642971999998,l,l,1,1.069793000000118,490.5936334999999,490.5936334999999,490.5936334999999,490.5936334999999,490.5936334999999,490.5936334999999,,,,,,,,,,,,,,,,,,,,,,,,,,,,,,,,,,,,,,,,,,,,,,,314,2022-11-02_11h35.29.661,Main,2022.2.2,60.67040800855385,
neutral,positive,1,k,k,0,0,0,0,0,0,0,0,,,,,,,,,6,13,121,4,,,,,,,,,,,,,,,,,,,,,,,,,,,,,,,,,,,,,,,,main,2,2,1,positive,neutral,490.5936334999999,490.5936334999999,490.5936334999999,490.5936334999999,491.5952491999999,491.63254359999996,k,k,1,1.053751999999804,492.6524124,492.6524124,492.6524124,492.6524124,492.6524124,492.6524124,,,,,,,,,,,,,,,,,,,,,,,,,,,,,,,,,,,,,,,,,,,,,,,314,2022-11-02_11h35.29.661,Main,2022.2.2,60.67040800855385,
negative,neutral,1,j,l,0,0,0,0,0,0,0,0,,,,,,,,,6,14,122,3,,,,,,,,,,,,,,,,,,,,,,,,,,,,,,,,,,,,,,,,main,2,2,1,neutral,negative,492.6524124,492.6524124,492.6524124,492.6524124,493.6218904,493.6965647999998,j,j,1,1.1701565999997001,494.8227863999998,494.8227863999998,494.8227863999998,494.8227863999998,494.8227863999998,494.8227863999998,,,,,,,,,,,,,,,,,,,,,,,,,,,,,,,,,,,,,,,,,,,,,,,314,2022-11-02_11h35.29.661,Main,2022.2.2,60.67040800855385,
neutral,negative,2,k,k,0,0,0,0,0,0,0,0,,,,,,,,,6,15,123,16,,,,,,,,,,,,,,,,,,,,,,,,,,,,,,,,,,,,,,,,main,1,1,2,negative,neutral,494.8227863999998,494.8227863999998,494.8227863999998,494.8227863999998,495.8085097999999,495.84377759999984,k,k,1,1.0832162000001517,496.9128140999999,496.9128140999999,496.9128140999999,496.9128140999999,496.9128140999999,496.9128140999999,,,,,,,,,,,,,,,,,,,,,,,,,,,,,,,,,,,,,,,,,,,,,,,314,2022-11-02_11h35.29.661,Main,2022.2.2,60.67040800855385,
neutral,negative,1,k,k,0,0,0,0,0,0,0,0,,,,,,,,,6,16,124,7,,,,,,,,,,,,,,,,,,,,,,,,,,,,,,,,,,,,,,,,main,1,1,1,negative,neutral,496.9128140999999,496.9128140999999,496.9128140999999,496.9128140999999,497.9068512000001,497.9407786999998,k,k,1,1.0827808000003643,498.9965758999999,498.9965758999999,498.9965758999999,498.9965758999999,498.9965758999999,498.9965758999999,,,,,,,,,,,,,,,,,,,,,,,,,,,,,,,,,,,,,,,,,,,,,,,314,2022-11-02_11h35.29.661,Main,2022.2.2,60.67040800855385,
neutral,neutral,1,k,k,0,0,0,0,0,0,0,0,,,,,,,,,6,17,125,1,,,,,,,,,,,,,,,,,,,,,,,,,,,,,,,,,,,,,,,,main,1,1,1,neutral,neutral,498.9965758999999,498.9965758999999,498.9965758999999,498.9965758999999,499.98452729999985,500.0181110000001,k,k,1,0.9753876999998283,500.97559350000006,500.97559350000006,500.97559350000006,500.97559350000006,500.97559350000006,500.97559350000006,,,,,,,,,,,,,,,,,,,,,,,,,,,,,,,,,,,,,,,,,,,,,,,314,2022-11-02_11h35.29.661,Main,2022.2.2,60.67040800855385,
neutral,neutral,2,k,k,0,0,0,0,0,0,0,0,,,,,,,,,7,0,126,10,,,,,,,,,,,,,,,,,,,,,,,,,,,,,,,,,,,,,,,,main,2,2,2,neutral,neutral,500.97559350000006,500.97559350000006,500.97559350000006,500.97559350000006,501.9694391999999,502.00361259999977,k,k,1,1.0704780999999457,503.04817709999975,503.04817709999975,503.04817709999975,503.04817709999975,503.04817709999975,503.04817709999975,,,,,,,,,,,,,,,,,,,,,,,,,,,,,,,,,,,,,,,,,,,,,,,314,2022-11-02_11h35.29.661,Main,2022.2.2,60.67040800855385,
positive,negative,1,l,j,0,0,0,0,0,0,0,0,,,,,,,,,7,1,127,5,,,,,,,,,,,,,,,,,,,,,,,,,,,,,,,,,,,,,,,,main,2,2,1,negative,positive,503.04817709999975,503.04817709999975,503.04817709999975,503.04817709999975,504.0499391999999,504.0838418999999,l,l,1,1.176472300000114,505.23306449999995,505.23306449999995,505.23306449999995,505.23306449999995,505.23306449999995,505.23306449999995,,,,,,,,,,,,,,,,,,,,,,,,,,,,,,,,,,,,,,,,,,,,,,,314,2022-11-02_11h35.29.661,Main,2022.2.2,60.67040800855385,
neutral,negative,2,k,k,0,0,0,0,0,0,0,0,,,,,,,,,7,2,128,16,,,,,,,,,,,,,,,,,,,,,,,,,,,,,,,,,,,,,,,,main,1,1,2,negative,neutral,505.23306449999995,505.23306449999995,505.23306449999995,505.23306449999995,506.21626690000016,506.25044939999975,k,k,1,1.0355635999999322,507.27407289999996,507.27407289999996,507.27407289999996,507.27407289999996,507.27407289999996,507.27407289999996,,,,,,,,,,,,,,,,,,,,,,,,,,,,,,,,,,,,,,,,,,,,,,,314,2022-11-02_11h35.29.661,Main,2022.2.2,60.67040800855385,
negative,positive,2,j,l,0,0,0,0,0,0,0,0,,,,,,,,,7,3,129,15,,,,,,,,,,,,,,,,,,,,,,,,,,,,,,,,,,,,,,,,main,2,2,2,positive,negative,507.27407289999996,507.27407289999996,507.27407289999996,507.27407289999996,508.2652655999998,508.30189369999994,j,j,1,1.025579199999811,509.3077058000001,509.3077058000001,509.3077058000001,509.3077058000001,509.3077058000001,509.3077058000001,,,,,,,,,,,,,,,,,,,,,,,,,,,,,,,,,,,,,,,,,,,,,,,314,2022-11-02_11h35.29.661,Main,2022.2.2,60.67040800855385,
negative,neutral,1,j,l,0,0,0,0,0,0,0,0,,,,,,,,,7,4,130,3,,,,,,,,,,,,,,,,,,,,,,,,,,,,,,,,,,,,,,,,main,2,2,1,neutral,negative,509.3077058000001,509.3077058000001,509.3077058000001,509.3077058000001,510.29875229999993,510.3334662999998,j,j,1,1.2152000000000953,511.51708759999997,511.51708759999997,511.51708759999997,511.51708759999997,511.51708759999997,511.51708759999997,,,,,,,,,,,,,,,,,,,,,,,,,,,,,,,,,,,,,,,,,,,,,,,314,2022-11-02_11h35.29.661,Main,2022.2.2,60.67040800855385,
positive,positive,2,l,j,0,0,0,0,0,0,0,0,,,,,,,,,7,5,131,11,,,,,,,,,,,,,,,,,,,,,,,,,,,,,,,,,,,,,,,,main,1,1,2,positive,positive,511.51708759999997,511.51708759999997,511.51708759999997,511.51708759999997,512.5188898999997,512.5510860000002,l,l,1,1.1442574999996395,513.6693041000001,513.6693041000001,513.6693041000001,513.6693041000001,513.6693041000001,513.6693041000001,,,,,,,,,,,,,,,,,,,,,,,,,,,,,,,,,,,,,,,,,,,,,,,314,2022-11-02_11h35.29.661,Main,2022.2.2,60.67040800855385,
positive,neutral,1,l,j,0,0,0,0,0,0,0,0,,,,,,,,,7,6,132,8,,,,,,,,,,,,,,,,,,,,,,,,,,,,,,,,,,,,,,,,main,1,1,1,neutral,positive,513.6693041000001,513.6693041000001,513.6693041000001,513.6693041000001,514.6385991,514.7053866999997,l,l,1,0.9747072000000117,515.6490843999998,515.6490843999998,515.6490843999998,515.6490843999998,515.6490843999998,515.6490843999998,,,,,,,,,,,,,,,,,,,,,,,,,,,,,,,,,,,,,,,,,,,,,,,314,2022-11-02_11h35.29.661,Main,2022.2.2,60.67040800855385,
negative,positive,1,j,l,0,0,0,0,0,0,0,0,,,,,,,,,7,7,133,6,,,,,,,,,,,,,,,,,,,,,,,,,,,,,,,,,,,,,,,,main,2,2,1,positive,negative,515.6490843999998,515.6490843999998,515.6490843999998,515.6490843999998,516.6409182,516.6746765,j,j,1,1.1114694999996573,517.7609408999999,517.7609408999999,517.7609408999999,517.7609408999999,517.7609408999999,517.7609408999999,,,,,,,,,,,,,,,,,,,,,,,,,,,,,,,,,,,,,,,,,,,,,,,314,2022-11-02_11h35.29.661,Main,2022.2.2,60.67040800855385,
positive,negative,2,l,j,0,0,0,0,0,0,0,0,,,,,,,,,7,8,134,14,,,,,,,,,,,,,,,,,,,,,,,,,,,,,,,,,,,,,,,,main,2,2,2,negative,positive,517.7609408999999,517.7609408999999,517.7609408999999,517.7609408999999,518.7555395000002,518.7890771999998,l,l,1,0.9794220999997378,519.7411878,519.7411878,519.7411878,519.7411878,519.7411878,519.7411878,,,,,,,,,,,,,,,,,,,,,,,,,,,,,,,,,,,,,,,,,,,,,,,314,2022-11-02_11h35.29.661,Main,2022.2.2,60.67040800855385,
positive,neutral,2,l,j,0,0,0,0,0,0,0,0,,,,,,,,,7,9,135,17,0,0,0,0,,,,,,,,,,,,,,,,,,,,,,,,,,,,,,,,,,,,main,1,1,2,neutral,positive,519.7411878,519.7411878,519.7411878,519.7411878,520.7199248,520.7863519999999,l,l,1,0.9350693000001229,521.6643041,521.6643041,521.6643041,521.6643041,521.6643041,521.6643041,,,,,,,,,521.6643041,521.6643041,521.6643041,521.6643041,None,,,,,,,,,,,,,,,,,,,,,,,,,,,,,,,,,,314,2022-11-02_11h35.29.661,Main,2022.2.2,60.67040800855385,
positive,neutral,2,l,j,0,0,0,0,0,0,0,0,,,,,,,,,7,9,135,17,,,,,,,,,,,,,,,,,,,,,,,,,,,,,,,,,,,,,,,,,,,,,,,,,,,,,,,,,,,,,,,,,,,,,,,,,,,,,,,,,,,,,,,,,,,,,,,,,,,,,,,,,,,,314,2022-11-02_11h35.29.661,Main,2022.2.2,60.67040800855385,
neutral,negative,1,k,k,0,0,0,0,0,0,0,0,,,,,,,,,7,10,136,7,,,,,,,,,,,,,,,,,,,,,,,,,,,,,,,,,,,,,,,,main,1,1,1,negative,neutral,581.6922889999998,581.6922889999998,581.6922889999998,581.6922889999998,582.6924581999999,582.7244969000001,k,k,1,1.1817556999999397,583.8712094,583.8712094,583.8712094,583.8712094,583.8712094,583.8712094,,,,,,,,,,,,,,,,,,,,,,,,,,,,,,,,,,,,,,,,,,,,,,,314,2022-11-02_11h35.29.661,Main,2022.2.2,60.67040800855385,
negative,negative,2,j,l,0,0,0,0,0,0,0,0,,,,,,,,,7,11,137,9,,,,,,,,,,,,,,,,,,,,,,,,,,,,,,,,,,,,,,,,main,2,2,2,negative,negative,583.8712094,583.8712094,583.8712094,583.8712094,584.8641700000001,584.8965648999999,j,j,1,1.1939360000001216,586.0708932999999,586.0708932999999,586.0708932999999,586.0708932999999,586.0708932999999,586.0708932999999,,,,,,,,,,,,,,,,,,,,,,,,,,,,,,,,,,,,,,,,,,,,,,,314,2022-11-02_11h35.29.661,Main,2022.2.2,60.67040800855385,
positive,positive,1,l,j,0,0,0,0,0,0,0,0,,,,,,,,,7,12,138,2,,,,,,,,,,,,,,,,,,,,,,,,,,,,,,,,,,,,,,,,main,2,2,1,positive,positive,586.0708932999999,586.0708932999999,586.0708932999999,586.0708932999999,587.0584028000001,587.0929287000001,l,l,1,1.0913894000000255,588.1628975000001,588.1628975000001,588.1628975000001,588.1628975000001,588.1628975000001,588.1628975000001,,,,,,,,,,,,,,,,,,,,,,,,,,,,,,,,,,,,,,,,,,,,,,,314,2022-11-02_11h35.29.661,Main,2022.2.2,60.67040800855385,
neutral,neutral,1,k,k,0,0,0,0,0,0,0,0,,,,,,,,,7,13,139,1,,,,,,,,,,,,,,,,,,,,,,,,,,,,,,,,,,,,,,,,main,2,2,1,neutral,neutral,588.1628975000001,588.1628975000001,588.1628975000001,588.1628975000001,589.1580299,589.1910019,k,k,1,1.0546102000002975,590.2178732,590.2178732,590.2178732,590.2178732,590.2178732,590.2178732,,,,,,,,,,,,,,,,,,,,,,,,,,,,,,,,,,,,,,,,,,,,,,,314,2022-11-02_11h35.29.661,Main,2022.2.2,60.67040800855385,
negative,negative,1,j,l,0,0,0,0,0,0,0,0,,,,,,,,,7,14,140,0,,,,,,,,,,,,,,,,,,,,,,,,,,,,,,,,,,,,,,,,main,2,2,1,negative,negative,590.2178732,590.2178732,590.2178732,590.2178732,591.1928731999999,591.2572779,j,j,1,1.1098141000002215,592.3359030999998,592.3359030999998,592.3359030999998,592.3359030999998,592.3359030999998,592.3359030999998,,,,,,,,,,,,,,,,,,,,,,,,,,,,,,,,,,,,,,,,,,,,,,,314,2022-11-02_11h35.29.661,Main,2022.2.2,60.67040800855385,
neutral,positive,2,k,k,0,0,0,0,0,0,0,0,,,,,,,,,7,15,141,13,,,,,,,,,,,,,,,,,,,,,,,,,,,,,,,,,,,,,,,,main,1,1,2,positive,neutral,592.3359030999998,592.3359030999998,592.3359030999998,592.3359030999998,593.3351033000001,593.3690929000002,k,k,1,1.0107124000001022,594.3506974,594.3506974,594.3506974,594.3506974,594.3506974,594.3506974,,,,,,,,,,,,,,,,,,,,,,,,,,,,,,,,,,,,,,,,,,,,,,,314,2022-11-02_11h35.29.661,Main,2022.2.2,60.67040800855385,
neutral,positive,1,k,k,0,0,0,0,0,0,0,0,,,,,,,,,7,16,142,4,,,,,,,,,,,,,,,,,,,,,,,,,,,,,,,,,,,,,,,,main,1,1,1,positive,neutral,594.3506974,594.3506974,594.3506974,594.3506974,595.3478152999999,595.3813321,k,k,1,0.9998477999997704,596.3542768,596.3542768,596.3542768,596.3542768,596.3542768,596.3542768,,,,,,,,,,,,,,,,,,,,,,,,,,,,,,,,,,,,,,,,,,,,,,,314,2022-11-02_11h35.29.661,Main,2022.2.2,60.67040800855385,
negative,neutral,2,j,l,0,0,0,0,0,0,0,0,,,,,,,,,7,17,143,12,,,,,,,,,,,,,,,,,,,,,,,,,,,,,,,,,,,,,,,,main,2,2,2,neutral,negative,596.3542768,596.3542768,596.3542768,596.3542768,597.3482428,597.3812838000001,j,j,1,1.1187247000002571,598.4808983,598.4808983,598.4808983,598.4808983,598.4808983,598.4808983,,,,,,,,,,,,,,,,,,,,,,,,,,,,,,,,,,,,,,,,,,,,,,,314,2022-11-02_11h35.29.661,Main,2022.2.2,60.67040800855385,
negative,negative,1,j,l,0,0,0,0,0,0,0,0,,,,,,,,,8,0,144,0,,,,,,,,,,,,,,,,,,,,,,,,,,,,,,,,,,,,,,,,main,2,2,1,negative,negative,598.4808983,598.4808983,598.4808983,598.4808983,599.4624310000002,599.5297754999999,j,j,1,1.0562858000002961,600.5338865000001,600.5338865000001,600.5338865000001,600.5338865000001,600.5338865000001,600.5338865000001,,,,,,,,,,,,,,,,,,,,,,,,,,,,,,,,,,,,,,,,,,,,,,,314,2022-11-02_11h35.29.661,Main,2022.2.2,60.67040800855385,
negative,positive,2,j,l,0,0,0,0,0,0,0,0,,,,,,,,,8,1,145,15,,,,,,,,,,,,,,,,,,,,,,,,,,,,,,,,,,,,,,,,main,2,2,2,positive,negative,600.5338865000001,600.5338865000001,600.5338865000001,600.5338865000001,601.5087064000002,601.5787410999999,j,j,1,1.0069852000001447,602.5440738,602.5440738,602.5440738,602.5440738,602.5440738,602.5440738,,,,,,,,,,,,,,,,,,,,,,,,,,,,,,,,,,,,,,,,,,,,,,,314,2022-11-02_11h35.29.661,Main,2022.2.2,60.67040800855385,
neutral,positive,1,k,k,0,0,0,0,0,0,0,0,,,,,,,,,8,2,146,4,,,,,,,,,,,,,,,,,,,,,,,,,,,,,,,,,,,,,,,,main,1,1,1,positive,neutral,602.5440738,602.5440738,602.5440738,602.5440738,603.5393914999997,603.5737369999999,k,k,1,1.0136774000002333,604.5635707999998,604.5635707999998,604.5635707999998,604.5635707999998,604.5635707999998,604.5635707999998,,,,,,,,,,,,,,,,,,,,,,,,,,,,,,,,,,,,,,,,,,,,,,,314,2022-11-02_11h35.29.661,Main,2022.2.2,60.67040800855385,
negative,neutral,2,j,l,0,0,0,0,0,0,0,0,,,,,,,,,8,3,147,12,,,,,,,,,,,,,,,,,,,,,,,,,,,,,,,,,,,,,,,,main,1,1,2,neutral,negative,604.5635707999998,604.5635707999998,604.5635707999998,604.5635707999998,605.5436240000001,605.6115342,j,j,1,1.0856955999997808,606.6508099999999,606.6508099999999,606.6508099999999,606.6508099999999,606.6508099999999,606.6508099999999,,,,,,,,,,,,,,,,,,,,,,,,,,,,,,,,,,,,,,,,,,,,,,,314,2022-11-02_11h35.29.661,Main,2022.2.2,60.67040800855385,
neutral,positive,2,k,k,0,0,0,0,0,0,0,0,,,,,,,,,8,4,148,13,,,,,,,,,,,,,,,,,,,,,,,,,,,,,,,,,,,,,,,,main,1,1,2,positive,neutral,606.6508099999999,606.6508099999999,606.6508099999999,606.6508099999999,607.6301820000001,607.6971317999999,k,k,1,1.0390921999996863,608.6930795999999,608.6930795999999,608.6930795999999,608.6930795999999,608.6930795999999,608.6930795999999,,,,,,,,,,,,,,,,,,,,,,,,,,,,,,,,,,,,,,,,,,,,,,,314,2022-11-02_11h35.29.661,Main,2022.2.2,60.67040800855385,
positive,neutral,1,l,j,0,0,0,0,0,0,0,0,,,,,,,,,8,5,149,8,,,,,,,,,,,,,,,,,,,,,,,,,,,,,,,,,,,,,,,,main,2,2,1,neutral,positive,608.6930795999999,608.6930795999999,608.6930795999999,608.6930795999999,609.6851230999998,609.7197963000001,l,l,1,1.0792480999998588,610.7742249,610.7742249,610.7742249,610.7742249,610.7742249,610.7742249,,,,,,,,,,,,,,,,,,,,,,,,,,,,,,,,,,,,,,,,,,,,,,,314,2022-11-02_11h35.29.661,Main,2022.2.2,60.67040800855385,
neutral,neutral,1,k,k,0,0,0,0,0,0,0,0,,,,,,,,,8,6,150,1,,,,,,,,,,,,,,,,,,,,,,,,,,,,,,,,,,,,,,,,main,1,1,1,neutral,neutral,610.7742249,610.7742249,610.7742249,610.7742249,611.7447967999999,611.8124799,k,k,1,1.015899399999853,612.7908869,612.7908869,612.7908869,612.7908869,612.7908869,612.7908869,,,,,,,,,,,,,,,,,,,,,,,,,,,,,,,,,,,,,,,,,,,,,,,314,2022-11-02_11h35.29.661,Main,2022.2.2,60.67040800855385,
neutral,negative,2,k,k,0,0,0,0,0,0,0,0,,,,,,,,,8,7,151,16,,,,,,,,,,,,,,,,,,,,,,,,,,,,,,,,,,,,,,,,main,1,1,2,negative,neutral,612.7908869,612.7908869,612.7908869,612.7908869,613.7698035000001,613.8332524999998,k,k,1,0.9306097000003319,614.7293803,614.7293803,614.7293803,614.7293803,614.7293803,614.7293803,,,,,,,,,,,,,,,,,,,,,,,,,,,,,,,,,,,,,,,,,,,,,,,314,2022-11-02_11h35.29.661,Main,2022.2.2,60.67040800855385,
negative,neutral,1,j,l,0,0,0,0,0,0,0,0,,,,,,,,,8,8,152,3,,,,,,,,,,,,,,,,,,,,,,,,,,,,,,,,,,,,,,,,main,2,2,1,neutral,negative,614.7293803,614.7293803,614.7293803,614.7293803,615.7102720999999,615.7920204,j,j,1,1.1455948000002536,616.8752646999999,616.8752646999999,616.8752646999999,616.8752646999999,616.8752646999999,616.8752646999999,,,,,,,,,,,,,,,,,,,,,,,,,,,,,,,,,,,,,,,,,,,,,,,314,2022-11-02_11h35.29.661,Main,2022.2.2,60.67040800855385,
negative,negative,2,j,l,0,0,0,0,0,0,0,0,,,,,,,,,8,9,153,9,,,,,,,,,,,,,,,,,,,,,,,,,,,,,,,,,,,,,,,,main,2,2,2,negative,negative,616.8752646999999,616.8752646999999,616.8752646999999,616.8752646999999,617.8509305,617.9160396999998,j,j,1,1.1478016000000935,619.0246332999998,619.0246332999998,619.0246332999998,619.0246332999998,619.0246332999998,619.0246332999998,,,,,,,,,,,,,,,,,,,,,,,,,,,,,,,,,,,,,,,,,,,,,,,314,2022-11-02_11h35.29.661,Main,2022.2.2,60.67040800855385,
positive,positive,1,l,j,0,0,0,0,0,0,0,0,,,,,,,,,8,10,154,2,,,,,,,,,,,,,,,,,,,,,,,,,,,,,,,,,,,,,,,,main,1,1,1,positive,positive,619.0246332999998,619.0246332999998,619.0246332999998,619.0246332999998,620.0004932999998,620.0631455999999,l,l,1,1.1512993000001188,621.1861768000001,621.1861768000001,621.1861768000001,621.1861768000001,621.1861768000001,621.1861768000001,,,,,,,,,,,,,,,,,,,,,,,,,,,,,,,,,,,,,,,,,,,,,,,314,2022-11-02_11h35.29.661,Main,2022.2.2,60.67040800855385,
positive,negative,2,l,j,0,0,0,0,0,0,0,0,,,,,,,,,8,11,155,14,,,,,,,,,,,,,,,,,,,,,,,,,,,,,,,,,,,,,,,,main,2,2,2,negative,positive,621.1861768000001,621.1861768000001,621.1861768000001,621.1861768000001,622.1644893,622.2282662,l,l,1,1.0123404000000846,623.1979100000001,623.1979100000001,623.1979100000001,623.1979100000001,623.1979100000001,623.1979100000001,,,,,,,,,,,,,,,,,,,,,,,,,,,,,,,,,,,,,,,,,,,,,,,314,2022-11-02_11h35.29.661,Main,2022.2.2,60.67040800855385,
positive,positive,2,l,j,0,0,0,0,0,0,0,0,,,,,,,,,8,12,156,11,,,,,,,,,,,,,,,,,,,,,,,,,,,,,,,,,,,,,,,,main,2,2,2,positive,positive,623.1979100000001,623.1979100000001,623.1979100000001,623.1979100000001,624.1979684,624.2317615,l,l,1,0.9095693000003848,625.1079696999998,625.1079696999998,625.1079696999998,625.1079696999998,625.1079696999998,625.1079696999998,,,,,,,,,,,,,,,,,,,,,,,,,,,,,,,,,,,,,,,,,,,,,,,314,2022-11-02_11h35.29.661,Main,2022.2.2,60.67040800855385,
neutral,negative,1,k,k,0,0,0,0,0,0,0,0,,,,,,,,,8,13,157,7,,,,,,,,,,,,,,,,,,,,,,,,,,,,,,,,,,,,,,,,main,1,1,1,negative,neutral,625.1079696999998,625.1079696999998,625.1079696999998,625.1079696999998,626.0906784000001,626.1379080999998,k,k,1,1.0196399999999812,627.1319378999999,627.1319378999999,627.1319378999999,627.1319378999999,627.1319378999999,627.1319378999999,,,,,,,,,,,,,,,,,,,,,,,,,,,,,,,,,,,,,,,,,,,,,,,314,2022-11-02_11h35.29.661,Main,2022.2.2,60.67040800855385,
positive,neutral,2,l,j,0,0,0,0,0,0,0,0,,,,,,,,,8,14,158,17,,,,,,,,,,,,,,,,,,,,,,,,,,,,,,,,,,,,,,,,main,2,2,2,neutral,positive,627.1319378999999,627.1319378999999,627.1319378999999,627.1319378999999,628.1190454999999,628.1533126000002,l,l,1,0.9054733999996643,629.0378776999999,629.0378776999999,629.0378776999999,629.0378776999999,629.0378776999999,629.0378776999999,,,,,,,,,,,,,,,,,,,,,,,,,,,,,,,,,,,,,,,,,,,,,,,314,2022-11-02_11h35.29.661,Main,2022.2.2,60.67040800855385,
neutral,neutral,2,k,k,0,0,0,0,0,0,0,0,,,,,,,,,8,15,159,10,,,,,,,,,,,,,,,,,,,,,,,,,,,,,,,,,,,,,,,,main,1,1,2,neutral,neutral,629.0378776999999,629.0378776999999,629.0378776999999,629.0378776999999,630.0328271000001,630.0673490000001,k,k,1,1.0913766999997279,631.1356256000001,631.1356256000001,631.1356256000001,631.1356256000001,631.1356256000001,631.1356256000001,,,,,,,,,,,,,,,,,,,,,,,,,,,,,,,,,,,,,,,,,,,,,,,314,2022-11-02_11h35.29.661,Main,2022.2.2,60.67040800855385,
positive,negative,1,l,j,0,0,0,0,0,0,0,0,,,,,,,,,8,16,160,5,,,,,,,,,,,,,,,,,,,,,,,,,,,,,,,,,,,,,,,,main,2,2,1,negative,positive,631.1356256000001,631.1356256000001,631.1356256000001,631.1356256000001,632.1329380999998,632.1647144000001,l,l,1,1.0274708000001738,633.1715806999998,633.1715806999998,633.1715806999998,633.1715806999998,633.1715806999998,633.1715806999998,,,,,,,,,,,,,,,,,,,,,,,,,,,,,,,,,,,,,,,,,,,,,,,314,2022-11-02_11h35.29.661,Main,2022.2.2,60.67040800855385,
negative,positive,1,j,l,0,0,0,0,0,0,0,0,,,,,,,,,8,17,161,6,,,,,,,,,,,,,,,,,,,,,,,,,,,,,,,,,,,,,,,,main,1,1,1,positive,negative,633.1715806999998,633.1715806999998,633.1715806999998,633.1715806999998,634.1636932999997,634.1963336000001,j,j,1,1.2154725999998846,635.3896223999998,635.3896223999998,635.3896223999998,635.3896223999998,635.3896223999998,635.3896223999998,,,,,,,,,,,,,,,,,,,,,,,,,,,,,,,,,,,,,,,,,,,,,,,314,2022-11-02_11h35.29.661,Main,2022.2.2,60.67040800855385,
negative,positive,2,j,l,0,0,0,0,0,0,0,0,,,,,,,,,9,0,162,15,,,,,,,,,,,,,,,,,,,,,,,,,,,,,,,,,,,,,,,,main,1,1,2,positive,negative,635.3896223999998,635.3896223999998,635.3896223999998,635.3896223999998,636.3814061,636.4176719999998,j,j,1,2.8802749000001313,639.2500272999998,639.2500272999998,639.2500272999998,640.2856055999998,640.2856055999998,640.2856055999998,,,,,,,,,,,,,,,,,,,,,,,,,,,,,,,,,,,,,,,,,,,,,,,314,2022-11-02_11h35.29.661,Main,2022.2.2,60.67040800855385,
neutral,positive,2,k,k,0,0,0,0,0,0,0,0,,,,,,,,,9,1,163,13,,,,,,,,,,,,,,,,,,,,,,,,,,,,,,,,,,,,,,,,main,1,1,2,positive,neutral,640.2856055999998,640.2856055999998,640.2856055999998,640.2856055999998,641.2728187999999,641.3067238000001,k,k,1,1.0434147999999368,642.3398924999999,642.3398924999999,642.3398924999999,642.3398924999999,642.3398924999999,642.3398924999999,,,,,,,,,,,,,,,,,,,,,,,,,,,,,,,,,,,,,,,,,,,,,,,314,2022-11-02_11h35.29.661,Main,2022.2.2,60.67040800855385,
negative,positive,1,j,l,0,0,0,0,0,0,0,0,,,,,,,,,9,2,164,6,,,,,,,,,,,,,,,,,,,,,,,,,,,,,,,,,,,,,,,,main,2,2,1,positive,negative,642.3398924999999,642.3398924999999,642.3398924999999,642.3398924999999,643.3201634,643.3871858,j,j,1,1.0572651000002224,644.4003980999998,644.4003980999998,644.4003980999998,644.4003980999998,644.4003980999998,644.4003980999998,,,,,,,,,,,,,,,,,,,,,,,,,,,,,,,,,,,,,,,,,,,,,,,314,2022-11-02_11h35.29.661,Main,2022.2.2,60.67040800855385,
positive,positive,1,l,j,0,0,0,0,0,0,0,0,,,,,,,,,9,3,165,2,,,,,,,,,,,,,,,,,,,,,,,,,,,,,,,,,,,,,,,,main,1,1,1,positive,positive,644.4003980999998,644.4003980999998,644.4003980999998,644.4003980999998,645.3856573,645.4177975999999,l,l,1,1.0931902000002083,646.4964733999998,646.4964733999998,646.4964733999998,646.4964733999998,646.4964733999998,646.4964733999998,,,,,,,,,,,,,,,,,,,,,,,,,,,,,,,,,,,,,,,,,,,,,,,314,2022-11-02_11h35.29.661,Main,2022.2.2,60.67040800855385,
negative,negative,2,j,l,0,0,0,0,0,0,0,0,,,,,,,,,9,4,166,9,,,,,,,,,,,,,,,,,,,,,,,,,,,,,,,,,,,,,,,,main,1,1,2,negative,negative,646.4964733999998,646.4964733999998,646.4964733999998,646.4964733999998,647.4846959999998,647.5201205999999,j,j,1,0.9828517999999349,648.4860265,648.4860265,648.4860265,648.4860265,648.4860265,648.4860265,,,,,,,,,,,,,,,,,,,,,,,,,,,,,,,,,,,,,,,,,,,,,,,314,2022-11-02_11h35.29.661,Main,2022.2.2,60.67040800855385,
negative,negative,1,j,l,0,0,0,0,0,0,0,0,,,,,,,,,9,5,167,0,,,,,,,,,,,,,,,,,,,,,,,,,,,,,,,,,,,,,,,,main,1,1,1,negative,negative,648.4860265,648.4860265,648.4860265,648.4860265,649.482393,649.5162176000001,j,j,1,1.1208953000000292,650.6069688999999,650.6069688999999,650.6069688999999,650.6069688999999,650.6069688999999,650.6069688999999,,,,,,,,,,,,,,,,,,,,,,,,,,,,,,,,,,,,,,,,,,,,,,,314,2022-11-02_11h35.29.661,Main,2022.2.2,60.67040800855385,
positive,neutral,1,l,j,0,0,0,0,0,0,0,0,,,,,,,,,9,6,168,8,,,,,,,,,,,,,,,,,,,,,,,,,,,,,,,,,,,,,,,,main,2,2,1,neutral,positive,650.6069688999999,650.6069688999999,650.6069688999999,650.6069688999999,651.6041542999999,651.6441019000001,l,l,1,0.9607043000000886,652.5769079999998,652.5769079999998,652.5769079999998,652.5769079999998,652.5769079999998,652.5769079999998,,,,,,,,,,,,,,,,,,,,,,,,,,,,,,,,,,,,,,,,,,,,,,,314,2022-11-02_11h35.29.661,Main,2022.2.2,60.67040800855385,
neutral,neutral,1,k,k,0,0,0,0,0,0,0,0,,,,,,,,,9,7,169,1,,,,,,,,,,,,,,,,,,,,,,,,,,,,,,,,,,,,,,,,main,2,2,1,neutral,neutral,652.5769079999998,652.5769079999998,652.5769079999998,652.5769079999998,653.5767825999999,653.6131189999999,k,k,1,0.9930945999999494,654.5741052000001,654.5741052000001,654.5741052000001,654.5741052000001,654.5741052000001,654.5741052000001,,,,,,,,,,,,,,,,,,,,,,,,,,,,,,,,,,,,,,,,,,,,,,,314,2022-11-02_11h35.29.661,Main,2022.2.2,60.67040800855385,
positive,neutral,2,l,j,0,0,0,0,0,0,0,0,,,,,,,,,9,8,170,17,,,,,,,,,,,,,,,,,,,,,,,,,,,,,,,,,,,,,,,,main,1,1,2,neutral,positive,654.5741052000001,654.5741052000001,654.5741052000001,654.5741052000001,655.5463490999998,655.6132147999999,l,l,1,1.0716231000001244,656.6493993000001,656.6493993000001,656.6493993000001,656.6493993000001,656.6493993000001,656.6493993000001,,,,,,,,,,,,,,,,,,,,,,,,,,,,,,,,,,,,,,,,,,,,,,,314,2022-11-02_11h35.29.661,Main,2022.2.2,60.67040800855385,
