target,distractor,set,ans1,ans2,total_experiment.thisRepN,total_experiment.thisTrialN,total_experiment.thisN,total_experiment.thisIndex,boat.thisRepN,boat.thisTrialN,boat.thisN,boat.thisIndex,fl_rep_loop2.thisRepN,fl_rep_loop2.thisTrialN,fl_rep_loop2.thisN,fl_rep_loop2.thisIndex,flanker_prac_loop.thisRepN,flanker_prac_loop.thisTrialN,flanker_prac_loop.thisN,flanker_prac_loop.thisIndex,flanker_main_loop.thisRepN,flanker_main_loop.thisTrialN,flanker_main_loop.thisN,flanker_main_loop.thisIndex,flanker_rest.thisRepN,flanker_rest.thisTrialN,flanker_rest.thisN,flanker_rest.thisIndex,para.thisRepN,para.thisTrialN,para.thisN,para.thisIndex,para_rep_loop.thisRepN,para_rep_loop.thisTrialN,para_rep_loop.thisN,para_rep_loop.thisIndex,para_prac_loop.thisRepN,para_prac_loop.thisTrialN,para_prac_loop.thisN,para_prac_loop.thisIndex,para_main_loop.thisRepN,para_main_loop.thisTrialN,para_main_loop.thisN,para_main_loop.thisIndex,para_rest.thisRepN,para_rest.thisTrialN,para_rest.thisN,para_rest.thisIndex,fl_starter_back.started,fl_starter.started,fl_starter_text.started,fl_starter.keys,fl_starter.rt,fl_inst_resp.keys,fl_inst_resp.rt,fl_back.started,fl_mouse_prac.started,fl_mouse_prac.x,fl_mouse_prac.y,fl_mouse_prac.leftButton,fl_mouse_prac.midButton,fl_mouse_prac.rightButton,back_2.started,main_prac,fl_cold,fl_colt,fl_set,fl_dcond,fl_tcond,fl_fix.started,j_button.started,k_button.started,l_button.started,targ.started,fl_fix.stopped,fl_ans,fl_res,fl_corr,fl_rt,j_button2.started,k_button2.started,l_button2.started,j_button2.stopped,k_button2.stopped,l_button2.stopped,fl_mainback.started,fl_mouse_m.started,fl_key_resp.keys,fl_mouse_m.x,fl_mouse_m.y,fl_mouse_m.leftButton,fl_mouse_m.midButton,fl_mouse_m.rightButton,rest_text.started,rest_key.started,rest_inst_text.started,rest_time.started,rest_key.keys,exp_end_key.started,exp_end_back.started,exp_end_text.started,exp_end_key.keys,exp_end_key.rt,para_starter.started,para_starter_key.started,para_starter_key.keys,para_starter_key.rt,para_inst_sound.started,para_inst_key.keys,para_inst_key.rt,para_inst_image.started,para_prac_back.started,para_prac_text.started,para_fix_back.started,para_fix_2.started,para_back.started,st_ans,st_res,st_corr,st_rt,st2_resp.keys,st2_resp.corr,para_main_back.started,para_main_text.started,para_mouse.started,para_mouse.x,para_mouse.y,para_mouse.leftButton,para_mouse.midButton,para_mouse.rightButton,total_end_text.started,id*,date,expName,psychopyVersion,frameRate,
,,,,,0,0,0,0,0,0,0,0,0,0,0,0,,,,,,,,,,,,,,,,,,,,,,,,,,,,,,,,,48.79320110000026,48.79320110000026,50.72803870000007,space,71.73725869999998,space,49.5485405999998,171.1783045000002,,,,,,,,,,,,,,,,,,,,,,,,,,,,,,,,,,,,,,,,,,,,,,,,,,,,,,,,,,,,,,,,,,,,,,,,,,,,316,2022-11-24_13h06.51.621,Main,2022.2.2,59.844941756049835,
negative,positive,2,j,l,0,0,0,0,0,0,0,0,,,,,0,0,0,15,,,,,,,,,,,,,,,,,,,,,,,,,,,,,,,,,,,,,0.0026717000000644475,-0.012037037037037037,-0.05555555555555555,0,0,0,174.39711400000033,prac,2,2,2,positive,negative,176.5883530000001,176.5883530000001,176.5883530000001,176.5883530000001,177.56477970000014,177.63619830000016,j,j,1,3.363680899999963,180.93996640000023,180.93996640000023,180.93996640000023,182.0012810000003,182.0012810000003,182.0012810000003,,,,,,,,,,,,,,,,,,,,,,,,,,,,,,,,,,,,,,,,,,,,,,,316,2022-11-24_13h06.51.621,Main,2022.2.2,59.844941756049835,
neutral,negative,1,k,k,0,0,0,0,0,0,0,0,,,,,0,1,1,7,,,,,,,,,,,,,,,,,,,,,,,,,,,,,,,,,,,,,,,,,,,,prac,1,1,1,negative,neutral,182.0012810000003,182.0012810000003,182.0012810000003,182.0012810000003,182.99093660000017,183.02331970000023,k,k,1,1.2550937000000886,184.25725469999998,184.25725469999998,184.25725469999998,184.25725469999998,184.25725469999998,184.25725469999998,,,,,,,,,,,,,,,,,,,,,,,,,,,,,,,,,,,,,,,,,,,,,,,316,2022-11-24_13h06.51.621,Main,2022.2.2,59.844941756049835,
positive,neutral,1,l,j,0,0,0,0,0,0,0,0,,,,,0,2,2,8,,,,,,,,,,,,,,,,,,,,,,,,,,,,,,,,,,,,,,,,,,,,prac,2,2,1,neutral,positive,184.25725469999998,184.25725469999998,184.25725469999998,184.25725469999998,185.25483500000018,185.28681750000032,l,l,1,1.0916849999998703,186.3535552000003,186.3535552000003,186.3535552000003,186.3535552000003,186.3535552000003,186.3535552000003,,,,,,,,,,,,,,,,,,,,,,,,,,,,,,,,,,,,,,,,,,,,,,,316,2022-11-24_13h06.51.621,Main,2022.2.2,59.844941756049835,
positive,positive,1,l,j,0,0,0,0,0,0,0,0,,,,,0,3,3,2,,,,,,,,,,,,,,,,,,,,,,,,,,,,,,,,,,,,,,,,,,,,prac,1,1,1,positive,positive,186.3535552000003,186.3535552000003,186.3535552000003,186.3535552000003,187.34032300000035,187.37649760000022,l,l,1,0.791298800000277,188.1434790000003,188.1434790000003,188.1434790000003,188.1434790000003,188.1434790000003,188.1434790000003,,,,,,,,,,,,,,,,,,,,,,,,,,,,,,,,,,,,,,,,,,,,,,,316,2022-11-24_13h06.51.621,Main,2022.2.2,59.844941756049835,
neutral,positive,1,k,k,0,0,0,0,0,0,0,0,,,,,0,4,4,4,,,,,,,,,,,,,,,,,,,,,,,,,,,,,,,,,,,,,,,,,,,,prac,1,1,1,positive,neutral,188.1434790000003,188.1434790000003,188.1434790000003,188.1434790000003,189.14162240000041,189.18078790000027,k,k,1,1.1096059999999852,190.26440850000017,190.26440850000017,190.26440850000017,190.26440850000017,190.26440850000017,190.26440850000017,,,,,,,,,,,,,,,,,,,,,,,,,,,,,,,,,,,,,,,,,,,,,,,316,2022-11-24_13h06.51.621,Main,2022.2.2,59.844941756049835,
neutral,neutral,2,k,k,0,0,0,0,0,0,0,0,,,,,0,5,5,10,,,,,,,,,,,,,,,,,,,,,,,,,,,,,,,,,,,,,,,,,,,,prac,1,1,2,neutral,neutral,190.26440850000017,190.26440850000017,190.26440850000017,190.26440850000017,191.2710304000002,191.30306370000017,k,k,1,1.0469285999997737,192.3130655,192.3130655,192.3130655,192.3130655,192.3130655,192.3130655,,,,,,,,,,,,,,,,,,,,,,,,,,,,,,,,,,,,,,,,,,,,,,,316,2022-11-24_13h06.51.621,Main,2022.2.2,59.844941756049835,
negative,negative,2,j,l,0,0,0,0,0,0,0,0,,,,,0,6,6,9,,,,,,,,,,,,,,,,,,,,,,,,,,,,,,,,,,,,,,,,,,,,prac,1,1,2,negative,negative,192.3130655,192.3130655,192.3130655,192.3130655,193.29640560000007,193.33448700000008,j,j,1,1.0440809000001536,194.3566568000001,194.3566568000001,194.3566568000001,194.3566568000001,194.3566568000001,194.3566568000001,,,,,,,,,,,,,,,,,,,,,,,,,,,,,,,,,,,,,,,,,,,,,,,316,2022-11-24_13h06.51.621,Main,2022.2.2,59.844941756049835,
positive,negative,1,l,j,0,0,0,0,0,0,0,0,,,,,0,7,7,5,,,,,,,,,,,,,,,,,,,,,,,,,,,,,,,,,,,,,,,,,,,,prac,2,2,1,negative,positive,194.3566568000001,194.3566568000001,194.3566568000001,194.3566568000001,195.33152930000006,195.39897880000035,l,l,1,1.0276410000001306,196.38362510000024,196.38362510000024,196.38362510000024,196.38362510000024,196.38362510000024,196.38362510000024,,,,,,,,,,,,,,,,,,,,,,,,,,,,,,,,,,,,,,,,,,,,,,,316,2022-11-24_13h06.51.621,Main,2022.2.2,59.844941756049835,
neutral,positive,2,k,k,0,0,0,0,0,0,0,0,,,,,0,8,8,13,,,,,,,,,,,,,,,,,,,,,,,,,,,,,,,,,,,,,,,,,,,,prac,2,2,2,positive,neutral,196.38362510000024,196.38362510000024,196.38362510000024,196.38362510000024,197.3849835000001,197.41778470000008,k,k,1,0.8268032000000858,198.22287330000017,198.22287330000017,198.22287330000017,198.22287330000017,198.22287330000017,198.22287330000017,,,,,,,,,,,,,,,,,,,,,,,,,,,,,,,,,,,,,,,,,,,,,,,316,2022-11-24_13h06.51.621,Main,2022.2.2,59.844941756049835,
negative,positive,1,j,l,0,0,0,0,0,0,0,0,,,,,0,9,9,6,,,,,,,,,,,,,,,,,,,,,,,,,,,,,,,,,,,,,,,,,,,,prac,1,1,1,positive,negative,198.22287330000017,198.22287330000017,198.22287330000017,198.22287330000017,199.18151699999999,199.24697070000002,j,j,1,1.137855199999649,200.35926850000033,200.35926850000033,200.35926850000033,200.35926850000033,200.35926850000033,200.35926850000033,,,,,,,,,,,,,,,,,,,,,,,,,,,,,,,,,,,,,,,,,,,,,,,316,2022-11-24_13h06.51.621,Main,2022.2.2,59.844941756049835,
positive,neutral,2,l,j,0,0,0,0,0,0,0,0,,,,,0,10,10,17,,,,,,,,,,,,,,,,,,,,,,,,,,,,,,,,,,,,,,,,,,,,prac,2,2,2,neutral,positive,200.35926850000033,200.35926850000033,200.35926850000033,200.35926850000033,201.3497367,201.38376300000027,l,l,1,1.0228195999998206,202.37680590000036,202.37680590000036,202.37680590000036,202.37680590000036,202.37680590000036,202.37680590000036,,,,,,,,,,,,,,,,,,,,,,,,,,,,,,,,,,,,,,,,,,,,,,,316,2022-11-24_13h06.51.621,Main,2022.2.2,59.844941756049835,
neutral,negative,2,k,k,0,0,0,0,0,0,0,0,,,,,0,11,11,16,,,,,,,,,,,,,,,,,,,,,,,,,,,,,,,,,,,,,,,,,,,,prac,2,2,2,negative,neutral,202.37680590000036,202.37680590000036,202.37680590000036,202.37680590000036,203.36825380000028,203.40339240000003,k,k,1,0.839154100000087,204.22324690000005,204.22324690000005,204.22324690000005,204.22324690000005,204.22324690000005,204.22324690000005,,,,,,,,,,,,,,,,,,,,,,,,,,,,,,,,,,,,,,,,,,,,,,,316,2022-11-24_13h06.51.621,Main,2022.2.2,59.844941756049835,
positive,positive,2,l,j,0,0,0,0,0,0,0,0,,,,,0,12,12,11,,,,,,,,,,,,,,,,,,,,,,,,,,,,,,,,,,,,,,,,,,,,prac,1,1,2,positive,positive,204.22324690000005,204.22324690000005,204.22324690000005,204.22324690000005,205.23711420000018,205.2700460000001,l,l,1,1.3428702000001067,206.56284790000018,206.56284790000018,206.56284790000018,206.56284790000018,206.56284790000018,206.56284790000018,,,,,,,,,,,,,,,,,,,,,,,,,,,,,,,,,,,,,,,,,,,,,,,316,2022-11-24_13h06.51.621,Main,2022.2.2,59.844941756049835,
negative,negative,1,j,l,0,0,0,0,0,0,0,0,,,,,0,13,13,0,,,,,,,,,,,,,,,,,,,,,,,,,,,,,,,,,,,,,,,,,,,,prac,1,1,1,negative,negative,206.56284790000018,206.56284790000018,206.56284790000018,206.56284790000018,207.54096500000014,207.60714600000028,j,l,0,0.8667263999996067,208.4233387000004,208.4233387000004,208.4233387000004,209.4733027000002,209.4733027000002,209.4733027000002,,,,,,,,,,,,,,,,,,,,,,,,,,,,,,,,,,,,,,,,,,,,,,,316,2022-11-24_13h06.51.621,Main,2022.2.2,59.844941756049835,
neutral,neutral,1,k,k,0,0,0,0,0,0,0,0,,,,,0,14,14,1,,,,,,,,,,,,,,,,,,,,,,,,,,,,,,,,,,,,,,,,,,,,prac,2,2,1,neutral,neutral,209.4733027000002,209.4733027000002,209.4733027000002,209.4733027000002,210.47883010000032,210.51322300000038,k,k,1,0.9499664999998458,211.42339270000002,211.42339270000002,211.42339270000002,211.42339270000002,211.42339270000002,211.42339270000002,,,,,,,,,,,,,,,,,,,,,,,,,,,,,,,,,,,,,,,,,,,,,,,316,2022-11-24_13h06.51.621,Main,2022.2.2,59.844941756049835,
negative,neutral,2,j,l,0,0,0,0,0,0,0,0,,,,,0,15,15,12,,,,,,,,,,,,,,,,,,,,,,,,,,,,,,,,,,,,,,,,,,,,prac,2,2,2,neutral,negative,211.42339270000002,211.42339270000002,211.42339270000002,211.42339270000002,212.40289789999997,212.47906450000028,j,k,0,0.7811336999998275,213.18619630000012,213.18619630000012,213.18619630000012,214.24405670000033,214.24405670000033,214.24405670000033,,,,,,,,,,,,,,,,,,,,,,,,,,,,,,,,,,,,,,,,,,,,,,,316,2022-11-24_13h06.51.621,Main,2022.2.2,59.844941756049835,
positive,negative,2,l,j,0,0,0,0,0,0,0,0,,,,,0,16,16,14,,,,,,,,,,,,,,,,,,,,,,,,,,,,,,,,,,,,,,,,,,,,prac,2,2,2,negative,positive,214.24405670000033,214.24405670000033,214.24405670000033,214.24405670000033,215.23113650000005,215.26479150000023,l,l,1,1.2045717999999397,216.45174600000018,216.45174600000018,216.45174600000018,216.45174600000018,216.45174600000018,216.45174600000018,,,,,,,,,,,,,,,,,,,,,,,,,,,,,,,,,,,,,,,,,,,,,,,316,2022-11-24_13h06.51.621,Main,2022.2.2,59.844941756049835,
negative,neutral,1,j,l,0,0,0,0,0,0,0,0,,,,,0,17,17,3,,,,,,,,,,,,,,,,,,,,,,,,,,,,,,,,,,,,,,,,,,,,prac,2,2,1,neutral,negative,216.45174600000018,216.45174600000018,216.45174600000018,216.45174600000018,217.4402210000003,217.4796784,j,j,1,1.355895099999998,218.80638910000016,218.80638910000016,218.80638910000016,218.80638910000016,218.80638910000016,218.80638910000016,,,,,,,,,,,,,,,,,,,,,,,,,,,,,,,,,,,,,,,,,,,,,,,316,2022-11-24_13h06.51.621,Main,2022.2.2,59.844941756049835,
neutral,neutral,2,k,k,0,0,0,0,0,0,0,0,,,,,1,0,18,10,,,,,,,,,,,,,,,,,,,,,,,,,,,,,,,,,,,,,,,,,,,,prac,2,2,2,neutral,neutral,218.80638910000016,218.80638910000016,218.80638910000016,218.80638910000016,219.80534930000022,219.84548470000027,k,k,1,0.9235816000000341,220.7379632000002,220.7379632000002,220.7379632000002,220.7379632000002,220.7379632000002,220.7379632000002,,,,,,,,,,,,,,,,,,,,,,,,,,,,,,,,,,,,,,,,,,,,,,,316,2022-11-24_13h06.51.621,Main,2022.2.2,59.844941756049835,
positive,neutral,1,l,j,0,0,0,0,0,0,0,0,,,,,1,1,19,8,,,,,,,,,,,,,,,,,,,,,,,,,,,,,,,,,,,,,,,,,,,,prac,2,2,1,neutral,positive,220.7379632000002,220.7379632000002,220.7379632000002,220.7379632000002,221.74626239999998,221.7836368000003,l,l,1,1.6057355999996616,223.32412569999997,223.32412569999997,223.32412569999997,224.37058730000035,224.37058730000035,224.37058730000035,,,,,,,,,,,,,,,,,,,,,,,,,,,,,,,,,,,,,,,,,,,,,,,316,2022-11-24_13h06.51.621,Main,2022.2.2,59.844941756049835,
negative,positive,2,j,l,0,0,0,0,0,0,0,0,,,,,1,2,20,15,,,,,,,,,,,,,,,,,,,,,,,,,,,,,,,,,,,,,,,,,,,,prac,2,2,2,positive,negative,224.37058730000035,224.37058730000035,224.37058730000035,224.37058730000035,225.37156970000024,225.4121226000002,j,j,1,2.087119199999961,227.42981790000022,227.42981790000022,227.42981790000022,228.48210120000022,228.48210120000022,228.48210120000022,,,,,,,,,,,,,,,,,,,,,,,,,,,,,,,,,,,,,,,,,,,,,,,316,2022-11-24_13h06.51.621,Main,2022.2.2,59.844941756049835,
neutral,positive,2,k,k,0,0,0,0,0,0,0,0,,,,,1,3,21,13,,,,,,,,,,,,,,,,,,,,,,,,,,,,,,,,,,,,,,,,,,,,prac,1,1,2,positive,neutral,228.48210120000022,228.48210120000022,228.48210120000022,228.48210120000022,229.45989880000025,229.52410370000007,k,k,1,0.8696107999999185,230.35863700000027,230.35863700000027,230.35863700000027,230.35863700000027,230.35863700000027,230.35863700000027,,,,,,,,,,,,,,,,,,,,,,,,,,,,,,,,,,,,,,,,,,,,,,,316,2022-11-24_13h06.51.621,Main,2022.2.2,59.844941756049835,
positive,positive,1,l,j,0,0,0,0,0,0,0,0,,,,,1,4,22,2,,,,,,,,,,,,,,,,,,,,,,,,,,,,,,,,,,,,,,,,,,,,prac,2,2,1,positive,positive,230.35863700000027,230.35863700000027,230.35863700000027,230.35863700000027,231.3457754000001,231.37909070000023,l,l,1,1.1891201999997065,232.54952550000007,232.54952550000007,232.54952550000007,232.54952550000007,232.54952550000007,232.54952550000007,,,,,,,,,,,,,,,,,,,,,,,,,,,,,,,,,,,,,,,,,,,,,,,316,2022-11-24_13h06.51.621,Main,2022.2.2,59.844941756049835,
negative,positive,1,j,l,0,0,0,0,0,0,0,0,,,,,1,5,23,6,,,,,,,,,,,,,,,,,,,,,,,,,,,,,,,,,,,,,,,,,,,,prac,1,1,1,positive,negative,232.54952550000007,232.54952550000007,232.54952550000007,232.54952550000007,233.54814450000003,233.5801351,j,j,1,0.9122615000001133,234.4614029000004,234.4614029000004,234.4614029000004,234.4614029000004,234.4614029000004,234.4614029000004,,,,,,,,,,,,,,,,,,,,,,,,,,,,,,,,,,,,,,,,,,,,,,,316,2022-11-24_13h06.51.621,Main,2022.2.2,59.844941756049835,
neutral,positive,1,k,k,0,0,0,0,0,0,0,0,,,,,1,6,24,4,,,,,,,,,,,,,,,,,,,,,,,,,,,,,,,,,,,,,,,,,,,,prac,2,2,1,positive,neutral,234.4614029000004,234.4614029000004,234.4614029000004,234.4614029000004,235.43929640000033,235.5076184000004,k,k,1,0.9334380999998757,236.3972431000002,236.3972431000002,236.3972431000002,236.3972431000002,236.3972431000002,236.3972431000002,,,,,,,,,,,,,,,,,,,,,,,,,,,,,,,,,,,,,,,,,,,,,,,316,2022-11-24_13h06.51.621,Main,2022.2.2,59.844941756049835,
negative,negative,2,j,l,0,0,0,0,0,0,0,0,,,,,1,7,25,9,,,,,,,,,,,,,,,,,,,,,,,,,,,,,,,,,,,,,,,,,,,,prac,1,1,2,negative,negative,236.3972431000002,236.3972431000002,236.3972431000002,236.3972431000002,237.37047520000033,237.44187280000006,j,j,1,1.781040800000028,239.16188450000027,239.16188450000027,239.16188450000027,240.23088030000008,240.23088030000008,240.23088030000008,,,,,,,,,,,,,,,,,,,,,,,,,,,,,,,,,,,,,,,,,,,,,,,316,2022-11-24_13h06.51.621,Main,2022.2.2,59.844941756049835,
negative,neutral,2,j,l,0,0,0,0,0,0,0,0,,,,,1,8,26,12,,,,,,,,,,,,,,,,,,,,,,,,,,,,,,,,,,,,,,,,,,,,prac,1,1,2,neutral,negative,240.23088030000008,240.23088030000008,240.23088030000008,240.23088030000008,241.20676930000036,241.27186840000013,j,j,1,0.9404328999999052,242.1640924000003,242.1640924000003,242.1640924000003,242.1640924000003,242.1640924000003,242.1640924000003,,,,,,,,,,,,,,,,,,,,,,,,,,,,,,,,,,,,,,,,,,,,,,,316,2022-11-24_13h06.51.621,Main,2022.2.2,59.844941756049835,
positive,negative,1,l,j,0,0,0,0,0,0,0,0,,,,,1,9,27,5,,,,,,,,,,,,,,,,,,,,,,,,,,,,,,,,,,,,,,,,,,,,prac,2,2,1,negative,positive,242.1640924000003,242.1640924000003,242.1640924000003,242.1640924000003,243.1670452000003,243.20444540000017,l,l,1,1.3051900999998907,244.4718683000001,244.4718683000001,244.4718683000001,244.4718683000001,244.4718683000001,244.4718683000001,,,,,,,,,,,,,,,,,,,,,,,,,,,,,,,,,,,,,,,,,,,,,,,316,2022-11-24_13h06.51.621,Main,2022.2.2,59.844941756049835,
negative,negative,1,j,l,0,0,0,0,0,0,0,0,,,,,1,10,28,0,,,,,,,,,,,,,,,,,,,,,,,,,,,,,,,,,,,,,,,,,,,,prac,2,2,1,negative,negative,244.4718683000001,244.4718683000001,244.4718683000001,244.4718683000001,245.46501510000007,245.49877340000012,j,l,0,1.035110799999984,246.48824439999999,246.48824439999999,246.48824439999999,247.53212750000012,247.53212750000012,247.53212750000012,,,,,,,,,,,,,,,,,,,,,,,,,,,,,,,,,,,,,,,,,,,,,,,316,2022-11-24_13h06.51.621,Main,2022.2.2,59.844941756049835,
positive,positive,2,l,j,0,0,0,0,0,0,0,0,,,,,1,11,29,11,,,,,,,,,,,,,,,,,,,,,,,,,,,,,,,,,,,,,,,,,,,,prac,2,2,2,positive,positive,247.53212750000012,247.53212750000012,247.53212750000012,247.53212750000012,248.5333542000003,248.56614820000004,l,l,1,0.9667347999998128,249.5035084000001,249.5035084000001,249.5035084000001,249.5035084000001,249.5035084000001,249.5035084000001,,,,,,,,,,,,,,,,,,,,,,,,,,,,,,,,,,,,,,,,,,,,,,,316,2022-11-24_13h06.51.621,Main,2022.2.2,59.844941756049835,
positive,neutral,2,l,j,0,0,0,0,0,0,0,0,,,,,1,12,30,17,,,,,,,,,,,,,,,,,,,,,,,,,,,,,,,,,,,,,,,,,,,,prac,2,2,2,neutral,positive,249.5035084000001,249.5035084000001,249.5035084000001,249.5035084000001,250.47637440000017,250.54477280000037,l,l,1,0.9493567999998049,251.46071870000014,251.46071870000014,251.46071870000014,251.46071870000014,251.46071870000014,251.46071870000014,,,,,,,,,,,,,,,,,,,,,,,,,,,,,,,,,,,,,,,,,,,,,,,316,2022-11-24_13h06.51.621,Main,2022.2.2,59.844941756049835,
neutral,negative,2,k,k,0,0,0,0,0,0,0,0,,,,,1,13,31,16,,,,,,,,,,,,,,,,,,,,,,,,,,,,,,,,,,,,,,,,,,,,prac,2,2,2,negative,neutral,251.46071870000014,251.46071870000014,251.46071870000014,251.46071870000014,252.43491489999997,252.51313170000003,k,k,1,1.2334471999997731,253.69505870000012,253.69505870000012,253.69505870000012,253.69505870000012,253.69505870000012,253.69505870000012,,,,,,,,,,,,,,,,,,,,,,,,,,,,,,,,,,,,,,,,,,,,,,,316,2022-11-24_13h06.51.621,Main,2022.2.2,59.844941756049835,
negative,neutral,1,j,l,0,0,0,0,0,0,0,0,,,,,1,14,32,3,,,,,,,,,,,,,,,,,,,,,,,,,,,,,,,,,,,,,,,,,,,,prac,2,2,1,neutral,negative,253.69505870000012,253.69505870000012,253.69505870000012,253.69505870000012,254.68804180000006,254.7227600000001,j,j,1,1.0627958000000035,255.75768110000035,255.75768110000035,255.75768110000035,255.75768110000035,255.75768110000035,255.75768110000035,,,,,,,,,,,,,,,,,,,,,,,,,,,,,,,,,,,,,,,,,,,,,,,316,2022-11-24_13h06.51.621,Main,2022.2.2,59.844941756049835,
neutral,negative,1,k,k,0,0,0,0,0,0,0,0,,,,,1,15,33,7,,,,,,,,,,,,,,,,,,,,,,,,,,,,,,,,,,,,,,,,,,,,prac,2,2,1,negative,neutral,255.75768110000035,255.75768110000035,255.75768110000035,255.75768110000035,256.7368921000002,256.8049667,k,k,1,1.0611478000000716,257.82276930000035,257.82276930000035,257.82276930000035,257.82276930000035,257.82276930000035,257.82276930000035,,,,,,,,,,,,,,,,,,,,,,,,,,,,,,,,,,,,,,,,,,,,,,,316,2022-11-24_13h06.51.621,Main,2022.2.2,59.844941756049835,
neutral,neutral,1,k,k,0,0,0,0,0,0,0,0,,,,,1,16,34,1,,,,,,,,,,,,,,,,,,,,,,,,,,,,,,,,,,,,,,,,,,,,prac,2,2,1,neutral,neutral,257.82276930000035,257.82276930000035,257.82276930000035,257.82276930000035,258.80763990000014,258.8384451000002,k,k,1,0.7961964999999509,259.6189172000004,259.6189172000004,259.6189172000004,259.6189172000004,259.6189172000004,259.6189172000004,,,,,,,,,,,,,,,,,,,,,,,,,,,,,,,,,,,,,,,,,,,,,,,316,2022-11-24_13h06.51.621,Main,2022.2.2,59.844941756049835,
positive,negative,2,l,j,0,0,0,0,0,0,0,0,,,,,1,17,35,14,,,,,,,,,,,,,,,,,,,,,,,,,,,,,,,,,,,,,,,,,,,,prac,1,1,2,negative,positive,259.6189172000004,259.6189172000004,259.6189172000004,259.6189172000004,260.60844610000004,260.6412292,l,l,1,0.9074907999997777,261.5042241000001,261.5042241000001,261.5042241000001,261.5042241000001,261.5042241000001,261.5042241000001,,,,,,,,,,,,,,,,,,,,,,,,,,,,,,,,,,,,,,,,,,,,,,,316,2022-11-24_13h06.51.621,Main,2022.2.2,59.844941756049835,
neutral,negative,1,k,k,0,0,0,0,0,0,0,0,,,,,,,,,0,0,0,7,,,,,,,,,,,,,,,,,,,,,,,,,,,,,,,,,,,,,,,263.4965427000002,main,2,2,1,negative,neutral,265.53605460000017,265.53605460000017,265.53605460000017,265.53605460000017,266.5202615000003,266.5544004000003,k,k,1,2.1359121000000414,268.6533582000002,268.6533582000002,268.6533582000002,269.6936802,269.6936802,269.6936802,261.5042241000001,0.00017459999980928842,None,0.6398148148148148,-0.30925925925925923,0,0,0,,,,,,,,,,,,,,,,,,,,,,,,,,,,,,,,,,,,,,,316,2022-11-24_13h06.51.621,Main,2022.2.2,59.844941756049835,
negative,neutral,2,j,l,0,0,0,0,0,0,0,0,,,,,,,,,0,1,1,12,,,,,,,,,,,,,,,,,,,,,,,,,,,,,,,,,,,,,,,,main,2,2,2,neutral,negative,269.6936802,269.6936802,269.6936802,269.6936802,270.6756499000003,270.74255230000017,j,j,1,1.651313399999708,272.31971580000027,272.31971580000027,272.31971580000027,273.35882370000036,273.35882370000036,273.35882370000036,,,,,,,,,,,,,,,,,,,,,,,,,,,,,,,,,,,,,,,,,,,,,,,316,2022-11-24_13h06.51.621,Main,2022.2.2,59.844941756049835,
negative,negative,1,j,l,0,0,0,0,0,0,0,0,,,,,,,,,0,2,2,0,,,,,,,,,,,,,,,,,,,,,,,,,,,,,,,,,,,,,,,,main,1,1,1,negative,negative,273.35882370000036,273.35882370000036,273.35882370000036,273.35882370000036,274.3649054000002,274.40029410000034,j,l,0,1.1472209000003204,275.51794070000005,275.51794070000005,275.51794070000005,276.56341550000025,276.56341550000025,276.56341550000025,,,,,,,,,,,,,,,,,,,,,,,,,,,,,,,,,,,,,,,,,,,,,,,316,2022-11-24_13h06.51.621,Main,2022.2.2,59.844941756049835,
neutral,negative,2,k,k,0,0,0,0,0,0,0,0,,,,,,,,,0,3,3,16,,,,,,,,,,,,,,,,,,,,,,,,,,,,,,,,,,,,,,,,main,1,1,2,negative,neutral,276.56341550000025,276.56341550000025,276.56341550000025,276.56341550000025,277.54183490000014,277.60379390000026,k,k,1,0.9712707999997292,278.5418125000001,278.5418125000001,278.5418125000001,278.5418125000001,278.5418125000001,278.5418125000001,,,,,,,,,,,,,,,,,,,,,,,,,,,,,,,,,,,,,,,,,,,,,,,316,2022-11-24_13h06.51.621,Main,2022.2.2,59.844941756049835,
positive,negative,2,l,j,0,0,0,0,0,0,0,0,,,,,,,,,0,4,4,14,,,,,,,,,,,,,,,,,,,,,,,,,,,,,,,,,,,,,,,,main,2,2,2,negative,positive,278.5418125000001,278.5418125000001,278.5418125000001,278.5418125000001,279.54007090000005,279.5756838000002,l,l,1,0.9272477999998046,280.47055990000035,280.47055990000035,280.47055990000035,280.47055990000035,280.47055990000035,280.47055990000035,,,,,,,,,,,,,,,,,,,,,,,,,,,,,,,,,,,,,,,,,,,,,,,316,2022-11-24_13h06.51.621,Main,2022.2.2,59.844941756049835,
positive,negative,1,l,j,0,0,0,0,0,0,0,0,,,,,,,,,0,5,5,5,,,,,,,,,,,,,,,,,,,,,,,,,,,,,,,,,,,,,,,,main,2,2,1,negative,positive,280.47055990000035,280.47055990000035,280.47055990000035,280.47055990000035,281.4746043,281.50776700000006,l,l,1,0.7869360999998207,282.25900850000016,282.25900850000016,282.25900850000016,282.25900850000016,282.25900850000016,282.25900850000016,,,,,,,,,,,,,,,,,,,,,,,,,,,,,,,,,,,,,,,,,,,,,,,316,2022-11-24_13h06.51.621,Main,2022.2.2,59.844941756049835,
negative,positive,1,j,l,0,0,0,0,0,0,0,0,,,,,,,,,0,6,6,6,,,,,,,,,,,,,,,,,,,,,,,,,,,,,,,,,,,,,,,,main,1,1,1,positive,negative,282.25900850000016,282.25900850000016,282.25900850000016,282.25900850000016,283.24411320000036,283.28129830000034,j,j,1,1.013754500000232,284.2788155000003,284.2788155000003,284.2788155000003,284.2788155000003,284.2788155000003,284.2788155000003,,,,,,,,,,,,,,,,,,,,,,,,,,,,,,,,,,,,,,,,,,,,,,,316,2022-11-24_13h06.51.621,Main,2022.2.2,59.844941756049835,
positive,positive,1,l,j,0,0,0,0,0,0,0,0,,,,,,,,,0,7,7,2,,,,,,,,,,,,,,,,,,,,,,,,,,,,,,,,,,,,,,,,main,1,1,1,positive,positive,284.2788155000003,284.2788155000003,284.2788155000003,284.2788155000003,285.27788580000015,285.3123028,l,l,1,1.2627634999998918,286.5403752000002,286.5403752000002,286.5403752000002,286.5403752000002,286.5403752000002,286.5403752000002,,,,,,,,,,,,,,,,,,,,,,,,,,,,,,,,,,,,,,,,,,,,,,,316,2022-11-24_13h06.51.621,Main,2022.2.2,59.844941756049835,
negative,positive,2,j,l,0,0,0,0,0,0,0,0,,,,,,,,,0,8,8,15,,,,,,,,,,,,,,,,,,,,,,,,,,,,,,,,,,,,,,,,main,1,1,2,positive,negative,286.5403752000002,286.5403752000002,286.5403752000002,286.5403752000002,287.53486120000025,287.5721936,j,j,1,2.5431797999999617,290.0675403,290.0675403,290.0675403,291.11047750000034,291.11047750000034,291.11047750000034,,,,,,,,,,,,,,,,,,,,,,,,,,,,,,,,,,,,,,,,,,,,,,,316,2022-11-24_13h06.51.621,Main,2022.2.2,59.844941756049835,
positive,neutral,2,l,j,0,0,0,0,0,0,0,0,,,,,,,,,0,9,9,17,,,,,,,,,,,,,,,,,,,,,,,,,,,,,,,,,,,,,,,,main,1,1,2,neutral,positive,291.11047750000034,291.11047750000034,291.11047750000034,291.11047750000034,292.08725410000034,292.15575820000004,l,l,1,0.897641399999884,293.01334640000005,293.01334640000005,293.01334640000005,293.01334640000005,293.01334640000005,293.01334640000005,,,,,,,,,,,,,,,,,,,,,,,,,,,,,,,,,,,,,,,,,,,,,,,316,2022-11-24_13h06.51.621,Main,2022.2.2,59.844941756049835,
positive,neutral,1,l,j,0,0,0,0,0,0,0,0,,,,,,,,,0,10,10,8,,,,,,,,,,,,,,,,,,,,,,,,,,,,,,,,,,,,,,,,main,2,2,1,neutral,positive,293.01334640000005,293.01334640000005,293.01334640000005,293.01334640000005,293.9901839000004,294.05484290000004,l,l,1,0.9354027999997925,294.9492636,294.9492636,294.9492636,294.9492636,294.9492636,294.9492636,,,,,,,,,,,,,,,,,,,,,,,,,,,,,,,,,,,,,,,,,,,,,,,316,2022-11-24_13h06.51.621,Main,2022.2.2,59.844941756049835,
negative,neutral,1,j,l,0,0,0,0,0,0,0,0,,,,,,,,,0,11,11,3,,,,,,,,,,,,,,,,,,,,,,,,,,,,,,,,,,,,,,,,main,1,1,1,neutral,negative,294.9492636,294.9492636,294.9492636,294.9492636,295.9217582000001,295.98750150000023,j,l,0,1.1196466999999757,297.0472614,297.0472614,297.0472614,298.09366020000016,298.09366020000016,298.09366020000016,,,,,,,,,,,,,,,,,,,,,,,,,,,,,,,,,,,,,,,,,,,,,,,316,2022-11-24_13h06.51.621,Main,2022.2.2,59.844941756049835,
neutral,positive,2,k,k,0,0,0,0,0,0,0,0,,,,,,,,,0,12,12,13,,,,,,,,,,,,,,,,,,,,,,,,,,,,,,,,,,,,,,,,main,1,1,2,positive,neutral,298.09366020000016,298.09366020000016,298.09366020000016,298.09366020000016,299.0676967000004,299.13353320000033,k,k,1,1.0197637999999642,300.1199643,300.1199643,300.1199643,300.1199643,300.1199643,300.1199643,,,,,,,,,,,,,,,,,,,,,,,,,,,,,,,,,,,,,,,,,,,,,,,316,2022-11-24_13h06.51.621,Main,2022.2.2,59.844941756049835,
positive,positive,2,l,j,0,0,0,0,0,0,0,0,,,,,,,,,0,13,13,11,,,,,,,,,,,,,,,,,,,,,,,,,,,,,,,,,,,,,,,,main,2,2,2,positive,positive,300.1199643,300.1199643,300.1199643,300.1199643,301.10205250000035,301.16782690000036,l,l,1,0.9490493999996943,302.0744969000002,302.0744969000002,302.0744969000002,302.0744969000002,302.0744969000002,302.0744969000002,,,,,,,,,,,,,,,,,,,,,,,,,,,,,,,,,,,,,,,,,,,,,,,316,2022-11-24_13h06.51.621,Main,2022.2.2,59.844941756049835,
neutral,positive,1,k,k,0,0,0,0,0,0,0,0,,,,,,,,,0,14,14,4,,,,,,,,,,,,,,,,,,,,,,,,,,,,,,,,,,,,,,,,main,1,1,1,positive,neutral,302.0744969000002,302.0744969000002,302.0744969000002,302.0744969000002,303.0488531000001,303.1168340000004,k,k,1,0.8168136999997841,303.8954740000004,303.8954740000004,303.8954740000004,303.8954740000004,303.8954740000004,303.8954740000004,,,,,,,,,,,,,,,,,,,,,,,,,,,,,,,,,,,,,,,,,,,,,,,316,2022-11-24_13h06.51.621,Main,2022.2.2,59.844941756049835,
neutral,neutral,2,k,k,0,0,0,0,0,0,0,0,,,,,,,,,0,15,15,10,,,,,,,,,,,,,,,,,,,,,,,,,,,,,,,,,,,,,,,,main,1,1,2,neutral,neutral,303.8954740000004,303.8954740000004,303.8954740000004,303.8954740000004,304.8897912000002,304.9247728,k,k,1,0.7695631000001413,305.6639905000002,305.6639905000002,305.6639905000002,305.6639905000002,305.6639905000002,305.6639905000002,,,,,,,,,,,,,,,,,,,,,,,,,,,,,,,,,,,,,,,,,,,,,,,316,2022-11-24_13h06.51.621,Main,2022.2.2,59.844941756049835,
neutral,neutral,1,k,k,0,0,0,0,0,0,0,0,,,,,,,,,0,16,16,1,,,,,,,,,,,,,,,,,,,,,,,,,,,,,,,,,,,,,,,,main,1,1,1,neutral,neutral,305.6639905000002,305.6639905000002,305.6639905000002,305.6639905000002,306.65780760000007,306.6923979000003,k,k,1,0.7330738999999085,307.4062097000001,307.4062097000001,307.4062097000001,307.4062097000001,307.4062097000001,307.4062097000001,,,,,,,,,,,,,,,,,,,,,,,,,,,,,,,,,,,,,,,,,,,,,,,316,2022-11-24_13h06.51.621,Main,2022.2.2,59.844941756049835,
negative,negative,2,j,l,0,0,0,0,0,0,0,0,,,,,,,,,0,17,17,9,,,,,,,,,,,,,,,,,,,,,,,,,,,,,,,,,,,,,,,,main,2,2,2,negative,negative,307.4062097000001,307.4062097000001,307.4062097000001,307.4062097000001,308.3754506,308.4439930000003,j,j,1,1.1284053999997923,309.53244570000015,309.53244570000015,309.53244570000015,309.53244570000015,309.53244570000015,309.53244570000015,,,,,,,,,,,,,,,,,,,,,,,,,,,,,,,,,,,,,,,,,,,,,,,316,2022-11-24_13h06.51.621,Main,2022.2.2,59.844941756049835,
positive,positive,2,l,j,0,0,0,0,0,0,0,0,,,,,,,,,1,0,18,11,,,,,,,,,,,,,,,,,,,,,,,,,,,,,,,,,,,,,,,,main,2,2,2,positive,positive,309.53244570000015,309.53244570000015,309.53244570000015,309.53244570000015,310.51399100000026,310.5807950000003,l,l,1,1.0914624999995794,311.6269137000004,311.6269137000004,311.6269137000004,311.6269137000004,311.6269137000004,311.6269137000004,,,,,,,,,,,,,,,,,,,,,,,,,,,,,,,,,,,,,,,,,,,,,,,316,2022-11-24_13h06.51.621,Main,2022.2.2,59.844941756049835,
negative,negative,2,j,l,0,0,0,0,0,0,0,0,,,,,,,,,1,1,19,9,,,,,,,,,,,,,,,,,,,,,,,,,,,,,,,,,,,,,,,,main,1,1,2,negative,negative,311.6269137000004,311.6269137000004,311.6269137000004,311.6269137000004,312.6005242000001,312.6677593000004,j,j,1,2.0137840000002143,314.61537420000013,314.61537420000013,314.61537420000013,315.65171710000004,315.65171710000004,315.65171710000004,,,,,,,,,,,,,,,,,,,,,,,,,,,,,,,,,,,,,,,,,,,,,,,316,2022-11-24_13h06.51.621,Main,2022.2.2,59.844941756049835,
positive,negative,2,l,j,0,0,0,0,0,0,0,0,,,,,,,,,1,2,20,14,,,,,,,,,,,,,,,,,,,,,,,,,,,,,,,,,,,,,,,,main,1,1,2,negative,positive,315.65171710000004,315.65171710000004,315.65171710000004,315.65171710000004,316.64962600000035,316.6844038000004,l,l,1,1.1040022000001954,317.7622601000003,317.7622601000003,317.7622601000003,317.7622601000003,317.7622601000003,317.7622601000003,,,,,,,,,,,,,,,,,,,,,,,,,,,,,,,,,,,,,,,,,,,,,,,316,2022-11-24_13h06.51.621,Main,2022.2.2,59.844941756049835,
positive,neutral,1,l,j,0,0,0,0,0,0,0,0,,,,,,,,,1,3,21,8,,,,,,,,,,,,,,,,,,,,,,,,,,,,,,,,,,,,,,,,main,2,2,1,neutral,positive,317.7622601000003,317.7622601000003,317.7622601000003,317.7622601000003,318.7373687000004,318.8033744000004,l,l,1,0.9536688999996841,319.71589630000017,319.71589630000017,319.71589630000017,319.71589630000017,319.71589630000017,319.71589630000017,,,,,,,,,,,,,,,,,,,,,,,,,,,,,,,,,,,,,,,,,,,,,,,316,2022-11-24_13h06.51.621,Main,2022.2.2,59.844941756049835,
positive,neutral,2,l,j,0,0,0,0,0,0,0,0,,,,,,,,,1,4,22,17,,,,,,,,,,,,,,,,,,,,,,,,,,,,,,,,,,,,,,,,main,1,1,2,neutral,positive,319.71589630000017,319.71589630000017,319.71589630000017,319.71589630000017,320.6878710000001,320.7544617000003,l,l,1,0.8821499000000586,321.59901850000006,321.59901850000006,321.59901850000006,321.59901850000006,321.59901850000006,321.59901850000006,,,,,,,,,,,,,,,,,,,,,,,,,,,,,,,,,,,,,,,,,,,,,,,316,2022-11-24_13h06.51.621,Main,2022.2.2,59.844941756049835,
neutral,positive,2,k,k,0,0,0,0,0,0,0,0,,,,,,,,,1,5,23,13,,,,,,,,,,,,,,,,,,,,,,,,,,,,,,,,,,,,,,,,main,1,1,2,positive,neutral,321.59901850000006,321.59901850000006,321.59901850000006,321.59901850000006,322.5894137,322.6205049,k,k,1,1.0024225000001934,323.60907450000013,323.60907450000013,323.60907450000013,323.60907450000013,323.60907450000013,323.60907450000013,,,,,,,,,,,,,,,,,,,,,,,,,,,,,,,,,,,,,,,,,,,,,,,316,2022-11-24_13h06.51.621,Main,2022.2.2,59.844941756049835,
neutral,negative,1,k,k,0,0,0,0,0,0,0,0,,,,,,,,,1,6,24,7,,,,,,,,,,,,,,,,,,,,,,,,,,,,,,,,,,,,,,,,main,1,1,1,negative,neutral,323.60907450000013,323.60907450000013,323.60907450000013,323.60907450000013,324.60048340000003,324.6345967000002,k,k,1,1.1561456999997972,325.7688167000001,325.7688167000001,325.7688167000001,325.7688167000001,325.7688167000001,325.7688167000001,,,,,,,,,,,,,,,,,,,,,,,,,,,,,,,,,,,,,,,,,,,,,,,316,2022-11-24_13h06.51.621,Main,2022.2.2,59.844941756049835,
neutral,neutral,1,k,k,0,0,0,0,0,0,0,0,,,,,,,,,1,7,25,1,,,,,,,,,,,,,,,,,,,,,,,,,,,,,,,,,,,,,,,,main,2,2,1,neutral,neutral,325.7688167000001,325.7688167000001,325.7688167000001,325.7688167000001,326.75695140000016,326.7918614,k,k,1,0.8885364000002482,327.65589980000004,327.65589980000004,327.65589980000004,327.65589980000004,327.65589980000004,327.65589980000004,,,,,,,,,,,,,,,,,,,,,,,,,,,,,,,,,,,,,,,,,,,,,,,316,2022-11-24_13h06.51.621,Main,2022.2.2,59.844941756049835,
negative,positive,2,j,l,0,0,0,0,0,0,0,0,,,,,,,,,1,8,26,15,,,,,,,,,,,,,,,,,,,,,,,,,,,,,,,,,,,,,,,,main,2,2,2,positive,negative,327.65589980000004,327.65589980000004,327.65589980000004,327.65589980000004,328.63695480000024,328.70536930000026,j,j,1,1.081605800000034,329.7422041,329.7422041,329.7422041,329.7422041,329.7422041,329.7422041,,,,,,,,,,,,,,,,,,,,,,,,,,,,,,,,,,,,,,,,,,,,,,,316,2022-11-24_13h06.51.621,Main,2022.2.2,59.844941756049835,
neutral,positive,1,k,k,0,0,0,0,0,0,0,0,,,,,,,,,1,9,27,4,,,,,,,,,,,,,,,,,,,,,,,,,,,,,,,,,,,,,,,,main,1,1,1,positive,neutral,329.7422041,329.7422041,329.7422041,329.7422041,330.7436053000001,330.7752223000002,k,k,1,1.1340221999998903,331.87705460000006,331.87705460000006,331.87705460000006,331.87705460000006,331.87705460000006,331.87705460000006,,,,,,,,,,,,,,,,,,,,,,,,,,,,,,,,,,,,,,,,,,,,,,,316,2022-11-24_13h06.51.621,Main,2022.2.2,59.844941756049835,
neutral,neutral,2,k,k,0,0,0,0,0,0,0,0,,,,,,,,,1,10,28,10,,,,,,,,,,,,,,,,,,,,,,,,,,,,,,,,,,,,,,,,main,2,2,2,neutral,neutral,331.87705460000006,331.87705460000006,331.87705460000006,331.87705460000006,332.8644739000001,332.9026635,k,k,1,0.8901040999999168,333.77211050000005,333.77211050000005,333.77211050000005,333.77211050000005,333.77211050000005,333.77211050000005,,,,,,,,,,,,,,,,,,,,,,,,,,,,,,,,,,,,,,,,,,,,,,,316,2022-11-24_13h06.51.621,Main,2022.2.2,59.844941756049835,
neutral,negative,2,k,k,0,0,0,0,0,0,0,0,,,,,,,,,1,11,29,16,,,,,,,,,,,,,,,,,,,,,,,,,,,,,,,,,,,,,,,,main,2,2,2,negative,neutral,333.77211050000005,333.77211050000005,333.77211050000005,333.77211050000005,334.76317020000033,334.7973035,k,k,1,0.867866800000229,335.6405308000003,335.6405308000003,335.6405308000003,335.6405308000003,335.6405308000003,335.6405308000003,,,,,,,,,,,,,,,,,,,,,,,,,,,,,,,,,,,,,,,,,,,,,,,316,2022-11-24_13h06.51.621,Main,2022.2.2,59.844941756049835,
negative,neutral,1,j,l,0,0,0,0,0,0,0,0,,,,,,,,,1,12,30,3,,,,,,,,,,,,,,,,,,,,,,,,,,,,,,,,,,,,,,,,main,1,1,1,neutral,negative,335.6405308000003,335.6405308000003,335.6405308000003,335.6405308000003,336.64128900000014,336.67315240000016,j,j,1,1.1093319999999949,337.75579800000014,337.75579800000014,337.75579800000014,337.75579800000014,337.75579800000014,337.75579800000014,,,,,,,,,,,,,,,,,,,,,,,,,,,,,,,,,,,,,,,,,,,,,,,316,2022-11-24_13h06.51.621,Main,2022.2.2,59.844941756049835,
negative,negative,1,j,l,0,0,0,0,0,0,0,0,,,,,,,,,1,13,31,0,,,,,,,,,,,,,,,,,,,,,,,,,,,,,,,,,,,,,,,,main,2,2,1,negative,negative,337.75579800000014,337.75579800000014,337.75579800000014,337.75579800000014,338.7238229000004,338.79104910000024,j,j,1,0.8674115999997412,339.6280449000001,339.6280449000001,339.6280449000001,339.6280449000001,339.6280449000001,339.6280449000001,,,,,,,,,,,,,,,,,,,,,,,,,,,,,,,,,,,,,,,,,,,,,,,316,2022-11-24_13h06.51.621,Main,2022.2.2,59.844941756049835,
negative,neutral,2,j,l,0,0,0,0,0,0,0,0,,,,,,,,,1,14,32,12,,,,,,,,,,,,,,,,,,,,,,,,,,,,,,,,,,,,,,,,main,2,2,2,neutral,negative,339.6280449000001,339.6280449000001,339.6280449000001,339.6280449000001,340.61845170000015,340.65077050000036,j,j,1,1.6516080999999758,342.2618848000002,342.2618848000002,342.2618848000002,343.2973232000004,343.2973232000004,343.2973232000004,,,,,,,,,,,,,,,,,,,,,,,,,,,,,,,,,,,,,,,,,,,,,,,316,2022-11-24_13h06.51.621,Main,2022.2.2,59.844941756049835,
positive,positive,1,l,j,0,0,0,0,0,0,0,0,,,,,,,,,1,15,33,2,,,,,,,,,,,,,,,,,,,,,,,,,,,,,,,,,,,,,,,,main,1,1,1,positive,positive,343.2973232000004,343.2973232000004,343.2973232000004,343.2973232000004,344.2943081000003,344.3279969,l,l,1,0.9904079999996611,345.29806970000027,345.29806970000027,345.29806970000027,345.29806970000027,345.29806970000027,345.29806970000027,,,,,,,,,,,,,,,,,,,,,,,,,,,,,,,,,,,,,,,,,,,,,,,316,2022-11-24_13h06.51.621,Main,2022.2.2,59.844941756049835,
negative,positive,1,j,l,0,0,0,0,0,0,0,0,,,,,,,,,1,16,34,6,,,,,,,,,,,,,,,,,,,,,,,,,,,,,,,,,,,,,,,,main,1,1,1,positive,negative,345.29806970000027,345.29806970000027,345.29806970000027,345.29806970000027,346.2774379000002,346.3506097000004,j,j,1,1.0586538000002292,347.35647740000013,347.35647740000013,347.35647740000013,347.35647740000013,347.35647740000013,347.35647740000013,,,,,,,,,,,,,,,,,,,,,,,,,,,,,,,,,,,,,,,,,,,,,,,316,2022-11-24_13h06.51.621,Main,2022.2.2,59.844941756049835,
positive,negative,1,l,j,0,0,0,0,0,0,0,0,,,,,,,,,1,17,35,5,,,,,,,,,,,,,,,,,,,,,,,,,,,,,,,,,,,,,,,,main,2,2,1,negative,positive,347.35647740000013,347.35647740000013,347.35647740000013,347.35647740000013,348.3267216000004,348.3956416000001,l,l,1,0.8488087000000633,349.20922710000013,349.20922710000013,349.20922710000013,349.20922710000013,349.20922710000013,349.20922710000013,,,,,,,,,,,,,,,,,,,,,,,,,,,,,,,,,,,,,,,,,,,,,,,316,2022-11-24_13h06.51.621,Main,2022.2.2,59.844941756049835,
negative,negative,2,j,l,0,0,0,0,0,0,0,0,,,,,,,,,2,0,36,9,,,,,,,,,,,,,,,,,,,,,,,,,,,,,,,,,,,,,,,,main,2,2,2,negative,negative,349.20922710000013,349.20922710000013,349.20922710000013,349.20922710000013,350.1828031,350.25162560000035,j,j,1,0.9950643000001946,351.2073537000001,351.2073537000001,351.2073537000001,351.2073537000001,351.2073537000001,351.2073537000001,,,,,,,,,,,,,,,,,,,,,,,,,,,,,,,,,,,,,,,,,,,,,,,316,2022-11-24_13h06.51.621,Main,2022.2.2,59.844941756049835,
negative,negative,1,j,l,0,0,0,0,0,0,0,0,,,,,,,,,2,1,37,0,,,,,,,,,,,,,,,,,,,,,,,,,,,,,,,,,,,,,,,,main,2,2,1,negative,negative,351.2073537000001,351.2073537000001,351.2073537000001,351.2073537000001,352.2015792000002,352.23471900000004,j,j,1,1.5290935000002719,353.7123474,353.7123474,353.7123474,354.7648072000002,354.7648072000002,354.7648072000002,,,,,,,,,,,,,,,,,,,,,,,,,,,,,,,,,,,,,,,,,,,,,,,316,2022-11-24_13h06.51.621,Main,2022.2.2,59.844941756049835,
negative,positive,2,j,l,0,0,0,0,0,0,0,0,,,,,,,,,2,2,38,15,,,,,,,,,,,,,,,,,,,,,,,,,,,,,,,,,,,,,,,,main,2,2,2,positive,negative,354.7648072000002,354.7648072000002,354.7648072000002,354.7648072000002,355.7609784000001,355.79480490000014,j,j,1,2.4989497000001393,358.24210900000026,358.24210900000026,358.24210900000026,359.2814096000002,359.2814096000002,359.2814096000002,,,,,,,,,,,,,,,,,,,,,,,,,,,,,,,,,,,,,,,,,,,,,,,316,2022-11-24_13h06.51.621,Main,2022.2.2,59.844941756049835,
positive,negative,2,l,j,0,0,0,0,0,0,0,0,,,,,,,,,2,3,39,14,,,,,,,,,,,,,,,,,,,,,,,,,,,,,,,,,,,,,,,,main,2,2,2,negative,positive,359.2814096000002,359.2814096000002,359.2814096000002,359.2814096000002,360.25874850000037,360.32749300000023,l,l,1,1.1819804000001568,361.4744998000001,361.4744998000001,361.4744998000001,361.4744998000001,361.4744998000001,361.4744998000001,,,,,,,,,,,,,,,,,,,,,,,,,,,,,,,,,,,,,,,,,,,,,,,316,2022-11-24_13h06.51.621,Main,2022.2.2,59.844941756049835,
positive,neutral,2,l,j,0,0,0,0,0,0,0,0,,,,,,,,,2,4,40,17,,,,,,,,,,,,,,,,,,,,,,,,,,,,,,,,,,,,,,,,main,1,1,2,neutral,positive,361.4744998000001,361.4744998000001,361.4744998000001,361.4744998000001,362.4783757,362.51464910000004,l,l,1,1.0095845999999256,363.4877859000003,363.4877859000003,363.4877859000003,363.4877859000003,363.4877859000003,363.4877859000003,,,,,,,,,,,,,,,,,,,,,,,,,,,,,,,,,,,,,,,,,,,,,,,316,2022-11-24_13h06.51.621,Main,2022.2.2,59.844941756049835,
negative,neutral,1,j,l,0,0,0,0,0,0,0,0,,,,,,,,,2,5,41,3,,,,,,,,,,,,,,,,,,,,,,,,,,,,,,,,,,,,,,,,main,2,2,1,neutral,negative,363.4877859000003,363.4877859000003,363.4877859000003,363.4877859000003,364.4712402,364.5061400000004,j,j,1,2.1890058999997564,366.65880270000025,366.65880270000025,366.65880270000025,367.7045586000004,367.7045586000004,367.7045586000004,,,,,,,,,,,,,,,,,,,,,,,,,,,,,,,,,,,,,,,,,,,,,,,316,2022-11-24_13h06.51.621,Main,2022.2.2,59.844941756049835,
neutral,negative,1,k,k,0,0,0,0,0,0,0,0,,,,,,,,,2,6,42,7,,,,,,,,,,,,,,,,,,,,,,,,,,,,,,,,,,,,,,,,main,1,1,1,negative,neutral,367.7045586000004,367.7045586000004,367.7045586000004,367.7045586000004,368.71232260000033,368.7514589000002,k,k,1,1.0644821000000775,369.7673758000001,369.7673758000001,369.7673758000001,369.7673758000001,369.7673758000001,369.7673758000001,,,,,,,,,,,,,,,,,,,,,,,,,,,,,,,,,,,,,,,,,,,,,,,316,2022-11-24_13h06.51.621,Main,2022.2.2,59.844941756049835,
positive,neutral,1,l,j,0,0,0,0,0,0,0,0,,,,,,,,,2,7,43,8,,,,,,,,,,,,,,,,,,,,,,,,,,,,,,,,,,,,,,,,main,1,1,1,neutral,positive,369.7673758000001,369.7673758000001,369.7673758000001,369.7673758000001,370.7578738000002,370.7946886,l,l,1,1.7581869000000552,372.50103000000036,372.50103000000036,372.50103000000036,373.54112950000035,373.54112950000035,373.54112950000035,,,,,,,,,,,,,,,,,,,,,,,,,,,,,,,,,,,,,,,,,,,,,,,316,2022-11-24_13h06.51.621,Main,2022.2.2,59.844941756049835,
negative,positive,1,j,l,0,0,0,0,0,0,0,0,,,,,,,,,2,8,44,6,,,,,,,,,,,,,,,,,,,,,,,,,,,,,,,,,,,,,,,,main,1,1,1,positive,negative,373.54112950000035,373.54112950000035,373.54112950000035,373.54112950000035,374.53050380000013,374.56387470000027,j,j,1,1.3732723000002807,375.91873140000007,375.91873140000007,375.91873140000007,375.91873140000007,375.91873140000007,375.91873140000007,,,,,,,,,,,,,,,,,,,,,,,,,,,,,,,,,,,,,,,,,,,,,,,316,2022-11-24_13h06.51.621,Main,2022.2.2,59.844941756049835,
positive,positive,2,l,j,0,0,0,0,0,0,0,0,,,,,,,,,2,9,45,11,,,,,,,,,,,,,,,,,,,,,,,,,,,,,,,,,,,,,,,,main,1,1,2,positive,positive,375.91873140000007,375.91873140000007,375.91873140000007,375.91873140000007,376.9146294000002,376.94630300000017,l,l,1,1.4091186000000562,378.34184200000027,378.34184200000027,378.34184200000027,378.34184200000027,378.34184200000027,378.34184200000027,,,,,,,,,,,,,,,,,,,,,,,,,,,,,,,,,,,,,,,,,,,,,,,316,2022-11-24_13h06.51.621,Main,2022.2.2,59.844941756049835,
neutral,positive,2,k,k,0,0,0,0,0,0,0,0,,,,,,,,,2,10,46,13,,,,,,,,,,,,,,,,,,,,,,,,,,,,,,,,,,,,,,,,main,2,2,2,positive,neutral,378.34184200000027,378.34184200000027,378.34184200000027,378.34184200000027,379.3395624,379.3736708000001,k,k,1,1.2294246000001294,380.56944410000006,380.56944410000006,380.56944410000006,380.56944410000006,380.56944410000006,380.56944410000006,,,,,,,,,,,,,,,,,,,,,,,,,,,,,,,,,,,,,,,,,,,,,,,316,2022-11-24_13h06.51.621,Main,2022.2.2,59.844941756049835,
neutral,positive,1,k,k,0,0,0,0,0,0,0,0,,,,,,,,,2,11,47,4,,,,,,,,,,,,,,,,,,,,,,,,,,,,,,,,,,,,,,,,main,2,2,1,positive,neutral,380.56944410000006,380.56944410000006,380.56944410000006,380.56944410000006,381.54760450000003,381.61197530000027,k,k,1,2.610918599999877,384.1498819000003,384.1498819000003,384.1498819000003,385.2031227000002,385.2031227000002,385.2031227000002,,,,,,,,,,,,,,,,,,,,,,,,,,,,,,,,,,,,,,,,,,,,,,,316,2022-11-24_13h06.51.621,Main,2022.2.2,59.844941756049835,
positive,positive,1,l,j,0,0,0,0,0,0,0,0,,,,,,,,,2,12,48,2,,,,,,,,,,,,,,,,,,,,,,,,,,,,,,,,,,,,,,,,main,2,2,1,positive,positive,385.2031227000002,385.2031227000002,385.2031227000002,385.2031227000002,386.1830291000001,386.2484690000001,l,l,1,1.5185817000001407,387.6972757000003,387.6972757000003,387.6972757000003,388.74855460000026,388.74855460000026,388.74855460000026,,,,,,,,,,,,,,,,,,,,,,,,,,,,,,,,,,,,,,,,,,,,,,,316,2022-11-24_13h06.51.621,Main,2022.2.2,59.844941756049835,
neutral,neutral,2,k,k,0,0,0,0,0,0,0,0,,,,,,,,,2,13,49,10,,,,,,,,,,,,,,,,,,,,,,,,,,,,,,,,,,,,,,,,main,2,2,2,neutral,neutral,388.74855460000026,388.74855460000026,388.74855460000026,388.74855460000026,389.7383340000001,389.7752157,k,k,1,1.018611399999827,390.7725876000004,390.7725876000004,390.7725876000004,390.7725876000004,390.7725876000004,390.7725876000004,,,,,,,,,,,,,,,,,,,,,,,,,,,,,,,,,,,,,,,,,,,,,,,316,2022-11-24_13h06.51.621,Main,2022.2.2,59.844941756049835,
neutral,neutral,1,k,k,0,0,0,0,0,0,0,0,,,,,,,,,2,14,50,1,,,,,,,,,,,,,,,,,,,,,,,,,,,,,,,,,,,,,,,,main,2,2,1,neutral,neutral,390.7725876000004,390.7725876000004,390.7725876000004,390.7725876000004,391.7742067000004,391.8074069000004,k,k,1,1.1179532999999537,392.8965567,392.8965567,392.8965567,392.8965567,392.8965567,392.8965567,,,,,,,,,,,,,,,,,,,,,,,,,,,,,,,,,,,,,,,,,,,,,,,316,2022-11-24_13h06.51.621,Main,2022.2.2,59.844941756049835,
negative,neutral,2,j,l,0,0,0,0,0,0,0,0,,,,,,,,,2,15,51,12,,,,,,,,,,,,,,,,,,,,,,,,,,,,,,,,,,,,,,,,main,2,2,2,neutral,negative,392.8965567,392.8965567,392.8965567,392.8965567,393.89468239999997,393.9320993000001,j,j,1,0.9619594000000689,394.86128310000004,394.86128310000004,394.86128310000004,394.86128310000004,394.86128310000004,394.86128310000004,,,,,,,,,,,,,,,,,,,,,,,,,,,,,,,,,,,,,,,,,,,,,,,316,2022-11-24_13h06.51.621,Main,2022.2.2,59.844941756049835,
neutral,negative,2,k,k,0,0,0,0,0,0,0,0,,,,,,,,,2,16,52,16,,,,,,,,,,,,,,,,,,,,,,,,,,,,,,,,,,,,,,,,main,1,1,2,negative,neutral,394.86128310000004,394.86128310000004,394.86128310000004,394.86128310000004,395.8470459,395.8797447000002,k,k,1,1.0612599000000955,396.9261912000002,396.9261912000002,396.9261912000002,396.9261912000002,396.9261912000002,396.9261912000002,,,,,,,,,,,,,,,,,,,,,,,,,,,,,,,,,,,,,,,,,,,,,,,316,2022-11-24_13h06.51.621,Main,2022.2.2,59.844941756049835,
positive,negative,1,l,j,0,0,0,0,0,0,0,0,,,,,,,,,2,17,53,5,,,,,,,,,,,,,,,,,,,,,,,,,,,,,,,,,,,,,,,,main,2,2,1,negative,positive,396.9261912000002,396.9261912000002,396.9261912000002,396.9261912000002,397.89922780000006,397.97598930000004,l,l,1,0.9150838999998996,398.8459934000002,398.8459934000002,398.8459934000002,398.8459934000002,398.8459934000002,398.8459934000002,,,,,,,,,,,,,,,,,,,,,,,,,,,,,,,,,,,,,,,,,,,,,,,316,2022-11-24_13h06.51.621,Main,2022.2.2,59.844941756049835,
positive,neutral,1,l,j,0,0,0,0,0,0,0,0,,,,,,,,,3,0,54,8,,,,,,,,,,,,,,,,,,,,,,,,,,,,,,,,,,,,,,,,main,1,1,1,neutral,positive,398.8459934000002,398.8459934000002,398.8459934000002,398.8459934000002,399.8397153000001,399.8728741,l,l,1,0.9140506999997342,400.7590459000003,400.7590459000003,400.7590459000003,400.7590459000003,400.7590459000003,400.7590459000003,,,,,,,,,,,,,,,,,,,,,,,,,,,,,,,,,,,,,,,,,,,,,,,316,2022-11-24_13h06.51.621,Main,2022.2.2,59.844941756049835,
positive,negative,2,l,j,0,0,0,0,0,0,0,0,,,,,,,,,3,1,55,14,,,,,,,,,,,,,,,,,,,,,,,,,,,,,,,,,,,,,,,,main,2,2,2,negative,positive,400.7590459000003,400.7590459000003,400.7590459000003,400.7590459000003,401.75721650000014,401.78844500000014,l,l,1,1.2490622999998777,403.0114942,403.0114942,403.0114942,403.0114942,403.0114942,403.0114942,,,,,,,,,,,,,,,,,,,,,,,,,,,,,,,,,,,,,,,,,,,,,,,316,2022-11-24_13h06.51.621,Main,2022.2.2,59.844941756049835,
negative,positive,2,j,l,0,0,0,0,0,0,0,0,,,,,,,,,3,2,56,15,,,,,,,,,,,,,,,,,,,,,,,,,,,,,,,,,,,,,,,,main,1,1,2,positive,negative,403.0114942,403.0114942,403.0114942,403.0114942,403.98643330000004,404.0516727000004,j,l,0,1.0116170000001148,405.00568169999997,405.00568169999997,405.00568169999997,406.04017440000007,406.04017440000007,406.04017440000007,,,,,,,,,,,,,,,,,,,,,,,,,,,,,,,,,,,,,,,,,,,,,,,316,2022-11-24_13h06.51.621,Main,2022.2.2,59.844941756049835,
neutral,neutral,2,k,k,0,0,0,0,0,0,0,0,,,,,,,,,3,3,57,10,,,,,,,,,,,,,,,,,,,,,,,,,,,,,,,,,,,,,,,,main,1,1,2,neutral,neutral,406.04017440000007,406.04017440000007,406.04017440000007,406.04017440000007,407.0283792,407.0625584000004,k,k,1,1.0405681999995977,408.09517510000023,408.09517510000023,408.09517510000023,408.09517510000023,408.09517510000023,408.09517510000023,,,,,,,,,,,,,,,,,,,,,,,,,,,,,,,,,,,,,,,,,,,,,,,316,2022-11-24_13h06.51.621,Main,2022.2.2,59.844941756049835,
negative,neutral,1,j,l,0,0,0,0,0,0,0,0,,,,,,,,,3,4,58,3,,,,,,,,,,,,,,,,,,,,,,,,,,,,,,,,,,,,,,,,main,2,2,1,neutral,negative,408.09517510000023,408.09517510000023,408.09517510000023,408.09517510000023,409.06610820000014,409.13324980000016,j,j,1,1.2999959999997373,410.3990657000004,410.3990657000004,410.3990657000004,410.3990657000004,410.3990657000004,410.3990657000004,,,,,,,,,,,,,,,,,,,,,,,,,,,,,,,,,,,,,,,,,,,,,,,316,2022-11-24_13h06.51.621,Main,2022.2.2,59.844941756049835,
negative,negative,1,j,l,0,0,0,0,0,0,0,0,,,,,,,,,3,5,59,0,,,,,,,,,,,,,,,,,,,,,,,,,,,,,,,,,,,,,,,,main,1,1,1,negative,negative,410.3990657000004,410.3990657000004,410.3990657000004,410.3990657000004,411.4014354000001,411.43319820000033,j,j,1,1.662884700000177,413.03726780000034,413.03726780000034,413.03726780000034,414.0834728,414.0834728,414.0834728,,,,,,,,,,,,,,,,,,,,,,,,,,,,,,,,,,,,,,,,,,,,,,,316,2022-11-24_13h06.51.621,Main,2022.2.2,59.844941756049835,
neutral,positive,2,k,k,0,0,0,0,0,0,0,0,,,,,,,,,3,6,60,13,,,,,,,,,,,,,,,,,,,,,,,,,,,,,,,,,,,,,,,,main,2,2,2,positive,neutral,414.0834728,414.0834728,414.0834728,414.0834728,415.07294900000034,415.1078311000001,k,k,1,1.0923477000001185,416.1857071000004,416.1857071000004,416.1857071000004,416.1857071000004,416.1857071000004,416.1857071000004,,,,,,,,,,,,,,,,,,,,,,,,,,,,,,,,,,,,,,,,,,,,,,,316,2022-11-24_13h06.51.621,Main,2022.2.2,59.844941756049835,
positive,positive,1,l,j,0,0,0,0,0,0,0,0,,,,,,,,,3,7,61,2,,,,,,,,,,,,,,,,,,,,,,,,,,,,,,,,,,,,,,,,main,2,2,1,positive,positive,416.1857071000004,416.1857071000004,416.1857071000004,416.1857071000004,417.1819968,417.2137389000004,l,l,1,1.1746499000000767,418.36703080000007,418.36703080000007,418.36703080000007,418.36703080000007,418.36703080000007,418.36703080000007,,,,,,,,,,,,,,,,,,,,,,,,,,,,,,,,,,,,,,,,,,,,,,,316,2022-11-24_13h06.51.621,Main,2022.2.2,59.844941756049835,
neutral,positive,1,k,k,0,0,0,0,0,0,0,0,,,,,,,,,3,8,62,4,,,,,,,,,,,,,,,,,,,,,,,,,,,,,,,,,,,,,,,,main,1,1,1,positive,neutral,418.36703080000007,418.36703080000007,418.36703080000007,418.36703080000007,419.3413676,419.40792580000016,k,k,1,1.408513800000037,420.7742863000003,420.7742863000003,420.7742863000003,420.7742863000003,420.7742863000003,420.7742863000003,,,,,,,,,,,,,,,,,,,,,,,,,,,,,,,,,,,,,,,,,,,,,,,316,2022-11-24_13h06.51.621,Main,2022.2.2,59.844941756049835,
negative,negative,2,j,l,0,0,0,0,0,0,0,0,,,,,,,,,3,9,63,9,,,,,,,,,,,,,,,,,,,,,,,,,,,,,,,,,,,,,,,,main,2,2,2,negative,negative,420.7742863000003,420.7742863000003,420.7742863000003,420.7742863000003,421.7474721000003,421.815212,j,j,1,1.271674399999938,423.0503844,423.0503844,423.0503844,423.0503844,423.0503844,423.0503844,,,,,,,,,,,,,,,,,,,,,,,,,,,,,,,,,,,,,,,,,,,,,,,316,2022-11-24_13h06.51.621,Main,2022.2.2,59.844941756049835,
neutral,neutral,1,k,k,0,0,0,0,0,0,0,0,,,,,,,,,3,10,64,1,,,,,,,,,,,,,,,,,,,,,,,,,,,,,,,,,,,,,,,,main,1,1,1,neutral,neutral,423.0503844,423.0503844,423.0503844,423.0503844,424.02566650000017,424.10067200000003,k,k,1,1.0731989000000794,425.12399330000017,425.12399330000017,425.12399330000017,425.12399330000017,425.12399330000017,425.12399330000017,,,,,,,,,,,,,,,,,,,,,,,,,,,,,,,,,,,,,,,,,,,,,,,316,2022-11-24_13h06.51.621,Main,2022.2.2,59.844941756049835,
positive,negative,1,l,j,0,0,0,0,0,0,0,0,,,,,,,,,3,11,65,5,,,,,,,,,,,,,,,,,,,,,,,,,,,,,,,,,,,,,,,,main,1,1,1,negative,positive,425.12399330000017,425.12399330000017,425.12399330000017,425.12399330000017,426.1233932,426.15497380000033,l,l,1,2.217293499999869,428.32121350000034,428.32121350000034,428.32121350000034,429.3660549000001,429.3660549000001,429.3660549000001,,,,,,,,,,,,,,,,,,,,,,,,,,,,,,,,,,,,,,,,,,,,,,,316,2022-11-24_13h06.51.621,Main,2022.2.2,59.844941756049835,
neutral,negative,2,k,k,0,0,0,0,0,0,0,0,,,,,,,,,3,12,66,16,,,,,,,,,,,,,,,,,,,,,,,,,,,,,,,,,,,,,,,,main,2,2,2,negative,neutral,429.3660549000001,429.3660549000001,429.3660549000001,429.3660549000001,430.3621532000002,430.3954841,k,k,1,1.1276189999998678,431.5004156,431.5004156,431.5004156,431.5004156,431.5004156,431.5004156,,,,,,,,,,,,,,,,,,,,,,,,,,,,,,,,,,,,,,,,,,,,,,,316,2022-11-24_13h06.51.621,Main,2022.2.2,59.844941756049835,
neutral,negative,1,k,k,0,0,0,0,0,0,0,0,,,,,,,,,3,13,67,7,,,,,,,,,,,,,,,,,,,,,,,,,,,,,,,,,,,,,,,,main,1,1,1,negative,neutral,431.5004156,431.5004156,431.5004156,431.5004156,432.4725091,432.5396159000002,k,k,1,1.0651081000000886,433.58055300000024,433.58055300000024,433.58055300000024,433.58055300000024,433.58055300000024,433.58055300000024,,,,,,,,,,,,,,,,,,,,,,,,,,,,,,,,,,,,,,,,,,,,,,,316,2022-11-24_13h06.51.621,Main,2022.2.2,59.844941756049835,
negative,neutral,2,j,l,0,0,0,0,0,0,0,0,,,,,,,,,3,14,68,12,,,,,,,,,,,,,,,,,,,,,,,,,,,,,,,,,,,,,,,,main,1,1,2,neutral,negative,433.58055300000024,433.58055300000024,433.58055300000024,433.58055300000024,434.5580463000001,434.6275426000002,j,j,1,1.44165780000003,436.01905000000033,436.01905000000033,436.01905000000033,436.01905000000033,436.01905000000033,436.01905000000033,,,,,,,,,,,,,,,,,,,,,,,,,,,,,,,,,,,,,,,,,,,,,,,316,2022-11-24_13h06.51.621,Main,2022.2.2,59.844941756049835,
positive,neutral,2,l,j,0,0,0,0,0,0,0,0,,,,,,,,,3,15,69,17,,,,,,,,,,,,,,,,,,,,,,,,,,,,,,,,,,,,,,,,main,1,1,2,neutral,positive,436.01905000000033,436.01905000000033,436.01905000000033,436.01905000000033,436.99853740000026,437.0683489000003,l,l,1,1.296862599999713,438.3230558,438.3230558,438.3230558,438.3230558,438.3230558,438.3230558,,,,,,,,,,,,,,,,,,,,,,,,,,,,,,,,,,,,,,,,,,,,,,,316,2022-11-24_13h06.51.621,Main,2022.2.2,59.844941756049835,
negative,positive,1,j,l,0,0,0,0,0,0,0,0,,,,,,,,,3,16,70,6,,,,,,,,,,,,,,,,,,,,,,,,,,,,,,,,,,,,,,,,main,2,2,1,positive,negative,438.3230558,438.3230558,438.3230558,438.3230558,439.30698870000015,439.34014160000015,j,j,1,2.2971003000002383,441.5948027000004,441.5948027000004,441.5948027000004,442.63443430000007,442.63443430000007,442.63443430000007,,,,,,,,,,,,,,,,,,,,,,,,,,,,,,,,,,,,,,,,,,,,,,,316,2022-11-24_13h06.51.621,Main,2022.2.2,59.844941756049835,
positive,positive,2,l,j,0,0,0,0,0,0,0,0,,,,,,,,,3,17,71,11,,,,,,,,,,,,,,,,,,,,,,,,,,,,,,,,,,,,,,,,main,2,2,2,positive,positive,442.63443430000007,442.63443430000007,442.63443430000007,442.63443430000007,443.62896290000026,443.6651288000003,l,l,1,1.9674345999997058,445.5772962000001,445.5772962000001,445.5772962000001,446.6173712,446.6173712,446.6173712,,,,,,,,,,,,,,,,,,,,,,,,,,,,,,,,,,,,,,,,,,,,,,,316,2022-11-24_13h06.51.621,Main,2022.2.2,59.844941756049835,
negative,negative,1,j,l,0,0,0,0,0,0,0,0,,,,,,,,,4,0,72,0,,,,,,,,,,,,,,,,,,,,,,,,,,,,,,,,,,,,,,,,main,1,1,1,negative,negative,446.6173712,446.6173712,446.6173712,446.6173712,447.6095214000002,447.6449114000002,j,j,1,0.9727786000003107,448.59494380000024,448.59494380000024,448.59494380000024,448.59494380000024,448.59494380000024,448.59494380000024,,,,,,,,,,,,,,,,,,,,,,,,,,,,,,,,,,,,,,,,,,,,,,,316,2022-11-24_13h06.51.621,Main,2022.2.2,59.844941756049835,
negative,negative,2,j,l,0,0,0,0,0,0,0,0,,,,,,,,,4,1,73,9,,,,,,,,,,,,,,,,,,,,,,,,,,,,,,,,,,,,,,,,main,2,2,2,negative,negative,448.59494380000024,448.59494380000024,448.59494380000024,448.59494380000024,449.5715236000001,449.6403492000004,j,j,1,1.2287642999999662,450.82958830000007,450.82958830000007,450.82958830000007,450.82958830000007,450.82958830000007,450.82958830000007,,,,,,,,,,,,,,,,,,,,,,,,,,,,,,,,,,,,,,,,,,,,,,,316,2022-11-24_13h06.51.621,Main,2022.2.2,59.844941756049835,
negative,neutral,1,j,l,0,0,0,0,0,0,0,0,,,,,,,,,4,2,74,3,,,,,,,,,,,,,,,,,,,,,,,,,,,,,,,,,,,,,,,,main,1,1,1,neutral,negative,450.82958830000007,450.82958830000007,450.82958830000007,450.82958830000007,451.81438750000007,451.84653130000015,j,j,1,1.0023725999999442,452.83540300000004,452.83540300000004,452.83540300000004,452.83540300000004,452.83540300000004,452.83540300000004,,,,,,,,,,,,,,,,,,,,,,,,,,,,,,,,,,,,,,,,,,,,,,,316,2022-11-24_13h06.51.621,Main,2022.2.2,59.844941756049835,
negative,positive,1,j,l,0,0,0,0,0,0,0,0,,,,,,,,,4,3,75,6,,,,,,,,,,,,,,,,,,,,,,,,,,,,,,,,,,,,,,,,main,2,2,1,positive,negative,452.83540300000004,452.83540300000004,452.83540300000004,452.83540300000004,453.80255860000034,453.8711622000001,j,j,1,0.7637840999996115,454.60488940000005,454.60488940000005,454.60488940000005,454.60488940000005,454.60488940000005,454.60488940000005,,,,,,,,,,,,,,,,,,,,,,,,,,,,,,,,,,,,,,,,,,,,,,,316,2022-11-24_13h06.51.621,Main,2022.2.2,59.844941756049835,
negative,neutral,2,j,l,0,0,0,0,0,0,0,0,,,,,,,,,4,4,76,12,,,,,,,,,,,,,,,,,,,,,,,,,,,,,,,,,,,,,,,,main,2,2,2,neutral,negative,454.60488940000005,454.60488940000005,454.60488940000005,454.60488940000005,455.6013906000003,455.6340073000001,j,j,1,1.136481200000162,456.7401225000003,456.7401225000003,456.7401225000003,456.7401225000003,456.7401225000003,456.7401225000003,,,,,,,,,,,,,,,,,,,,,,,,,,,,,,,,,,,,,,,,,,,,,,,316,2022-11-24_13h06.51.621,Main,2022.2.2,59.844941756049835,
neutral,neutral,2,k,k,0,0,0,0,0,0,0,0,,,,,,,,,4,5,77,10,,,,,,,,,,,,,,,,,,,,,,,,,,,,,,,,,,,,,,,,main,1,1,2,neutral,neutral,456.7401225000003,456.7401225000003,456.7401225000003,456.7401225000003,457.73136569999997,457.76575440000033,k,k,1,1.4749918000002253,459.2185182000003,459.2185182000003,459.2185182000003,459.2185182000003,459.2185182000003,459.2185182000003,,,,,,,,,,,,,,,,,,,,,,,,,,,,,,,,,,,,,,,,,,,,,,,316,2022-11-24_13h06.51.621,Main,2022.2.2,59.844941756049835,
neutral,negative,2,k,k,0,0,0,0,0,0,0,0,,,,,,,,,4,6,78,16,,,,,,,,,,,,,,,,,,,,,,,,,,,,,,,,,,,,,,,,main,2,2,2,negative,neutral,459.2185182000003,459.2185182000003,459.2185182000003,459.2185182000003,460.19087000000036,460.26001940000015,k,k,1,0.8987675999997009,461.12004720000004,461.12004720000004,461.12004720000004,461.12004720000004,461.12004720000004,461.12004720000004,,,,,,,,,,,,,,,,,,,,,,,,,,,,,,,,,,,,,,,,,,,,,,,316,2022-11-24_13h06.51.621,Main,2022.2.2,59.844941756049835,
neutral,negative,1,k,k,0,0,0,0,0,0,0,0,,,,,,,,,4,7,79,7,,,,,,,,,,,,,,,,,,,,,,,,,,,,,,,,,,,,,,,,main,1,1,1,negative,neutral,461.12004720000004,461.12004720000004,461.12004720000004,461.12004720000004,462.08873330000006,462.1547561000002,k,k,1,2.030066000000261,464.1265175000003,464.1265175000003,464.1265175000003,465.16083660000004,465.16083660000004,465.16083660000004,,,,,,,,,,,,,,,,,,,,,,,,,,,,,,,,,,,,,,,,,,,,,,,316,2022-11-24_13h06.51.621,Main,2022.2.2,59.844941756049835,
positive,negative,1,l,j,0,0,0,0,0,0,0,0,,,,,,,,,4,8,80,5,,,,,,,,,,,,,,,,,,,,,,,,,,,,,,,,,,,,,,,,main,1,1,1,negative,positive,465.16083660000004,465.16083660000004,465.16083660000004,465.16083660000004,466.1602710000002,466.195342,l,l,1,1.2266681000000972,467.39078900000004,467.39078900000004,467.39078900000004,467.39078900000004,467.39078900000004,467.39078900000004,,,,,,,,,,,,,,,,,,,,,,,,,,,,,,,,,,,,,,,,,,,,,,,316,2022-11-24_13h06.51.621,Main,2022.2.2,59.844941756049835,
positive,negative,2,l,j,0,0,0,0,0,0,0,0,,,,,,,,,4,9,81,14,,,,,,,,,,,,,,,,,,,,,,,,,,,,,,,,,,,,,,,,main,2,2,2,negative,positive,467.39078900000004,467.39078900000004,467.39078900000004,467.39078900000004,468.37285470000006,468.43962720000036,l,l,1,2.8354505000002064,471.2103714,471.2103714,471.2103714,472.2492454000003,472.2492454000003,472.2492454000003,,,,,,,,,,,,,,,,,,,,,,,,,,,,,,,,,,,,,,,,,,,,,,,316,2022-11-24_13h06.51.621,Main,2022.2.2,59.844941756049835,
positive,neutral,1,l,j,0,0,0,0,0,0,0,0,,,,,,,,,4,10,82,8,,,,,,,,,,,,,,,,,,,,,,,,,,,,,,,,,,,,,,,,main,1,1,1,neutral,positive,472.2492454000003,472.2492454000003,472.2492454000003,472.2492454000003,473.2353484,473.26785770000015,l,l,1,1.0342305999997734,474.2889799000004,474.2889799000004,474.2889799000004,474.2889799000004,474.2889799000004,474.2889799000004,,,,,,,,,,,,,,,,,,,,,,,,,,,,,,,,,,,,,,,,,,,,,,,316,2022-11-24_13h06.51.621,Main,2022.2.2,59.844941756049835,
neutral,neutral,1,k,k,0,0,0,0,0,0,0,0,,,,,,,,,4,11,83,1,,,,,,,,,,,,,,,,,,,,,,,,,,,,,,,,,,,,,,,,main,1,1,1,neutral,neutral,474.2889799000004,474.2889799000004,474.2889799000004,474.2889799000004,475.28462430000036,475.3211331000002,k,k,1,1.2904908000000432,476.58719659999997,476.58719659999997,476.58719659999997,476.58719659999997,476.58719659999997,476.58719659999997,,,,,,,,,,,,,,,,,,,,,,,,,,,,,,,,,,,,,,,,,,,,,,,316,2022-11-24_13h06.51.621,Main,2022.2.2,59.844941756049835,
negative,positive,2,j,l,0,0,0,0,0,0,0,0,,,,,,,,,4,12,84,15,,,,,,,,,,,,,,,,,,,,,,,,,,,,,,,,,,,,,,,,main,2,2,2,positive,negative,476.58719659999997,476.58719659999997,476.58719659999997,476.58719659999997,477.5823372,477.61670060000006,j,j,1,1.4812678999996933,479.0684371000002,479.0684371000002,479.0684371000002,479.0684371000002,479.0684371000002,479.0684371000002,,,,,,,,,,,,,,,,,,,,,,,,,,,,,,,,,,,,,,,,,,,,,,,316,2022-11-24_13h06.51.621,Main,2022.2.2,59.844941756049835,
neutral,positive,2,k,k,0,0,0,0,0,0,0,0,,,,,,,,,4,13,85,13,,,,,,,,,,,,,,,,,,,,,,,,,,,,,,,,,,,,,,,,main,2,2,2,positive,neutral,479.0684371000002,479.0684371000002,479.0684371000002,479.0684371000002,480.06411890000027,480.09823890000007,k,k,1,1.0023094999996829,481.0757117000003,481.0757117000003,481.0757117000003,481.0757117000003,481.0757117000003,481.0757117000003,,,,,,,,,,,,,,,,,,,,,,,,,,,,,,,,,,,,,,,,,,,,,,,316,2022-11-24_13h06.51.621,Main,2022.2.2,59.844941756049835,
positive,positive,2,l,j,0,0,0,0,0,0,0,0,,,,,,,,,4,14,86,11,,,,,,,,,,,,,,,,,,,,,,,,,,,,,,,,,,,,,,,,main,2,2,2,positive,positive,481.0757117000003,481.0757117000003,481.0757117000003,481.0757117000003,482.0681012,482.10141950000025,l,l,1,1.4663771000000452,483.5522983000001,483.5522983000001,483.5522983000001,483.5522983000001,483.5522983000001,483.5522983000001,,,,,,,,,,,,,,,,,,,,,,,,,,,,,,,,,,,,,,,,,,,,,,,316,2022-11-24_13h06.51.621,Main,2022.2.2,59.844941756049835,
neutral,positive,1,k,k,0,0,0,0,0,0,0,0,,,,,,,,,4,15,87,4,,,,,,,,,,,,,,,,,,,,,,,,,,,,,,,,,,,,,,,,main,1,1,1,positive,neutral,483.5522983000001,483.5522983000001,483.5522983000001,483.5522983000001,484.5414029000003,484.5763500000003,k,k,1,0.9170145999996748,485.46591290000015,485.46591290000015,485.46591290000015,485.46591290000015,485.46591290000015,485.46591290000015,,,,,,,,,,,,,,,,,,,,,,,,,,,,,,,,,,,,,,,,,,,,,,,316,2022-11-24_13h06.51.621,Main,2022.2.2,59.844941756049835,
positive,neutral,2,l,j,0,0,0,0,0,0,0,0,,,,,,,,,4,16,88,17,,,,,,,,,,,,,,,,,,,,,,,,,,,,,,,,,,,,,,,,main,2,2,2,neutral,positive,485.46591290000015,485.46591290000015,485.46591290000015,485.46591290000015,486.4412698000001,486.5055877,l,l,1,1.5990093000000343,488.04340100000036,488.04340100000036,488.04340100000036,489.07233640000004,489.07233640000004,489.07233640000004,,,,,,,,,,,,,,,,,,,,,,,,,,,,,,,,,,,,,,,,,,,,,,,316,2022-11-24_13h06.51.621,Main,2022.2.2,59.844941756049835,
positive,positive,1,l,j,0,0,0,0,0,0,0,0,,,,,,,,,4,17,89,2,,,,,,,,,,,,,,,,,,,,,,,,,,,,,,,,,,,,,,,,main,1,1,1,positive,positive,489.07233640000004,489.07233640000004,489.07233640000004,489.07233640000004,490.05513070000006,490.08666519999997,l,l,1,1.3860267999998541,491.4624100000001,491.4624100000001,491.4624100000001,491.4624100000001,491.4624100000001,491.4624100000001,,,,,,,,,,,,,,,,,,,,,,,,,,,,,,,,,,,,,,,,,,,,,,,316,2022-11-24_13h06.51.621,Main,2022.2.2,59.844941756049835,
negative,neutral,1,j,l,0,0,0,0,0,0,0,0,,,,,,,,,5,0,90,3,,,,,,,,,,,,,,,,,,,,,,,,,,,,,,,,,,,,,,,,main,1,1,1,neutral,negative,491.4624100000001,491.4624100000001,491.4624100000001,491.4624100000001,492.4494516,492.4838612000003,j,j,1,1.2752512000001843,493.7479251,493.7479251,493.7479251,493.7479251,493.7479251,493.7479251,,,,,,,,,,,,,,,,,,,,,,,,,,,,,,,,,,,,,,,,,,,,,,,316,2022-11-24_13h06.51.621,Main,2022.2.2,59.844941756049835,
negative,positive,2,j,l,0,0,0,0,0,0,0,0,,,,,,,,,5,1,91,15,,,,,,,,,,,,,,,,,,,,,,,,,,,,,,,,,,,,,,,,main,2,2,2,positive,negative,493.7479251,493.7479251,493.7479251,493.7479251,494.73712360000036,494.77542010000025,j,j,1,1.7339916000000812,496.45900570000003,496.45900570000003,496.45900570000003,497.49985940000033,497.49985940000033,497.49985940000033,,,,,,,,,,,,,,,,,,,,,,,,,,,,,,,,,,,,,,,,,,,,,,,316,2022-11-24_13h06.51.621,Main,2022.2.2,59.844941756049835,
positive,positive,1,l,j,0,0,0,0,0,0,0,0,,,,,,,,,5,2,92,2,,,,,,,,,,,,,,,,,,,,,,,,,,,,,,,,,,,,,,,,main,2,2,1,positive,positive,497.49985940000033,497.49985940000033,497.49985940000033,497.49985940000033,498.48452480000014,498.5160241000003,l,l,1,1.1769251999999142,499.67779550000023,499.67779550000023,499.67779550000023,499.67779550000023,499.67779550000023,499.67779550000023,,,,,,,,,,,,,,,,,,,,,,,,,,,,,,,,,,,,,,,,,,,,,,,316,2022-11-24_13h06.51.621,Main,2022.2.2,59.844941756049835,
neutral,neutral,1,k,k,0,0,0,0,0,0,0,0,,,,,,,,,5,3,93,1,,,,,,,,,,,,,,,,,,,,,,,,,,,,,,,,,,,,,,,,main,2,2,1,neutral,neutral,499.67779550000023,499.67779550000023,499.67779550000023,499.67779550000023,500.66927550000037,500.7028773000002,k,k,1,0.9977290000001631,501.683278,501.683278,501.683278,501.683278,501.683278,501.683278,,,,,,,,,,,,,,,,,,,,,,,,,,,,,,,,,,,,,,,,,,,,,,,316,2022-11-24_13h06.51.621,Main,2022.2.2,59.844941756049835,
negative,positive,1,j,l,0,0,0,0,0,0,0,0,,,,,,,,,5,4,94,6,,,,,,,,,,,,,,,,,,,,,,,,,,,,,,,,,,,,,,,,main,1,1,1,positive,negative,501.683278,501.683278,501.683278,501.683278,502.66019780000033,502.72528869999996,j,j,1,0.9962206000000151,503.6833032000004,503.6833032000004,503.6833032000004,503.6833032000004,503.6833032000004,503.6833032000004,,,,,,,,,,,,,,,,,,,,,,,,,,,,,,,,,,,,,,,,,,,,,,,316,2022-11-24_13h06.51.621,Main,2022.2.2,59.844941756049835,
negative,negative,2,j,l,0,0,0,0,0,0,0,0,,,,,,,,,5,5,95,9,,,,,,,,,,,,,,,,,,,,,,,,,,,,,,,,,,,,,,,,main,1,1,2,negative,negative,503.6833032000004,503.6833032000004,503.6833032000004,503.6833032000004,504.66148440000006,504.7295987000002,j,j,1,0.8309500000000298,505.5260116000004,505.5260116000004,505.5260116000004,505.5260116000004,505.5260116000004,505.5260116000004,,,,,,,,,,,,,,,,,,,,,,,,,,,,,,,,,,,,,,,,,,,,,,,316,2022-11-24_13h06.51.621,Main,2022.2.2,59.844941756049835,
positive,negative,2,l,j,0,0,0,0,0,0,0,0,,,,,,,,,5,6,96,14,,,,,,,,,,,,,,,,,,,,,,,,,,,,,,,,,,,,,,,,main,1,1,2,negative,positive,505.5260116000004,505.5260116000004,505.5260116000004,505.5260116000004,506.5029386000001,506.57197280000037,l,l,1,1.2118251000001692,507.7381413000003,507.7381413000003,507.7381413000003,507.7381413000003,507.7381413000003,507.7381413000003,,,,,,,,,,,,,,,,,,,,,,,,,,,,,,,,,,,,,,,,,,,,,,,316,2022-11-24_13h06.51.621,Main,2022.2.2,59.844941756049835,
neutral,negative,1,k,k,0,0,0,0,0,0,0,0,,,,,,,,,5,7,97,7,,,,,,,,,,,,,,,,,,,,,,,,,,,,,,,,,,,,,,,,main,2,2,1,negative,neutral,507.7381413000003,507.7381413000003,507.7381413000003,507.7381413000003,508.72081800000024,508.7538303000001,k,k,1,0.9723539999999957,509.71253860000024,509.71253860000024,509.71253860000024,509.71253860000024,509.71253860000024,509.71253860000024,,,,,,,,,,,,,,,,,,,,,,,,,,,,,,,,,,,,,,,,,,,,,,,316,2022-11-24_13h06.51.621,Main,2022.2.2,59.844941756049835,
positive,neutral,2,l,j,0,0,0,0,0,0,0,0,,,,,,,,,5,8,98,17,,,,,,,,,,,,,,,,,,,,,,,,,,,,,,,,,,,,,,,,main,1,1,2,neutral,positive,509.71253860000024,509.71253860000024,509.71253860000024,509.71253860000024,510.6918181000001,510.7579418,l,l,1,1.0065897999998015,511.72048760000007,511.72048760000007,511.72048760000007,511.72048760000007,511.72048760000007,511.72048760000007,,,,,,,,,,,,,,,,,,,,,,,,,,,,,,,,,,,,,,,,,,,,,,,316,2022-11-24_13h06.51.621,Main,2022.2.2,59.844941756049835,
neutral,neutral,2,k,k,0,0,0,0,0,0,0,0,,,,,,,,,5,9,99,10,,,,,,,,,,,,,,,,,,,,,,,,,,,,,,,,,,,,,,,,main,2,2,2,neutral,neutral,511.72048760000007,511.72048760000007,511.72048760000007,511.72048760000007,512.7170068,512.7522494,k,k,1,1.0505675999997948,513.7744973000003,513.7744973000003,513.7744973000003,513.7744973000003,513.7744973000003,513.7744973000003,,,,,,,,,,,,,,,,,,,,,,,,,,,,,,,,,,,,,,,,,,,,,,,316,2022-11-24_13h06.51.621,Main,2022.2.2,59.844941756049835,
positive,positive,2,l,j,0,0,0,0,0,0,0,0,,,,,,,,,5,10,100,11,,,,,,,,,,,,,,,,,,,,,,,,,,,,,,,,,,,,,,,,main,1,1,2,positive,positive,513.7744973000003,513.7744973000003,513.7744973000003,513.7744973000003,514.7644644000002,514.7970428000003,l,l,1,1.4631724000000759,516.2439218000004,516.2439218000004,516.2439218000004,516.2439218000004,516.2439218000004,516.2439218000004,,,,,,,,,,,,,,,,,,,,,,,,,,,,,,,,,,,,,,,,,,,,,,,316,2022-11-24_13h06.51.621,Main,2022.2.2,59.844941756049835,
neutral,negative,2,k,k,0,0,0,0,0,0,0,0,,,,,,,,,5,11,101,16,,,,,,,,,,,,,,,,,,,,,,,,,,,,,,,,,,,,,,,,main,2,2,2,negative,neutral,516.2439218000004,516.2439218000004,516.2439218000004,516.2439218000004,517.2196090000002,517.2924584000002,k,k,1,1.0127212000002146,518.2569535000002,518.2569535000002,518.2569535000002,518.2569535000002,518.2569535000002,518.2569535000002,,,,,,,,,,,,,,,,,,,,,,,,,,,,,,,,,,,,,,,,,,,,,,,316,2022-11-24_13h06.51.621,Main,2022.2.2,59.844941756049835,
positive,neutral,1,l,j,0,0,0,0,0,0,0,0,,,,,,,,,5,12,102,8,,,,,,,,,,,,,,,,,,,,,,,,,,,,,,,,,,,,,,,,main,1,1,1,neutral,positive,518.2569535000002,518.2569535000002,518.2569535000002,518.2569535000002,519.2220282000003,519.2879659,l,l,1,1.5465982999999142,520.7804227000001,520.7804227000001,520.7804227000001,521.8452850000003,521.8452850000003,521.8452850000003,,,,,,,,,,,,,,,,,,,,,,,,,,,,,,,,,,,,,,,,,,,,,,,316,2022-11-24_13h06.51.621,Main,2022.2.2,59.844941756049835,
negative,negative,1,j,l,0,0,0,0,0,0,0,0,,,,,,,,,5,13,103,0,,,,,,,,,,,,,,,,,,,,,,,,,,,,,,,,,,,,,,,,main,2,2,1,negative,negative,521.8452850000003,521.8452850000003,521.8452850000003,521.8452850000003,522.8339002000002,522.8645287000004,j,j,1,1.0526405000000523,523.9066335000002,523.9066335000002,523.9066335000002,523.9066335000002,523.9066335000002,523.9066335000002,,,,,,,,,,,,,,,,,,,,,,,,,,,,,,,,,,,,,,,,,,,,,,,316,2022-11-24_13h06.51.621,Main,2022.2.2,59.844941756049835,
neutral,positive,1,k,k,0,0,0,0,0,0,0,0,,,,,,,,,5,14,104,4,,,,,,,,,,,,,,,,,,,,,,,,,,,,,,,,,,,,,,,,main,1,1,1,positive,neutral,523.9066335000002,523.9066335000002,523.9066335000002,523.9066335000002,524.8925773000001,524.9299788000003,k,k,1,0.8859576999998353,525.7956837000002,525.7956837000002,525.7956837000002,525.7956837000002,525.7956837000002,525.7956837000002,,,,,,,,,,,,,,,,,,,,,,,,,,,,,,,,,,,,,,,,,,,,,,,316,2022-11-24_13h06.51.621,Main,2022.2.2,59.844941756049835,
neutral,positive,2,k,k,0,0,0,0,0,0,0,0,,,,,,,,,5,15,105,13,,,,,,,,,,,,,,,,,,,,,,,,,,,,,,,,,,,,,,,,main,2,2,2,positive,neutral,525.7956837000002,525.7956837000002,525.7956837000002,525.7956837000002,526.7687702000003,526.8350994000002,k,k,1,0.8214517000001251,527.6209114000003,527.6209114000003,527.6209114000003,527.6209114000003,527.6209114000003,527.6209114000003,,,,,,,,,,,,,,,,,,,,,,,,,,,,,,,,,,,,,,,,,,,,,,,316,2022-11-24_13h06.51.621,Main,2022.2.2,59.844941756049835,
positive,negative,1,l,j,0,0,0,0,0,0,0,0,,,,,,,,,5,16,106,5,,,,,,,,,,,,,,,,,,,,,,,,,,,,,,,,,,,,,,,,main,2,2,1,negative,positive,527.6209114000003,527.6209114000003,527.6209114000003,527.6209114000003,528.6229129000003,528.6622281,l,l,1,1.0885065000002214,529.7111913000003,529.7111913000003,529.7111913000003,529.7111913000003,529.7111913000003,529.7111913000003,,,,,,,,,,,,,,,,,,,,,,,,,,,,,,,,,,,,,,,,,,,,,,,316,2022-11-24_13h06.51.621,Main,2022.2.2,59.844941756049835,
negative,neutral,2,j,l,0,0,0,0,0,0,0,0,,,,,,,,,5,17,107,12,,,,,,,,,,,,,,,,,,,,,,,,,,,,,,,,,,,,,,,,main,1,1,2,neutral,negative,529.7111913000003,529.7111913000003,529.7111913000003,529.7111913000003,530.6989927,530.7349284000002,j,j,1,0.9557371999999305,531.6675290000003,531.6675290000003,531.6675290000003,531.6675290000003,531.6675290000003,531.6675290000003,,,,,,,,,,,,,,,,,,,,,,,,,,,,,,,,,,,,,,,,,,,,,,,316,2022-11-24_13h06.51.621,Main,2022.2.2,59.844941756049835,
neutral,negative,1,k,k,0,0,0,0,0,0,0,0,,,,,,,,,6,0,108,7,,,,,,,,,,,,,,,,,,,,,,,,,,,,,,,,,,,,,,,,main,1,1,1,negative,neutral,531.6675290000003,531.6675290000003,531.6675290000003,531.6675290000003,532.6634109000001,532.6968453000004,k,k,1,0.9035665999999765,533.5725964000003,533.5725964000003,533.5725964000003,533.5725964000003,533.5725964000003,533.5725964000003,,,,,,,,,,,,,,,,,,,,,,,,,,,,,,,,,,,,,,,,,,,,,,,316,2022-11-24_13h06.51.621,Main,2022.2.2,59.844941756049835,
negative,neutral,2,j,l,0,0,0,0,0,0,0,0,,,,,,,,,6,1,109,12,,,,,,,,,,,,,,,,,,,,,,,,,,,,,,,,,,,,,,,,main,2,2,2,neutral,negative,533.5725964000003,533.5725964000003,533.5725964000003,533.5725964000003,534.5669877,534.6005623000001,j,j,1,1.1936059999998179,535.7708062000002,535.7708062000002,535.7708062000002,535.7708062000002,535.7708062000002,535.7708062000002,,,,,,,,,,,,,,,,,,,,,,,,,,,,,,,,,,,,,,,,,,,,,,,316,2022-11-24_13h06.51.621,Main,2022.2.2,59.844941756049835,
neutral,negative,2,k,k,0,0,0,0,0,0,0,0,,,,,,,,,6,2,110,16,,,,,,,,,,,,,,,,,,,,,,,,,,,,,,,,,,,,,,,,main,2,2,2,negative,neutral,535.7708062000002,535.7708062000002,535.7708062000002,535.7708062000002,536.7539863000002,536.7883035,k,k,1,1.0617299999998977,537.8368139000004,537.8368139000004,537.8368139000004,537.8368139000004,537.8368139000004,537.8368139000004,,,,,,,,,,,,,,,,,,,,,,,,,,,,,,,,,,,,,,,,,,,,,,,316,2022-11-24_13h06.51.621,Main,2022.2.2,59.844941756049835,
negative,negative,2,j,l,0,0,0,0,0,0,0,0,,,,,,,,,6,3,111,9,,,,,,,,,,,,,,,,,,,,,,,,,,,,,,,,,,,,,,,,main,2,2,2,negative,negative,537.8368139000004,537.8368139000004,537.8368139000004,537.8368139000004,538.8200707000001,538.8533324,j,j,1,2.428103999999621,541.2461014,541.2461014,541.2461014,542.2972456000002,542.2972456000002,542.2972456000002,,,,,,,,,,,,,,,,,,,,,,,,,,,,,,,,,,,,,,,,,,,,,,,316,2022-11-24_13h06.51.621,Main,2022.2.2,59.844941756049835,
negative,positive,1,j,l,0,0,0,0,0,0,0,0,,,,,,,,,6,4,112,6,,,,,,,,,,,,,,,,,,,,,,,,,,,,,,,,,,,,,,,,main,2,2,1,positive,negative,542.2972456000002,542.2972456000002,542.2972456000002,542.2972456000002,543.2955989000002,543.3339973000002,j,j,1,1.151563200000055,544.4600568000001,544.4600568000001,544.4600568000001,544.4600568000001,544.4600568000001,544.4600568000001,,,,,,,,,,,,,,,,,,,,,,,,,,,,,,,,,,,,,,,,,,,,,,,316,2022-11-24_13h06.51.621,Main,2022.2.2,59.844941756049835,
negative,positive,2,j,l,0,0,0,0,0,0,0,0,,,,,,,,,6,5,113,15,,,,,,,,,,,,,,,,,,,,,,,,,,,,,,,,,,,,,,,,main,2,2,2,positive,negative,544.4600568000001,544.4600568000001,544.4600568000001,544.4600568000001,545.4585334000003,545.4936021000003,j,j,1,0.96444560000009,546.4184696000002,546.4184696000002,546.4184696000002,546.4184696000002,546.4184696000002,546.4184696000002,,,,,,,,,,,,,,,,,,,,,,,,,,,,,,,,,,,,,,,,,,,,,,,316,2022-11-24_13h06.51.621,Main,2022.2.2,59.844941756049835,
positive,neutral,2,l,j,0,0,0,0,0,0,0,0,,,,,,,,,6,6,114,17,,,,,,,,,,,,,,,,,,,,,,,,,,,,,,,,,,,,,,,,main,1,1,2,neutral,positive,546.4184696000002,546.4184696000002,546.4184696000002,546.4184696000002,547.4118496000001,547.4498012000004,l,j,0,1.0728664999996909,548.4701347,548.4701347,548.4701347,549.5241395000003,549.5241395000003,549.5241395000003,,,,,,,,,,,,,,,,,,,,,,,,,,,,,,,,,,,,,,,,,,,,,,,316,2022-11-24_13h06.51.621,Main,2022.2.2,59.844941756049835,
negative,negative,1,j,l,0,0,0,0,0,0,0,0,,,,,,,,,6,7,115,0,,,,,,,,,,,,,,,,,,,,,,,,,,,,,,,,,,,,,,,,main,1,1,1,negative,negative,549.5241395000003,549.5241395000003,549.5241395000003,549.5241395000003,550.5234133000004,550.5626742000004,j,j,1,1.5194454999996196,552.0174987,552.0174987,552.0174987,553.0534765000002,553.0534765000002,553.0534765000002,,,,,,,,,,,,,,,,,,,,,,,,,,,,,,,,,,,,,,,,,,,,,,,316,2022-11-24_13h06.51.621,Main,2022.2.2,59.844941756049835,
neutral,positive,2,k,k,0,0,0,0,0,0,0,0,,,,,,,,,6,8,116,13,,,,,,,,,,,,,,,,,,,,,,,,,,,,,,,,,,,,,,,,main,1,1,2,positive,neutral,553.0534765000002,553.0534765000002,553.0534765000002,553.0534765000002,554.0486626000002,554.0986602000003,k,k,1,0.9217021000004024,554.9971140000002,554.9971140000002,554.9971140000002,554.9971140000002,554.9971140000002,554.9971140000002,,,,,,,,,,,,,,,,,,,,,,,,,,,,,,,,,,,,,,,,,,,,,,,316,2022-11-24_13h06.51.621,Main,2022.2.2,59.844941756049835,
positive,negative,1,l,j,0,0,0,0,0,0,0,0,,,,,,,,,6,9,117,5,,,,,,,,,,,,,,,,,,,,,,,,,,,,,,,,,,,,,,,,main,2,2,1,negative,positive,554.9971140000002,554.9971140000002,554.9971140000002,554.9971140000002,555.9642251,556.0321127000002,l,l,1,1.30474009999989,557.3089157000004,557.3089157000004,557.3089157000004,557.3089157000004,557.3089157000004,557.3089157000004,,,,,,,,,,,,,,,,,,,,,,,,,,,,,,,,,,,,,,,,,,,,,,,316,2022-11-24_13h06.51.621,Main,2022.2.2,59.844941756049835,
positive,neutral,1,l,j,0,0,0,0,0,0,0,0,,,,,,,,,6,10,118,8,,,,,,,,,,,,,,,,,,,,,,,,,,,,,,,,,,,,,,,,main,2,2,1,neutral,positive,557.3089157000004,557.3089157000004,557.3089157000004,557.3089157000004,558.3004252000001,558.3358176000002,l,l,1,0.9980227999999443,559.2987974000002,559.2987974000002,559.2987974000002,559.2987974000002,559.2987974000002,559.2987974000002,,,,,,,,,,,,,,,,,,,,,,,,,,,,,,,,,,,,,,,,,,,,,,,316,2022-11-24_13h06.51.621,Main,2022.2.2,59.844941756049835,
neutral,neutral,2,k,k,0,0,0,0,0,0,0,0,,,,,,,,,6,11,119,10,,,,,,,,,,,,,,,,,,,,,,,,,,,,,,,,,,,,,,,,main,2,2,2,neutral,neutral,559.2987974000002,559.2987974000002,559.2987974000002,559.2987974000002,560.2995122000002,560.3363224,k,k,1,0.9502887000003284,561.2514532,561.2514532,561.2514532,561.2514532,561.2514532,561.2514532,,,,,,,,,,,,,,,,,,,,,,,,,,,,,,,,,,,,,,,,,,,,,,,316,2022-11-24_13h06.51.621,Main,2022.2.2,59.844941756049835,
positive,positive,2,l,j,0,0,0,0,0,0,0,0,,,,,,,,,6,12,120,11,,,,,,,,,,,,,,,,,,,,,,,,,,,,,,,,,,,,,,,,main,2,2,2,positive,positive,561.2514532,561.2514532,561.2514532,561.2514532,562.2335170000001,562.3032803000001,l,l,1,1.073139699999956,563.3291461000003,563.3291461000003,563.3291461000003,563.3291461000003,563.3291461000003,563.3291461000003,,,,,,,,,,,,,,,,,,,,,,,,,,,,,,,,,,,,,,,,,,,,,,,316,2022-11-24_13h06.51.621,Main,2022.2.2,59.844941756049835,
positive,positive,1,l,j,0,0,0,0,0,0,0,0,,,,,,,,,6,13,121,2,,,,,,,,,,,,,,,,,,,,,,,,,,,,,,,,,,,,,,,,main,1,1,1,positive,positive,563.3291461000003,563.3291461000003,563.3291461000003,563.3291461000003,564.3154741000003,564.3575399000001,l,l,1,0.9308322000001681,565.2694091000003,565.2694091000003,565.2694091000003,565.2694091000003,565.2694091000003,565.2694091000003,,,,,,,,,,,,,,,,,,,,,,,,,,,,,,,,,,,,,,,,,,,,,,,316,2022-11-24_13h06.51.621,Main,2022.2.2,59.844941756049835,
positive,negative,2,l,j,0,0,0,0,0,0,0,0,,,,,,,,,6,14,122,14,,,,,,,,,,,,,,,,,,,,,,,,,,,,,,,,,,,,,,,,main,2,2,2,negative,positive,565.2694091000003,565.2694091000003,565.2694091000003,565.2694091000003,566.2493060000002,566.3154612000003,l,l,1,0.7732701999998426,567.0468984000004,567.0468984000004,567.0468984000004,567.0468984000004,567.0468984000004,567.0468984000004,,,,,,,,,,,,,,,,,,,,,,,,,,,,,,,,,,,,,,,,,,,,,,,316,2022-11-24_13h06.51.621,Main,2022.2.2,59.844941756049835,
negative,neutral,1,j,l,0,0,0,0,0,0,0,0,,,,,,,,,6,15,123,3,,,,,,,,,,,,,,,,,,,,,,,,,,,,,,,,,,,,,,,,main,1,1,1,neutral,negative,567.0468984000004,567.0468984000004,567.0468984000004,567.0468984000004,568.0374238000004,568.0707032,j,j,1,0.899711600000046,568.9468334000003,568.9468334000003,568.9468334000003,568.9468334000003,568.9468334000003,568.9468334000003,,,,,,,,,,,,,,,,,,,,,,,,,,,,,,,,,,,,,,,,,,,,,,,316,2022-11-24_13h06.51.621,Main,2022.2.2,59.844941756049835,
neutral,positive,1,k,k,0,0,0,0,0,0,0,0,,,,,,,,,6,16,124,4,,,,,,,,,,,,,,,,,,,,,,,,,,,,,,,,,,,,,,,,main,1,1,1,positive,neutral,568.9468334000003,568.9468334000003,568.9468334000003,568.9468334000003,569.9332185000003,569.9682615000002,k,k,1,0.8965762000002542,570.8490166000001,570.8490166000001,570.8490166000001,570.8490166000001,570.8490166000001,570.8490166000001,,,,,,,,,,,,,,,,,,,,,,,,,,,,,,,,,,,,,,,,,,,,,,,316,2022-11-24_13h06.51.621,Main,2022.2.2,59.844941756049835,
neutral,neutral,1,k,k,0,0,0,0,0,0,0,0,,,,,,,,,6,17,125,1,,,,,,,,,,,,,,,,,,,,,,,,,,,,,,,,,,,,,,,,main,2,2,1,neutral,neutral,570.8490166000001,570.8490166000001,570.8490166000001,570.8490166000001,571.8413699000002,571.8743388000003,k,k,1,0.7531522999997833,572.6068424,572.6068424,572.6068424,572.6068424,572.6068424,572.6068424,,,,,,,,,,,,,,,,,,,,,,,,,,,,,,,,,,,,,,,,,,,,,,,316,2022-11-24_13h06.51.621,Main,2022.2.2,59.844941756049835,
negative,neutral,1,j,l,0,0,0,0,0,0,0,0,,,,,,,,,7,0,126,3,,,,,,,,,,,,,,,,,,,,,,,,,,,,,,,,,,,,,,,,main,2,2,1,neutral,negative,572.6068424,572.6068424,572.6068424,572.6068424,573.6014543000001,573.6337173000002,j,j,1,1.0505263999998533,574.6590928,574.6590928,574.6590928,574.6590928,574.6590928,574.6590928,,,,,,,,,,,,,,,,,,,,,,,,,,,,,,,,,,,,,,,,,,,,,,,316,2022-11-24_13h06.51.621,Main,2022.2.2,59.844941756049835,
positive,neutral,1,l,j,0,0,0,0,0,0,0,0,,,,,,,,,7,1,127,8,,,,,,,,,,,,,,,,,,,,,,,,,,,,,,,,,,,,,,,,main,2,2,1,neutral,positive,574.6590928,574.6590928,574.6590928,574.6590928,575.6551623,575.6883841000003,l,l,1,1.176380700000209,576.8345032000002,576.8345032000002,576.8345032000002,576.8345032000002,576.8345032000002,576.8345032000002,,,,,,,,,,,,,,,,,,,,,,,,,,,,,,,,,,,,,,,,,,,,,,,316,2022-11-24_13h06.51.621,Main,2022.2.2,59.844941756049835,
neutral,negative,1,k,k,0,0,0,0,0,0,0,0,,,,,,,,,7,2,128,7,,,,,,,,,,,,,,,,,,,,,,,,,,,,,,,,,,,,,,,,main,1,1,1,negative,neutral,576.8345032000002,576.8345032000002,576.8345032000002,576.8345032000002,577.8240188,577.8625363000001,k,k,1,0.8855359999997745,578.7270814000003,578.7270814000003,578.7270814000003,578.7270814000003,578.7270814000003,578.7270814000003,,,,,,,,,,,,,,,,,,,,,,,,,,,,,,,,,,,,,,,,,,,,,,,316,2022-11-24_13h06.51.621,Main,2022.2.2,59.844941756049835,
negative,neutral,2,j,l,0,0,0,0,0,0,0,0,,,,,,,,,7,3,129,12,,,,,,,,,,,,,,,,,,,,,,,,,,,,,,,,,,,,,,,,main,2,2,2,neutral,negative,578.7270814000003,578.7270814000003,578.7270814000003,578.7270814000003,579.7138994000002,579.7496995000001,j,j,1,1.1583761000001687,580.8849155000003,580.8849155000003,580.8849155000003,580.8849155000003,580.8849155000003,580.8849155000003,,,,,,,,,,,,,,,,,,,,,,,,,,,,,,,,,,,,,,,,,,,,,,,316,2022-11-24_13h06.51.621,Main,2022.2.2,59.844941756049835,
neutral,neutral,2,k,k,0,0,0,0,0,0,0,0,,,,,,,,,7,4,130,10,,,,,,,,,,,,,,,,,,,,,,,,,,,,,,,,,,,,,,,,main,1,1,2,neutral,neutral,580.8849155000003,580.8849155000003,580.8849155000003,580.8849155000003,581.8824326000004,581.9168958,k,k,1,1.1969778000002407,583.0887899000004,583.0887899000004,583.0887899000004,583.0887899000004,583.0887899000004,583.0887899000004,,,,,,,,,,,,,,,,,,,,,,,,,,,,,,,,,,,,,,,,,,,,,,,316,2022-11-24_13h06.51.621,Main,2022.2.2,59.844941756049835,
negative,positive,1,j,l,0,0,0,0,0,0,0,0,,,,,,,,,7,5,131,6,,,,,,,,,,,,,,,,,,,,,,,,,,,,,,,,,,,,,,,,main,2,2,1,positive,negative,583.0887899000004,583.0887899000004,583.0887899000004,583.0887899000004,584.0844795000003,584.1154828000003,j,j,1,1.2049712000002728,585.2952829000001,585.2952829000001,585.2952829000001,585.2952829000001,585.2952829000001,585.2952829000001,,,,,,,,,,,,,,,,,,,,,,,,,,,,,,,,,,,,,,,,,,,,,,,316,2022-11-24_13h06.51.621,Main,2022.2.2,59.844941756049835,
neutral,positive,1,k,k,0,0,0,0,0,0,0,0,,,,,,,,,7,6,132,4,,,,,,,,,,,,,,,,,,,,,,,,,,,,,,,,,,,,,,,,main,1,1,1,positive,neutral,585.2952829000001,585.2952829000001,585.2952829000001,585.2952829000001,586.2950872000001,586.3283673000001,k,k,1,1.1723922999999559,587.4719604000002,587.4719604000002,587.4719604000002,587.4719604000002,587.4719604000002,587.4719604000002,,,,,,,,,,,,,,,,,,,,,,,,,,,,,,,,,,,,,,,,,,,,,,,316,2022-11-24_13h06.51.621,Main,2022.2.2,59.844941756049835,
negative,positive,2,j,l,0,0,0,0,0,0,0,0,,,,,,,,,7,7,133,15,,,,,,,,,,,,,,,,,,,,,,,,,,,,,,,,,,,,,,,,main,1,1,2,positive,negative,587.4719604000002,587.4719604000002,587.4719604000002,587.4719604000002,588.4530606000003,588.5183669000003,j,j,1,1.2929398999999648,589.7671081000003,589.7671081000003,589.7671081000003,589.7671081000003,589.7671081000003,589.7671081000003,,,,,,,,,,,,,,,,,,,,,,,,,,,,,,,,,,,,,,,,,,,,,,,316,2022-11-24_13h06.51.621,Main,2022.2.2,59.844941756049835,
neutral,negative,2,k,k,0,0,0,0,0,0,0,0,,,,,,,,,7,8,134,16,,,,,,,,,,,,,,,,,,,,,,,,,,,,,,,,,,,,,,,,main,2,2,2,negative,neutral,589.7671081000003,589.7671081000003,589.7671081000003,589.7671081000003,590.7564473000002,590.7998913000001,k,k,1,1.2917254999997567,592.0638451,592.0638451,592.0638451,592.0638451,592.0638451,592.0638451,,,,,,,,,,,,,,,,,,,,,,,,,,,,,,,,,,,,,,,,,,,,,,,316,2022-11-24_13h06.51.621,Main,2022.2.2,59.844941756049835,
positive,neutral,2,l,j,0,0,0,0,0,0,0,0,,,,,,,,,7,9,135,17,0,0,0,0,,,,,,,,,,,,,,,,,,,,,,,,,,,,,,,,,,,,main,1,1,2,neutral,positive,592.0638451,592.0638451,592.0638451,592.0638451,593.0402509,593.1133546000001,l,l,1,1.2492842999999993,594.2993742000003,594.2993742000003,594.2993742000003,594.2993742000003,594.2993742000003,594.2993742000003,,,,,,,,,594.2993742000003,594.2993742000003,594.2993742000003,594.2993742000003,None,,,,,,,,,,,,,,,,,,,,,,,,,,,,,,,,,,316,2022-11-24_13h06.51.621,Main,2022.2.2,59.844941756049835,
positive,neutral,2,l,j,0,0,0,0,0,0,0,0,,,,,,,,,7,9,135,17,,,,,,,,,,,,,,,,,,,,,,,,,,,,,,,,,,,,,,,,,,,,,,,,,,,,,,,,,,,,,,,,,,,,,,,,,,,,,,,,,,,,,,,,,,,,,,,,,,,,,,,,,,,,316,2022-11-24_13h06.51.621,Main,2022.2.2,59.844941756049835,
positive,negative,1,l,j,0,0,0,0,0,0,0,0,,,,,,,,,7,10,136,5,,,,,,,,,,,,,,,,,,,,,,,,,,,,,,,,,,,,,,,,main,2,2,1,negative,positive,654.3267543000002,654.3267543000002,654.3267543000002,654.3267543000002,655.3168967000001,655.3489910000003,l,l,1,1.0722710999998526,656.3957623000001,656.3957623000001,656.3957623000001,656.3957623000001,656.3957623000001,656.3957623000001,,,,,,,,,,,,,,,,,,,,,,,,,,,,,,,,,,,,,,,,,,,,,,,316,2022-11-24_13h06.51.621,Main,2022.2.2,59.844941756049835,
negative,negative,1,j,l,0,0,0,0,0,0,0,0,,,,,,,,,7,11,137,0,,,,,,,,,,,,,,,,,,,,,,,,,,,,,,,,,,,,,,,,main,1,1,1,negative,negative,656.3957623000001,656.3957623000001,656.3957623000001,656.3957623000001,657.395927,657.4284968000002,j,j,1,1.1787583999998787,658.5822747000002,658.5822747000002,658.5822747000002,658.5822747000002,658.5822747000002,658.5822747000002,,,,,,,,,,,,,,,,,,,,,,,,,,,,,,,,,,,,,,,,,,,,,,,316,2022-11-24_13h06.51.621,Main,2022.2.2,59.844941756049835,
positive,positive,1,l,j,0,0,0,0,0,0,0,0,,,,,,,,,7,12,138,2,,,,,,,,,,,,,,,,,,,,,,,,,,,,,,,,,,,,,,,,main,2,2,1,positive,positive,658.5822747000002,658.5822747000002,658.5822747000002,658.5822747000002,659.5685492000002,659.6030453000003,l,l,1,1.0034445999999662,660.5911930000002,660.5911930000002,660.5911930000002,660.5911930000002,660.5911930000002,660.5911930000002,,,,,,,,,,,,,,,,,,,,,,,,,,,,,,,,,,,,,,,,,,,,,,,316,2022-11-24_13h06.51.621,Main,2022.2.2,59.844941756049835,
negative,negative,2,j,l,0,0,0,0,0,0,0,0,,,,,,,,,7,13,139,9,,,,,,,,,,,,,,,,,,,,,,,,,,,,,,,,,,,,,,,,main,1,1,2,negative,negative,660.5911930000002,660.5911930000002,660.5911930000002,660.5911930000002,661.5802607,661.6152354000001,j,j,1,1.3119517000000087,662.9050043000002,662.9050043000002,662.9050043000002,662.9050043000002,662.9050043000002,662.9050043000002,,,,,,,,,,,,,,,,,,,,,,,,,,,,,,,,,,,,,,,,,,,,,,,316,2022-11-24_13h06.51.621,Main,2022.2.2,59.844941756049835,
positive,positive,2,l,j,0,0,0,0,0,0,0,0,,,,,,,,,7,14,140,11,,,,,,,,,,,,,,,,,,,,,,,,,,,,,,,,,,,,,,,,main,2,2,2,positive,positive,662.9050043000002,662.9050043000002,662.9050043000002,662.9050043000002,663.8737748000003,663.9414495999999,l,l,1,0.7508806000000732,664.6540137000002,664.6540137000002,664.6540137000002,664.6540137000002,664.6540137000002,664.6540137000002,,,,,,,,,,,,,,,,,,,,,,,,,,,,,,,,,,,,,,,,,,,,,,,316,2022-11-24_13h06.51.621,Main,2022.2.2,59.844941756049835,
neutral,neutral,1,k,k,0,0,0,0,0,0,0,0,,,,,,,,,7,15,141,1,,,,,,,,,,,,,,,,,,,,,,,,,,,,,,,,,,,,,,,,main,2,2,1,neutral,neutral,664.6540137000002,664.6540137000002,664.6540137000002,664.6540137000002,665.6255511999998,665.6940031000004,k,k,1,0.8317864999999074,666.4856783000005,666.4856783000005,666.4856783000005,666.4856783000005,666.4856783000005,666.4856783000005,,,,,,,,,,,,,,,,,,,,,,,,,,,,,,,,,,,,,,,,,,,,,,,316,2022-11-24_13h06.51.621,Main,2022.2.2,59.844941756049835,
positive,negative,2,l,j,0,0,0,0,0,0,0,0,,,,,,,,,7,16,142,14,,,,,,,,,,,,,,,,,,,,,,,,,,,,,,,,,,,,,,,,main,1,1,2,negative,positive,666.4856783000005,666.4856783000005,666.4856783000005,666.4856783000005,667.479891,667.5194372000005,l,l,1,0.8051125000001775,668.2966845000001,668.2966845000001,668.2966845000001,668.2966845000001,668.2966845000001,668.2966845000001,,,,,,,,,,,,,,,,,,,,,,,,,,,,,,,,,,,,,,,,,,,,,,,316,2022-11-24_13h06.51.621,Main,2022.2.2,59.844941756049835,
neutral,positive,2,k,k,0,0,0,0,0,0,0,0,,,,,,,,,7,17,143,13,,,,,,,,,,,,,,,,,,,,,,,,,,,,,,,,,,,,,,,,main,1,1,2,positive,neutral,668.2966845000001,668.2966845000001,668.2966845000001,668.2966845000001,669.2856281000004,669.3200635000003,k,k,1,0.8039171999998871,670.1058333000001,670.1058333000001,670.1058333000001,670.1058333000001,670.1058333000001,670.1058333000001,,,,,,,,,,,,,,,,,,,,,,,,,,,,,,,,,,,,,,,,,,,,,,,316,2022-11-24_13h06.51.621,Main,2022.2.2,59.844941756049835,
negative,positive,1,j,l,0,0,0,0,0,0,0,0,,,,,,,,,8,0,144,6,,,,,,,,,,,,,,,,,,,,,,,,,,,,,,,,,,,,,,,,main,2,2,1,positive,negative,670.1058333000001,670.1058333000001,670.1058333000001,670.1058333000001,671.0999646999999,671.1357139000002,j,j,1,1.1210605999995096,672.2293797000002,672.2293797000002,672.2293797000002,672.2293797000002,672.2293797000002,672.2293797000002,,,,,,,,,,,,,,,,,,,,,,,,,,,,,,,,,,,,,,,,,,,,,,,316,2022-11-24_13h06.51.621,Main,2022.2.2,59.844941756049835,
neutral,positive,1,k,k,0,0,0,0,0,0,0,0,,,,,,,,,8,1,145,4,,,,,,,,,,,,,,,,,,,,,,,,,,,,,,,,,,,,,,,,main,1,1,1,positive,neutral,672.2293797000002,672.2293797000002,672.2293797000002,672.2293797000002,673.2119905999998,673.2446852000003,k,k,1,0.7186111000000892,673.9558119000003,673.9558119000003,673.9558119000003,673.9558119000003,673.9558119000003,673.9558119000003,,,,,,,,,,,,,,,,,,,,,,,,,,,,,,,,,,,,,,,,,,,,,,,316,2022-11-24_13h06.51.621,Main,2022.2.2,59.844941756049835,
negative,negative,1,j,l,0,0,0,0,0,0,0,0,,,,,,,,,8,2,146,0,,,,,,,,,,,,,,,,,,,,,,,,,,,,,,,,,,,,,,,,main,2,2,1,negative,negative,673.9558119000003,673.9558119000003,673.9558119000003,673.9558119000003,674.9529693000004,674.9854898000003,j,j,1,0.9302872999996907,675.8768028000004,675.8768028000004,675.8768028000004,675.8768028000004,675.8768028000004,675.8768028000004,,,,,,,,,,,,,,,,,,,,,,,,,,,,,,,,,,,,,,,,,,,,,,,316,2022-11-24_13h06.51.621,Main,2022.2.2,59.844941756049835,
negative,neutral,2,j,l,0,0,0,0,0,0,0,0,,,,,,,,,8,3,147,12,,,,,,,,,,,,,,,,,,,,,,,,,,,,,,,,,,,,,,,,main,2,2,2,neutral,negative,675.8768028000004,675.8768028000004,675.8768028000004,675.8768028000004,676.8767013000006,676.9160504000001,j,l,0,1.031044500000462,677.8863083000006,677.8863083000006,677.8863083000006,678.9216420000002,678.9216420000002,678.9216420000002,,,,,,,,,,,,,,,,,,,,,,,,,,,,,,,,,,,,,,,,,,,,,,,316,2022-11-24_13h06.51.621,Main,2022.2.2,59.844941756049835,
negative,negative,2,j,l,0,0,0,0,0,0,0,0,,,,,,,,,8,4,148,9,,,,,,,,,,,,,,,,,,,,,,,,,,,,,,,,,,,,,,,,main,2,2,2,negative,negative,678.9216420000002,678.9216420000002,678.9216420000002,678.9216420000002,679.9172783000004,679.9505034000003,j,j,1,1.170284800000445,681.0992059,681.0992059,681.0992059,681.0992059,681.0992059,681.0992059,,,,,,,,,,,,,,,,,,,,,,,,,,,,,,,,,,,,,,,,,,,,,,,316,2022-11-24_13h06.51.621,Main,2022.2.2,59.844941756049835,
negative,positive,2,j,l,0,0,0,0,0,0,0,0,,,,,,,,,8,5,149,15,,,,,,,,,,,,,,,,,,,,,,,,,,,,,,,,,,,,,,,,main,2,2,2,positive,negative,681.0992059,681.0992059,681.0992059,681.0992059,682.1052005000001,682.1392080000005,j,j,1,0.8736097999999402,682.9735471000004,682.9735471000004,682.9735471000004,682.9735471000004,682.9735471000004,682.9735471000004,,,,,,,,,,,,,,,,,,,,,,,,,,,,,,,,,,,,,,,,,,,,,,,316,2022-11-24_13h06.51.621,Main,2022.2.2,59.844941756049835,
neutral,neutral,2,k,k,0,0,0,0,0,0,0,0,,,,,,,,,8,6,150,10,,,,,,,,,,,,,,,,,,,,,,,,,,,,,,,,,,,,,,,,main,1,1,2,neutral,neutral,682.9735471000004,682.9735471000004,682.9735471000004,682.9735471000004,683.9546828000002,684.0239847000003,k,k,1,0.8712918000001082,684.8546955000002,684.8546955000002,684.8546955000002,684.8546955000002,684.8546955000002,684.8546955000002,,,,,,,,,,,,,,,,,,,,,,,,,,,,,,,,,,,,,,,,,,,,,,,316,2022-11-24_13h06.51.621,Main,2022.2.2,59.844941756049835,
negative,neutral,1,j,l,0,0,0,0,0,0,0,0,,,,,,,,,8,7,151,3,,,,,,,,,,,,,,,,,,,,,,,,,,,,,,,,,,,,,,,,main,2,2,1,neutral,negative,684.8546955000002,684.8546955000002,684.8546955000002,684.8546955000002,685.8532034,685.8862170000002,j,j,1,2.665163200000279,688.4960222999998,688.4960222999998,688.4960222999998,689.5298982000004,689.5298982000004,689.5298982000004,,,,,,,,,,,,,,,,,,,,,,,,,,,,,,,,,,,,,,,,,,,,,,,316,2022-11-24_13h06.51.621,Main,2022.2.2,59.844941756049835,
neutral,negative,2,k,k,0,0,0,0,0,0,0,0,,,,,,,,,8,8,152,16,,,,,,,,,,,,,,,,,,,,,,,,,,,,,,,,,,,,,,,,main,2,2,2,negative,neutral,689.5298982000004,689.5298982000004,689.5298982000004,689.5298982000004,690.5013620999998,690.5676309999999,k,k,1,0.8833871999995608,691.4160122000003,691.4160122000003,691.4160122000003,691.4160122000003,691.4160122000003,691.4160122000003,,,,,,,,,,,,,,,,,,,,,,,,,,,,,,,,,,,,,,,,,,,,,,,316,2022-11-24_13h06.51.621,Main,2022.2.2,59.844941756049835,
positive,positive,2,l,j,0,0,0,0,0,0,0,0,,,,,,,,,8,9,153,11,,,,,,,,,,,,,,,,,,,,,,,,,,,,,,,,,,,,,,,,main,2,2,2,positive,positive,691.4160122000003,691.4160122000003,691.4160122000003,691.4160122000003,692.4134126999998,692.4482646000006,l,l,1,1.0132465999995475,693.4371553999999,693.4371553999999,693.4371553999999,693.4371553999999,693.4371553999999,693.4371553999999,,,,,,,,,,,,,,,,,,,,,,,,,,,,,,,,,,,,,,,,,,,,,,,316,2022-11-24_13h06.51.621,Main,2022.2.2,59.844941756049835,
positive,negative,2,l,j,0,0,0,0,0,0,0,0,,,,,,,,,8,10,154,14,,,,,,,,,,,,,,,,,,,,,,,,,,,,,,,,,,,,,,,,main,2,2,2,negative,positive,693.4371553999999,693.4371553999999,693.4371553999999,693.4371553999999,694.4098807,694.4831235000001,l,l,1,0.725997799999277,695.1597804000003,695.1597804000003,695.1597804000003,695.1597804000003,695.1597804000003,695.1597804000003,,,,,,,,,,,,,,,,,,,,,,,,,,,,,,,,,,,,,,,,,,,,,,,316,2022-11-24_13h06.51.621,Main,2022.2.2,59.844941756049835,
positive,negative,1,l,j,0,0,0,0,0,0,0,0,,,,,,,,,8,11,155,5,,,,,,,,,,,,,,,,,,,,,,,,,,,,,,,,,,,,,,,,main,2,2,1,negative,positive,695.1597804000003,695.1597804000003,695.1597804000003,695.1597804000003,696.1413197000002,696.2205257000005,l,l,1,0.9972638999997798,697.1677131000006,697.1677131000006,697.1677131000006,697.1677131000006,697.1677131000006,697.1677131000006,,,,,,,,,,,,,,,,,,,,,,,,,,,,,,,,,,,,,,,,,,,,,,,316,2022-11-24_13h06.51.621,Main,2022.2.2,59.844941756049835,
neutral,neutral,1,k,k,0,0,0,0,0,0,0,0,,,,,,,,,8,12,156,1,,,,,,,,,,,,,,,,,,,,,,,,,,,,,,,,,,,,,,,,main,2,2,1,neutral,neutral,697.1677131000006,697.1677131000006,697.1677131000006,697.1677131000006,698.1431480000001,698.2106940000003,k,k,1,2.931643700000677,701.0752203000002,701.0752203000002,701.0752203000002,702.1122350000005,702.1122350000005,702.1122350000005,,,,,,,,,,,,,,,,,,,,,,,,,,,,,,,,,,,,,,,,,,,,,,,316,2022-11-24_13h06.51.621,Main,2022.2.2,59.844941756049835,
positive,positive,1,l,j,0,0,0,0,0,0,0,0,,,,,,,,,8,13,157,2,,,,,,,,,,,,,,,,,,,,,,,,,,,,,,,,,,,,,,,,main,2,2,1,positive,positive,702.1122350000005,702.1122350000005,702.1122350000005,702.1122350000005,703.0951726000003,703.1277012999999,l,l,1,1.2041989999997895,704.3227124000005,704.3227124000005,704.3227124000005,704.3227124000005,704.3227124000005,704.3227124000005,,,,,,,,,,,,,,,,,,,,,,,,,,,,,,,,,,,,,,,,,,,,,,,316,2022-11-24_13h06.51.621,Main,2022.2.2,59.844941756049835,
positive,neutral,2,l,j,0,0,0,0,0,0,0,0,,,,,,,,,8,14,158,17,,,,,,,,,,,,,,,,,,,,,,,,,,,,,,,,,,,,,,,,main,2,2,2,neutral,positive,704.3227124000005,704.3227124000005,704.3227124000005,704.3227124000005,705.2935885000006,705.3583401000005,l,l,1,0.9846766000000571,706.3108619000004,706.3108619000004,706.3108619000004,706.3108619000004,706.3108619000004,706.3108619000004,,,,,,,,,,,,,,,,,,,,,,,,,,,,,,,,,,,,,,,,,,,,,,,316,2022-11-24_13h06.51.621,Main,2022.2.2,59.844941756049835,
positive,neutral,1,l,j,0,0,0,0,0,0,0,0,,,,,,,,,8,15,159,8,,,,,,,,,,,,,,,,,,,,,,,,,,,,,,,,,,,,,,,,main,2,2,1,neutral,positive,706.3108619000004,706.3108619000004,706.3108619000004,706.3108619000004,707.3111177000001,707.3433327000002,l,l,1,0.866504999999961,708.1834201000001,708.1834201000001,708.1834201000001,708.1834201000001,708.1834201000001,708.1834201000001,,,,,,,,,,,,,,,,,,,,,,,,,,,,,,,,,,,,,,,,,,,,,,,316,2022-11-24_13h06.51.621,Main,2022.2.2,59.844941756049835,
neutral,negative,1,k,k,0,0,0,0,0,0,0,0,,,,,,,,,8,16,160,7,,,,,,,,,,,,,,,,,,,,,,,,,,,,,,,,,,,,,,,,main,1,1,1,negative,neutral,708.1834201000001,708.1834201000001,708.1834201000001,708.1834201000001,709.1548846000005,709.2205971000003,k,k,1,1.1132357999995293,710.2945027000005,710.2945027000005,710.2945027000005,710.2945027000005,710.2945027000005,710.2945027000005,,,,,,,,,,,,,,,,,,,,,,,,,,,,,,,,,,,,,,,,,,,,,,,316,2022-11-24_13h06.51.621,Main,2022.2.2,59.844941756049835,
neutral,positive,2,k,k,0,0,0,0,0,0,0,0,,,,,,,,,8,17,161,13,,,,,,,,,,,,,,,,,,,,,,,,,,,,,,,,,,,,,,,,main,2,2,2,positive,neutral,710.2945027000005,710.2945027000005,710.2945027000005,710.2945027000005,711.2961952000005,711.3307180000002,k,k,1,1.076259100000243,712.3807640000005,712.3807640000005,712.3807640000005,712.3807640000005,712.3807640000005,712.3807640000005,,,,,,,,,,,,,,,,,,,,,,,,,,,,,,,,,,,,,,,,,,,,,,,316,2022-11-24_13h06.51.621,Main,2022.2.2,59.844941756049835,
positive,negative,1,l,j,0,0,0,0,0,0,0,0,,,,,,,,,9,0,162,5,,,,,,,,,,,,,,,,,,,,,,,,,,,,,,,,,,,,,,,,main,1,1,1,negative,positive,712.3807640000005,712.3807640000005,712.3807640000005,712.3807640000005,713.3635657000004,713.3959378999998,l,l,1,1.0408542000004672,714.4243066999998,714.4243066999998,714.4243066999998,714.4243066999998,714.4243066999998,714.4243066999998,,,,,,,,,,,,,,,,,,,,,,,,,,,,,,,,,,,,,,,,,,,,,,,316,2022-11-24_13h06.51.621,Main,2022.2.2,59.844941756049835,
positive,neutral,2,l,j,0,0,0,0,0,0,0,0,,,,,,,,,9,1,163,17,,,,,,,,,,,,,,,,,,,,,,,,,,,,,,,,,,,,,,,,main,2,2,2,neutral,positive,714.4243066999998,714.4243066999998,714.4243066999998,714.4243066999998,715.4260356000004,715.4573840000003,l,l,1,1.205722099999548,716.6348230000003,716.6348230000003,716.6348230000003,716.6348230000003,716.6348230000003,716.6348230000003,,,,,,,,,,,,,,,,,,,,,,,,,,,,,,,,,,,,,,,,,,,,,,,316,2022-11-24_13h06.51.621,Main,2022.2.2,59.844941756049835,
positive,negative,2,l,j,0,0,0,0,0,0,0,0,,,,,,,,,9,2,164,14,,,,,,,,,,,,,,,,,,,,,,,,,,,,,,,,,,,,,,,,main,2,2,2,negative,positive,716.6348230000003,716.6348230000003,716.6348230000003,716.6348230000003,717.6083546,717.6741092000002,l,l,1,0.7830506999998761,718.4204793999997,718.4204793999997,718.4204793999997,718.4204793999997,718.4204793999997,718.4204793999997,,,,,,,,,,,,,,,,,,,,,,,,,,,,,,,,,,,,,,,,,,,,,,,316,2022-11-24_13h06.51.621,Main,2022.2.2,59.844941756049835,
neutral,positive,1,k,k,0,0,0,0,0,0,0,0,,,,,,,,,9,3,165,4,,,,,,,,,,,,,,,,,,,,,,,,,,,,,,,,,,,,,,,,main,1,1,1,positive,neutral,718.4204793999997,718.4204793999997,718.4204793999997,718.4204793999997,719.4296077999998,719.4632806,k,k,1,0.914421699999366,720.3390352000006,720.3390352000006,720.3390352000006,720.3390352000006,720.3390352000006,720.3390352000006,,,,,,,,,,,,,,,,,,,,,,,,,,,,,,,,,,,,,,,,,,,,,,,316,2022-11-24_13h06.51.621,Main,2022.2.2,59.844941756049835,
negative,positive,2,j,l,0,0,0,0,0,0,0,0,,,,,,,,,9,4,166,15,,,,,,,,,,,,,,,,,,,,,,,,,,,,,,,,,,,,,,,,main,1,1,2,positive,negative,720.3390352000006,720.3390352000006,720.3390352000006,720.3390352000006,721.3352805000004,721.3692068999999,j,j,1,2.0376676999994743,723.3510864999998,723.3510864999998,723.3510864999998,724.3905052999999,724.3905052999999,724.3905052999999,,,,,,,,,,,,,,,,,,,,,,,,,,,,,,,,,,,,,,,,,,,,,,,316,2022-11-24_13h06.51.621,Main,2022.2.2,59.844941756049835,
neutral,negative,2,k,k,0,0,0,0,0,0,0,0,,,,,,,,,9,5,167,16,,,,,,,,,,,,,,,,,,,,,,,,,,,,,,,,,,,,,,,,main,1,1,2,negative,neutral,724.3905052999999,724.3905052999999,724.3905052999999,724.3905052999999,725.3818476000006,725.4153444000003,k,k,1,1.025394199999937,726.4235122,726.4235122,726.4235122,726.4235122,726.4235122,726.4235122,,,,,,,,,,,,,,,,,,,,,,,,,,,,,,,,,,,,,,,,,,,,,,,316,2022-11-24_13h06.51.621,Main,2022.2.2,59.844941756049835,
negative,neutral,1,j,l,0,0,0,0,0,0,0,0,,,,,,,,,9,6,168,3,,,,,,,,,,,,,,,,,,,,,,,,,,,,,,,,,,,,,,,,main,2,2,1,neutral,negative,726.4235122,726.4235122,726.4235122,726.4235122,727.4233265000003,727.4618262000004,j,j,1,1.6485915000002933,729.0536670000001,729.0536670000001,729.0536670000001,730.1067377999998,730.1067377999998,730.1067377999998,,,,,,,,,,,,,,,,,,,,,,,,,,,,,,,,,,,,,,,,,,,,,,,316,2022-11-24_13h06.51.621,Main,2022.2.2,59.844941756049835,
negative,negative,1,j,l,0,0,0,0,0,0,0,0,,,,,,,,,9,7,169,0,,,,,,,,,,,,,,,,,,,,,,,,,,,,,,,,,,,,,,,,main,2,2,1,negative,negative,730.1067377999998,730.1067377999998,730.1067377999998,730.1067377999998,731.1070369999998,731.1469109999998,j,j,1,0.9140391999999338,732.0215718,732.0215718,732.0215718,732.0215718,732.0215718,732.0215718,,,,,,,,,,,,,,,,,,,,,,,,,,,,,,,,,,,,,,,,,,,,,,,316,2022-11-24_13h06.51.621,Main,2022.2.2,59.844941756049835,
