distractor,target,set,ans1,ans2,total_experiment.thisRepN,total_experiment.thisTrialN,total_experiment.thisN,total_experiment.thisIndex,boat.thisRepN,boat.thisTrialN,boat.thisN,boat.thisIndex,para.thisRepN,para.thisTrialN,para.thisN,para.thisIndex,para_rep_loop.thisRepN,para_rep_loop.thisTrialN,para_rep_loop.thisN,para_rep_loop.thisIndex,para_prac_loop.thisRepN,para_prac_loop.thisTrialN,para_prac_loop.thisN,para_prac_loop.thisIndex,para_main_loop.thisRepN,para_main_loop.thisTrialN,para_main_loop.thisN,para_main_loop.thisIndex,para_rest.thisRepN,para_rest.thisTrialN,para_rest.thisN,para_rest.thisIndex,fl_rep_loop2.thisRepN,fl_rep_loop2.thisTrialN,fl_rep_loop2.thisN,fl_rep_loop2.thisIndex,flanker_prac_loop.thisRepN,flanker_prac_loop.thisTrialN,flanker_prac_loop.thisN,flanker_prac_loop.thisIndex,flanker_main_loop.thisRepN,flanker_main_loop.thisTrialN,flanker_main_loop.thisN,flanker_main_loop.thisIndex,flanker_rest.thisRepN,flanker_rest.thisTrialN,flanker_rest.thisN,flanker_rest.thisIndex,para_starter.started,para_starter_key.started,para_starter_key.keys,para_starter_key.rt,para_inst_sound.started,para_inst_key.keys,para_inst_key.rt,para_inst_image.started,para_prac_back.started,para_prac_text.started,para_fix_back.started,para_fix_2.started,main_prac,para_back.started,st_ans,st_res,st_corr,st_rt,st2_resp.keys,st2_resp.corr,para_main_back.started,para_main_text.started,para_mouse.started,para_mouse.x,para_mouse.y,para_mouse.leftButton,para_mouse.midButton,para_mouse.rightButton,rest_text.started,rest_key.started,rest_inst_text.started,rest_time.started,rest_key.keys,exp_end_key.started,exp_end_back.started,exp_end_text.started,exp_end_key.keys,fl_starter_back.started,fl_starter.started,fl_starter_text.started,fl_starter.keys,fl_starter.rt,fl_inst_resp.keys,fl_inst_resp.rt,fl_back.started,fl_mouse_prac.started,fl_mouse_prac.x,fl_mouse_prac.y,fl_mouse_prac.leftButton,fl_mouse_prac.midButton,fl_mouse_prac.rightButton,back_2.started,fl_cold,fl_colt,fl_set,fl_dcond,fl_tcond,fl_fix.started,j_button.started,k_button.started,l_button.started,targ.started,fl_fix.stopped,fl_ans,fl_res,fl_corr,fl_rt,j_button2.started,k_button2.started,l_button2.started,j_button2.stopped,k_button2.stopped,l_button2.stopped,fl_mainback.started,fl_mouse_m.started,fl_key_resp.keys,fl_mouse_m.x,fl_mouse_m.y,fl_mouse_m.leftButton,fl_mouse_m.midButton,fl_mouse_m.rightButton,exp_end_key.rt,total_end_text.started,id*,date,expName,psychopyVersion,frameRate,
,,,,,0,0,0,0,,,,,0,0,0,0,0,0,0,0,,,,,,,,,,,,,,,,,,,,,,,,,,,,,51.31047419999959,51.31047419999959,space,28.870799800002715,81.20979166999896,space,58.72968140000012,140.0258322999871,,,,,,,,,,,,,,,,,,,,,,,,,,,,,,,,,,,,,,,,,,,,,,,,,,,,,,,,,,,,,,,,,,,,,,,,,,,,317,2022-12-08_12h19.43.811,Main,2022.2.2,60.2318927877292,
positive,blue,1,k,None,0,0,0,0,,,,,0,0,0,0,,,,,0,0,0,18,,,,,,,,,,,,,,,,,,,,,,,,,,,,,,,,,141.17450019999524,141.17450019999524,143.12911119998898,143.12911119998898,prac,145.25268929998856,None,None,1,1.510516700000153,None,1,,,,,,,,,,,,,,,,,,,,,,,,,,,,,,,,,,,,,,,,,,,,,,,,,,,,,,,,,,,,,,,,317,2022-12-08_12h19.43.811,Main,2022.2.2,60.2318927877292,
negative,blue,2,None,k,0,0,0,0,,,,,0,0,0,0,,,,,0,1,1,4,,,,,,,,,,,,,,,,,,,,,,,,,,,,,,,,,,,,,prac,147.73760769999353,k,k,1,13.816861200000858,None,0,,,,,,,,,,,,,,,,,,,,,,,,,,,,,,,,,,,,,,,,,,,,,,,,,,,,,,,,,,,,,,,,317,2022-12-08_12h19.43.811,Main,2022.2.2,60.2318927877292,
negative,yellow,2,k,None,0,0,0,0,,,,,0,0,0,0,,,,,0,2,2,11,,,,,,,,,,,,,,,,,,,,,,,,,,,,,,,,,,,,,prac,163.63895480000065,None,None,1,1.524746300012339,None,1,,,,,,,,,,,,,,,,,,,,,,,,,,,,,,,,,,,,,,,,,,,,,,,,,,,,,,,,,,,,,,,,317,2022-12-08_12h19.43.811,Main,2022.2.2,60.2318927877292,
positive,red,1,None,None,0,0,0,0,,,,,0,0,0,0,,,,,0,3,3,13,,,,,,,,,,,,,,,,,,,,,,,,,,,,,,,,,,,,,prac,166.1663591999968,None,None,1,1.5201717999880202,None,1,,,,,,,,,,,,,,,,,,,,,,,,,,,,,,,,,,,,,,,,,,,,,,,,,,,,,,,,,,,,,,,,317,2022-12-08_12h19.43.811,Main,2022.2.2,60.2318927877292,
positive,blue,2,k,None,0,0,0,0,,,,,0,0,0,0,,,,,0,4,4,14,,,,,,,,,,,,,,,,,,,,,,,,,,,,,,,,,,,,,prac,168.68530489999102,None,None,1,1.5315298999921652,None,1,,,,,,,,,,,,,,,,,,,,,,,,,,,,,,,,,,,,,,,,,,,,,,,,,,,,,,,,,,,,,,,,317,2022-12-08_12h19.43.811,Main,2022.2.2,60.2318927877292,
positive,blue,1,k,None,0,0,0,0,,,,,0,0,0,0,,,,,0,5,5,15,,,,,,,,,,,,,,,,,,,,,,,,,,,,,,,,,,,,,prac,171.21576859999914,None,None,1,1.5176650999928825,None,1,,,,,,,,,,,,,,,,,,,,,,,,,,,,,,,,,,,,,,,,,,,,,,,,,,,,,,,,,,,,,,,,317,2022-12-08_12h19.43.811,Main,2022.2.2,60.2318927877292,
positive,yellow,1,None,k,0,0,0,0,,,,,0,0,0,0,,,,,0,6,6,3,,,,,,,,,,,,,,,,,,,,,,,,,,,,,,,,,,,,,prac,173.74111939998693,k,k,1,1.1918689000012819,None,0,,,,,,,,,,,,,,,,,,,,,,,,,,,,,,,,,,,,,,,,,,,,,,,,,,,,,,,,,,,,,,,,317,2022-12-08_12h19.43.811,Main,2022.2.2,60.2318927877292,
negative,yellow,1,k,None,0,0,0,0,,,,,0,0,0,0,,,,,0,7,7,9,,,,,,,,,,,,,,,,,,,,,,,,,,,,,,,,,,,,,prac,175.94023609999567,None,None,1,1.5177582000032999,None,1,,,,,,,,,,,,,,,,,,,,,,,,,,,,,,,,,,,,,,,,,,,,,,,,,,,,,,,,,,,,,,,,317,2022-12-08_12h19.43.811,Main,2022.2.2,60.2318927877292,
negative,blue,2,None,k,0,0,0,0,,,,,0,0,0,0,,,,,0,8,8,2,,,,,,,,,,,,,,,,,,,,,,,,,,,,,,,,,,,,,prac,178.45257889998902,k,k,1,0.9961488999979338,None,0,,,,,,,,,,,,,,,,,,,,,,,,,,,,,,,,,,,,,,,,,,,,,,,,,,,,,,,,,,,,,,,,317,2022-12-08_12h19.43.811,Main,2022.2.2,60.2318927877292,
negative,red,2,None,None,0,0,0,0,,,,,0,0,0,0,,,,,0,9,9,12,,,,,,,,,,,,,,,,,,,,,,,,,,,,,,,,,,,,,prac,180.45352640000056,None,None,1,1.5311146999883931,None,1,,,,,,,,,,,,,,,,,,,,,,,,,,,,,,,,,,,,,,,,,,,,,,,,,,,,,,,,,,,,,,,,317,2022-12-08_12h19.43.811,Main,2022.2.2,60.2318927877292,
positive,red,2,None,None,0,0,0,0,,,,,0,0,0,0,,,,,0,10,10,1,,,,,,,,,,,,,,,,,,,,,,,,,,,,,,,,,,,,,prac,182.98663349999697,None,None,1,1.5328351999924053,None,1,,,,,,,,,,,,,,,,,,,,,,,,,,,,,,,,,,,,,,,,,,,,,,,,,,,,,,,,,,,,,,,,317,2022-12-08_12h19.43.811,Main,2022.2.2,60.2318927877292,
negative,blue,1,None,k,0,0,0,0,,,,,0,0,0,0,,,,,0,11,11,16,,,,,,,,,,,,,,,,,,,,,,,,,,,,,,,,,,,,,prac,185.5211486999906,k,k,1,1.064510700001847,None,0,,,,,,,,,,,,,,,,,,,,,,,,,,,,,,,,,,,,,,,,,,,,,,,,,,,,,,,,,,,,,,,,317,2022-12-08_12h19.43.811,Main,2022.2.2,60.2318927877292,
positive,yellow,2,None,k,0,0,0,0,,,,,0,0,0,0,,,,,0,12,12,8,,,,,,,,,,,,,,,,,,,,,,,,,,,,,,,,,,,,,prac,187.59455919999164,k,k,1,0.9814413000131026,None,0,,,,,,,,,,,,,,,,,,,,,,,,,,,,,,,,,,,,,,,,,,,,,,,,,,,,,,,,,,,,,,,,317,2022-12-08_12h19.43.811,Main,2022.2.2,60.2318927877292,
negative,red,1,None,None,0,0,0,0,,,,,0,0,0,0,,,,,0,13,13,7,,,,,,,,,,,,,,,,,,,,,,,,,,,,,,,,,,,,,prac,189.5785021999909,None,None,1,1.5389429999922868,None,1,,,,,,,,,,,,,,,,,,,,,,,,,,,,,,,,,,,,,,,,,,,,,,,,,,,,,,,,,,,,,,,,317,2022-12-08_12h19.43.811,Main,2022.2.2,60.2318927877292,
negative,blue,1,None,k,0,0,0,0,,,,,0,0,0,0,,,,,0,14,14,5,,,,,,,,,,,,,,,,,,,,,,,,,,,,,,,,,,,,,prac,192.11580259999027,k,k,1,0.9001989999960642,None,0,,,,,,,,,,,,,,,,,,,,,,,,,,,,,,,,,,,,,,,,,,,,,,,,,,,,,,,,,,,,,,,,317,2022-12-08_12h19.43.811,Main,2022.2.2,60.2318927877292,
positive,yellow,1,None,k,0,0,0,0,,,,,0,0,0,0,,,,,0,15,15,19,,,,,,,,,,,,,,,,,,,,,,,,,,,,,,,,,,,,,prac,194.02202530000068,k,k,1,0.8824256000079913,None,0,,,,,,,,,,,,,,,,,,,,,,,,,,,,,,,,,,,,,,,,,,,,,,,,,,,,,,,,,,,,,,,,317,2022-12-08_12h19.43.811,Main,2022.2.2,60.2318927877292,
positive,yellow,2,None,k,0,0,0,0,,,,,0,0,0,0,,,,,0,16,16,10,,,,,,,,,,,,,,,,,,,,,,,,,,,,,,,,,,,,,prac,195.90796569999657,k,k,1,1.300169599999208,None,0,,,,,,,,,,,,,,,,,,,,,,,,,,,,,,,,,,,,,,,,,,,,,,,,,,,,,,,,,,,,,,,,317,2022-12-08_12h19.43.811,Main,2022.2.2,60.2318927877292,
positive,blue,2,k,None,0,0,0,0,,,,,0,0,0,0,,,,,0,17,17,17,,,,,,,,,,,,,,,,,,,,,,,,,,,,,,,,,,,,,prac,198.20993149999413,None,None,1,1.5051871999894502,None,1,,,,,,,,,,,,,,,,,,,,,,,,,,,,,,,,,,,,,,,,,,,,,,,,,,,,,,,,,,,,,,,,317,2022-12-08_12h19.43.811,Main,2022.2.2,60.2318927877292,
negative,yellow,1,k,None,0,0,0,0,,,,,0,0,0,0,,,,,0,18,18,0,,,,,,,,,,,,,,,,,,,,,,,,,,,,,,,,,,,,,prac,200.71443129998806,None,None,1,1.5301267000031658,None,1,,,,,,,,,,,,,,,,,,,,,,,,,,,,,,,,,,,,,,,,,,,,,,,,,,,,,,,,,,,,,,,,317,2022-12-08_12h19.43.811,Main,2022.2.2,60.2318927877292,
negative,yellow,2,k,None,0,0,0,0,,,,,0,0,0,0,,,,,0,19,19,6,,,,,,,,,,,,,,,,,,,,,,,,,,,,,,,,,,,,,prac,203.24551509998855,None,None,1,1.5140897000092082,None,1,,,,,,,,,,,,,,,,,,,,,,,,,,,,,,,,,,,,,,,,,,,,,,,,,,,,,,,,,,,,,,,,317,2022-12-08_12h19.43.811,Main,2022.2.2,60.2318927877292,
negative,blue,2,None,k,0,0,0,0,,,,,0,0,0,0,,,,,1,0,20,4,,,,,,,,,,,,,,,,,,,,,,,,,,,,,,,,,,,,,prac,205.76242709999497,k,k,1,0.9899093000130961,None,0,,,,,,,,,,,,,,,,,,,,,,,,,,,,,,,,,,,,,,,,,,,,,,,,,,,,,,,,,,,,,,,,317,2022-12-08_12h19.43.811,Main,2022.2.2,60.2318927877292,
positive,blue,2,k,None,0,0,0,0,,,,,0,0,0,0,,,,,1,1,21,17,,,,,,,,,,,,,,,,,,,,,,,,,,,,,,,,,,,,,prac,207.76212609998765,None,None,1,1.5157066000101622,None,1,,,,,,,,,,,,,,,,,,,,,,,,,,,,,,,,,,,,,,,,,,,,,,,,,,,,,,,,,,,,,,,,317,2022-12-08_12h19.43.811,Main,2022.2.2,60.2318927877292,
negative,blue,1,None,k,0,0,0,0,,,,,0,0,0,0,,,,,1,2,22,16,,,,,,,,,,,,,,,,,,,,,,,,,,,,,,,,,,,,,prac,210.2754169999971,k,k,1,1.1167502999887802,None,0,,,,,,,,,,,,,,,,,,,,,,,,,,,,,,,,,,,,,,,,,,,,,,,,,,,,,,,,,,,,,,,,317,2022-12-08_12h19.43.811,Main,2022.2.2,60.2318927877292,
negative,yellow,2,k,None,0,0,0,0,,,,,0,0,0,0,,,,,1,3,23,11,,,,,,,,,,,,,,,,,,,,,,,,,,,,,,,,,,,,,prac,212.3933885999868,None,None,1,1.5170622000005096,None,1,,,,,,,,,,,,,,,,,,,,,,,,,,,,,,,,,,,,,,,,,,,,,,,,,,,,,,,,,,,,,,,,317,2022-12-08_12h19.43.811,Main,2022.2.2,60.2318927877292,
negative,blue,2,None,k,0,0,0,0,,,,,0,0,0,0,,,,,1,4,24,2,,,,,,,,,,,,,,,,,,,,,,,,,,,,,,,,,,,,,prac,214.91475009999704,k,k,1,1.0123289000039222,None,0,,,,,,,,,,,,,,,,,,,,,,,,,,,,,,,,,,,,,,,,,,,,,,,,,,,,,,,,,,,,,,,,317,2022-12-08_12h19.43.811,Main,2022.2.2,60.2318927877292,
positive,red,1,None,None,0,0,0,0,,,,,0,0,0,0,,,,,1,5,25,13,,,,,,,,,,,,,,,,,,,,,,,,,,,,,,,,,,,,,prac,216.9354835999984,None,None,1,1.510008099998231,None,1,,,,,,,,,,,,,,,,,,,,,,,,,,,,,,,,,,,,,,,,,,,,,,,,,,,,,,,,,,,,,,,,317,2022-12-08_12h19.43.811,Main,2022.2.2,60.2318927877292,
negative,yellow,1,k,None,0,0,0,0,,,,,0,0,0,0,,,,,1,6,26,9,,,,,,,,,,,,,,,,,,,,,,,,,,,,,,,,,,,,,prac,219.4376052000007,None,None,1,1.5207374000019627,None,1,,,,,,,,,,,,,,,,,,,,,,,,,,,,,,,,,,,,,,,,,,,,,,,,,,,,,,,,,,,,,,,,317,2022-12-08_12h19.43.811,Main,2022.2.2,60.2318927877292,
positive,yellow,1,None,k,0,0,0,0,,,,,0,0,0,0,,,,,1,7,27,3,,,,,,,,,,,,,,,,,,,,,,,,,,,,,,,,,,,,,prac,221.96242459998757,k,k,1,0.8838001999974949,None,0,,,,,,,,,,,,,,,,,,,,,,,,,,,,,,,,,,,,,,,,,,,,,,,,,,,,,,,,,,,,,,,,317,2022-12-08_12h19.43.811,Main,2022.2.2,60.2318927877292,
negative,yellow,2,k,None,0,0,0,0,,,,,0,0,0,0,,,,,1,8,28,6,,,,,,,,,,,,,,,,,,,,,,,,,,,,,,,,,,,,,prac,223.85422449999896,None,None,1,1.5313683999993373,None,1,,,,,,,,,,,,,,,,,,,,,,,,,,,,,,,,,,,,,,,,,,,,,,,,,,,,,,,,,,,,,,,,317,2022-12-08_12h19.43.811,Main,2022.2.2,60.2318927877292,
positive,yellow,2,None,k,0,0,0,0,,,,,0,0,0,0,,,,,1,9,29,10,,,,,,,,,,,,,,,,,,,,,,,,,,,,,,,,,,,,,prac,226.3850056999945,k,k,1,0.9484431000018958,None,0,,,,,,,,,,,,,,,,,,,,,,,,,,,,,,,,,,,,,,,,,,,,,,,,,,,,,,,,,,,,,,,,317,2022-12-08_12h19.43.811,Main,2022.2.2,60.2318927877292,
positive,yellow,1,None,k,0,0,0,0,,,,,0,0,0,0,,,,,1,10,30,19,,,,,,,,,,,,,,,,,,,,,,,,,,,,,,,,,,,,,prac,228.34125679999124,k,k,1,0.980087400006596,None,0,,,,,,,,,,,,,,,,,,,,,,,,,,,,,,,,,,,,,,,,,,,,,,,,,,,,,,,,,,,,,,,,317,2022-12-08_12h19.43.811,Main,2022.2.2,60.2318927877292,
positive,red,2,None,None,0,0,0,0,,,,,0,0,0,0,,,,,1,11,31,1,,,,,,,,,,,,,,,,,,,,,,,,,,,,,,,,,,,,,prac,230.3228223999904,None,None,1,1.5275349000003189,None,1,,,,,,,,,,,,,,,,,,,,,,,,,,,,,,,,,,,,,,,,,,,,,,,,,,,,,,,,,,,,,,,,317,2022-12-08_12h19.43.811,Main,2022.2.2,60.2318927877292,
positive,yellow,2,None,k,0,0,0,0,,,,,0,0,0,0,,,,,1,12,32,8,,,,,,,,,,,,,,,,,,,,,,,,,,,,,,,,,,,,,prac,232.84685279999394,k,k,1,0.8694560000003548,None,0,,,,,,,,,,,,,,,,,,,,,,,,,,,,,,,,,,,,,,,,,,,,,,,,,,,,,,,,,,,,,,,,317,2022-12-08_12h19.43.811,Main,2022.2.2,60.2318927877292,
negative,red,1,None,None,0,0,0,0,,,,,0,0,0,0,,,,,1,13,33,7,,,,,,,,,,,,,,,,,,,,,,,,,,,,,,,,,,,,,prac,234.72246849999647,None,None,1,1.510002600000007,None,1,,,,,,,,,,,,,,,,,,,,,,,,,,,,,,,,,,,,,,,,,,,,,,,,,,,,,,,,,,,,,,,,317,2022-12-08_12h19.43.811,Main,2022.2.2,60.2318927877292,
negative,blue,1,None,k,0,0,0,0,,,,,0,0,0,0,,,,,1,14,34,5,,,,,,,,,,,,,,,,,,,,,,,,,,,,,,,,,,,,,prac,237.2315099999978,k,k,1,0.9236162000015611,None,0,,,,,,,,,,,,,,,,,,,,,,,,,,,,,,,,,,,,,,,,,,,,,,,,,,,,,,,,,,,,,,,,317,2022-12-08_12h19.43.811,Main,2022.2.2,60.2318927877292,
positive,blue,1,k,None,0,0,0,0,,,,,0,0,0,0,,,,,1,15,35,18,,,,,,,,,,,,,,,,,,,,,,,,,,,,,,,,,,,,,prac,239.1520232999901,None,None,1,1.5279096000012942,None,1,,,,,,,,,,,,,,,,,,,,,,,,,,,,,,,,,,,,,,,,,,,,,,,,,,,,,,,,,,,,,,,,317,2022-12-08_12h19.43.811,Main,2022.2.2,60.2318927877292,
negative,yellow,1,k,None,0,0,0,0,,,,,0,0,0,0,,,,,1,16,36,0,,,,,,,,,,,,,,,,,,,,,,,,,,,,,,,,,,,,,prac,241.68476419999206,None,None,1,1.5325657999928808,None,1,,,,,,,,,,,,,,,,,,,,,,,,,,,,,,,,,,,,,,,,,,,,,,,,,,,,,,,,,,,,,,,,317,2022-12-08_12h19.43.811,Main,2022.2.2,60.2318927877292,
positive,blue,2,k,None,0,0,0,0,,,,,0,0,0,0,,,,,1,17,37,14,,,,,,,,,,,,,,,,,,,,,,,,,,,,,,,,,,,,,prac,244.22131219999574,None,None,1,1.526076699999976,None,1,,,,,,,,,,,,,,,,,,,,,,,,,,,,,,,,,,,,,,,,,,,,,,,,,,,,,,,,,,,,,,,,317,2022-12-08_12h19.43.811,Main,2022.2.2,60.2318927877292,
positive,blue,1,k,None,0,0,0,0,,,,,0,0,0,0,,,,,1,18,38,15,,,,,,,,,,,,,,,,,,,,,,,,,,,,,,,,,,,,,prac,246.7480399999913,None,None,1,1.525258900001063,None,1,,,,,,,,,,,,,,,,,,,,,,,,,,,,,,,,,,,,,,,,,,,,,,,,,,,,,,,,,,,,,,,,317,2022-12-08_12h19.43.811,Main,2022.2.2,60.2318927877292,
negative,red,2,None,None,0,0,0,0,,,,,0,0,0,0,,,,,1,19,39,12,,,,,,,,,,,,,,,,,,,,,,,,,,,,,,,,,,,,,prac,249.27327999999397,None,None,1,1.536023299995577,None,1,,,,,,,,,,,,,,,,,,,,,,,,,,,,,,,,,,,,,,,,,,,,,,,,,,,,,,,,,,,,,,,,317,2022-12-08_12h19.43.811,Main,2022.2.2,60.2318927877292,
positive,yellow,2,None,k,0,0,0,0,,,,,0,0,0,0,,,,,,,,,0,0,0,36,,,,,,,,,,,,,,,,,,,,,,,,,,,,,,,254.242387899998,254.242387899998,main,256.31373789999634,k,k,1,0.9864762000070186,None,0,251.8391324999975,251.8391324999975,0.000843299989355728,0.05462962962962963,0.04537037037037037,0,0,0,,,,,,,,,,,,,,,,,,,,,,,,,,,,,,,,,,,,,,,,,,,,,,,,,,,,,,,,317,2022-12-08_12h19.43.811,Main,2022.2.2,60.2318927877292,
negative,red,1,None,None,0,0,0,0,,,,,0,0,0,0,,,,,,,,,0,1,1,44,,,,,,,,,,,,,,,,,,,,,,,,,,,,,,,,,main,258.3180311999895,None,None,1,1.5225043000100413,None,1,,,,,,,,,,,,,,,,,,,,,,,,,,,,,,,,,,,,,,,,,,,,,,,,,,,,,,,,,,,,,,,,317,2022-12-08_12h19.43.811,Main,2022.2.2,60.2318927877292,
positive,yellow,1,None,k,0,0,0,0,,,,,0,0,0,0,,,,,,,,,0,2,2,139,,,,,,,,,,,,,,,,,,,,,,,,,,,,,,,,,main,260.83571729999676,k,k,1,1.0979586000030395,None,0,,,,,,,,,,,,,,,,,,,,,,,,,,,,,,,,,,,,,,,,,,,,,,,,,,,,,,,,,,,,,,,,317,2022-12-08_12h19.43.811,Main,2022.2.2,60.2318927877292,
positive,yellow,2,None,k,0,0,0,0,,,,,0,0,0,0,,,,,,,,,0,3,3,90,,,,,,,,,,,,,,,,,,,,,,,,,,,,,,,,,main,262.93743859999813,k,k,1,1.268629600002896,None,0,,,,,,,,,,,,,,,,,,,,,,,,,,,,,,,,,,,,,,,,,,,,,,,,,,,,,,,,,,,,,,,,317,2022-12-08_12h19.43.811,Main,2022.2.2,60.2318927877292,
negative,blue,2,None,k,0,0,0,0,,,,,0,0,0,0,,,,,,,,,0,4,4,132,,,,,,,,,,,,,,,,,,,,,,,,,,,,,,,,,main,265.20892239999375,k,k,1,1.0638004999927944,None,0,,,,,,,,,,,,,,,,,,,,,,,,,,,,,,,,,,,,,,,,,,,,,,,,,,,,,,,,,,,,,,,,317,2022-12-08_12h19.43.811,Main,2022.2.2,60.2318927877292,
negative,yellow,1,k,None,0,0,0,0,,,,,0,0,0,0,,,,,,,,,0,5,5,46,,,,,,,,,,,,,,,,,,,,,,,,,,,,,,,,,main,267.28472279998823,None,None,1,1.532674500005669,None,1,,,,,,,,,,,,,,,,,,,,,,,,,,,,,,,,,,,,,,,,,,,,,,,,,,,,,,,,,,,,,,,,317,2022-12-08_12h19.43.811,Main,2022.2.2,60.2318927877292,
positive,blue,1,k,None,0,0,0,0,,,,,0,0,0,0,,,,,,,,,0,6,6,213,,,,,,,,,,,,,,,,,,,,,,,,,,,,,,,,,main,269.81771939998725,None,None,1,1.5115470000018831,None,1,,,,,,,,,,,,,,,,,,,,,,,,,,,,,,,,,,,,,,,,,,,,,,,,,,,,,,,,,,,,,,,,317,2022-12-08_12h19.43.811,Main,2022.2.2,60.2318927877292,
positive,blue,1,k,None,0,0,0,0,,,,,0,0,0,0,,,,,,,,,0,7,7,176,,,,,,,,,,,,,,,,,,,,,,,,,,,,,,,,,main,272.3288252999919,None,None,1,1.516826499995659,None,1,,,,,,,,,,,,,,,,,,,,,,,,,,,,,,,,,,,,,,,,,,,,,,,,,,,,,,,,,,,,,,,,317,2022-12-08_12h19.43.811,Main,2022.2.2,60.2318927877292,
positive,yellow,1,None,k,0,0,0,0,,,,,0,0,0,0,,,,,,,,,0,8,8,118,,,,,,,,,,,,,,,,,,,,,,,,,,,,,,,,,main,274.8466425999941,k,k,1,0.8591263999987859,None,0,,,,,,,,,,,,,,,,,,,,,,,,,,,,,,,,,,,,,,,,,,,,,,,,,,,,,,,,,,,,,,,,317,2022-12-08_12h19.43.811,Main,2022.2.2,60.2318927877292,
positive,blue,2,k,None,0,0,0,0,,,,,0,0,0,0,,,,,,,,,0,9,9,64,,,,,,,,,,,,,,,,,,,,,,,,,,,,,,,,,main,276.7157089999964,None,None,1,1.5235666999942623,None,1,,,,,,,,,,,,,,,,,,,,,,,,,,,,,,,,,,,,,,,,,,,,,,,,,,,,,,,,,,,,,,,,317,2022-12-08_12h19.43.811,Main,2022.2.2,60.2318927877292,
negative,yellow,2,k,None,0,0,0,0,,,,,0,0,0,0,,,,,,,,,0,10,10,117,,,,,,,,,,,,,,,,,,,,,,,,,,,,,,,,,main,279.23211929999525,None,None,1,1.5352321999962442,None,1,,,,,,,,,,,,,,,,,,,,,,,,,,,,,,,,,,,,,,,,,,,,,,,,,,,,,,,,,,,,,,,,317,2022-12-08_12h19.43.811,Main,2022.2.2,60.2318927877292,
negative,blue,2,None,k,0,0,0,0,,,,,0,0,0,0,,,,,,,,,0,11,11,6,,,,,,,,,,,,,,,,,,,,,,,,,,,,,,,,,main,281.77340969999204,k,k,1,1.0075948000012431,None,0,,,,,,,,,,,,,,,,,,,,,,,,,,,,,,,,,,,,,,,,,,,,,,,,,,,,,,,,,,,,,,,,317,2022-12-08_12h19.43.811,Main,2022.2.2,60.2318927877292,
positive,yellow,2,None,k,0,0,0,0,,,,,0,0,0,0,,,,,,,,,0,12,12,224,,,,,,,,,,,,,,,,,,,,,,,,,,,,,,,,,main,283.78567879999173,k,k,1,0.9345409999950789,None,0,,,,,,,,,,,,,,,,,,,,,,,,,,,,,,,,,,,,,,,,,,,,,,,,,,,,,,,,,,,,,,,,317,2022-12-08_12h19.43.811,Main,2022.2.2,60.2318927877292,
negative,blue,1,None,k,0,0,0,0,,,,,0,0,0,0,,,,,,,,,0,13,13,63,,,,,,,,,,,,,,,,,,,,,,,,,,,,,,,,,main,285.72673339999164,k,k,1,0.8229592999996385,None,0,,,,,,,,,,,,,,,,,,,,,,,,,,,,,,,,,,,,,,,,,,,,,,,,,,,,,,,,,,,,,,,,317,2022-12-08_12h19.43.811,Main,2022.2.2,60.2318927877292,
negative,red,2,None,None,0,0,0,0,,,,,0,0,0,0,,,,,,,,,0,14,14,73,,,,,,,,,,,,,,,,,,,,,,,,,,,,,,,,,main,287.55129649999435,None,None,1,1.5091239000030328,None,1,,,,,,,,,,,,,,,,,,,,,,,,,,,,,,,,,,,,,,,,,,,,,,,,,,,,,,,,,,,,,,,,317,2022-12-08_12h19.43.811,Main,2022.2.2,60.2318927877292,
positive,blue,2,k,None,0,0,0,0,,,,,0,0,0,0,,,,,,,,,0,15,15,192,,,,,,,,,,,,,,,,,,,,,,,,,,,,,,,,,main,290.0628371999919,None,None,1,1.513213199999882,None,1,,,,,,,,,,,,,,,,,,,,,,,,,,,,,,,,,,,,,,,,,,,,,,,,,,,,,,,,,,,,,,,,317,2022-12-08_12h19.43.811,Main,2022.2.2,60.2318927877292,
negative,yellow,2,k,None,0,0,0,0,,,,,0,0,0,0,,,,,,,,,0,16,16,65,,,,,,,,,,,,,,,,,,,,,,,,,,,,,,,,,main,292.57894989999477,None,k,0,0.9254384999949252,None,1,,,,,,,,,,,,,,,,,,,,,,,,,,,,,,,,,,,,,,,,,,,,,,,,,,,,,,,,,,,,,,,,317,2022-12-08_12h19.43.811,Main,2022.2.2,60.2318927877292,
negative,yellow,1,k,None,0,0,0,0,,,,,0,0,0,0,,,,,,,,,0,17,17,128,,,,,,,,,,,,,,,,,,,,,,,,,,,,,,,,,main,295.5445047999965,None,None,1,1.5370426000008592,None,1,,,,,,,,,,,,,,,,,,,,,,,,,,,,,,,,,,,,,,,,,,,,,,,,,,,,,,,,,,,,,,,,317,2022-12-08_12h19.43.811,Main,2022.2.2,60.2318927877292,
positive,blue,2,k,None,0,0,0,0,,,,,0,0,0,0,,,,,,,,,0,18,18,133,,,,,,,,,,,,,,,,,,,,,,,,,,,,,,,,,main,298.0809350999916,None,None,1,1.514429900009418,None,1,,,,,,,,,,,,,,,,,,,,,,,,,,,,,,,,,,,,,,,,,,,,,,,,,,,,,,,,,,,,,,,,317,2022-12-08_12h19.43.811,Main,2022.2.2,60.2318927877292,
negative,red,1,None,None,0,0,0,0,,,,,0,0,0,0,,,,,,,,,0,19,19,146,,,,,,,,,,,,,,,,,,,,,,,,,,,,,,,,,main,300.60102560000087,None,None,1,1.5174771000019973,None,1,,,,,,,,,,,,,,,,,,,,,,,,,,,,,,,,,,,,,,,,,,,,,,,,,,,,,,,,,,,,,,,,317,2022-12-08_12h19.43.811,Main,2022.2.2,60.2318927877292,
negative,blue,1,None,k,0,0,0,0,,,,,0,0,0,0,,,,,,,,,0,20,20,51,,,,,,,,,,,,,,,,,,,,,,,,,,,,,,,,,main,303.12067049999314,k,k,1,0.9414167999930214,None,0,,,,,,,,,,,,,,,,,,,,,,,,,,,,,,,,,,,,,,,,,,,,,,,,,,,,,,,,,,,,,,,,317,2022-12-08_12h19.43.811,Main,2022.2.2,60.2318927877292,
positive,blue,2,k,None,0,0,0,0,,,,,0,0,0,0,,,,,,,,,0,21,21,172,,,,,,,,,,,,,,,,,,,,,,,,,,,,,,,,,main,305.06677710000076,None,None,1,1.5096462000074098,None,1,,,,,,,,,,,,,,,,,,,,,,,,,,,,,,,,,,,,,,,,,,,,,,,,,,,,,,,,,,,,,,,,317,2022-12-08_12h19.43.811,Main,2022.2.2,60.2318927877292,
negative,yellow,2,k,None,0,0,0,0,,,,,0,0,0,0,,,,,,,,,0,22,22,83,,,,,,,,,,,,,,,,,,,,,,,,,,,,,,,,,main,307.5789850000001,None,None,1,1.5226507000043057,None,1,,,,,,,,,,,,,,,,,,,,,,,,,,,,,,,,,,,,,,,,,,,,,,,,,,,,,,,,,,,,,,,,317,2022-12-08_12h19.43.811,Main,2022.2.2,60.2318927877292,
positive,blue,2,k,None,0,0,0,0,,,,,0,0,0,0,,,,,,,,,0,23,23,168,,,,,,,,,,,,,,,,,,,,,,,,,,,,,,,,,main,310.10107789999165,None,None,1,1.540425300001516,None,1,,,,,,,,,,,,,,,,,,,,,,,,,,,,,,,,,,,,,,,,,,,,,,,,,,,,,,,,,,,,,,,,317,2022-12-08_12h19.43.811,Main,2022.2.2,60.2318927877292,
positive,blue,1,k,None,0,0,0,0,,,,,0,0,0,0,,,,,,,,,0,24,24,87,,,,,,,,,,,,,,,,,,,,,,,,,,,,,,,,,main,312.64805029999116,None,None,1,1.504956899996614,None,1,,,,,,,,,,,,,,,,,,,,,,,,,,,,,,,,,,,,,,,,,,,,,,,,,,,,,,,,,,,,,,,,317,2022-12-08_12h19.43.811,Main,2022.2.2,60.2318927877292,
negative,yellow,1,k,None,0,0,0,0,,,,,0,0,0,0,,,,,,,,,0,25,25,223,,,,,,,,,,,,,,,,,,,,,,,,,,,,,,,,,main,315.1585015999881,None,None,1,1.5388162000017473,None,1,,,,,,,,,,,,,,,,,,,,,,,,,,,,,,,,,,,,,,,,,,,,,,,,,,,,,,,,,,,,,,,,317,2022-12-08_12h19.43.811,Main,2022.2.2,60.2318927877292,
negative,yellow,2,k,None,0,0,0,0,,,,,0,0,0,0,,,,,,,,,0,26,26,32,,,,,,,,,,,,,,,,,,,,,,,,,,,,,,,,,main,317.70181749999756,None,None,1,1.5269456000096397,None,1,,,,,,,,,,,,,,,,,,,,,,,,,,,,,,,,,,,,,,,,,,,,,,,,,,,,,,,,,,,,,,,,317,2022-12-08_12h19.43.811,Main,2022.2.2,60.2318927877292,
negative,red,2,None,None,0,0,0,0,,,,,0,0,0,0,,,,,,,,,0,27,27,116,,,,,,,,,,,,,,,,,,,,,,,,,,,,,,,,,main,320.2325528999936,None,None,1,1.515846900001634,None,1,,,,,,,,,,,,,,,,,,,,,,,,,,,,,,,,,,,,,,,,,,,,,,,,,,,,,,,,,,,,,,,,317,2022-12-08_12h19.43.811,Main,2022.2.2,60.2318927877292,
negative,blue,1,None,k,0,0,0,0,,,,,0,0,0,0,,,,,,,,,0,28,28,19,,,,,,,,,,,,,,,,,,,,,,,,,,,,,,,,,main,322.7509168999968,k,k,1,1.0442719999991823,None,0,,,,,,,,,,,,,,,,,,,,,,,,,,,,,,,,,,,,,,,,,,,,,,,,,,,,,,,,,,,,,,,,317,2022-12-08_12h19.43.811,Main,2022.2.2,60.2318927877292,
negative,yellow,2,k,None,0,0,0,0,,,,,0,0,0,0,,,,,,,,,0,29,29,59,,,,,,,,,,,,,,,,,,,,,,,,,,,,,,,,,main,324.80501829998684,None,None,1,1.539189199989778,None,1,,,,,,,,,,,,,,,,,,,,,,,,,,,,,,,,,,,,,,,,,,,,,,,,,,,,,,,,,,,,,,,,317,2022-12-08_12h19.43.811,Main,2022.2.2,60.2318927877292,
negative,blue,2,None,k,0,0,0,0,,,,,0,0,0,0,,,,,,,,,0,30,30,21,,,,,,,,,,,,,,,,,,,,,,,,,,,,,,,,,main,327.33759799999825,k,k,1,1.1894802000024356,None,0,,,,,,,,,,,,,,,,,,,,,,,,,,,,,,,,,,,,,,,,,,,,,,,,,,,,,,,,,,,,,,,,317,2022-12-08_12h19.43.811,Main,2022.2.2,60.2318927877292,
negative,yellow,1,k,None,0,0,0,0,,,,,0,0,0,0,,,,,,,,,0,31,31,26,,,,,,,,,,,,,,,,,,,,,,,,,,,,,,,,,main,329.5337761999981,None,None,1,1.5532647999934852,None,1,,,,,,,,,,,,,,,,,,,,,,,,,,,,,,,,,,,,,,,,,,,,,,,,,,,,,,,,,,,,,,,,317,2022-12-08_12h19.43.811,Main,2022.2.2,60.2318927877292,
positive,yellow,1,None,k,0,0,0,0,,,,,0,0,0,0,,,,,,,,,0,32,32,39,,,,,,,,,,,,,,,,,,,,,,,,,,,,,,,,,main,332.0954544999986,k,k,1,0.778233300006832,None,0,,,,,,,,,,,,,,,,,,,,,,,,,,,,,,,,,,,,,,,,,,,,,,,,,,,,,,,,,,,,,,,,317,2022-12-08_12h19.43.811,Main,2022.2.2,60.2318927877292,
positive,yellow,1,None,k,0,0,0,0,,,,,0,0,0,0,,,,,,,,,0,33,33,230,,,,,,,,,,,,,,,,,,,,,,,,,,,,,,,,,main,333.8787752999924,k,k,1,0.7735955999960424,None,0,,,,,,,,,,,,,,,,,,,,,,,,,,,,,,,,,,,,,,,,,,,,,,,,,,,,,,,,,,,,,,,,317,2022-12-08_12h19.43.811,Main,2022.2.2,60.2318927877292,
positive,red,1,None,None,0,0,0,0,,,,,0,0,0,0,,,,,,,,,0,34,34,115,,,,,,,,,,,,,,,,,,,,,,,,,,,,,,,,,main,335.6542153999908,None,None,1,1.5112307999952463,None,1,,,,,,,,,,,,,,,,,,,,,,,,,,,,,,,,,,,,,,,,,,,,,,,,,,,,,,,,,,,,,,,,317,2022-12-08_12h19.43.811,Main,2022.2.2,60.2318927877292,
positive,red,1,None,None,0,0,0,0,,,,,0,0,0,0,,,,,,,,,0,35,35,203,,,,,,,,,,,,,,,,,,,,,,,,,,,,,,,,,main,338.1667693999916,None,None,1,1.5191916000039782,None,1,,,,,,,,,,,,,,,,,,,,,,,,,,,,,,,,,,,,,,,,,,,,,,,,,,,,,,,,,,,,,,,,317,2022-12-08_12h19.43.811,Main,2022.2.2,60.2318927877292,
negative,yellow,2,k,None,0,0,0,0,,,,,0,0,0,0,,,,,,,,,0,36,36,0,,,,,,,,,,,,,,,,,,,,,,,,,,,,,,,,,main,340.69575619998795,None,None,1,1.512891899998067,None,1,,,,,,,,,,,,,,,,,,,,,,,,,,,,,,,,,,,,,,,,,,,,,,,,,,,,,,,,,,,,,,,,317,2022-12-08_12h19.43.811,Main,2022.2.2,60.2318927877292,
positive,blue,2,k,None,0,0,0,0,,,,,0,0,0,0,,,,,,,,,0,37,37,84,,,,,,,,,,,,,,,,,,,,,,,,,,,,,,,,,main,343.21157219998713,None,None,1,1.5120920999906957,None,1,,,,,,,,,,,,,,,,,,,,,,,,,,,,,,,,,,,,,,,,,,,,,,,,,,,,,,,,,,,,,,,,317,2022-12-08_12h19.43.811,Main,2022.2.2,60.2318927877292,
positive,blue,2,k,None,0,0,0,0,,,,,0,0,0,0,,,,,,,,,0,38,38,41,,,,,,,,,,,,,,,,,,,,,,,,,,,,,,,,,main,345.7232007999992,None,None,1,1.5317815999878803,None,1,,,,,,,,,,,,,,,,,,,,,,,,,,,,,,,,,,,,,,,,,,,,,,,,,,,,,,,,,,,,,,,,317,2022-12-08_12h19.43.811,Main,2022.2.2,60.2318927877292,
positive,yellow,1,None,k,0,0,0,0,,,,,0,0,0,0,,,,,,,,,0,39,39,97,,,,,,,,,,,,,,,,,,,,,,,,,,,,,,,,,main,348.26051959999313,k,k,1,0.780782799993176,None,0,,,,,,,,,,,,,,,,,,,,,,,,,,,,,,,,,,,,,,,,,,,,,,,,,,,,,,,,,,,,,,,,317,2022-12-08_12h19.43.811,Main,2022.2.2,60.2318927877292,
positive,red,2,None,None,0,0,0,0,,,,,0,0,0,0,,,,,,,,,0,40,40,134,,,,,,,,,,,,,,,,,,,,,,,,,,,,,,,,,main,350.05099150000024,None,None,1,1.5221344000019599,None,1,,,,,,,,,,,,,,,,,,,,,,,,,,,,,,,,,,,,,,,,,,,,,,,,,,,,,,,,,,,,,,,,317,2022-12-08_12h19.43.811,Main,2022.2.2,60.2318927877292,
positive,red,2,None,None,0,0,0,0,,,,,0,0,0,0,,,,,,,,,0,41,41,227,,,,,,,,,,,,,,,,,,,,,,,,,,,,,,,,,main,352.57268620000104,None,None,1,1.5307093000010354,None,1,,,,,,,,,,,,,,,,,,,,,,,,,,,,,,,,,,,,,,,,,,,,,,,,,,,,,,,,,,,,,,,,317,2022-12-08_12h19.43.811,Main,2022.2.2,60.2318927877292,
positive,blue,2,k,None,0,0,0,0,,,,,0,0,0,0,,,,,,,,,0,42,42,86,,,,,,,,,,,,,,,,,,,,,,,,,,,,,,,,,main,355.1051274999918,None,None,1,1.5399270999914734,None,1,,,,,,,,,,,,,,,,,,,,,,,,,,,,,,,,,,,,,,,,,,,,,,,,,,,,,,,,,,,,,,,,317,2022-12-08_12h19.43.811,Main,2022.2.2,60.2318927877292,
negative,yellow,1,k,None,0,0,0,0,,,,,0,0,0,0,,,,,,,,,0,43,43,191,,,,,,,,,,,,,,,,,,,,,,,,,,,,,,,,,main,357.6437073999987,None,None,1,1.5247027000004891,None,1,,,,,,,,,,,,,,,,,,,,,,,,,,,,,,,,,,,,,,,,,,,,,,,,,,,,,,,,,,,,,,,,317,2022-12-08_12h19.43.811,Main,2022.2.2,60.2318927877292,
negative,red,2,None,None,0,0,0,0,,,,,0,0,0,0,,,,,,,,,0,44,44,92,,,,,,,,,,,,,,,,,,,,,,,,,,,,,,,,,main,360.170277799989,None,None,1,1.5148186000005808,None,1,,,,,,,,,,,,,,,,,,,,,,,,,,,,,,,,,,,,,,,,,,,,,,,,,,,,,,,,,,,,,,,,317,2022-12-08_12h19.43.811,Main,2022.2.2,60.2318927877292,
negative,yellow,1,k,None,0,0,0,0,,,,,0,0,0,0,,,,,,,,,0,45,45,11,,,,,,,,,,,,,,,,,,,,,,,,,,,,,,,,,main,362.69149499999185,None,None,1,1.5291680000082124,None,1,,,,,,,,,,,,,,,,,,,,,,,,,,,,,,,,,,,,,,,,,,,,,,,,,,,,,,,,,,,,,,,,317,2022-12-08_12h19.43.811,Main,2022.2.2,60.2318927877292,
negative,red,2,None,None,0,0,0,0,,,,,0,0,0,0,,,,,,,,,0,46,46,237,,,,,,,,,,,,,,,,,,,,,,,,,,,,,,,,,main,365.2189595999953,None,None,1,1.5294448000058765,None,1,,,,,,,,,,,,,,,,,,,,,,,,,,,,,,,,,,,,,,,,,,,,,,,,,,,,,,,,,,,,,,,,317,2022-12-08_12h19.43.811,Main,2022.2.2,60.2318927877292,
positive,yellow,2,None,k,0,0,0,0,,,,,0,0,0,0,,,,,,,,,0,47,47,208,,,,,,,,,,,,,,,,,,,,,,,,,,,,,,,,,main,367.75841179999406,k,k,1,0.8664153999998234,None,0,,,,,,,,,,,,,,,,,,,,,,,,,,,,,,,,,,,,,,,,,,,,,,,,,,,,,,,,,,,,,,,,317,2022-12-08_12h19.43.811,Main,2022.2.2,60.2318927877292,
positive,yellow,1,None,k,0,0,0,0,,,,,0,0,0,0,,,,,,,,,0,48,48,216,,,,,,,,,,,,,,,,,,,,,,,,,,,,,,,,,main,369.63206619999255,k,k,1,1.0538113999937195,None,0,,,,,,,,,,,,,,,,,,,,,,,,,,,,,,,,,,,,,,,,,,,,,,,,,,,,,,,,,,,,,,,,317,2022-12-08_12h19.43.811,Main,2022.2.2,60.2318927877292,
negative,blue,2,None,k,0,0,0,0,,,,,0,0,0,0,,,,,,,,,0,49,49,206,,,,,,,,,,,,,,,,,,,,,,,,,,,,,,,,,main,371.6874111999932,k,k,1,0.8224251999927219,None,0,,,,,,,,,,,,,,,,,,,,,,,,,,,,,,,,,,,,,,,,,,,,,,,,,,,,,,,,,,,,,,,,317,2022-12-08_12h19.43.811,Main,2022.2.2,60.2318927877292,
negative,yellow,1,k,None,0,0,0,0,,,,,0,0,0,0,,,,,,,,,0,50,50,188,,,,,,,,,,,,,,,,,,,,,,,,,,,,,,,,,main,373.50710449999315,None,None,1,1.5233578000043053,None,1,,,,,,,,,,,,,,,,,,,,,,,,,,,,,,,,,,,,,,,,,,,,,,,,,,,,,,,,,,,,,,,,317,2022-12-08_12h19.43.811,Main,2022.2.2,60.2318927877292,
positive,blue,2,k,None,0,0,0,0,,,,,0,0,0,0,,,,,,,,,0,51,51,228,,,,,,,,,,,,,,,,,,,,,,,,,,,,,,,,,main,376.03474599999026,None,None,1,1.5092989000113448,None,1,,,,,,,,,,,,,,,,,,,,,,,,,,,,,,,,,,,,,,,,,,,,,,,,,,,,,,,,,,,,,,,,317,2022-12-08_12h19.43.811,Main,2022.2.2,60.2318927877292,
positive,yellow,2,None,k,0,0,0,0,,,,,0,0,0,0,,,,,,,,,0,52,52,81,,,,,,,,,,,,,,,,,,,,,,,,,,,,,,,,,main,378.54884969998966,k,k,1,0.9722087000118336,None,0,,,,,,,,,,,,,,,,,,,,,,,,,,,,,,,,,,,,,,,,,,,,,,,,,,,,,,,,,,,,,,,,317,2022-12-08_12h19.43.811,Main,2022.2.2,60.2318927877292,
positive,yellow,1,None,k,0,0,0,0,,,,,0,0,0,0,,,,,,,,,0,53,53,193,,,,,,,,,,,,,,,,,,,,,,,,,,,,,,,,,main,380.5196619999915,k,k,1,0.9822088000073563,None,0,,,,,,,,,,,,,,,,,,,,,,,,,,,,,,,,,,,,,,,,,,,,,,,,,,,,,,,,,,,,,,,,317,2022-12-08_12h19.43.811,Main,2022.2.2,60.2318927877292,
positive,yellow,1,None,k,0,0,0,0,,,,,0,0,0,0,,,,,,,,,0,54,54,113,,,,,,,,,,,,,,,,,,,,,,,,,,,,,,,,,main,382.5129367999907,k,k,1,0.7490044000005582,None,0,,,,,,,,,,,,,,,,,,,,,,,,,,,,,,,,,,,,,,,,,,,,,,,,,,,,,,,,,,,,,,,,317,2022-12-08_12h19.43.811,Main,2022.2.2,60.2318927877292,
negative,yellow,1,k,None,0,0,0,0,,,,,0,0,0,0,,,,,,,,,0,55,55,61,,,,,,,,,,,,,,,,,,,,,,,,,,,,,,,,,main,384.25827169998956,None,None,1,1.5231938999932026,None,1,,,,,,,,,,,,,,,,,,,,,,,,,,,,,,,,,,,,,,,,,,,,,,,,,,,,,,,,,,,,,,,,317,2022-12-08_12h19.43.811,Main,2022.2.2,60.2318927877292,
positive,yellow,2,None,k,0,0,0,0,,,,,0,0,0,0,,,,,,,,,0,56,56,143,,,,,,,,,,,,,,,,,,,,,,,,,,,,,,,,,main,386.7850275999954,k,k,1,0.7949235999985831,None,0,,,,,,,,,,,,,,,,,,,,,,,,,,,,,,,,,,,,,,,,,,,,,,,,,,,,,,,,,,,,,,,,317,2022-12-08_12h19.43.811,Main,2022.2.2,60.2318927877292,
negative,blue,1,None,k,0,0,0,0,,,,,0,0,0,0,,,,,,,,,0,57,57,95,,,,,,,,,,,,,,,,,,,,,,,,,,,,,,,,,main,388.58701669999573,k,k,1,1.0978800000011688,None,0,,,,,,,,,,,,,,,,,,,,,,,,,,,,,,,,,,,,,,,,,,,,,,,,,,,,,,,,,,,,,,,,317,2022-12-08_12h19.43.811,Main,2022.2.2,60.2318927877292,
negative,yellow,2,k,None,0,0,0,0,,,,,0,0,0,0,,,,,,,,,0,58,58,144,,,,,,,,,,,,,,,,,,,,,,,,,,,,,,,,,main,390.68792339999345,None,None,1,1.5246741000009933,None,1,,,,,,,,,,,,,,,,,,,,,,,,,,,,,,,,,,,,,,,,,,,,,,,,,,,,,,,,,,,,,,,,317,2022-12-08_12h19.43.811,Main,2022.2.2,60.2318927877292,
negative,yellow,1,k,None,0,0,0,0,,,,,0,0,0,0,,,,,,,,,0,59,59,45,,,,,,,,,,,,,,,,,,,,,,,,,,,,,,,,,main,393.2121524999966,None,None,1,1.5298390999960247,None,1,,,,,,,,,,,,,,,,,,,,,,,,,,,,,,,,,,,,,,,,,,,,,,,,,,,,,,,,,,,,,,,,317,2022-12-08_12h19.43.811,Main,2022.2.2,60.2318927877292,
positive,blue,2,k,None,0,0,0,0,,,,,0,0,0,0,,,,,,,,,0,60,60,74,,,,,,,,,,,,,,,,,,,,,,,,,,,,,,,,,main,395.74512479999976,None,None,1,1.5107739999948535,None,1,,,,,,,,,,,,,,,,,,,,,,,,,,,,,,,,,,,,,,,,,,,,,,,,,,,,,,,,,,,,,,,,317,2022-12-08_12h19.43.811,Main,2022.2.2,60.2318927877292,
negative,red,2,None,None,0,0,0,0,,,,,0,0,0,0,,,,,,,,,0,61,61,149,,,,,,,,,,,,,,,,,,,,,,,,,,,,,,,,,main,398.2594848000008,None,None,1,1.5419821999967098,None,1,,,,,,,,,,,,,,,,,,,,,,,,,,,,,,,,,,,,,,,,,,,,,,,,,,,,,,,,,,,,,,,,317,2022-12-08_12h19.43.811,Main,2022.2.2,60.2318927877292,
negative,red,2,None,None,0,0,0,0,,,,,0,0,0,0,,,,,,,,,0,62,62,160,,,,,,,,,,,,,,,,,,,,,,,,,,,,,,,,,main,400.80422929998895,None,None,1,1.5153879999998026,None,1,,,,,,,,,,,,,,,,,,,,,,,,,,,,,,,,,,,,,,,,,,,,,,,,,,,,,,,,,,,,,,,,317,2022-12-08_12h19.43.811,Main,2022.2.2,60.2318927877292,
positive,red,2,None,None,0,0,0,0,,,,,0,0,0,0,,,,,,,,,0,63,63,23,,,,,,,,,,,,,,,,,,,,,,,,,,,,,,,,,main,403.322030299998,None,None,1,1.5136353999987477,None,1,,,,,,,,,,,,,,,,,,,,,,,,,,,,,,,,,,,,,,,,,,,,,,,,,,,,,,,,,,,,,,,,317,2022-12-08_12h19.43.811,Main,2022.2.2,60.2318927877292,
negative,red,2,None,None,0,0,0,0,,,,,0,0,0,0,,,,,,,,,0,64,64,13,,,,,,,,,,,,,,,,,,,,,,,,,,,,,,,,,main,405.8408752999967,None,None,1,1.543344799996703,None,1,,,,,,,,,,,,,,,,,,,,,,,,,,,,,,,,,,,,,,,,,,,,,,,,,,,,,,,,,,,,,,,,317,2022-12-08_12h19.43.811,Main,2022.2.2,60.2318927877292,
negative,yellow,2,k,None,0,0,0,0,,,,,0,0,0,0,,,,,,,,,0,65,65,70,,,,,,,,,,,,,,,,,,,,,,,,,,,,,,,,,main,408.3830323000002,None,None,1,1.5242120000038994,None,1,,,,,,,,,,,,,,,,,,,,,,,,,,,,,,,,,,,,,,,,,,,,,,,,,,,,,,,,,,,,,,,,317,2022-12-08_12h19.43.811,Main,2022.2.2,60.2318927877292,
negative,red,1,None,None,0,0,0,0,,,,,0,0,0,0,,,,,,,,,0,66,66,96,,,,,,,,,,,,,,,,,,,,,,,,,,,,,,,,,main,410.9056855999952,None,None,1,1.5315070000069682,None,1,,,,,,,,,,,,,,,,,,,,,,,,,,,,,,,,,,,,,,,,,,,,,,,,,,,,,,,,,,,,,,,,317,2022-12-08_12h19.43.811,Main,2022.2.2,60.2318927877292,
positive,blue,1,k,None,0,0,0,0,,,,,0,0,0,0,,,,,,,,,0,67,67,239,,,,,,,,,,,,,,,,,,,,,,,,,,,,,,,,,main,413.43965119999484,None,None,1,1.5121814999874914,None,1,,,,,,,,,,,,,,,,,,,,,,,,,,,,,,,,,,,,,,,,,,,,,,,,,,,,,,,,,,,,,,,,317,2022-12-08_12h19.43.811,Main,2022.2.2,60.2318927877292,
positive,blue,1,k,None,0,0,0,0,,,,,0,0,0,0,,,,,,,,,0,68,68,78,,,,,,,,,,,,,,,,,,,,,,,,,,,,,,,,,main,415.9595990999951,None,None,1,1.5302639000001363,None,1,,,,,,,,,,,,,,,,,,,,,,,,,,,,,,,,,,,,,,,,,,,,,,,,,,,,,,,,,,,,,,,,317,2022-12-08_12h19.43.811,Main,2022.2.2,60.2318927877292,
negative,yellow,2,k,None,0,0,0,0,,,,,0,0,0,0,,,,,,,,,0,69,69,235,,,,,,,,,,,,,,,,,,,,,,,,,,,,,,,,,main,418.49298479998833,None,None,1,1.5229865000001155,None,1,,,,,,,,,,,,,,,,,,,,,,,,,,,,,,,,,,,,,,,,,,,,,,,,,,,,,,,,,,,,,,,,317,2022-12-08_12h19.43.811,Main,2022.2.2,60.2318927877292,
positive,blue,2,k,None,0,0,0,0,,,,,0,0,0,0,,,,,,,,,0,70,70,120,,,,,,,,,,,,,,,,,,,,,,,,,,,,,,,,,main,421.01562289999856,None,None,1,1.5203065999958199,None,1,,,,,,,,,,,,,,,,,,,,,,,,,,,,,,,,,,,,,,,,,,,,,,,,,,,,,,,,,,,,,,,,317,2022-12-08_12h19.43.811,Main,2022.2.2,60.2318927877292,
negative,red,1,None,None,0,0,0,0,,,,,0,0,0,0,,,,,,,,,0,71,71,114,,,,,,,,,,,,,,,,,,,,,,,,,,,,,,,,,main,423.5412760999898,None,None,1,1.5253710999968462,None,1,,,,,,,,,,,,,,,,,,,,,,,,,,,,,,,,,,,,,,,,,,,,,,,,,,,,,,,,,,,,,,,,317,2022-12-08_12h19.43.811,Main,2022.2.2,60.2318927877292,
positive,blue,1,k,None,0,0,0,0,,,,,0,0,0,0,,,,,,,,,0,72,72,130,,,,,,,,,,,,,,,,,,,,,,,,,,,,,,,,,main,426.067667299998,None,None,1,1.5321571000094991,None,1,,,,,,,,,,,,,,,,,,,,,,,,,,,,,,,,,,,,,,,,,,,,,,,,,,,,,,,,,,,,,,,,317,2022-12-08_12h19.43.811,Main,2022.2.2,60.2318927877292,
positive,blue,1,k,None,0,0,0,0,,,,,0,0,0,0,,,,,,,,,0,73,73,57,,,,,,,,,,,,,,,,,,,,,,,,,,,,,,,,,main,428.601920000001,None,None,1,1.5248334000061732,None,1,,,,,,,,,,,,,,,,,,,,,,,,,,,,,,,,,,,,,,,,,,,,,,,,,,,,,,,,,,,,,,,,317,2022-12-08_12h19.43.811,Main,2022.2.2,60.2318927877292,
negative,yellow,2,k,None,0,0,0,0,,,,,0,0,0,0,,,,,,,,,0,74,74,103,,,,,,,,,,,,,,,,,,,,,,,,,,,,,,,,,main,431.1309870999976,None,None,1,1.515228299991577,None,1,,,,,,,,,,,,,,,,,,,,,,,,,,,,,,,,,,,,,,,,,,,,,,,,,,,,,,,,,,,,,,,,317,2022-12-08_12h19.43.811,Main,2022.2.2,60.2318927877292,
positive,yellow,2,None,k,0,0,0,0,,,,,0,0,0,0,,,,,,,,,0,75,75,14,,,,,,,,,,,,,,,,,,,,,,,,,,,,,,,,,main,433.64968919999956,k,k,1,0.9385021000052802,None,0,,,,,,,,,,,,,,,,,,,,,,,,,,,,,,,,,,,,,,,,,,,,,,,,,,,,,,,,,,,,,,,,317,2022-12-08_12h19.43.811,Main,2022.2.2,60.2318927877292,
positive,yellow,2,None,k,0,0,0,0,,,,,0,0,0,0,,,,,,,,,0,76,76,66,,,,,,,,,,,,,,,,,,,,,,,,,,,,,,,,,main,435.58880689999205,k,k,1,0.722693400006392,None,0,,,,,,,,,,,,,,,,,,,,,,,,,,,,,,,,,,,,,,,,,,,,,,,,,,,,,,,,,,,,,,,,317,2022-12-08_12h19.43.811,Main,2022.2.2,60.2318927877292,
negative,blue,2,None,k,0,0,0,0,,,,,0,0,0,0,,,,,,,,,0,77,77,102,,,,,,,,,,,,,,,,,,,,,,,,,,,,,,,,,main,437.31611789998715,k,k,1,0.7437848999979906,None,0,,,,,,,,,,,,,,,,,,,,,,,,,,,,,,,,,,,,,,,,,,,,,,,,,,,,,,,,,,,,,,,,317,2022-12-08_12h19.43.811,Main,2022.2.2,60.2318927877292,
positive,yellow,2,None,k,0,0,0,0,,,,,0,0,0,0,,,,,,,,,0,78,78,108,,,,,,,,,,,,,,,,,,,,,,,,,,,,,,,,,main,439.0694625999895,k,k,1,1.00024019999546,None,0,,,,,,,,,,,,,,,,,,,,,,,,,,,,,,,,,,,,,,,,,,,,,,,,,,,,,,,,,,,,,,,,317,2022-12-08_12h19.43.811,Main,2022.2.2,60.2318927877292,
positive,yellow,1,None,k,0,0,0,0,,,,,0,0,0,0,,,,,,,,,0,79,79,138,,,,,,,,,,,,,,,,,,,,,,,,,,,,,,,,,main,441.0721814999997,k,k,1,0.8927022999996552,None,0,,,,,,,,,,,,,,,,,,,,,,,,,,,,,,,,,,,,,,,,,,,,,,,,,,,,,,,,,,,,,,,,317,2022-12-08_12h19.43.811,Main,2022.2.2,60.2318927877292,
positive,blue,1,k,None,0,0,0,0,,,,,0,0,0,0,,,,,,,,,0,80,80,105,,,,,,,,,,,,,,,,,,,,,,,,,,,,,,,,,main,442.9719941999938,None,None,1,1.510375899990322,None,1,,,,,,,,,,,,,,,,,,,,,,,,,,,,,,,,,,,,,,,,,,,,,,,,,,,,,,,,,,,,,,,,317,2022-12-08_12h19.43.811,Main,2022.2.2,60.2318927877292,
negative,yellow,2,k,None,0,0,0,0,,,,,0,0,0,0,,,,,,,,,0,81,81,190,,,,,,,,,,,,,,,,,,,,,,,,,,,,,,,,,main,445.4761421000003,None,None,1,1.5112604999885662,None,1,,,,,,,,,,,,,,,,,,,,,,,,,,,,,,,,,,,,,,,,,,,,,,,,,,,,,,,,,,,,,,,,317,2022-12-08_12h19.43.811,Main,2022.2.2,60.2318927877292,
negative,yellow,1,k,None,0,0,0,0,,,,,0,0,0,0,,,,,,,,,0,82,82,164,,,,,,,,,,,,,,,,,,,,,,,,,,,,,,,,,main,447.9898954999953,None,None,1,1.5148302000015974,None,1,,,,,,,,,,,,,,,,,,,,,,,,,,,,,,,,,,,,,,,,,,,,,,,,,,,,,,,,,,,,,,,,317,2022-12-08_12h19.43.811,Main,2022.2.2,60.2318927877292,
negative,blue,2,None,k,0,0,0,0,,,,,0,0,0,0,,,,,,,,,0,83,83,198,,,,,,,,,,,,,,,,,,,,,,,,,,,,,,,,,main,450.51059130000067,k,k,1,0.9142836000100942,None,0,,,,,,,,,,,,,,,,,,,,,,,,,,,,,,,,,,,,,,,,,,,,,,,,,,,,,,,,,,,,,,,,317,2022-12-08_12h19.43.811,Main,2022.2.2,60.2318927877292,
negative,yellow,2,k,None,0,0,0,0,,,,,0,0,0,0,,,,,,,,,0,84,84,4,,,,,,,,,,,,,,,,,,,,,,,,,,,,,,,,,main,452.4305345999892,None,None,1,1.5133834000007482,None,1,,,,,,,,,,,,,,,,,,,,,,,,,,,,,,,,,,,,,,,,,,,,,,,,,,,,,,,,,,,,,,,,317,2022-12-08_12h19.43.811,Main,2022.2.2,60.2318927877292,
positive,yellow,1,None,k,0,0,0,0,,,,,0,0,0,0,,,,,,,,,0,85,85,31,,,,,,,,,,,,,,,,,,,,,,,,,,,,,,,,,main,454.9430552999984,k,k,1,0.8417102000094019,None,0,,,,,,,,,,,,,,,,,,,,,,,,,,,,,,,,,,,,,,,,,,,,,,,,,,,,,,,,,,,,,,,,317,2022-12-08_12h19.43.811,Main,2022.2.2,60.2318927877292,
negative,blue,1,None,k,0,0,0,0,,,,,0,0,0,0,,,,,,,,,0,86,86,182,,,,,,,,,,,,,,,,,,,,,,,,,,,,,,,,,main,456.7967881999939,k,k,1,1.034253899997566,None,0,,,,,,,,,,,,,,,,,,,,,,,,,,,,,,,,,,,,,,,,,,,,,,,,,,,,,,,,,,,,,,,,317,2022-12-08_12h19.43.811,Main,2022.2.2,60.2318927877292,
negative,yellow,1,k,None,0,0,0,0,,,,,0,0,0,0,,,,,,,,,0,87,87,12,,,,,,,,,,,,,,,,,,,,,,,,,,,,,,,,,main,458.8311796999915,None,None,1,1.5292406999942614,None,1,,,,,,,,,,,,,,,,,,,,,,,,,,,,,,,,,,,,,,,,,,,,,,,,,,,,,,,,,,,,,,,,317,2022-12-08_12h19.43.811,Main,2022.2.2,60.2318927877292,
positive,red,2,None,None,0,0,0,0,,,,,0,0,0,0,,,,,,,,,0,88,88,186,,,,,,,,,,,,,,,,,,,,,,,,,,,,,,,,,main,461.3602766999975,None,None,1,1.5316930999979377,None,1,,,,,,,,,,,,,,,,,,,,,,,,,,,,,,,,,,,,,,,,,,,,,,,,,,,,,,,,,,,,,,,,317,2022-12-08_12h19.43.811,Main,2022.2.2,60.2318927877292,
negative,red,2,None,None,0,0,0,0,,,,,0,0,0,0,,,,,,,,,0,89,89,210,,,,,,,,,,,,,,,,,,,,,,,,,,,,,,,,,main,463.89630579999357,None,None,1,1.5349841999995988,None,1,,,,,,,,,,,,,,,,,,,,,,,,,,,,,,,,,,,,,,,,,,,,,,,,,,,,,,,,,,,,,,,,317,2022-12-08_12h19.43.811,Main,2022.2.2,60.2318927877292,
positive,yellow,2,None,k,0,0,0,0,,,,,0,0,0,0,,,,,,,,,0,90,90,122,,,,,,,,,,,,,,,,,,,,,,,,,,,,,,,,,main,466.43352039999445,k,k,1,0.90660589998879,None,0,,,,,,,,,,,,,,,,,,,,,,,,,,,,,,,,,,,,,,,,,,,,,,,,,,,,,,,,,,,,,,,,317,2022-12-08_12h19.43.811,Main,2022.2.2,60.2318927877292,
positive,red,1,None,None,0,0,0,0,,,,,0,0,0,0,,,,,,,,,0,91,91,236,,,,,,,,,,,,,,,,,,,,,,,,,,,,,,,,,main,468.3435122999945,None,None,1,1.5133370999974431,None,1,,,,,,,,,,,,,,,,,,,,,,,,,,,,,,,,,,,,,,,,,,,,,,,,,,,,,,,,,,,,,,,,317,2022-12-08_12h19.43.811,Main,2022.2.2,60.2318927877292,
negative,yellow,1,k,None,0,0,0,0,,,,,0,0,0,0,,,,,,,,,0,92,92,163,,,,,,,,,,,,,,,,,,,,,,,,,,,,,,,,,main,470.86109159998887,None,None,1,1.509951900006854,None,1,,,,,,,,,,,,,,,,,,,,,,,,,,,,,,,,,,,,,,,,,,,,,,,,,,,,,,,,,,,,,,,,317,2022-12-08_12h19.43.811,Main,2022.2.2,60.2318927877292,
negative,yellow,1,k,None,0,0,0,0,,,,,0,0,0,0,,,,,,,,,0,93,93,129,,,,,,,,,,,,,,,,,,,,,,,,,,,,,,,,,main,473.37260589998914,None,None,1,1.5347711999929743,None,1,,,,,,,,,,,,,,,,,,,,,,,,,,,,,,,,,,,,,,,,,,,,,,,,,,,,,,,,,,,,,,,,317,2022-12-08_12h19.43.811,Main,2022.2.2,60.2318927877292,
negative,red,1,None,None,0,0,0,0,,,,,0,0,0,0,,,,,,,,,0,94,94,232,,,,,,,,,,,,,,,,,,,,,,,,,,,,,,,,,main,475.91162259998964,None,None,1,1.5074625999986893,None,1,,,,,,,,,,,,,,,,,,,,,,,,,,,,,,,,,,,,,,,,,,,,,,,,,,,,,,,,,,,,,,,,317,2022-12-08_12h19.43.811,Main,2022.2.2,60.2318927877292,
negative,yellow,1,k,None,0,0,0,0,,,,,0,0,0,0,,,,,,,,,0,95,95,153,,,,,,,,,,,,,,,,,,,,,,,,,,,,,,,,,main,478.4222560999915,None,None,1,1.5237688999914099,None,1,,,,,,,,,,,,,,,,,,,,,,,,,,,,,,,,,,,,,,,,,,,,,,,,,,,,,,,,,,,,,,,,317,2022-12-08_12h19.43.811,Main,2022.2.2,60.2318927877292,
negative,blue,2,None,k,0,0,0,0,,,,,0,0,0,0,,,,,,,,,0,96,96,199,,,,,,,,,,,,,,,,,,,,,,,,,,,,,,,,,main,480.9504772999935,k,k,1,1.0138386000035098,None,0,,,,,,,,,,,,,,,,,,,,,,,,,,,,,,,,,,,,,,,,,,,,,,,,,,,,,,,,,,,,,,,,317,2022-12-08_12h19.43.811,Main,2022.2.2,60.2318927877292,
negative,yellow,2,k,None,0,0,0,0,,,,,0,0,0,0,,,,,,,,,0,97,97,167,,,,,,,,,,,,,,,,,,,,,,,,,,,,,,,,,main,482.9716566999996,None,None,1,1.5237082999956328,None,1,,,,,,,,,,,,,,,,,,,,,,,,,,,,,,,,,,,,,,,,,,,,,,,,,,,,,,,,,,,,,,,,317,2022-12-08_12h19.43.811,Main,2022.2.2,60.2318927877292,
positive,yellow,1,None,k,0,0,0,0,,,,,0,0,0,0,,,,,,,,,0,98,98,140,,,,,,,,,,,,,,,,,,,,,,,,,,,,,,,,,main,485.4892426999868,k,k,1,0.8728418999962742,None,0,,,,,,,,,,,,,,,,,,,,,,,,,,,,,,,,,,,,,,,,,,,,,,,,,,,,,,,,,,,,,,,,317,2022-12-08_12h19.43.811,Main,2022.2.2,60.2318927877292,
negative,blue,1,None,k,0,0,0,0,,,,,0,0,0,0,,,,,,,,,0,99,99,127,,,,,,,,,,,,,,,,,,,,,,,,,,,,,,,,,main,487.3730688999931,k,k,1,0.9188530999963405,None,0,,,,,,,,,,,,,,,,,,,,,,,,,,,,,,,,,,,,,,,,,,,,,,,,,,,,,,,,,,,,,,,,317,2022-12-08_12h19.43.811,Main,2022.2.2,60.2318927877292,
positive,blue,2,k,None,0,0,0,0,,,,,0,0,0,0,,,,,,,,,0,100,100,111,,,,,,,,,,,,,,,,,,,,,,,,,,,,,,,,,main,489.2886798999971,None,None,1,1.5333282000065083,None,1,,,,,,,,,,,,,,,,,,,,,,,,,,,,,,,,,,,,,,,,,,,,,,,,,,,,,,,,,,,,,,,,317,2022-12-08_12h19.43.811,Main,2022.2.2,60.2318927877292,
negative,yellow,1,k,None,0,0,0,0,,,,,0,0,0,0,,,,,,,,,0,101,101,209,,,,,,,,,,,,,,,,,,,,,,,,,,,,,,,,,main,491.8290842999995,None,None,1,1.512107799993828,None,1,,,,,,,,,,,,,,,,,,,,,,,,,,,,,,,,,,,,,,,,,,,,,,,,,,,,,,,,,,,,,,,,317,2022-12-08_12h19.43.811,Main,2022.2.2,60.2318927877292,
negative,blue,2,None,k,0,0,0,0,,,,,0,0,0,0,,,,,,,,,0,102,102,56,,,,,,,,,,,,,,,,,,,,,,,,,,,,,,,,,main,494.349693199998,k,k,1,0.8676038999983575,None,0,,,,,,,,,,,,,,,,,,,,,,,,,,,,,,,,,,,,,,,,,,,,,,,,,,,,,,,,,,,,,,,,317,2022-12-08_12h19.43.811,Main,2022.2.2,60.2318927877292,
negative,blue,1,None,k,0,0,0,0,,,,,0,0,0,0,,,,,,,,,0,103,103,33,,,,,,,,,,,,,,,,,,,,,,,,,,,,,,,,,main,496.2242947999912,k,k,1,0.9421432000090135,None,0,,,,,,,,,,,,,,,,,,,,,,,,,,,,,,,,,,,,,,,,,,,,,,,,,,,,,,,,,,,,,,,,317,2022-12-08_12h19.43.811,Main,2022.2.2,60.2318927877292,
positive,yellow,2,None,k,0,0,0,0,,,,,0,0,0,0,,,,,,,,,0,104,104,179,,,,,,,,,,,,,,,,,,,,,,,,,,,,,,,,,main,498.1700911999942,k,k,1,0.8662252000067383,None,0,,,,,,,,,,,,,,,,,,,,,,,,,,,,,,,,,,,,,,,,,,,,,,,,,,,,,,,,,,,,,,,,317,2022-12-08_12h19.43.811,Main,2022.2.2,60.2318927877292,
negative,blue,1,None,k,0,0,0,0,,,,,0,0,0,0,,,,,,,,,0,105,105,107,,,,,,,,,,,,,,,,,,,,,,,,,,,,,,,,,main,500.0410381999973,k,k,1,1.1427953000093112,None,0,,,,,,,,,,,,,,,,,,,,,,,,,,,,,,,,,,,,,,,,,,,,,,,,,,,,,,,,,,,,,,,,317,2022-12-08_12h19.43.811,Main,2022.2.2,60.2318927877292,
negative,yellow,2,k,None,0,0,0,0,,,,,0,0,0,0,,,,,,,,,0,106,106,225,,,,,,,,,,,,,,,,,,,,,,,,,,,,,,,,,main,502.18589339999016,None,None,1,1.5283397000021068,None,1,,,,,,,,,,,,,,,,,,,,,,,,,,,,,,,,,,,,,,,,,,,,,,,,,,,,,,,,,,,,,,,,317,2022-12-08_12h19.43.811,Main,2022.2.2,60.2318927877292,
positive,blue,2,k,None,0,0,0,0,,,,,0,0,0,0,,,,,,,,,0,107,107,106,,,,,,,,,,,,,,,,,,,,,,,,,,,,,,,,,main,504.71329659999174,None,None,1,1.534054899995681,None,1,,,,,,,,,,,,,,,,,,,,,,,,,,,,,,,,,,,,,,,,,,,,,,,,,,,,,,,,,,,,,,,,317,2022-12-08_12h19.43.811,Main,2022.2.2,60.2318927877292,
negative,blue,2,None,k,0,0,0,0,,,,,0,0,0,0,,,,,,,,,0,108,108,43,,,,,,,,,,,,,,,,,,,,,,,,,,,,,,,,,main,507.25018299999647,k,k,1,0.9836240000004182,None,0,,,,,,,,,,,,,,,,,,,,,,,,,,,,,,,,,,,,,,,,,,,,,,,,,,,,,,,,,,,,,,,,317,2022-12-08_12h19.43.811,Main,2022.2.2,60.2318927877292,
positive,yellow,2,None,k,0,0,0,0,,,,,0,0,0,0,,,,,,,,,0,109,109,104,,,,,,,,,,,,,,,,,,,,,,,,,,,,,,,,,main,509.2437840999919,k,k,1,0.9948619000060717,None,0,,,,,,,,,,,,,,,,,,,,,,,,,,,,,,,,,,,,,,,,,,,,,,,,,,,,,,,,,,,,,,,,317,2022-12-08_12h19.43.811,Main,2022.2.2,60.2318927877292,
negative,yellow,2,k,None,0,0,0,0,,,,,0,0,0,0,,,,,,,,,0,110,110,124,,,,,,,,,,,,,,,,,,,,,,,,,,,,,,,,,main,511.241792899993,None,None,1,1.5266815000068163,None,1,,,,,,,,,,,,,,,,,,,,,,,,,,,,,,,,,,,,,,,,,,,,,,,,,,,,,,,,,,,,,,,,317,2022-12-08_12h19.43.811,Main,2022.2.2,60.2318927877292,
negative,blue,2,None,k,0,0,0,0,,,,,0,0,0,0,,,,,,,,,0,111,111,89,,,,,,,,,,,,,,,,,,,,,,,,,,,,,,,,,main,513.7698172999953,k,k,1,0.9149946999968961,None,0,,,,,,,,,,,,,,,,,,,,,,,,,,,,,,,,,,,,,,,,,,,,,,,,,,,,,,,,,,,,,,,,317,2022-12-08_12h19.43.811,Main,2022.2.2,60.2318927877292,
negative,yellow,2,k,None,0,0,0,0,,,,,0,0,0,0,,,,,,,,,0,112,112,151,,,,,,,,,,,,,,,,,,,,,,,,,,,,,,,,,main,515.6882650999905,None,None,1,1.5153531999967527,None,1,,,,,,,,,,,,,,,,,,,,,,,,,,,,,,,,,,,,,,,,,,,,,,,,,,,,,,,,,,,,,,,,317,2022-12-08_12h19.43.811,Main,2022.2.2,60.2318927877292,
positive,yellow,2,None,k,0,0,0,0,,,,,0,0,0,0,,,,,,,,,0,113,113,67,,,,,,,,,,,,,,,,,,,,,,,,,,,,,,,,,main,518.2026307999913,k,k,1,0.8087172000086866,None,0,,,,,,,,,,,,,,,,,,,,,,,,,,,,,,,,,,,,,,,,,,,,,,,,,,,,,,,,,,,,,,,,317,2022-12-08_12h19.43.811,Main,2022.2.2,60.2318927877292,
positive,yellow,1,None,k,0,0,0,0,,,,,0,0,0,0,,,,,,,,,0,114,114,177,,,,,,,,,,,,,,,,,,,,,,,,,,,,,,,,,main,520.0216488999868,k,k,1,1.0079660000046715,None,0,,,,,,,,,,,,,,,,,,,,,,,,,,,,,,,,,,,,,,,,,,,,,,,,,,,,,,,,,,,,,,,,317,2022-12-08_12h19.43.811,Main,2022.2.2,60.2318927877292,
positive,red,1,None,None,0,0,0,0,,,,,0,0,0,0,,,,,,,,,0,115,115,157,,,,,,,,,,,,,,,,,,,,,,,,,,,,,,,,,main,522.0194831999979,None,None,1,1.5156268999999156,None,1,,,,,,,,,,,,,,,,,,,,,,,,,,,,,,,,,,,,,,,,,,,,,,,,,,,,,,,,,,,,,,,,317,2022-12-08_12h19.43.811,Main,2022.2.2,60.2318927877292,
positive,blue,1,k,None,0,0,0,0,,,,,0,0,0,0,,,,,,,,,0,116,116,82,,,,,,,,,,,,,,,,,,,,,,,,,,,,,,,,,main,524.5424330999958,None,None,1,1.5145754999975907,None,1,,,,,,,,,,,,,,,,,,,,,,,,,,,,,,,,,,,,,,,,,,,,,,,,,,,,,,,,,,,,,,,,317,2022-12-08_12h19.43.811,Main,2022.2.2,60.2318927877292,
negative,blue,1,None,k,0,0,0,0,,,,,0,0,0,0,,,,,,,,,0,117,117,196,,,,,,,,,,,,,,,,,,,,,,,,,,,,,,,,,main,527.0591421999998,k,k,1,0.8884799999941606,None,0,,,,,,,,,,,,,,,,,,,,,,,,,,,,,,,,,,,,,,,,,,,,,,,,,,,,,,,,,,,,,,,,317,2022-12-08_12h19.43.811,Main,2022.2.2,60.2318927877292,
positive,blue,2,k,None,0,0,0,0,,,,,0,0,0,0,,,,,,,,,0,118,118,42,,,,,,,,,,,,,,,,,,,,,,,,,,,,,,,,,main,528.9474736999982,None,None,1,1.520463099994231,None,1,,,,,,,,,,,,,,,,,,,,,,,,,,,,,,,,,,,,,,,,,,,,,,,,,,,,,,,,,,,,,,,,317,2022-12-08_12h19.43.811,Main,2022.2.2,60.2318927877292,
negative,yellow,1,k,None,0,0,0,0,,,,,0,0,0,0,,,,,,,,,0,119,119,109,,,,,,,,,,,,,,,,,,,,,,,,,,,,,,,,,main,531.4716864999937,None,None,1,1.5345842000097036,None,1,,,,,,,,,,,,,,,,,,,,,,,,,,,,,,,,,,,,,,,,,,,,,,,,,,,,,,,,,,,,,,,,317,2022-12-08_12h19.43.811,Main,2022.2.2,60.2318927877292,
positive,yellow,1,None,k,0,0,0,0,,,,,0,0,0,0,,,,,,,,,0,120,120,8,0,0,0,0,,,,,,,,,,,,,,,,,,,,,,,,,,,,,main,534.010067700001,k,k,1,0.9250283000001218,None,0,,,,,,,,,535.9563519999938,535.9563519999938,535.9563519999938,535.9563519999938,None,,,,,,,,,,,,,,,,,,,,,,,,,,,,,,,,,,,,,,,,,,,,,,,,,,,317,2022-12-08_12h19.43.811,Main,2022.2.2,60.2318927877292,
positive,yellow,1,None,k,0,0,0,0,,,,,0,0,0,0,,,,,,,,,0,120,120,8,,,,,,,,,,,,,,,,,,,,,,,,,,,,,,,,,,,,,,,,,,,,,,,,,,,,,,,,,,,,,,,,,,,,,,,,,,,,,,,,,,,,,,,,,,,,,,,,,,,,,,,,317,2022-12-08_12h19.43.811,Main,2022.2.2,60.2318927877292,
negative,blue,2,None,k,0,0,0,0,,,,,0,0,0,0,,,,,,,,,0,121,121,110,,,,,,,,,,,,,,,,,,,,,,,,,,,,,,,,,main,595.9575954999891,k,k,1,1.413781099996413,None,0,,,,,,,,,,,,,,,,,,,,,,,,,,,,,,,,,,,,,,,,,,,,,,,,,,,,,,,,,,,,,,,,317,2022-12-08_12h19.43.811,Main,2022.2.2,60.2318927877292,
positive,blue,1,k,None,0,0,0,0,,,,,0,0,0,0,,,,,,,,,0,122,122,147,,,,,,,,,,,,,,,,,,,,,,,,,,,,,,,,,main,598.3791414999869,None,None,1,1.5120748999906937,None,1,,,,,,,,,,,,,,,,,,,,,,,,,,,,,,,,,,,,,,,,,,,,,,,,,,,,,,,,,,,,,,,,317,2022-12-08_12h19.43.811,Main,2022.2.2,60.2318927877292,
negative,red,1,None,None,0,0,0,0,,,,,0,0,0,0,,,,,,,,,0,123,123,62,,,,,,,,,,,,,,,,,,,,,,,,,,,,,,,,,main,600.8910877999879,None,None,1,1.516931599995587,None,1,,,,,,,,,,,,,,,,,,,,,,,,,,,,,,,,,,,,,,,,,,,,,,,,,,,,,,,,,,,,,,,,317,2022-12-08_12h19.43.811,Main,2022.2.2,60.2318927877292,
negative,blue,1,None,k,0,0,0,0,,,,,0,0,0,0,,,,,,,,,0,124,124,20,,,,,,,,,,,,,,,,,,,,,,,,,,,,,,,,,main,603.4077854999923,k,k,1,1.02382819999184,None,0,,,,,,,,,,,,,,,,,,,,,,,,,,,,,,,,,,,,,,,,,,,,,,,,,,,,,,,,,,,,,,,,317,2022-12-08_12h19.43.811,Main,2022.2.2,60.2318927877292,
negative,blue,2,None,k,0,0,0,0,,,,,0,0,0,0,,,,,,,,,0,125,125,231,,,,,,,,,,,,,,,,,,,,,,,,,,,,,,,,,main,605.4424663999962,k,k,1,0.9071892999927513,None,0,,,,,,,,,,,,,,,,,,,,,,,,,,,,,,,,,,,,,,,,,,,,,,,,,,,,,,,,,,,,,,,,317,2022-12-08_12h19.43.811,Main,2022.2.2,60.2318927877292,
positive,yellow,1,None,k,0,0,0,0,,,,,0,0,0,0,,,,,,,,,0,126,126,85,,,,,,,,,,,,,,,,,,,,,,,,,,,,,,,,,main,607.3430124999868,k,k,1,0.7833582000021124,None,0,,,,,,,,,,,,,,,,,,,,,,,,,,,,,,,,,,,,,,,,,,,,,,,,,,,,,,,,,,,,,,,,317,2022-12-08_12h19.43.811,Main,2022.2.2,60.2318927877292,
positive,yellow,2,None,k,0,0,0,0,,,,,0,0,0,0,,,,,,,,,0,127,127,217,,,,,,,,,,,,,,,,,,,,,,,,,,,,,,,,,main,609.1402468999877,k,k,1,0.9644007999886526,None,0,,,,,,,,,,,,,,,,,,,,,,,,,,,,,,,,,,,,,,,,,,,,,,,,,,,,,,,,,,,,,,,,317,2022-12-08_12h19.43.811,Main,2022.2.2,60.2318927877292,
negative,red,1,None,None,0,0,0,0,,,,,0,0,0,0,,,,,,,,,0,128,128,181,,,,,,,,,,,,,,,,,,,,,,,,,,,,,,,,,main,611.1011571999989,None,None,1,1.5077202999964356,None,1,,,,,,,,,,,,,,,,,,,,,,,,,,,,,,,,,,,,,,,,,,,,,,,,,,,,,,,,,,,,,,,,317,2022-12-08_12h19.43.811,Main,2022.2.2,60.2318927877292,
positive,yellow,2,None,k,0,0,0,0,,,,,0,0,0,0,,,,,,,,,0,129,129,136,,,,,,,,,,,,,,,,,,,,,,,,,,,,,,,,,main,613.6131626999995,k,k,1,1.0030646000086563,None,0,,,,,,,,,,,,,,,,,,,,,,,,,,,,,,,,,,,,,,,,,,,,,,,,,,,,,,,,,,,,,,,,317,2022-12-08_12h19.43.811,Main,2022.2.2,60.2318927877292,
negative,blue,1,None,k,0,0,0,0,,,,,0,0,0,0,,,,,,,,,0,130,130,112,,,,,,,,,,,,,,,,,,,,,,,,,,,,,,,,,main,615.6148475999944,k,k,1,0.7195944999984931,None,0,,,,,,,,,,,,,,,,,,,,,,,,,,,,,,,,,,,,,,,,,,,,,,,,,,,,,,,,,,,,,,,,317,2022-12-08_12h19.43.811,Main,2022.2.2,60.2318927877292,
positive,yellow,2,None,k,0,0,0,0,,,,,0,0,0,0,,,,,,,,,0,131,131,37,,,,,,,,,,,,,,,,,,,,,,,,,,,,,,,,,main,617.3455383999972,k,k,1,0.683854999995674,None,0,,,,,,,,,,,,,,,,,,,,,,,,,,,,,,,,,,,,,,,,,,,,,,,,,,,,,,,,,,,,,,,,317,2022-12-08_12h19.43.811,Main,2022.2.2,60.2318927877292,
positive,blue,1,k,None,0,0,0,0,,,,,0,0,0,0,,,,,,,,,0,132,132,3,,,,,,,,,,,,,,,,,,,,,,,,,,,,,,,,,main,619.0277886999975,None,None,1,1.5329523000109475,None,1,,,,,,,,,,,,,,,,,,,,,,,,,,,,,,,,,,,,,,,,,,,,,,,,,,,,,,,,,,,,,,,,317,2022-12-08_12h19.43.811,Main,2022.2.2,60.2318927877292,
negative,red,2,None,None,0,0,0,0,,,,,0,0,0,0,,,,,,,,,0,133,133,24,,,,,,,,,,,,,,,,,,,,,,,,,,,,,,,,,main,621.5640484999894,None,None,1,1.531307699988247,None,1,,,,,,,,,,,,,,,,,,,,,,,,,,,,,,,,,,,,,,,,,,,,,,,,,,,,,,,,,,,,,,,,317,2022-12-08_12h19.43.811,Main,2022.2.2,60.2318927877292,
negative,red,1,None,None,0,0,0,0,,,,,0,0,0,0,,,,,,,,,0,134,134,22,,,,,,,,,,,,,,,,,,,,,,,,,,,,,,,,,main,624.0998343999963,None,None,1,1.5256818999914685,None,1,,,,,,,,,,,,,,,,,,,,,,,,,,,,,,,,,,,,,,,,,,,,,,,,,,,,,,,,,,,,,,,,317,2022-12-08_12h19.43.811,Main,2022.2.2,60.2318927877292,
negative,blue,2,None,k,0,0,0,0,,,,,0,0,0,0,,,,,,,,,0,135,135,204,,,,,,,,,,,,,,,,,,,,,,,,,,,,,,,,,main,626.6285779999889,k,k,1,0.7552929999947082,None,0,,,,,,,,,,,,,,,,,,,,,,,,,,,,,,,,,,,,,,,,,,,,,,,,,,,,,,,,,,,,,,,,317,2022-12-08_12h19.43.811,Main,2022.2.2,60.2318927877292,
positive,yellow,1,None,k,0,0,0,0,,,,,0,0,0,0,,,,,,,,,0,136,136,10,,,,,,,,,,,,,,,,,,,,,,,,,,,,,,,,,main,628.3930238999892,k,k,1,0.8219742000073893,None,0,,,,,,,,,,,,,,,,,,,,,,,,,,,,,,,,,,,,,,,,,,,,,,,,,,,,,,,,,,,,,,,,317,2022-12-08_12h19.43.811,Main,2022.2.2,60.2318927877292,
negative,yellow,1,k,None,0,0,0,0,,,,,0,0,0,0,,,,,,,,,0,137,137,77,,,,,,,,,,,,,,,,,,,,,,,,,,,,,,,,,main,630.225168799996,None,None,1,1.52170379999734,None,1,,,,,,,,,,,,,,,,,,,,,,,,,,,,,,,,,,,,,,,,,,,,,,,,,,,,,,,,,,,,,,,,317,2022-12-08_12h19.43.811,Main,2022.2.2,60.2318927877292,
negative,red,1,None,None,0,0,0,0,,,,,0,0,0,0,,,,,,,,,0,138,138,9,,,,,,,,,,,,,,,,,,,,,,,,,,,,,,,,,main,632.7455540999945,None,None,1,1.527499900010298,None,1,,,,,,,,,,,,,,,,,,,,,,,,,,,,,,,,,,,,,,,,,,,,,,,,,,,,,,,,,,,,,,,,317,2022-12-08_12h19.43.811,Main,2022.2.2,60.2318927877292,
positive,red,1,None,None,0,0,0,0,,,,,0,0,0,0,,,,,,,,,0,139,139,170,,,,,,,,,,,,,,,,,,,,,,,,,,,,,,,,,main,635.2755235999939,None,None,1,1.5092484999913722,None,1,,,,,,,,,,,,,,,,,,,,,,,,,,,,,,,,,,,,,,,,,,,,,,,,,,,,,,,,,,,,,,,,317,2022-12-08_12h19.43.811,Main,2022.2.2,60.2318927877292,
negative,blue,1,None,k,0,0,0,0,,,,,0,0,0,0,,,,,,,,,0,140,140,238,,,,,,,,,,,,,,,,,,,,,,,,,,,,,,,,,main,637.7874822999875,k,k,1,0.8207366999995429,None,0,,,,,,,,,,,,,,,,,,,,,,,,,,,,,,,,,,,,,,,,,,,,,,,,,,,,,,,,,,,,,,,,317,2022-12-08_12h19.43.811,Main,2022.2.2,60.2318927877292,
negative,blue,2,None,k,0,0,0,0,,,,,0,0,0,0,,,,,,,,,0,141,141,18,,,,,,,,,,,,,,,,,,,,,,,,,,,,,,,,,main,639.6204875999974,k,k,1,0.795034199996735,None,0,,,,,,,,,,,,,,,,,,,,,,,,,,,,,,,,,,,,,,,,,,,,,,,,,,,,,,,,,,,,,,,,317,2022-12-08_12h19.43.811,Main,2022.2.2,60.2318927877292,
positive,blue,2,k,None,0,0,0,0,,,,,0,0,0,0,,,,,,,,,0,142,142,2,,,,,,,,,,,,,,,,,,,,,,,,,,,,,,,,,main,641.4223211999924,None,None,1,1.532030800008215,None,1,,,,,,,,,,,,,,,,,,,,,,,,,,,,,,,,,,,,,,,,,,,,,,,,,,,,,,,,,,,,,,,,317,2022-12-08_12h19.43.811,Main,2022.2.2,60.2318927877292,
negative,blue,2,None,k,0,0,0,0,,,,,0,0,0,0,,,,,,,,,0,143,143,126,,,,,,,,,,,,,,,,,,,,,,,,,,,,,,,,,main,643.9530047000007,k,k,1,0.8890393000037875,None,0,,,,,,,,,,,,,,,,,,,,,,,,,,,,,,,,,,,,,,,,,,,,,,,,,,,,,,,,,,,,,,,,317,2022-12-08_12h19.43.811,Main,2022.2.2,60.2318927877292,
positive,blue,2,k,None,0,0,0,0,,,,,0,0,0,0,,,,,,,,,0,144,144,200,,,,,,,,,,,,,,,,,,,,,,,,,,,,,,,,,main,645.8483932999952,None,None,1,1.5127481000090484,None,1,,,,,,,,,,,,,,,,,,,,,,,,,,,,,,,,,,,,,,,,,,,,,,,,,,,,,,,,,,,,,,,,317,2022-12-08_12h19.43.811,Main,2022.2.2,60.2318927877292,
negative,red,2,None,None,0,0,0,0,,,,,0,0,0,0,,,,,,,,,0,145,145,123,,,,,,,,,,,,,,,,,,,,,,,,,,,,,,,,,main,648.3580364999943,None,None,1,1.5151386999932583,None,1,,,,,,,,,,,,,,,,,,,,,,,,,,,,,,,,,,,,,,,,,,,,,,,,,,,,,,,,,,,,,,,,317,2022-12-08_12h19.43.811,Main,2022.2.2,60.2318927877292,
positive,yellow,1,None,k,0,0,0,0,,,,,0,0,0,0,,,,,,,,,0,146,146,215,,,,,,,,,,,,,,,,,,,,,,,,,,,,,,,,,main,650.8780018999969,k,k,1,0.8756332000048133,None,0,,,,,,,,,,,,,,,,,,,,,,,,,,,,,,,,,,,,,,,,,,,,,,,,,,,,,,,,,,,,,,,,317,2022-12-08_12h19.43.811,Main,2022.2.2,60.2318927877292,
negative,yellow,2,k,None,0,0,0,0,,,,,0,0,0,0,,,,,,,,,0,147,147,38,,,,,,,,,,,,,,,,,,,,,,,,,,,,,,,,,main,652.7512669999996,None,None,1,1.5103286000085063,None,1,,,,,,,,,,,,,,,,,,,,,,,,,,,,,,,,,,,,,,,,,,,,,,,,,,,,,,,,,,,,,,,,317,2022-12-08_12h19.43.811,Main,2022.2.2,60.2318927877292,
positive,yellow,2,None,k,0,0,0,0,,,,,0,0,0,0,,,,,,,,,0,148,148,53,,,,,,,,,,,,,,,,,,,,,,,,,,,,,,,,,main,655.2628796999925,k,k,1,0.7947574999998324,None,0,,,,,,,,,,,,,,,,,,,,,,,,,,,,,,,,,,,,,,,,,,,,,,,,,,,,,,,,,,,,,,,,317,2022-12-08_12h19.43.811,Main,2022.2.2,60.2318927877292,
positive,blue,1,k,None,0,0,0,0,,,,,0,0,0,0,,,,,,,,,0,149,149,100,,,,,,,,,,,,,,,,,,,,,,,,,,,,,,,,,main,657.0646217999893,None,None,1,1.5196643999952357,None,1,,,,,,,,,,,,,,,,,,,,,,,,,,,,,,,,,,,,,,,,,,,,,,,,,,,,,,,,,,,,,,,,317,2022-12-08_12h19.43.811,Main,2022.2.2,60.2318927877292,
positive,red,2,None,None,0,0,0,0,,,,,0,0,0,0,,,,,,,,,0,150,150,219,,,,,,,,,,,,,,,,,,,,,,,,,,,,,,,,,main,659.5861509999959,None,None,1,1.5250573999946937,None,1,,,,,,,,,,,,,,,,,,,,,,,,,,,,,,,,,,,,,,,,,,,,,,,,,,,,,,,,,,,,,,,,317,2022-12-08_12h19.43.811,Main,2022.2.2,60.2318927877292,
negative,blue,2,None,k,0,0,0,0,,,,,0,0,0,0,,,,,,,,,0,151,151,171,,,,,,,,,,,,,,,,,,,,,,,,,,,,,,,,,main,662.1148496999958,k,k,1,0.951025500005926,None,0,,,,,,,,,,,,,,,,,,,,,,,,,,,,,,,,,,,,,,,,,,,,,,,,,,,,,,,,,,,,,,,,317,2022-12-08_12h19.43.811,Main,2022.2.2,60.2318927877292,
negative,yellow,1,k,None,0,0,0,0,,,,,0,0,0,0,,,,,,,,,0,152,152,35,,,,,,,,,,,,,,,,,,,,,,,,,,,,,,,,,main,664.0720714999916,None,None,1,1.5331239999941317,None,1,,,,,,,,,,,,,,,,,,,,,,,,,,,,,,,,,,,,,,,,,,,,,,,,,,,,,,,,,,,,,,,,317,2022-12-08_12h19.43.811,Main,2022.2.2,60.2318927877292,
positive,blue,1,k,None,0,0,0,0,,,,,0,0,0,0,,,,,,,,,0,153,153,58,,,,,,,,,,,,,,,,,,,,,,,,,,,,,,,,,main,666.6089787999954,None,None,1,1.512329100005445,None,1,,,,,,,,,,,,,,,,,,,,,,,,,,,,,,,,,,,,,,,,,,,,,,,,,,,,,,,,,,,,,,,,317,2022-12-08_12h19.43.811,Main,2022.2.2,60.2318927877292,
positive,red,2,None,None,0,0,0,0,,,,,0,0,0,0,,,,,,,,,0,154,154,80,,,,,,,,,,,,,,,,,,,,,,,,,,,,,,,,,main,669.1243590999948,None,None,1,1.5309067000052892,None,1,,,,,,,,,,,,,,,,,,,,,,,,,,,,,,,,,,,,,,,,,,,,,,,,,,,,,,,,,,,,,,,,317,2022-12-08_12h19.43.811,Main,2022.2.2,60.2318927877292,
positive,yellow,2,None,k,0,0,0,0,,,,,0,0,0,0,,,,,,,,,0,155,155,184,,,,,,,,,,,,,,,,,,,,,,,,,,,,,,,,,main,671.6622429999989,k,k,1,0.9116536999936216,None,0,,,,,,,,,,,,,,,,,,,,,,,,,,,,,,,,,,,,,,,,,,,,,,,,,,,,,,,,,,,,,,,,317,2022-12-08_12h19.43.811,Main,2022.2.2,60.2318927877292,
positive,blue,1,k,None,0,0,0,0,,,,,0,0,0,0,,,,,,,,,0,156,156,34,,,,,,,,,,,,,,,,,,,,,,,,,,,,,,,,,main,673.5800855999987,None,None,1,1.5398395000083838,None,1,,,,,,,,,,,,,,,,,,,,,,,,,,,,,,,,,,,,,,,,,,,,,,,,,,,,,,,,,,,,,,,,317,2022-12-08_12h19.43.811,Main,2022.2.2,60.2318927877292,
negative,blue,1,None,k,0,0,0,0,,,,,0,0,0,0,,,,,,,,,0,157,157,131,,,,,,,,,,,,,,,,,,,,,,,,,,,,,,,,,main,676.1120916999935,k,k,1,0.9951242999959504,None,0,,,,,,,,,,,,,,,,,,,,,,,,,,,,,,,,,,,,,,,,,,,,,,,,,,,,,,,,,,,,,,,,317,2022-12-08_12h19.43.811,Main,2022.2.2,60.2318927877292,
positive,yellow,2,None,k,0,0,0,0,,,,,0,0,0,0,,,,,,,,,0,158,158,189,,,,,,,,,,,,,,,,,,,,,,,,,,,,,,,,,main,678.1130171999976,k,k,1,0.901686700002756,None,0,,,,,,,,,,,,,,,,,,,,,,,,,,,,,,,,,,,,,,,,,,,,,,,,,,,,,,,,,,,,,,,,317,2022-12-08_12h19.43.811,Main,2022.2.2,60.2318927877292,
positive,red,2,None,None,0,0,0,0,,,,,0,0,0,0,,,,,,,,,0,159,159,169,,,,,,,,,,,,,,,,,,,,,,,,,,,,,,,,,main,680.0213793000003,None,None,1,1.510323900001822,None,1,,,,,,,,,,,,,,,,,,,,,,,,,,,,,,,,,,,,,,,,,,,,,,,,,,,,,,,,,,,,,,,,317,2022-12-08_12h19.43.811,Main,2022.2.2,60.2318927877292,
negative,blue,1,None,k,0,0,0,0,,,,,0,0,0,0,,,,,,,,,0,160,160,154,,,,,,,,,,,,,,,,,,,,,,,,,,,,,,,,,main,682.5322845999908,k,k,1,0.9612674999953015,None,0,,,,,,,,,,,,,,,,,,,,,,,,,,,,,,,,,,,,,,,,,,,,,,,,,,,,,,,,,,,,,,,,317,2022-12-08_12h19.43.811,Main,2022.2.2,60.2318927877292,
negative,blue,2,None,k,0,0,0,0,,,,,0,0,0,0,,,,,,,,,0,161,161,175,,,,,,,,,,,,,,,,,,,,,,,,,,,,,,,,,main,684.4950352999876,k,k,1,0.8739860999921802,None,0,,,,,,,,,,,,,,,,,,,,,,,,,,,,,,,,,,,,,,,,,,,,,,,,,,,,,,,,,,,,,,,,317,2022-12-08_12h19.43.811,Main,2022.2.2,60.2318927877292,
negative,red,2,None,None,0,0,0,0,,,,,0,0,0,0,,,,,,,,,0,162,162,194,,,,,,,,,,,,,,,,,,,,,,,,,,,,,,,,,main,686.3765471999941,None,None,1,1.51218869999866,None,1,,,,,,,,,,,,,,,,,,,,,,,,,,,,,,,,,,,,,,,,,,,,,,,,,,,,,,,,,,,,,,,,317,2022-12-08_12h19.43.811,Main,2022.2.2,60.2318927877292,
negative,blue,2,None,k,0,0,0,0,,,,,0,0,0,0,,,,,,,,,0,163,163,75,,,,,,,,,,,,,,,,,,,,,,,,,,,,,,,,,main,688.8881148999935,k,k,1,0.785137200000463,None,0,,,,,,,,,,,,,,,,,,,,,,,,,,,,,,,,,,,,,,,,,,,,,,,,,,,,,,,,,,,,,,,,317,2022-12-08_12h19.43.811,Main,2022.2.2,60.2318927877292,
positive,blue,2,k,None,0,0,0,0,,,,,0,0,0,0,,,,,,,,,0,164,164,197,,,,,,,,,,,,,,,,,,,,,,,,,,,,,,,,,main,690.6795669999992,None,None,1,1.594749600000796,None,1,,,,,,,,,,,,,,,,,,,,,,,,,,,,,,,,,,,,,,,,,,,,,,,,,,,,,,,,,,,,,,,,317,2022-12-08_12h19.43.811,Main,2022.2.2,60.2318927877292,
positive,blue,1,k,None,0,0,0,0,,,,,0,0,0,0,,,,,,,,,0,165,165,221,,,,,,,,,,,,,,,,,,,,,,,,,,,,,,,,,main,693.2722076999926,None,None,1,1.5255761000007624,None,1,,,,,,,,,,,,,,,,,,,,,,,,,,,,,,,,,,,,,,,,,,,,,,,,,,,,,,,,,,,,,,,,317,2022-12-08_12h19.43.811,Main,2022.2.2,60.2318927877292,
positive,red,2,None,None,0,0,0,0,,,,,0,0,0,0,,,,,,,,,0,166,166,156,,,,,,,,,,,,,,,,,,,,,,,,,,,,,,,,,main,695.7970815000008,None,None,1,1.5095237999921665,None,1,,,,,,,,,,,,,,,,,,,,,,,,,,,,,,,,,,,,,,,,,,,,,,,,,,,,,,,,,,,,,,,,317,2022-12-08_12h19.43.811,Main,2022.2.2,60.2318927877292,
positive,red,1,None,None,0,0,0,0,,,,,0,0,0,0,,,,,,,,,0,167,167,47,,,,,,,,,,,,,,,,,,,,,,,,,,,,,,,,,main,698.3127820999944,None,None,1,1.5098759999964386,None,1,,,,,,,,,,,,,,,,,,,,,,,,,,,,,,,,,,,,,,,,,,,,,,,,,,,,,,,,,,,,,,,,317,2022-12-08_12h19.43.811,Main,2022.2.2,60.2318927877292,
negative,blue,2,None,k,0,0,0,0,,,,,0,0,0,0,,,,,,,,,0,168,168,76,,,,,,,,,,,,,,,,,,,,,,,,,,,,,,,,,main,700.8262801999954,k,k,1,0.8342647999961628,None,0,,,,,,,,,,,,,,,,,,,,,,,,,,,,,,,,,,,,,,,,,,,,,,,,,,,,,,,,,,,,,,,,317,2022-12-08_12h19.43.811,Main,2022.2.2,60.2318927877292,
negative,yellow,2,k,None,0,0,0,0,,,,,0,0,0,0,,,,,,,,,0,169,169,202,,,,,,,,,,,,,,,,,,,,,,,,,,,,,,,,,main,702.6649952999869,None,None,1,1.528004299994791,None,1,,,,,,,,,,,,,,,,,,,,,,,,,,,,,,,,,,,,,,,,,,,,,,,,,,,,,,,,,,,,,,,,317,2022-12-08_12h19.43.811,Main,2022.2.2,60.2318927877292,
positive,yellow,1,None,k,0,0,0,0,,,,,0,0,0,0,,,,,,,,,0,170,170,48,,,,,,,,,,,,,,,,,,,,,,,,,,,,,,,,,main,705.193862199987,k,k,1,0.8778468999953475,None,0,,,,,,,,,,,,,,,,,,,,,,,,,,,,,,,,,,,,,,,,,,,,,,,,,,,,,,,,,,,,,,,,317,2022-12-08_12h19.43.811,Main,2022.2.2,60.2318927877292,
positive,yellow,1,None,k,0,0,0,0,,,,,0,0,0,0,,,,,,,,,0,171,171,220,,,,,,,,,,,,,,,,,,,,,,,,,,,,,,,,,main,707.0787689999997,k,k,1,0.8992536000005202,None,0,,,,,,,,,,,,,,,,,,,,,,,,,,,,,,,,,,,,,,,,,,,,,,,,,,,,,,,,,,,,,,,,317,2022-12-08_12h19.43.811,Main,2022.2.2,60.2318927877292,
negative,blue,2,None,k,0,0,0,0,,,,,0,0,0,0,,,,,,,,,0,172,172,226,,,,,,,,,,,,,,,,,,,,,,,,,,,,,,,,,main,708.9767564999929,k,k,1,0.8371328000066569,None,0,,,,,,,,,,,,,,,,,,,,,,,,,,,,,,,,,,,,,,,,,,,,,,,,,,,,,,,,,,,,,,,,317,2022-12-08_12h19.43.811,Main,2022.2.2,60.2318927877292,
positive,yellow,2,None,k,0,0,0,0,,,,,0,0,0,0,,,,,,,,,0,173,173,5,,,,,,,,,,,,,,,,,,,,,,,,,,,,,,,,,main,710.8231420999946,k,k,1,1.075928299993393,None,0,,,,,,,,,,,,,,,,,,,,,,,,,,,,,,,,,,,,,,,,,,,,,,,,,,,,,,,,,,,,,,,,317,2022-12-08_12h19.43.811,Main,2022.2.2,60.2318927877292,
negative,red,2,None,None,0,0,0,0,,,,,0,0,0,0,,,,,,,,,0,174,174,54,,,,,,,,,,,,,,,,,,,,,,,,,,,,,,,,,main,712.9032986999955,None,None,1,1.5200593000045046,None,1,,,,,,,,,,,,,,,,,,,,,,,,,,,,,,,,,,,,,,,,,,,,,,,,,,,,,,,,,,,,,,,,317,2022-12-08_12h19.43.811,Main,2022.2.2,60.2318927877292,
positive,yellow,2,None,k,0,0,0,0,,,,,0,0,0,0,,,,,,,,,0,175,175,222,,,,,,,,,,,,,,,,,,,,,,,,,,,,,,,,,main,715.4207826999918,k,k,1,0.8648200000025099,None,0,,,,,,,,,,,,,,,,,,,,,,,,,,,,,,,,,,,,,,,,,,,,,,,,,,,,,,,,,,,,,,,,317,2022-12-08_12h19.43.811,Main,2022.2.2,60.2318927877292,
negative,blue,2,None,k,0,0,0,0,,,,,0,0,0,0,,,,,,,,,0,176,176,93,,,,,,,,,,,,,,,,,,,,,,,,,,,,,,,,,main,717.2920715999935,k,k,1,1.1360793999920134,None,0,,,,,,,,,,,,,,,,,,,,,,,,,,,,,,,,,,,,,,,,,,,,,,,,,,,,,,,,,,,,,,,,317,2022-12-08_12h19.43.811,Main,2022.2.2,60.2318927877292,
positive,blue,2,k,None,0,0,0,0,,,,,0,0,0,0,,,,,,,,,0,177,177,201,,,,,,,,,,,,,,,,,,,,,,,,,,,,,,,,,main,719.4355077999935,None,None,1,1.5258907999959774,None,1,,,,,,,,,,,,,,,,,,,,,,,,,,,,,,,,,,,,,,,,,,,,,,,,,,,,,,,,,,,,,,,,317,2022-12-08_12h19.43.811,Main,2022.2.2,60.2318927877292,
positive,blue,1,k,None,0,0,0,0,,,,,0,0,0,0,,,,,,,,,0,178,178,178,,,,,,,,,,,,,,,,,,,,,,,,,,,,,,,,,main,721.9575946999976,None,None,1,1.5252997999923537,None,1,,,,,,,,,,,,,,,,,,,,,,,,,,,,,,,,,,,,,,,,,,,,,,,,,,,,,,,,,,,,,,,,317,2022-12-08_12h19.43.811,Main,2022.2.2,60.2318927877292,
negative,yellow,2,k,None,0,0,0,0,,,,,0,0,0,0,,,,,,,,,0,179,179,183,,,,,,,,,,,,,,,,,,,,,,,,,,,,,,,,,main,724.4890233999904,None,None,1,1.518278299990925,None,1,,,,,,,,,,,,,,,,,,,,,,,,,,,,,,,,,,,,,,,,,,,,,,,,,,,,,,,,,,,,,,,,317,2022-12-08_12h19.43.811,Main,2022.2.2,60.2318927877292,
positive,yellow,1,None,k,0,0,0,0,,,,,0,0,0,0,,,,,,,,,0,180,180,55,,,,,,,,,,,,,,,,,,,,,,,,,,,,,,,,,main,727.0075295999995,k,k,1,1.339419399999315,None,0,,,,,,,,,,,,,,,,,,,,,,,,,,,,,,,,,,,,,,,,,,,,,,,,,,,,,,,,,,,,,,,,317,2022-12-08_12h19.43.811,Main,2022.2.2,60.2318927877292,
positive,yellow,2,None,k,0,0,0,0,,,,,0,0,0,0,,,,,,,,,0,181,181,50,,,,,,,,,,,,,,,,,,,,,,,,,,,,,,,,,main,729.3457328999939,k,k,1,0.8020447999879252,None,0,,,,,,,,,,,,,,,,,,,,,,,,,,,,,,,,,,,,,,,,,,,,,,,,,,,,,,,,,,,,,,,,317,2022-12-08_12h19.43.811,Main,2022.2.2,60.2318927877292,
positive,blue,1,k,None,0,0,0,0,,,,,0,0,0,0,,,,,,,,,0,182,182,30,,,,,,,,,,,,,,,,,,,,,,,,,,,,,,,,,main,731.1596436999971,None,None,1,1.521653600007994,None,1,,,,,,,,,,,,,,,,,,,,,,,,,,,,,,,,,,,,,,,,,,,,,,,,,,,,,,,,,,,,,,,,317,2022-12-08_12h19.43.811,Main,2022.2.2,60.2318927877292,
negative,yellow,1,k,None,0,0,0,0,,,,,0,0,0,0,,,,,,,,,0,183,183,212,,,,,,,,,,,,,,,,,,,,,,,,,,,,,,,,,main,733.6767082999868,None,None,1,1.5264682000124594,None,1,,,,,,,,,,,,,,,,,,,,,,,,,,,,,,,,,,,,,,,,,,,,,,,,,,,,,,,,,,,,,,,,317,2022-12-08_12h19.43.811,Main,2022.2.2,60.2318927877292,
negative,blue,1,None,k,0,0,0,0,,,,,0,0,0,0,,,,,,,,,0,184,184,72,,,,,,,,,,,,,,,,,,,,,,,,,,,,,,,,,main,736.2058775999903,k,k,1,0.9387421999999788,None,0,,,,,,,,,,,,,,,,,,,,,,,,,,,,,,,,,,,,,,,,,,,,,,,,,,,,,,,,,,,,,,,,317,2022-12-08_12h19.43.811,Main,2022.2.2,60.2318927877292,
negative,blue,1,None,k,0,0,0,0,,,,,0,0,0,0,,,,,,,,,0,185,185,161,,,,,,,,,,,,,,,,,,,,,,,,,,,,,,,,,main,738.150324599992,k,k,1,0.8661911000090186,None,0,,,,,,,,,,,,,,,,,,,,,,,,,,,,,,,,,,,,,,,,,,,,,,,,,,,,,,,,,,,,,,,,317,2022-12-08_12h19.43.811,Main,2022.2.2,60.2318927877292,
positive,red,1,None,None,0,0,0,0,,,,,0,0,0,0,,,,,,,,,0,186,186,195,,,,,,,,,,,,,,,,,,,,,,,,,,,,,,,,,main,740.0205138999881,None,None,1,1.5156014999956824,None,1,,,,,,,,,,,,,,,,,,,,,,,,,,,,,,,,,,,,,,,,,,,,,,,,,,,,,,,,,,,,,,,,317,2022-12-08_12h19.43.811,Main,2022.2.2,60.2318927877292,
negative,blue,1,None,k,0,0,0,0,,,,,0,0,0,0,,,,,,,,,0,187,187,211,,,,,,,,,,,,,,,,,,,,,,,,,,,,,,,,,main,742.538899399995,k,k,1,0.7784240999899339,None,0,,,,,,,,,,,,,,,,,,,,,,,,,,,,,,,,,,,,,,,,,,,,,,,,,,,,,,,,,,,,,,,,317,2022-12-08_12h19.43.811,Main,2022.2.2,60.2318927877292,
negative,yellow,1,k,None,0,0,0,0,,,,,0,0,0,0,,,,,,,,,0,188,188,98,,,,,,,,,,,,,,,,,,,,,,,,,,,,,,,,,main,744.3232852999936,None,None,1,1.530450700010988,None,1,,,,,,,,,,,,,,,,,,,,,,,,,,,,,,,,,,,,,,,,,,,,,,,,,,,,,,,,,,,,,,,,317,2022-12-08_12h19.43.811,Main,2022.2.2,60.2318927877292,
positive,yellow,2,None,k,0,0,0,0,,,,,0,0,0,0,,,,,,,,,0,189,189,174,,,,,,,,,,,,,,,,,,,,,,,,,,,,,,,,,main,746.8517849999917,k,k,1,0.782508800009964,None,0,,,,,,,,,,,,,,,,,,,,,,,,,,,,,,,,,,,,,,,,,,,,,,,,,,,,,,,,,,,,,,,,317,2022-12-08_12h19.43.811,Main,2022.2.2,60.2318927877292,
positive,blue,1,k,None,0,0,0,0,,,,,0,0,0,0,,,,,,,,,0,190,190,187,,,,,,,,,,,,,,,,,,,,,,,,,,,,,,,,,main,748.6385091999982,None,k,0,0.8874234999966575,None,1,,,,,,,,,,,,,,,,,,,,,,,,,,,,,,,,,,,,,,,,,,,,,,,,,,,,,,,,,,,,,,,,317,2022-12-08_12h19.43.811,Main,2022.2.2,60.2318927877292,
negative,red,1,None,None,0,0,0,0,,,,,0,0,0,0,,,,,,,,,0,191,191,205,,,,,,,,,,,,,,,,,,,,,,,,,,,,,,,,,main,751.5650199999945,None,None,1,1.5400141999998596,None,1,,,,,,,,,,,,,,,,,,,,,,,,,,,,,,,,,,,,,,,,,,,,,,,,,,,,,,,,,,,,,,,,317,2022-12-08_12h19.43.811,Main,2022.2.2,60.2318927877292,
positive,blue,2,k,None,0,0,0,0,,,,,0,0,0,0,,,,,,,,,0,192,192,233,,,,,,,,,,,,,,,,,,,,,,,,,,,,,,,,,main,754.1115900999866,None,None,1,1.5117784000030952,None,1,,,,,,,,,,,,,,,,,,,,,,,,,,,,,,,,,,,,,,,,,,,,,,,,,,,,,,,,,,,,,,,,317,2022-12-08_12h19.43.811,Main,2022.2.2,60.2318927877292,
positive,blue,1,k,None,0,0,0,0,,,,,0,0,0,0,,,,,,,,,0,193,193,141,,,,,,,,,,,,,,,,,,,,,,,,,,,,,,,,,main,756.6249297999893,None,None,1,1.528675599998678,None,1,,,,,,,,,,,,,,,,,,,,,,,,,,,,,,,,,,,,,,,,,,,,,,,,,,,,,,,,,,,,,,,,317,2022-12-08_12h19.43.811,Main,2022.2.2,60.2318927877292,
positive,yellow,1,None,k,0,0,0,0,,,,,0,0,0,0,,,,,,,,,0,194,194,71,,,,,,,,,,,,,,,,,,,,,,,,,,,,,,,,,main,759.1557158999931,k,k,1,0.8450788000045577,None,0,,,,,,,,,,,,,,,,,,,,,,,,,,,,,,,,,,,,,,,,,,,,,,,,,,,,,,,,,,,,,,,,317,2022-12-08_12h19.43.811,Main,2022.2.2,60.2318927877292,
positive,yellow,1,None,k,0,0,0,0,,,,,0,0,0,0,,,,,,,,,0,195,195,69,,,,,,,,,,,,,,,,,,,,,,,,,,,,,,,,,main,761.0020461999957,k,k,1,0.7903379000053974,None,0,,,,,,,,,,,,,,,,,,,,,,,,,,,,,,,,,,,,,,,,,,,,,,,,,,,,,,,,,,,,,,,,317,2022-12-08_12h19.43.811,Main,2022.2.2,60.2318927877292,
negative,yellow,1,k,None,0,0,0,0,,,,,0,0,0,0,,,,,,,,,0,196,196,101,,,,,,,,,,,,,,,,,,,,,,,,,,,,,,,,,main,762.7941259999934,None,None,1,1.51577620000171,None,1,,,,,,,,,,,,,,,,,,,,,,,,,,,,,,,,,,,,,,,,,,,,,,,,,,,,,,,,,,,,,,,,317,2022-12-08_12h19.43.811,Main,2022.2.2,60.2318927877292,
negative,red,1,None,None,0,0,0,0,,,,,0,0,0,0,,,,,,,,,0,197,197,166,,,,,,,,,,,,,,,,,,,,,,,,,,,,,,,,,main,765.3133578999987,None,None,1,1.5314122999989195,None,1,,,,,,,,,,,,,,,,,,,,,,,,,,,,,,,,,,,,,,,,,,,,,,,,,,,,,,,,,,,,,,,,317,2022-12-08_12h19.43.811,Main,2022.2.2,60.2318927877292,
positive,blue,1,k,None,0,0,0,0,,,,,0,0,0,0,,,,,,,,,0,198,198,137,,,,,,,,,,,,,,,,,,,,,,,,,,,,,,,,,main,767.8500043999957,None,None,1,1.5300529000087408,None,1,,,,,,,,,,,,,,,,,,,,,,,,,,,,,,,,,,,,,,,,,,,,,,,,,,,,,,,,,,,,,,,,317,2022-12-08_12h19.43.811,Main,2022.2.2,60.2318927877292,
negative,blue,1,None,k,0,0,0,0,,,,,0,0,0,0,,,,,,,,,0,199,199,150,,,,,,,,,,,,,,,,,,,,,,,,,,,,,,,,,main,770.384427500001,k,k,1,0.9817628000018885,None,0,,,,,,,,,,,,,,,,,,,,,,,,,,,,,,,,,,,,,,,,,,,,,,,,,,,,,,,,,,,,,,,,317,2022-12-08_12h19.43.811,Main,2022.2.2,60.2318927877292,
positive,red,1,None,None,0,0,0,0,,,,,0,0,0,0,,,,,,,,,0,200,200,125,,,,,,,,,,,,,,,,,,,,,,,,,,,,,,,,,main,772.3728708999988,None,None,1,1.5170053000038024,None,1,,,,,,,,,,,,,,,,,,,,,,,,,,,,,,,,,,,,,,,,,,,,,,,,,,,,,,,,,,,,,,,,317,2022-12-08_12h19.43.811,Main,2022.2.2,60.2318927877292,
positive,red,2,None,None,0,0,0,0,,,,,0,0,0,0,,,,,,,,,0,201,201,52,,,,,,,,,,,,,,,,,,,,,,,,,,,,,,,,,main,774.8913676999946,None,None,1,1.5146367999986978,None,1,,,,,,,,,,,,,,,,,,,,,,,,,,,,,,,,,,,,,,,,,,,,,,,,,,,,,,,,,,,,,,,,317,2022-12-08_12h19.43.811,Main,2022.2.2,60.2318927877292,
positive,red,1,None,None,0,0,0,0,,,,,0,0,0,0,,,,,,,,,0,202,202,99,,,,,,,,,,,,,,,,,,,,,,,,,,,,,,,,,main,777.4086676999868,None,None,1,1.526209799994831,None,1,,,,,,,,,,,,,,,,,,,,,,,,,,,,,,,,,,,,,,,,,,,,,,,,,,,,,,,,,,,,,,,,317,2022-12-08_12h19.43.811,Main,2022.2.2,60.2318927877292,
positive,blue,2,k,None,0,0,0,0,,,,,0,0,0,0,,,,,,,,,0,203,203,158,,,,,,,,,,,,,,,,,,,,,,,,,,,,,,,,,main,779.9372643999959,None,None,1,1.5323101000103634,None,1,,,,,,,,,,,,,,,,,,,,,,,,,,,,,,,,,,,,,,,,,,,,,,,,,,,,,,,,,,,,,,,,317,2022-12-08_12h19.43.811,Main,2022.2.2,60.2318927877292,
negative,blue,1,None,k,0,0,0,0,,,,,0,0,0,0,,,,,,,,,0,204,204,218,,,,,,,,,,,,,,,,,,,,,,,,,,,,,,,,,main,782.4747138999955,k,k,1,0.8871797999890987,None,0,,,,,,,,,,,,,,,,,,,,,,,,,,,,,,,,,,,,,,,,,,,,,,,,,,,,,,,,,,,,,,,,317,2022-12-08_12h19.43.811,Main,2022.2.2,60.2318927877292,
negative,blue,2,None,k,0,0,0,0,,,,,0,0,0,0,,,,,,,,,0,205,205,28,,,,,,,,,,,,,,,,,,,,,,,,,,,,,,,,,main,784.3618347999873,k,k,1,1.0316536000027554,None,0,,,,,,,,,,,,,,,,,,,,,,,,,,,,,,,,,,,,,,,,,,,,,,,,,,,,,,,,,,,,,,,,317,2022-12-08_12h19.43.811,Main,2022.2.2,60.2318927877292,
negative,yellow,2,k,None,0,0,0,0,,,,,0,0,0,0,,,,,,,,,0,206,206,207,,,,,,,,,,,,,,,,,,,,,,,,,,,,,,,,,main,786.4020960999915,None,None,1,1.5179257999989204,None,1,,,,,,,,,,,,,,,,,,,,,,,,,,,,,,,,,,,,,,,,,,,,,,,,,,,,,,,,,,,,,,,,317,2022-12-08_12h19.43.811,Main,2022.2.2,60.2318927877292,
positive,yellow,1,None,k,0,0,0,0,,,,,0,0,0,0,,,,,,,,,0,207,207,165,,,,,,,,,,,,,,,,,,,,,,,,,,,,,,,,,main,788.9221407000005,k,k,1,1.0550377999898046,None,0,,,,,,,,,,,,,,,,,,,,,,,,,,,,,,,,,,,,,,,,,,,,,,,,,,,,,,,,,,,,,,,,317,2022-12-08_12h19.43.811,Main,2022.2.2,60.2318927877292,
positive,blue,1,k,None,0,0,0,0,,,,,0,0,0,0,,,,,,,,,0,208,208,79,,,,,,,,,,,,,,,,,,,,,,,,,,,,,,,,,main,790.9870999999985,None,None,1,1.5252804000047036,None,1,,,,,,,,,,,,,,,,,,,,,,,,,,,,,,,,,,,,,,,,,,,,,,,,,,,,,,,,,,,,,,,,317,2022-12-08_12h19.43.811,Main,2022.2.2,60.2318927877292,
negative,yellow,2,k,None,0,0,0,0,,,,,0,0,0,0,,,,,,,,,0,209,209,135,,,,,,,,,,,,,,,,,,,,,,,,,,,,,,,,,main,793.5096666999889,None,None,1,1.5185045999969589,None,1,,,,,,,,,,,,,,,,,,,,,,,,,,,,,,,,,,,,,,,,,,,,,,,,,,,,,,,,,,,,,,,,317,2022-12-08_12h19.43.811,Main,2022.2.2,60.2318927877292,
negative,blue,1,None,k,0,0,0,0,,,,,0,0,0,0,,,,,,,,,0,210,210,229,,,,,,,,,,,,,,,,,,,,,,,,,,,,,,,,,main,796.0300405999878,k,k,1,1.0671568999969168,None,0,,,,,,,,,,,,,,,,,,,,,,,,,,,,,,,,,,,,,,,,,,,,,,,,,,,,,,,,,,,,,,,,317,2022-12-08_12h19.43.811,Main,2022.2.2,60.2318927877292,
positive,blue,2,k,None,0,0,0,0,,,,,0,0,0,0,,,,,,,,,0,211,211,25,,,,,,,,,,,,,,,,,,,,,,,,,,,,,,,,,main,798.0998901999992,None,None,1,1.5150838999979896,None,1,,,,,,,,,,,,,,,,,,,,,,,,,,,,,,,,,,,,,,,,,,,,,,,,,,,,,,,,,,,,,,,,317,2022-12-08_12h19.43.811,Main,2022.2.2,60.2318927877292,
positive,blue,2,k,None,0,0,0,0,,,,,0,0,0,0,,,,,,,,,0,212,212,27,,,,,,,,,,,,,,,,,,,,,,,,,,,,,,,,,main,800.6272860999889,None,None,1,1.5367453999933787,None,1,,,,,,,,,,,,,,,,,,,,,,,,,,,,,,,,,,,,,,,,,,,,,,,,,,,,,,,,,,,,,,,,317,2022-12-08_12h19.43.811,Main,2022.2.2,60.2318927877292,
positive,blue,1,k,None,0,0,0,0,,,,,0,0,0,0,,,,,,,,,0,213,213,15,,,,,,,,,,,,,,,,,,,,,,,,,,,,,,,,,main,803.1589535999956,None,None,1,1.5113528999936534,None,1,,,,,,,,,,,,,,,,,,,,,,,,,,,,,,,,,,,,,,,,,,,,,,,,,,,,,,,,,,,,,,,,317,2022-12-08_12h19.43.811,Main,2022.2.2,60.2318927877292,
positive,yellow,1,None,k,0,0,0,0,,,,,0,0,0,0,,,,,,,,,0,214,214,148,,,,,,,,,,,,,,,,,,,,,,,,,,,,,,,,,main,805.677394399987,k,k,1,0.9020623999967938,None,0,,,,,,,,,,,,,,,,,,,,,,,,,,,,,,,,,,,,,,,,,,,,,,,,,,,,,,,,,,,,,,,,317,2022-12-08_12h19.43.811,Main,2022.2.2,60.2318927877292,
positive,red,1,None,None,0,0,0,0,,,,,0,0,0,0,,,,,,,,,0,215,215,1,,,,,,,,,,,,,,,,,,,,,,,,,,,,,,,,,main,807.585147699996,None,None,1,1.5096809999959078,None,1,,,,,,,,,,,,,,,,,,,,,,,,,,,,,,,,,,,,,,,,,,,,,,,,,,,,,,,,,,,,,,,,317,2022-12-08_12h19.43.811,Main,2022.2.2,60.2318927877292,
positive,red,2,None,None,0,0,0,0,,,,,0,0,0,0,,,,,,,,,0,216,216,7,,,,,,,,,,,,,,,,,,,,,,,,,,,,,,,,,main,810.0951607999887,None,None,1,1.5310871999972733,None,1,,,,,,,,,,,,,,,,,,,,,,,,,,,,,,,,,,,,,,,,,,,,,,,,,,,,,,,,,,,,,,,,317,2022-12-08_12h19.43.811,Main,2022.2.2,60.2318927877292,
negative,blue,1,None,k,0,0,0,0,,,,,0,0,0,0,,,,,,,,,0,217,217,162,,,,,,,,,,,,,,,,,,,,,,,,,,,,,,,,,main,812.6264318999893,k,k,1,0.8546380999905523,None,0,,,,,,,,,,,,,,,,,,,,,,,,,,,,,,,,,,,,,,,,,,,,,,,,,,,,,,,,,,,,,,,,317,2022-12-08_12h19.43.811,Main,2022.2.2,60.2318927877292,
positive,yellow,1,None,k,0,0,0,0,,,,,0,0,0,0,,,,,,,,,0,218,218,185,,,,,,,,,,,,,,,,,,,,,,,,,,,,,,,,,main,814.4824958999961,k,k,1,1.0215005000063684,None,0,,,,,,,,,,,,,,,,,,,,,,,,,,,,,,,,,,,,,,,,,,,,,,,,,,,,,,,,,,,,,,,,317,2022-12-08_12h19.43.811,Main,2022.2.2,60.2318927877292,
negative,blue,2,None,k,0,0,0,0,,,,,0,0,0,0,,,,,,,,,0,219,219,145,,,,,,,,,,,,,,,,,,,,,,,,,,,,,,,,,main,816.5078578999965,k,k,1,0.7913547000061953,None,0,,,,,,,,,,,,,,,,,,,,,,,,,,,,,,,,,,,,,,,,,,,,,,,,,,,,,,,,,,,,,,,,317,2022-12-08_12h19.43.811,Main,2022.2.2,60.2318927877292,
negative,blue,1,None,k,0,0,0,0,,,,,0,0,0,0,,,,,,,,,0,220,220,94,,,,,,,,,,,,,,,,,,,,,,,,,,,,,,,,,main,818.3082323999988,k,k,1,0.9417935999954352,None,0,,,,,,,,,,,,,,,,,,,,,,,,,,,,,,,,,,,,,,,,,,,,,,,,,,,,,,,,,,,,,,,,317,2022-12-08_12h19.43.811,Main,2022.2.2,60.2318927877292,
positive,blue,2,k,None,0,0,0,0,,,,,0,0,0,0,,,,,,,,,0,221,221,17,,,,,,,,,,,,,,,,,,,,,,,,,,,,,,,,,main,820.2463198999903,None,None,1,1.5190080000029411,None,1,,,,,,,,,,,,,,,,,,,,,,,,,,,,,,,,,,,,,,,,,,,,,,,,,,,,,,,,,,,,,,,,317,2022-12-08_12h19.43.811,Main,2022.2.2,60.2318927877292,
negative,blue,2,None,k,0,0,0,0,,,,,0,0,0,0,,,,,,,,,0,222,222,152,,,,,,,,,,,,,,,,,,,,,,,,,,,,,,,,,main,822.7699738999945,k,k,1,0.9698710999946343,None,0,,,,,,,,,,,,,,,,,,,,,,,,,,,,,,,,,,,,,,,,,,,,,,,,,,,,,,,,,,,,,,,,317,2022-12-08_12h19.43.811,Main,2022.2.2,60.2318927877292,
negative,yellow,2,k,None,0,0,0,0,,,,,0,0,0,0,,,,,,,,,0,223,223,88,,,,,,,,,,,,,,,,,,,,,,,,,,,,,,,,,main,824.7490446999873,None,None,1,1.5159006999892881,None,1,,,,,,,,,,,,,,,,,,,,,,,,,,,,,,,,,,,,,,,,,,,,,,,,,,,,,,,,,,,,,,,,317,2022-12-08_12h19.43.811,Main,2022.2.2,60.2318927877292,
positive,red,1,None,None,0,0,0,0,,,,,0,0,0,0,,,,,,,,,0,224,224,68,,,,,,,,,,,,,,,,,,,,,,,,,,,,,,,,,main,827.265807799995,None,None,1,1.514793300011661,None,1,,,,,,,,,,,,,,,,,,,,,,,,,,,,,,,,,,,,,,,,,,,,,,,,,,,,,,,,,,,,,,,,317,2022-12-08_12h19.43.811,Main,2022.2.2,60.2318927877292,
positive,red,2,None,None,0,0,0,0,,,,,0,0,0,0,,,,,,,,,0,225,225,119,,,,,,,,,,,,,,,,,,,,,,,,,,,,,,,,,main,829.781968299998,None,None,1,1.5211243000085233,None,1,,,,,,,,,,,,,,,,,,,,,,,,,,,,,,,,,,,,,,,,,,,,,,,,,,,,,,,,,,,,,,,,317,2022-12-08_12h19.43.811,Main,2022.2.2,60.2318927877292,
positive,blue,1,k,None,0,0,0,0,,,,,0,0,0,0,,,,,,,,,0,226,226,180,,,,,,,,,,,,,,,,,,,,,,,,,,,,,,,,,main,832.3100016999961,None,None,1,1.5289573000045493,None,1,,,,,,,,,,,,,,,,,,,,,,,,,,,,,,,,,,,,,,,,,,,,,,,,,,,,,,,,,,,,,,,,317,2022-12-08_12h19.43.811,Main,2022.2.2,60.2318927877292,
positive,yellow,2,None,k,0,0,0,0,,,,,0,0,0,0,,,,,,,,,0,227,227,155,,,,,,,,,,,,,,,,,,,,,,,,,,,,,,,,,main,834.8400125999906,k,k,1,0.8918403999996372,None,0,,,,,,,,,,,,,,,,,,,,,,,,,,,,,,,,,,,,,,,,,,,,,,,,,,,,,,,,,,,,,,,,317,2022-12-08_12h19.43.811,Main,2022.2.2,60.2318927877292,
negative,blue,1,None,k,0,0,0,0,,,,,0,0,0,0,,,,,,,,,0,228,228,16,,,,,,,,,,,,,,,,,,,,,,,,,,,,,,,,,main,836.7360550999874,k,k,1,0.8744600999925751,None,0,,,,,,,,,,,,,,,,,,,,,,,,,,,,,,,,,,,,,,,,,,,,,,,,,,,,,,,,,,,,,,,,317,2022-12-08_12h19.43.811,Main,2022.2.2,60.2318927877292,
negative,blue,1,None,k,0,0,0,0,,,,,0,0,0,0,,,,,,,,,0,229,229,49,,,,,,,,,,,,,,,,,,,,,,,,,,,,,,,,,main,838.6094384999888,k,k,1,1.0661672999995062,None,0,,,,,,,,,,,,,,,,,,,,,,,,,,,,,,,,,,,,,,,,,,,,,,,,,,,,,,,,,,,,,,,,317,2022-12-08_12h19.43.811,Main,2022.2.2,60.2318927877292,
negative,yellow,2,k,None,0,0,0,0,,,,,0,0,0,0,,,,,,,,,0,230,230,173,,,,,,,,,,,,,,,,,,,,,,,,,,,,,,,,,main,840.6853177999874,None,None,1,1.5168866999883903,None,1,,,,,,,,,,,,,,,,,,,,,,,,,,,,,,,,,,,,,,,,,,,,,,,,,,,,,,,,,,,,,,,,317,2022-12-08_12h19.43.811,Main,2022.2.2,60.2318927877292,
negative,yellow,1,k,None,0,0,0,0,,,,,0,0,0,0,,,,,,,,,0,231,231,159,,,,,,,,,,,,,,,,,,,,,,,,,,,,,,,,,main,843.2013186999975,None,None,1,1.5165722999954596,None,1,,,,,,,,,,,,,,,,,,,,,,,,,,,,,,,,,,,,,,,,,,,,,,,,,,,,,,,,,,,,,,,,317,2022-12-08_12h19.43.811,Main,2022.2.2,60.2318927877292,
negative,red,1,None,None,0,0,0,0,,,,,0,0,0,0,,,,,,,,,0,232,232,121,,,,,,,,,,,,,,,,,,,,,,,,,,,,,,,,,main,845.7233456999966,None,None,1,1.5215919000038411,None,1,,,,,,,,,,,,,,,,,,,,,,,,,,,,,,,,,,,,,,,,,,,,,,,,,,,,,,,,,,,,,,,,317,2022-12-08_12h19.43.811,Main,2022.2.2,60.2318927877292,
negative,yellow,2,k,None,0,0,0,0,,,,,0,0,0,0,,,,,,,,,0,233,233,40,,,,,,,,,,,,,,,,,,,,,,,,,,,,,,,,,main,848.2459901999973,None,None,1,1.5251539000018965,None,1,,,,,,,,,,,,,,,,,,,,,,,,,,,,,,,,,,,,,,,,,,,,,,,,,,,,,,,,,,,,,,,,317,2022-12-08_12h19.43.811,Main,2022.2.2,60.2318927877292,
negative,yellow,1,k,None,0,0,0,0,,,,,0,0,0,0,,,,,,,,,0,234,234,234,,,,,,,,,,,,,,,,,,,,,,,,,,,,,,,,,main,850.7798843999917,None,None,1,1.5084194999944884,None,1,,,,,,,,,,,,,,,,,,,,,,,,,,,,,,,,,,,,,,,,,,,,,,,,,,,,,,,,,,,,,,,,317,2022-12-08_12h19.43.811,Main,2022.2.2,60.2318927877292,
positive,blue,2,k,None,0,0,0,0,,,,,0,0,0,0,,,,,,,,,0,235,235,142,,,,,,,,,,,,,,,,,,,,,,,,,,,,,,,,,main,853.2862872999976,None,None,1,1.5228749999951106,None,1,,,,,,,,,,,,,,,,,,,,,,,,,,,,,,,,,,,,,,,,,,,,,,,,,,,,,,,,,,,,,,,,317,2022-12-08_12h19.43.811,Main,2022.2.2,60.2318927877292,
negative,yellow,1,k,None,0,0,0,0,,,,,0,0,0,0,,,,,,,,,0,236,236,91,,,,,,,,,,,,,,,,,,,,,,,,,,,,,,,,,main,855.8129778000002,None,None,1,1.5156294000044,None,1,,,,,,,,,,,,,,,,,,,,,,,,,,,,,,,,,,,,,,,,,,,,,,,,,,,,,,,,,,,,,,,,317,2022-12-08_12h19.43.811,Main,2022.2.2,60.2318927877292,
positive,red,2,None,None,0,0,0,0,,,,,0,0,0,0,,,,,,,,,0,237,237,60,,,,,,,,,,,,,,,,,,,,,,,,,,,,,,,,,main,858.3261937999923,None,None,1,1.5278154000116047,None,1,,,,,,,,,,,,,,,,,,,,,,,,,,,,,,,,,,,,,,,,,,,,,,,,,,,,,,,,,,,,,,,,317,2022-12-08_12h19.43.811,Main,2022.2.2,60.2318927877292,
positive,blue,1,k,None,0,0,0,0,,,,,0,0,0,0,,,,,,,,,0,238,238,214,,,,,,,,,,,,,,,,,,,,,,,,,,,,,,,,,main,860.8565344999952,None,None,1,1.5167581999994582,None,1,,,,,,,,,,,,,,,,,,,,,,,,,,,,,,,,,,,,,,,,,,,,,,,,,,,,,,,,,,,,,,,,317,2022-12-08_12h19.43.811,Main,2022.2.2,60.2318927877292,
positive,red,1,None,None,0,0,0,0,,,,,0,0,0,0,,,,,,,,,0,239,239,29,,,,,,,,,,,,,,,,,,,,,,,,,,,,,,,,,main,863.3790953999996,None,None,1,1.511048500004108,None,1,,,,,,,,,,,,,,,,,,,,,,,,,,,,,,,,,,,,,,,,,,,,,,,,,,,,,,,,,,,,,,,,317,2022-12-08_12h19.43.811,Main,2022.2.2,60.2318927877292,
,,,,,0,0,0,0,,,,,0,0,0,0,,,,,,,,,,,,,,,,,,,,,,,,,,,,,,,,,,,,,,,,,,,,,,,,,,,,,,,,,,,,,,,,,,865.8830247999867,865.8830247999867,865.8830247999867,None,,,,,,,,,,,,,,,,,,,,,,,,,,,,,,,,,,,,,,,,,,,,,,,317,2022-12-08_12h19.43.811,Main,2022.2.2,60.2318927877292,
,,,,,0,0,0,0,,,,,,,,,,,,,,,,,,,,,,,,,,,,,,,,,,,,,,,,,,,,,,,,,,,,,,,,,,,,,,,,,,,,,,,,,,,,,,,,,,,,,,,,,,,,,,,,,,,,,,,,,,,,,,,,,,,,,,,,,,,,317,2022-12-08_12h19.43.811,Main,2022.2.2,60.2318927877292,
,,,,,1,0,1,0,0,0,0,0,,,,,,,,,,,,,,,,,,,,,0,0,0,0,,,,,,,,,,,,,,,,,,,,,,,,,,,,,,,,,,,,,,,,,,,,,,,,,,925.9252460999996,925.9252460999996,927.9040236000001,space,5.092010899999877,space,30.2550179999962,962.3502007999923,,,,,,,,,,,,,,,,,,,,,,,,,,,,,,,,,,,,,,,317,2022-12-08_12h19.43.811,Main,2022.2.2,60.2318927877292,
positive,positive,2,l,j,1,0,1,0,0,0,0,0,,,,,,,,,,,,,,,,,,,,,,,,,0,0,0,11,,,,,,,,,,,,,,,,,,,,,prac,,,,,,,,,,,,,,,,,,,,,,,,,,,,,,,,,0.0005686000076821074,-0.3925925925925926,-0.06018518518518518,0,0,0,965.7500064999913,1,1,2,positive,positive,967.8149790999887,967.8149790999887,967.8149790999887,967.8149790999887,968.7952797999897,968.8549996999936,j,j,1,1.6148137999989558,970.4142368999892,970.4142368999892,970.4142368999892,971.45512649999,971.45512649999,971.45512649999,,,,,,,,,,,317,2022-12-08_12h19.43.811,Main,2022.2.2,60.2318927877292,
positive,negative,1,j,l,1,0,1,0,0,0,0,0,,,,,,,,,,,,,,,,,,,,,,,,,0,1,1,6,,,,,,,,,,,,,,,,,,,,,prac,,,,,,,,,,,,,,,,,,,,,,,,,,,,,,,,,,,,,,,,2,2,1,positive,negative,971.45512649999,971.45512649999,971.45512649999,971.45512649999,972.441421399999,972.4831602999911,l,l,1,0.9917047000053572,973.4598179999884,973.4598179999884,973.4598179999884,973.4598179999884,973.4598179999884,973.4598179999884,,,,,,,,,,,317,2022-12-08_12h19.43.811,Main,2022.2.2,60.2318927877292,
neutral,negative,1,j,l,1,0,1,0,0,0,0,0,,,,,,,,,,,,,,,,,,,,,,,,,0,2,2,3,,,,,,,,,,,,,,,,,,,,,prac,,,,,,,,,,,,,,,,,,,,,,,,,,,,,,,,,,,,,,,,2,2,1,neutral,negative,973.4598179999884,973.4598179999884,973.4598179999884,973.4598179999884,974.4379350999952,974.5009128999955,l,l,1,0.897389399993699,975.3522511999909,975.3522511999909,975.3522511999909,975.3522511999909,975.3522511999909,975.3522511999909,,,,,,,,,,,317,2022-12-08_12h19.43.811,Main,2022.2.2,60.2318927877292,
neutral,neutral,2,k,k,1,0,1,0,0,0,0,0,,,,,,,,,,,,,,,,,,,,,,,,,0,3,3,10,,,,,,,,,,,,,,,,,,,,,prac,,,,,,,,,,,,,,,,,,,,,,,,,,,,,,,,,,,,,,,,1,1,2,neutral,neutral,975.3522511999909,975.3522511999909,975.3522511999909,975.3522511999909,976.3477030999929,976.3801785999967,k,k,1,0.8950728999916464,977.2495032999868,977.2495032999868,977.2495032999868,977.2495032999868,977.2495032999868,977.2495032999868,,,,,,,,,,,317,2022-12-08_12h19.43.811,Main,2022.2.2,60.2318927877292,
negative,positive,2,l,j,1,0,1,0,0,0,0,0,,,,,,,,,,,,,,,,,,,,,,,,,0,4,4,14,,,,,,,,,,,,,,,,,,,,,prac,,,,,,,,,,,,,,,,,,,,,,,,,,,,,,,,,,,,,,,,2,2,2,negative,positive,977.2495032999868,977.2495032999868,977.2495032999868,977.2495032999868,978.2245837999944,978.286878999992,j,j,1,0.9744042999955127,979.2303403999977,979.2303403999977,979.2303403999977,979.2303403999977,979.2303403999977,979.2303403999977,,,,,,,,,,,317,2022-12-08_12h19.43.811,Main,2022.2.2,60.2318927877292,
positive,negative,2,j,l,1,0,1,0,0,0,0,0,,,,,,,,,,,,,,,,,,,,,,,,,0,5,5,15,,,,,,,,,,,,,,,,,,,,,prac,,,,,,,,,,,,,,,,,,,,,,,,,,,,,,,,,,,,,,,,2,2,2,positive,negative,979.2303403999977,979.2303403999977,979.2303403999977,979.2303403999977,980.2058354999899,980.2683182999899,l,l,1,1.0584576000110246,981.2956793999911,981.2956793999911,981.2956793999911,981.2956793999911,981.2956793999911,981.2956793999911,,,,,,,,,,,317,2022-12-08_12h19.43.811,Main,2022.2.2,60.2318927877292,
neutral,neutral,1,k,k,1,0,1,0,0,0,0,0,,,,,,,,,,,,,,,,,,,,,,,,,0,6,6,1,,,,,,,,,,,,,,,,,,,,,prac,,,,,,,,,,,,,,,,,,,,,,,,,,,,,,,,,,,,,,,,1,1,1,neutral,neutral,981.2956793999911,981.2956793999911,981.2956793999911,981.2956793999911,982.2867038999975,982.3161197999871,k,k,1,0.8906797999952687,983.1864892999874,983.1864892999874,983.1864892999874,983.1864892999874,983.1864892999874,983.1864892999874,,,,,,,,,,,317,2022-12-08_12h19.43.811,Main,2022.2.2,60.2318927877292,
neutral,positive,1,l,j,1,0,1,0,0,0,0,0,,,,,,,,,,,,,,,,,,,,,,,,,0,7,7,8,,,,,,,,,,,,,,,,,,,,,prac,,,,,,,,,,,,,,,,,,,,,,,,,,,,,,,,,,,,,,,,1,1,1,neutral,positive,983.1864892999874,983.1864892999874,983.1864892999874,983.1864892999874,984.1783695999911,984.2083929999935,j,j,1,0.9816352000052575,985.1732275999966,985.1732275999966,985.1732275999966,985.1732275999966,985.1732275999966,985.1732275999966,,,,,,,,,,,317,2022-12-08_12h19.43.811,Main,2022.2.2,60.2318927877292,
positive,neutral,2,k,k,1,0,1,0,0,0,0,0,,,,,,,,,,,,,,,,,,,,,,,,,0,8,8,13,,,,,,,,,,,,,,,,,,,,,prac,,,,,,,,,,,,,,,,,,,,,,,,,,,,,,,,,,,,,,,,1,1,2,positive,neutral,985.1732275999966,985.1732275999966,985.1732275999966,985.1732275999966,986.1660152999975,986.2055747999984,k,k,1,0.7929794000083348,986.9680510999897,986.9680510999897,986.9680510999897,986.9680510999897,986.9680510999897,986.9680510999897,,,,,,,,,,,317,2022-12-08_12h19.43.811,Main,2022.2.2,60.2318927877292,
negative,negative,1,j,l,1,0,1,0,0,0,0,0,,,,,,,,,,,,,,,,,,,,,,,,,0,9,9,0,,,,,,,,,,,,,,,,,,,,,prac,,,,,,,,,,,,,,,,,,,,,,,,,,,,,,,,,,,,,,,,1,1,1,negative,negative,986.9680510999897,986.9680510999897,986.9680510999897,986.9680510999897,987.9549267999973,987.9862270999874,l,l,1,0.7443490000005113,988.7177167999907,988.7177167999907,988.7177167999907,988.7177167999907,988.7177167999907,988.7177167999907,,,,,,,,,,,317,2022-12-08_12h19.43.811,Main,2022.2.2,60.2318927877292,
neutral,positive,2,l,j,1,0,1,0,0,0,0,0,,,,,,,,,,,,,,,,,,,,,,,,,0,10,10,17,,,,,,,,,,,,,,,,,,,,,prac,,,,,,,,,,,,,,,,,,,,,,,,,,,,,,,,,,,,,,,,2,2,2,neutral,positive,988.7177167999907,988.7177167999907,988.7177167999907,988.7177167999907,989.7145717999956,989.7458759000001,j,j,1,0.9630906000093091,990.6825542999868,990.6825542999868,990.6825542999868,990.6825542999868,990.6825542999868,990.6825542999868,,,,,,,,,,,317,2022-12-08_12h19.43.811,Main,2022.2.2,60.2318927877292,
negative,neutral,1,k,k,1,0,1,0,0,0,0,0,,,,,,,,,,,,,,,,,,,,,,,,,0,11,11,7,,,,,,,,,,,,,,,,,,,,,prac,,,,,,,,,,,,,,,,,,,,,,,,,,,,,,,,,,,,,,,,2,2,1,negative,neutral,990.6825542999868,990.6825542999868,990.6825542999868,990.6825542999868,991.6622941999958,991.7308144999988,k,k,1,0.7308769000082975,992.4165866999974,992.4165866999974,992.4165866999974,992.4165866999974,992.4165866999974,992.4165866999974,,,,,,,,,,,317,2022-12-08_12h19.43.811,Main,2022.2.2,60.2318927877292,
negative,negative,2,j,l,1,0,1,0,0,0,0,0,,,,,,,,,,,,,,,,,,,,,,,,,0,12,12,9,,,,,,,,,,,,,,,,,,,,,prac,,,,,,,,,,,,,,,,,,,,,,,,,,,,,,,,,,,,,,,,2,2,2,negative,negative,992.4165866999974,992.4165866999974,992.4165866999974,992.4165866999974,993.400143699997,993.4328992999945,l,l,1,1.023159600008512,994.4417008999881,994.4417008999881,994.4417008999881,994.4417008999881,994.4417008999881,994.4417008999881,,,,,,,,,,,317,2022-12-08_12h19.43.811,Main,2022.2.2,60.2318927877292,
negative,positive,1,l,j,1,0,1,0,0,0,0,0,,,,,,,,,,,,,,,,,,,,,,,,,0,13,13,5,,,,,,,,,,,,,,,,,,,,,prac,,,,,,,,,,,,,,,,,,,,,,,,,,,,,,,,,,,,,,,,2,2,1,negative,positive,994.4417008999881,994.4417008999881,994.4417008999881,994.4417008999881,995.4211777999881,995.4848605999869,j,j,1,0.8076150000124471,996.2496427999868,996.2496427999868,996.2496427999868,996.2496427999868,996.2496427999868,996.2496427999868,,,,,,,,,,,317,2022-12-08_12h19.43.811,Main,2022.2.2,60.2318927877292,
neutral,negative,2,j,l,1,0,1,0,0,0,0,0,,,,,,,,,,,,,,,,,,,,,,,,,0,14,14,12,,,,,,,,,,,,,,,,,,,,,prac,,,,,,,,,,,,,,,,,,,,,,,,,,,,,,,,,,,,,,,,2,2,2,neutral,negative,996.2496427999868,996.2496427999868,996.2496427999868,996.2496427999868,997.2357194999931,997.2711995999998,l,l,1,0.8697794000036083,998.1214191999898,998.1214191999898,998.1214191999898,998.1214191999898,998.1214191999898,998.1214191999898,,,,,,,,,,,317,2022-12-08_12h19.43.811,Main,2022.2.2,60.2318927877292,
positive,neutral,1,k,k,1,0,1,0,0,0,0,0,,,,,,,,,,,,,,,,,,,,,,,,,0,15,15,4,,,,,,,,,,,,,,,,,,,,,prac,,,,,,,,,,,,,,,,,,,,,,,,,,,,,,,,,,,,,,,,2,2,1,positive,neutral,998.1214191999898,998.1214191999898,998.1214191999898,998.1214191999898,999.1259606999956,999.1659332999989,k,k,1,0.7478611000115052,999.8762741999963,999.8762741999963,999.8762741999963,999.8762741999963,999.8762741999963,999.8762741999963,,,,,,,,,,,317,2022-12-08_12h19.43.811,Main,2022.2.2,60.2318927877292,
positive,positive,1,l,j,1,0,1,0,0,0,0,0,,,,,,,,,,,,,,,,,,,,,,,,,0,16,16,2,,,,,,,,,,,,,,,,,,,,,prac,,,,,,,,,,,,,,,,,,,,,,,,,,,,,,,,,,,,,,,,2,2,1,positive,positive,999.8762741999963,999.8762741999963,999.8762741999963,999.8762741999963,1000.84937299999,1000.9171486999985,j,j,1,0.7482746000023326,1001.622632300001,1001.622632300001,1001.622632300001,1001.622632300001,1001.622632300001,1001.622632300001,,,,,,,,,,,317,2022-12-08_12h19.43.811,Main,2022.2.2,60.2318927877292,
negative,neutral,2,k,k,1,0,1,0,0,0,0,0,,,,,,,,,,,,,,,,,,,,,,,,,0,17,17,16,,,,,,,,,,,,,,,,,,,,,prac,,,,,,,,,,,,,,,,,,,,,,,,,,,,,,,,,,,,,,,,2,2,2,negative,neutral,1001.622632300001,1001.622632300001,1001.622632300001,1001.622632300001,1002.6162450999982,1002.647655599998,k,k,1,0.675333999999566,1003.3020030999905,1003.3020030999905,1003.3020030999905,1003.3020030999905,1003.3020030999905,1003.3020030999905,,,,,,,,,,,317,2022-12-08_12h19.43.811,Main,2022.2.2,60.2318927877292,
negative,neutral,1,k,k,1,0,1,0,0,0,0,0,,,,,,,,,,,,,,,,,,,,,,,,,1,0,18,7,,,,,,,,,,,,,,,,,,,,,prac,,,,,,,,,,,,,,,,,,,,,,,,,,,,,,,,,,,,,,,,1,1,1,negative,neutral,1003.3020030999905,1003.3020030999905,1003.3020030999905,1003.3020030999905,1004.2983646999928,1004.3296379999956,k,k,1,0.7280084999947576,1005.0317310999963,1005.0317310999963,1005.0317310999963,1005.0317310999963,1005.0317310999963,1005.0317310999963,,,,,,,,,,,317,2022-12-08_12h19.43.811,Main,2022.2.2,60.2318927877292,
neutral,neutral,2,k,k,1,0,1,0,0,0,0,0,,,,,,,,,,,,,,,,,,,,,,,,,1,1,19,10,,,,,,,,,,,,,,,,,,,,,prac,,,,,,,,,,,,,,,,,,,,,,,,,,,,,,,,,,,,,,,,2,2,2,neutral,neutral,1005.0317310999963,1005.0317310999963,1005.0317310999963,1005.0317310999963,1006.0205966999929,1006.0567937999876,k,k,1,0.7646052999916719,1006.7984662999952,1006.7984662999952,1006.7984662999952,1006.7984662999952,1006.7984662999952,1006.7984662999952,,,,,,,,,,,317,2022-12-08_12h19.43.811,Main,2022.2.2,60.2318927877292,
positive,neutral,1,k,k,1,0,1,0,0,0,0,0,,,,,,,,,,,,,,,,,,,,,,,,,1,2,20,4,,,,,,,,,,,,,,,,,,,,,prac,,,,,,,,,,,,,,,,,,,,,,,,,,,,,,,,,,,,,,,,1,1,1,positive,neutral,1006.7984662999952,1006.7984662999952,1006.7984662999952,1006.7984662999952,1007.7736460999877,1007.8393513999908,k,k,1,0.7330275999993319,1008.537448099989,1008.537448099989,1008.537448099989,1008.537448099989,1008.537448099989,1008.537448099989,,,,,,,,,,,317,2022-12-08_12h19.43.811,Main,2022.2.2,60.2318927877292,
neutral,positive,1,l,j,1,0,1,0,0,0,0,0,,,,,,,,,,,,,,,,,,,,,,,,,1,3,21,8,,,,,,,,,,,,,,,,,,,,,prac,,,,,,,,,,,,,,,,,,,,,,,,,,,,,,,,,,,,,,,,2,2,1,neutral,positive,1008.537448099989,1008.537448099989,1008.537448099989,1008.537448099989,1009.5396823999909,1009.5694324999931,j,j,1,0.7671264000091469,1010.3013663999882,1010.3013663999882,1010.3013663999882,1010.3013663999882,1010.3013663999882,1010.3013663999882,,,,,,,,,,,317,2022-12-08_12h19.43.811,Main,2022.2.2,60.2318927877292,
neutral,neutral,1,k,k,1,0,1,0,0,0,0,0,,,,,,,,,,,,,,,,,,,,,,,,,1,4,22,1,,,,,,,,,,,,,,,,,,,,,prac,,,,,,,,,,,,,,,,,,,,,,,,,,,,,,,,,,,,,,,,2,2,1,neutral,neutral,1010.3013663999882,1010.3013663999882,1010.3013663999882,1010.3013663999882,1011.2938255999907,1011.3237488999875,k,k,1,0.5629146999999648,1011.8626652999956,1011.8626652999956,1011.8626652999956,1011.8626652999956,1011.8626652999956,1011.8626652999956,,,,,,,,,,,317,2022-12-08_12h19.43.811,Main,2022.2.2,60.2318927877292,
positive,negative,2,j,l,1,0,1,0,0,0,0,0,,,,,,,,,,,,,,,,,,,,,,,,,1,5,23,15,,,,,,,,,,,,,,,,,,,,,prac,,,,,,,,,,,,,,,,,,,,,,,,,,,,,,,,,,,,,,,,2,2,2,positive,negative,1011.8626652999956,1011.8626652999956,1011.8626652999956,1011.8626652999956,1012.86592869999,1012.9038198999915,l,l,1,0.7532468999997946,1013.6278208000003,1013.6278208000003,1013.6278208000003,1013.6278208000003,1013.6278208000003,1013.6278208000003,,,,,,,,,,,317,2022-12-08_12h19.43.811,Main,2022.2.2,60.2318927877292,
negative,negative,2,j,l,1,0,1,0,0,0,0,0,,,,,,,,,,,,,,,,,,,,,,,,,1,6,24,9,,,,,,,,,,,,,,,,,,,,,prac,,,,,,,,,,,,,,,,,,,,,,,,,,,,,,,,,,,,,,,,2,2,2,negative,negative,1013.6278208000003,1013.6278208000003,1013.6278208000003,1013.6278208000003,1014.6006173999922,1014.6634357000003,l,l,1,0.6974148000008427,1015.3286286999937,1015.3286286999937,1015.3286286999937,1015.3286286999937,1015.3286286999937,1015.3286286999937,,,,,,,,,,,317,2022-12-08_12h19.43.811,Main,2022.2.2,60.2318927877292,
negative,neutral,2,k,k,1,0,1,0,0,0,0,0,,,,,,,,,,,,,,,,,,,,,,,,,1,7,25,16,,,,,,,,,,,,,,,,,,,,,prac,,,,,,,,,,,,,,,,,,,,,,,,,,,,,,,,,,,,,,,,1,1,2,negative,neutral,1015.3286286999937,1015.3286286999937,1015.3286286999937,1015.3286286999937,1016.2985378999874,1016.3648589999939,k,k,1,0.6793818000005558,1017.0085017999954,1017.0085017999954,1017.0085017999954,1017.0085017999954,1017.0085017999954,1017.0085017999954,,,,,,,,,,,317,2022-12-08_12h19.43.811,Main,2022.2.2,60.2318927877292,
positive,neutral,2,k,k,1,0,1,0,0,0,0,0,,,,,,,,,,,,,,,,,,,,,,,,,1,8,26,13,,,,,,,,,,,,,,,,,,,,,prac,,,,,,,,,,,,,,,,,,,,,,,,,,,,,,,,,,,,,,,,2,2,2,positive,neutral,1017.0085017999954,1017.0085017999954,1017.0085017999954,1017.0085017999954,1018.0060769999982,1018.0376412999904,k,k,1,0.686277600005269,1018.6933469999931,1018.6933469999931,1018.6933469999931,1018.6933469999931,1018.6933469999931,1018.6933469999931,,,,,,,,,,,317,2022-12-08_12h19.43.811,Main,2022.2.2,60.2318927877292,
positive,positive,2,l,j,1,0,1,0,0,0,0,0,,,,,,,,,,,,,,,,,,,,,,,,,1,9,27,11,,,,,,,,,,,,,,,,,,,,,prac,,,,,,,,,,,,,,,,,,,,,,,,,,,,,,,,,,,,,,,,2,2,2,positive,positive,1018.6933469999931,1018.6933469999931,1018.6933469999931,1018.6933469999931,1019.6689217999956,1019.7361170999939,j,j,1,0.8743004999996629,1020.5693527999974,1020.5693527999974,1020.5693527999974,1020.5693527999974,1020.5693527999974,1020.5693527999974,,,,,,,,,,,317,2022-12-08_12h19.43.811,Main,2022.2.2,60.2318927877292,
negative,negative,1,j,l,1,0,1,0,0,0,0,0,,,,,,,,,,,,,,,,,,,,,,,,,1,10,28,0,,,,,,,,,,,,,,,,,,,,,prac,,,,,,,,,,,,,,,,,,,,,,,,,,,,,,,,,,,,,,,,2,2,1,negative,negative,1020.5693527999974,1020.5693527999974,1020.5693527999974,1020.5693527999974,1021.5474571999948,1021.6259701999952,l,l,1,0.9310745000111638,1022.506601599991,1022.506601599991,1022.506601599991,1022.506601599991,1022.506601599991,1022.506601599991,,,,,,,,,,,317,2022-12-08_12h19.43.811,Main,2022.2.2,60.2318927877292,
positive,positive,1,l,j,1,0,1,0,0,0,0,0,,,,,,,,,,,,,,,,,,,,,,,,,1,11,29,2,,,,,,,,,,,,,,,,,,,,,prac,,,,,,,,,,,,,,,,,,,,,,,,,,,,,,,,,,,,,,,,1,1,1,positive,positive,1022.506601599991,1022.506601599991,1022.506601599991,1022.506601599991,1023.4907294000004,1023.5215933,j,j,1,1.0142106999992393,1024.5197851999983,1024.5197851999983,1024.5197851999983,1024.5197851999983,1024.5197851999983,1024.5197851999983,,,,,,,,,,,317,2022-12-08_12h19.43.811,Main,2022.2.2,60.2318927877292,
neutral,negative,2,j,l,1,0,1,0,0,0,0,0,,,,,,,,,,,,,,,,,,,,,,,,,1,12,30,12,,,,,,,,,,,,,,,,,,,,,prac,,,,,,,,,,,,,,,,,,,,,,,,,,,,,,,,,,,,,,,,2,2,2,neutral,negative,1024.5197851999983,1024.5197851999983,1024.5197851999983,1024.5197851999983,1025.4951748999883,1025.5582045999909,l,l,1,0.9752961999911349,1026.498506399992,1026.498506399992,1026.498506399992,1026.498506399992,1026.498506399992,1026.498506399992,,,,,,,,,,,317,2022-12-08_12h19.43.811,Main,2022.2.2,60.2318927877292,
positive,negative,1,j,l,1,0,1,0,0,0,0,0,,,,,,,,,,,,,,,,,,,,,,,,,1,13,31,6,,,,,,,,,,,,,,,,,,,,,prac,,,,,,,,,,,,,,,,,,,,,,,,,,,,,,,,,,,,,,,,1,1,1,positive,negative,1026.498506399992,1026.498506399992,1026.498506399992,1026.498506399992,1027.4794421999977,1027.546475799987,l,l,1,0.875167500009411,1028.3785654999956,1028.3785654999956,1028.3785654999956,1028.3785654999956,1028.3785654999956,1028.3785654999956,,,,,,,,,,,317,2022-12-08_12h19.43.811,Main,2022.2.2,60.2318927877292,
neutral,positive,2,l,j,1,0,1,0,0,0,0,0,,,,,,,,,,,,,,,,,,,,,,,,,1,14,32,17,,,,,,,,,,,,,,,,,,,,,prac,,,,,,,,,,,,,,,,,,,,,,,,,,,,,,,,,,,,,,,,1,1,2,neutral,positive,1028.3785654999956,1028.3785654999956,1028.3785654999956,1028.3785654999956,1029.350258999999,1029.411441499993,j,j,1,0.9105500999867218,1030.2906280999887,1030.2906280999887,1030.2906280999887,1030.2906280999887,1030.2906280999887,1030.2906280999887,,,,,,,,,,,317,2022-12-08_12h19.43.811,Main,2022.2.2,60.2318927877292,
negative,positive,1,l,j,1,0,1,0,0,0,0,0,,,,,,,,,,,,,,,,,,,,,,,,,1,15,33,5,,,,,,,,,,,,,,,,,,,,,prac,,,,,,,,,,,,,,,,,,,,,,,,,,,,,,,,,,,,,,,,2,2,1,negative,positive,1030.2906280999887,1030.2906280999887,1030.2906280999887,1030.2906280999887,1031.2790084000007,1031.3099708999944,j,j,1,1.6401915999886114,1032.9061001999944,1032.9061001999944,1032.9061001999944,1033.9504676999932,1033.9504676999932,1033.9504676999932,,,,,,,,,,,317,2022-12-08_12h19.43.811,Main,2022.2.2,60.2318927877292,
neutral,negative,1,j,l,1,0,1,0,0,0,0,0,,,,,,,,,,,,,,,,,,,,,,,,,1,16,34,3,,,,,,,,,,,,,,,,,,,,,prac,,,,,,,,,,,,,,,,,,,,,,,,,,,,,,,,,,,,,,,,1,1,1,neutral,negative,1033.9504676999932,1033.9504676999932,1033.9504676999932,1033.9504676999932,1034.928908899994,1034.9918567999994,l,l,1,1.0474629000091227,1035.9991993000003,1035.9991993000003,1035.9991993000003,1035.9991993000003,1035.9991993000003,1035.9991993000003,,,,,,,,,,,317,2022-12-08_12h19.43.811,Main,2022.2.2,60.2318927877292,
negative,positive,2,l,j,1,0,1,0,0,0,0,0,,,,,,,,,,,,,,,,,,,,,,,,,1,17,35,14,,,,,,,,,,,,,,,,,,,,,prac,,,,,,,,,,,,,,,,,,,,,,,,,,,,,,,,,,,,,,,,1,1,2,negative,positive,1035.9991993000003,1035.9991993000003,1035.9991993000003,1035.9991993000003,1036.975709899998,1037.0381511999876,j,j,1,0.8435733999940567,1037.8433686999924,1037.8433686999924,1037.8433686999924,1037.8433686999924,1037.8433686999924,1037.8433686999924,,,,,,,,,,,317,2022-12-08_12h19.43.811,Main,2022.2.2,60.2318927877292,
neutral,positive,2,l,j,1,0,1,0,0,0,0,0,,,,,,,,,,,,,,,,,,,,,,,,,,,,,0,0,0,17,,,,,,,,,,,,,,,,,main,,,,,,,,,,,,,,,,,,,,,,,,,,,,,,,,,,,,,,,1039.139165799992,2,2,2,neutral,positive,1041.191671099994,1041.191671099994,1041.191671099994,1041.191671099994,1042.2029609999881,1042.2337039999984,j,j,1,0.9824675000127172,1043.1886185999901,1043.1886185999901,1043.1886185999901,1043.1886185999901,1043.1886185999901,1043.1886185999901,1037.8433686999924,0.00020809999841731042,None,0.6157407407407407,-0.38055555555555554,0,0,0,,,317,2022-12-08_12h19.43.811,Main,2022.2.2,60.2318927877292,
