target,distractor,set,ans1,ans2,total_experiment.thisRepN,total_experiment.thisTrialN,total_experiment.thisN,total_experiment.thisIndex,boat.thisRepN,boat.thisTrialN,boat.thisN,boat.thisIndex,fl_rep_loop2.thisRepN,fl_rep_loop2.thisTrialN,fl_rep_loop2.thisN,fl_rep_loop2.thisIndex,flanker_prac_loop.thisRepN,flanker_prac_loop.thisTrialN,flanker_prac_loop.thisN,flanker_prac_loop.thisIndex,flanker_main_loop.thisRepN,flanker_main_loop.thisTrialN,flanker_main_loop.thisN,flanker_main_loop.thisIndex,flanker_rest.thisRepN,flanker_rest.thisTrialN,flanker_rest.thisN,flanker_rest.thisIndex,para.thisRepN,para.thisTrialN,para.thisN,para.thisIndex,para_rep_loop.thisRepN,para_rep_loop.thisTrialN,para_rep_loop.thisN,para_rep_loop.thisIndex,para_prac_loop.thisRepN,para_prac_loop.thisTrialN,para_prac_loop.thisN,para_prac_loop.thisIndex,para_main_loop.thisRepN,para_main_loop.thisTrialN,para_main_loop.thisN,para_main_loop.thisIndex,para_rest.thisRepN,para_rest.thisTrialN,para_rest.thisN,para_rest.thisIndex,fl_starter_back.started,fl_starter.started,fl_starter_text.started,fl_starter.keys,fl_starter.rt,fl_inst_resp.keys,fl_inst_resp.rt,fl_back.started,fl_mouse_prac.started,fl_mouse_prac.x,fl_mouse_prac.y,fl_mouse_prac.leftButton,fl_mouse_prac.midButton,fl_mouse_prac.rightButton,back_2.started,main_prac,fl_cold,fl_colt,fl_set,fl_dcond,fl_tcond,fl_fix.started,j_button.started,k_button.started,l_button.started,targ.started,fl_fix.stopped,fl_ans,fl_res,fl_corr,fl_rt,j_button2.started,k_button2.started,l_button2.started,j_button2.stopped,k_button2.stopped,l_button2.stopped,fl_mainback.started,fl_mouse_m.started,fl_key_resp.keys,fl_mouse_m.x,fl_mouse_m.y,fl_mouse_m.leftButton,fl_mouse_m.midButton,fl_mouse_m.rightButton,rest_text.started,rest_key.started,rest_inst_text.started,rest_time.started,rest_key.keys,exp_end_key.started,exp_end_back.started,exp_end_text.started,exp_end_key.keys,exp_end_key.rt,para_starter.started,para_starter_key.started,para_starter_key.keys,para_starter_key.rt,para_inst_sound.started,para_inst_key.keys,para_inst_key.rt,para_inst_image.started,para_prac_back.started,para_prac_text.started,para_fix_back.started,para_fix_2.started,para_back.started,st_ans,st_res,st_corr,st_rt,st2_resp.keys,st2_resp.corr,para_main_back.started,para_main_text.started,para_mouse.started,para_mouse.x,para_mouse.y,para_mouse.leftButton,para_mouse.midButton,para_mouse.rightButton,total_end_text.started,id*,date,expName,psychopyVersion,frameRate,
,,,,,0,0,0,0,0,0,0,0,0,0,0,0,,,,,,,,,,,,,,,,,,,,,,,,,,,,,,,,,82.57933020000019,82.57933020000019,84.48615950000021,space,2.8923346999995374,space,59.177117299999736,145.72321740000007,,,,,,,,,,,,,,,,,,,,,,,,,,,,,,,,,,,,,,,,,,,,,,,,,,,,,,,,,,,,,,,,,,,,,,,,,,,,320,2023-02-06_12h58.05.810,Main,2022.2.2,60.129217688808296,
positive,negative,1,l,j,0,0,0,0,0,0,0,0,,,,,0,0,0,5,,,,,,,,,,,,,,,,,,,,,,,,,,,,,,,,,,,,,0.004532699999799661,0.12685185185185185,-0.42314814814814816,0,0,0,149.0726794000002,prac,2,2,1,negative,positive,151.28746980000005,151.28746980000005,151.28746980000005,151.28746980000005,152.25287079999998,152.32095729999992,l,l,1,2.9465649000003395,155.23348699999997,155.23348699999997,155.23348699999997,156.28654570000026,156.28654570000026,156.28654570000026,,,,,,,,,,,,,,,,,,,,,,,,,,,,,,,,,,,,,,,,,,,,,,,320,2023-02-06_12h58.05.810,Main,2022.2.2,60.129217688808296,
positive,neutral,2,l,j,0,0,0,0,0,0,0,0,,,,,0,1,1,17,,,,,,,,,,,,,,,,,,,,,,,,,,,,,,,,,,,,,,,,,,,,prac,2,2,2,neutral,positive,156.28654570000026,156.28654570000026,156.28654570000026,156.28654570000026,157.25471900000002,157.31805090000034,l,l,1,1.319443500000034,158.61396530000002,158.61396530000002,158.61396530000002,158.61396530000002,158.61396530000002,158.61396530000002,,,,,,,,,,,,,,,,,,,,,,,,,,,,,,,,,,,,,,,,,,,,,,,320,2023-02-06_12h58.05.810,Main,2022.2.2,60.129217688808296,
negative,neutral,1,j,l,0,0,0,0,0,0,0,0,,,,,0,2,2,3,,,,,,,,,,,,,,,,,,,,,,,,,,,,,,,,,,,,,,,,,,,,prac,2,2,1,neutral,negative,158.61396530000002,158.61396530000002,158.61396530000002,158.61396530000002,159.60585840000022,159.63664900000003,j,j,1,1.7609152999998514,161.35760470000014,161.35760470000014,161.35760470000014,162.44466409999995,162.44466409999995,162.44466409999995,,,,,,,,,,,,,,,,,,,,,,,,,,,,,,,,,,,,,,,,,,,,,,,320,2023-02-06_12h58.05.810,Main,2022.2.2,60.129217688808296,
positive,positive,1,l,j,0,0,0,0,0,0,0,0,,,,,0,3,3,2,,,,,,,,,,,,,,,,,,,,,,,,,,,,,,,,,,,,,,,,,,,,prac,2,2,1,positive,positive,162.44466409999995,162.44466409999995,162.44466409999995,162.44466409999995,163.37360380000018,163.47406730000012,l,l,1,1.6470343000000867,165.02322219999996,165.02322219999996,165.02322219999996,166.07220780000034,166.07220780000034,166.07220780000034,,,,,,,,,,,,,,,,,,,,,,,,,,,,,,,,,,,,,,,,,,,,,,,320,2023-02-06_12h58.05.810,Main,2022.2.2,60.129217688808296,
negative,positive,1,j,l,0,0,0,0,0,0,0,0,,,,,0,4,4,6,,,,,,,,,,,,,,,,,,,,,,,,,,,,,,,,,,,,,,,,,,,,prac,2,2,1,positive,negative,166.07220780000034,166.07220780000034,166.07220780000034,166.07220780000034,167.0465623,167.11294220000036,j,j,1,1.5551735999997618,168.59838639999998,168.59838639999998,168.59838639999998,169.65038090000007,169.65038090000007,169.65038090000007,,,,,,,,,,,,,,,,,,,,,,,,,,,,,,,,,,,,,,,,,,,,,,,320,2023-02-06_12h58.05.810,Main,2022.2.2,60.129217688808296,
neutral,positive,2,k,k,0,0,0,0,0,0,0,0,,,,,0,5,5,13,,,,,,,,,,,,,,,,,,,,,,,,,,,,,,,,,,,,,,,,,,,,prac,1,1,2,positive,neutral,169.65038090000007,169.65038090000007,169.65038090000007,169.65038090000007,170.62786200000028,170.6888630000003,k,k,1,1.4076999999997497,172.08826810000028,172.08826810000028,172.08826810000028,172.08826810000028,172.08826810000028,172.08826810000028,,,,,,,,,,,,,,,,,,,,,,,,,,,,,,,,,,,,,,,,,,,,,,,320,2023-02-06_12h58.05.810,Main,2022.2.2,60.129217688808296,
negative,negative,2,j,l,0,0,0,0,0,0,0,0,,,,,0,6,6,9,,,,,,,,,,,,,,,,,,,,,,,,,,,,,,,,,,,,,,,,,,,,prac,1,1,2,negative,negative,172.08826810000028,172.08826810000028,172.08826810000028,172.08826810000028,173.04517410000017,173.10631280000007,j,j,1,1.3244928999997683,174.43399420000014,174.43399420000014,174.43399420000014,174.43399420000014,174.43399420000014,174.43399420000014,,,,,,,,,,,,,,,,,,,,,,,,,,,,,,,,,,,,,,,,,,,,,,,320,2023-02-06_12h58.05.810,Main,2022.2.2,60.129217688808296,
neutral,positive,1,k,k,0,0,0,0,0,0,0,0,,,,,0,7,7,4,,,,,,,,,,,,,,,,,,,,,,,,,,,,,,,,,,,,,,,,,,,,prac,1,1,1,positive,neutral,174.43399420000014,174.43399420000014,174.43399420000014,174.43399420000014,175.3729304000003,175.4694787000003,k,k,1,1.0999746000002233,176.48807880000004,176.48807880000004,176.48807880000004,176.48807880000004,176.48807880000004,176.48807880000004,,,,,,,,,,,,,,,,,,,,,,,,,,,,,,,,,,,,,,,,,,,,,,,320,2023-02-06_12h58.05.810,Main,2022.2.2,60.129217688808296,
negative,positive,2,j,l,0,0,0,0,0,0,0,0,,,,,0,8,8,15,,,,,,,,,,,,,,,,,,,,,,,,,,,,,,,,,,,,,,,,,,,,prac,2,2,2,positive,negative,176.48807880000004,176.48807880000004,176.48807880000004,176.48807880000004,177.47509370000034,177.5099551000003,j,j,1,1.5474174999999377,179.00474750000012,179.00474750000012,179.00474750000012,180.05034890000024,180.05034890000024,180.05034890000024,,,,,,,,,,,,,,,,,,,,,,,,,,,,,,,,,,,,,,,,,,,,,,,320,2023-02-06_12h58.05.810,Main,2022.2.2,60.129217688808296,
neutral,neutral,2,k,k,0,0,0,0,0,0,0,0,,,,,0,9,9,10,,,,,,,,,,,,,,,,,,,,,,,,,,,,,,,,,,,,,,,,,,,,prac,2,2,2,neutral,neutral,180.05034890000024,180.05034890000024,180.05034890000024,180.05034890000024,181.02322159999994,181.09062360000007,k,k,1,0.9663439999999355,182.02558640000007,182.02558640000007,182.02558640000007,182.02558640000007,182.02558640000007,182.02558640000007,,,,,,,,,,,,,,,,,,,,,,,,,,,,,,,,,,,,,,,,,,,,,,,320,2023-02-06_12h58.05.810,Main,2022.2.2,60.129217688808296,
negative,negative,1,j,l,0,0,0,0,0,0,0,0,,,,,0,10,10,0,,,,,,,,,,,,,,,,,,,,,,,,,,,,,,,,,,,,,,,,,,,,prac,1,1,1,negative,negative,182.02558640000007,182.02558640000007,182.02558640000007,182.02558640000007,183.01459980000027,183.04358989999992,j,j,1,1.0783787999998822,184.10486360000004,184.10486360000004,184.10486360000004,184.10486360000004,184.10486360000004,184.10486360000004,,,,,,,,,,,,,,,,,,,,,,,,,,,,,,,,,,,,,,,,,,,,,,,320,2023-02-06_12h58.05.810,Main,2022.2.2,60.129217688808296,
positive,positive,2,l,j,0,0,0,0,0,0,0,0,,,,,0,11,11,11,,,,,,,,,,,,,,,,,,,,,,,,,,,,,,,,,,,,,,,,,,,,prac,2,2,2,positive,positive,184.10486360000004,184.10486360000004,184.10486360000004,184.10486360000004,185.09727909999992,185.12876240000014,l,l,1,0.9819127999999182,186.0876647,186.0876647,186.0876647,186.0876647,186.0876647,186.0876647,,,,,,,,,,,,,,,,,,,,,,,,,,,,,,,,,,,,,,,,,,,,,,,320,2023-02-06_12h58.05.810,Main,2022.2.2,60.129217688808296,
neutral,negative,2,k,k,0,0,0,0,0,0,0,0,,,,,0,12,12,16,,,,,,,,,,,,,,,,,,,,,,,,,,,,,,,,,,,,,,,,,,,,prac,1,1,2,negative,neutral,186.0876647,186.0876647,186.0876647,186.0876647,187.08244409999998,187.11258720000023,k,k,1,0.9549928999999793,188.04678220000005,188.04678220000005,188.04678220000005,188.04678220000005,188.04678220000005,188.04678220000005,,,,,,,,,,,,,,,,,,,,,,,,,,,,,,,,,,,,,,,,,,,,,,,320,2023-02-06_12h58.05.810,Main,2022.2.2,60.129217688808296,
positive,negative,2,l,j,0,0,0,0,0,0,0,0,,,,,0,13,13,14,,,,,,,,,,,,,,,,,,,,,,,,,,,,,,,,,,,,,,,,,,,,prac,2,2,2,negative,positive,188.04678220000005,188.04678220000005,188.04678220000005,188.04678220000005,189.04315270000006,189.0753009,l,l,1,0.7971345999999357,189.84666689999995,189.84666689999995,189.84666689999995,189.84666689999995,189.84666689999995,189.84666689999995,,,,,,,,,,,,,,,,,,,,,,,,,,,,,,,,,,,,,,,,,,,,,,,320,2023-02-06_12h58.05.810,Main,2022.2.2,60.129217688808296,
neutral,negative,1,k,k,0,0,0,0,0,0,0,0,,,,,0,14,14,7,,,,,,,,,,,,,,,,,,,,,,,,,,,,,,,,,,,,,,,,,,,,prac,2,2,1,negative,neutral,189.84666689999995,189.84666689999995,189.84666689999995,189.84666689999995,190.8221398999999,190.88251880000007,k,k,1,1.0449394999996002,191.89746330000025,191.89746330000025,191.89746330000025,191.89746330000025,191.89746330000025,191.89746330000025,,,,,,,,,,,,,,,,,,,,,,,,,,,,,,,,,,,,,,,,,,,,,,,320,2023-02-06_12h58.05.810,Main,2022.2.2,60.129217688808296,
positive,neutral,1,l,j,0,0,0,0,0,0,0,0,,,,,0,15,15,8,,,,,,,,,,,,,,,,,,,,,,,,,,,,,,,,,,,,,,,,,,,,prac,1,1,1,neutral,positive,191.89746330000025,191.89746330000025,191.89746330000025,191.89746330000025,192.86188140000013,192.92470950000006,l,l,1,1.5378935999997339,194.40834710000036,194.40834710000036,194.40834710000036,195.44930390000036,195.44930390000036,195.44930390000036,,,,,,,,,,,,,,,,,,,,,,,,,,,,,,,,,,,,,,,,,,,,,,,320,2023-02-06_12h58.05.810,Main,2022.2.2,60.129217688808296,
negative,neutral,2,j,l,0,0,0,0,0,0,0,0,,,,,0,16,16,12,,,,,,,,,,,,,,,,,,,,,,,,,,,,,,,,,,,,,,,,,,,,prac,2,2,2,neutral,negative,195.44930390000036,195.44930390000036,195.44930390000036,195.44930390000036,196.42513439999993,196.4851507000003,j,j,1,0.936008000000129,197.38807590000033,197.38807590000033,197.38807590000033,197.38807590000033,197.38807590000033,197.38807590000033,,,,,,,,,,,,,,,,,,,,,,,,,,,,,,,,,,,,,,,,,,,,,,,320,2023-02-06_12h58.05.810,Main,2022.2.2,60.129217688808296,
neutral,neutral,1,k,k,0,0,0,0,0,0,0,0,,,,,0,17,17,1,,,,,,,,,,,,,,,,,,,,,,,,,,,,,,,,,,,,,,,,,,,,prac,2,2,1,neutral,neutral,197.38807590000033,197.38807590000033,197.38807590000033,197.38807590000033,198.3701433000001,198.4414270000002,k,k,1,0.8967674999998962,199.2918764000001,199.2918764000001,199.2918764000001,199.2918764000001,199.2918764000001,199.2918764000001,,,,,,,,,,,,,,,,,,,,,,,,,,,,,,,,,,,,,,,,,,,,,,,320,2023-02-06_12h58.05.810,Main,2022.2.2,60.129217688808296,
negative,neutral,2,j,l,0,0,0,0,0,0,0,0,,,,,1,0,18,12,,,,,,,,,,,,,,,,,,,,,,,,,,,,,,,,,,,,,,,,,,,,prac,2,2,2,neutral,negative,199.2918764000001,199.2918764000001,199.2918764000001,199.2918764000001,200.2870223,200.32458600000018,j,j,1,0.9275597999999263,201.22184640000023,201.22184640000023,201.22184640000023,201.22184640000023,201.22184640000023,201.22184640000023,,,,,,,,,,,,,,,,,,,,,,,,,,,,,,,,,,,,,,,,,,,,,,,320,2023-02-06_12h58.05.810,Main,2022.2.2,60.129217688808296,
positive,positive,1,l,j,0,0,0,0,0,0,0,0,,,,,1,1,19,2,,,,,,,,,,,,,,,,,,,,,,,,,,,,,,,,,,,,,,,,,,,,prac,2,2,1,positive,positive,201.22184640000023,201.22184640000023,201.22184640000023,201.22184640000023,202.21289350000006,202.24514550000004,l,l,1,0.9868011999997179,203.21311160000005,203.21311160000005,203.21311160000005,203.21311160000005,203.21311160000005,203.21311160000005,,,,,,,,,,,,,,,,,,,,,,,,,,,,,,,,,,,,,,,,,,,,,,,320,2023-02-06_12h58.05.810,Main,2022.2.2,60.129217688808296,
neutral,negative,2,k,k,0,0,0,0,0,0,0,0,,,,,1,2,20,16,,,,,,,,,,,,,,,,,,,,,,,,,,,,,,,,,,,,,,,,,,,,prac,2,2,2,negative,neutral,203.21311160000005,203.21311160000005,203.21311160000005,203.21311160000005,204.2034748000001,204.23474140000008,k,k,1,0.8845452000000478,205.09741970000005,205.09741970000005,205.09741970000005,205.09741970000005,205.09741970000005,205.09741970000005,,,,,,,,,,,,,,,,,,,,,,,,,,,,,,,,,,,,,,,,,,,,,,,320,2023-02-06_12h58.05.810,Main,2022.2.2,60.129217688808296,
positive,positive,2,l,j,0,0,0,0,0,0,0,0,,,,,1,3,21,11,,,,,,,,,,,,,,,,,,,,,,,,,,,,,,,,,,,,,,,,,,,,prac,1,1,2,positive,positive,205.09741970000005,205.09741970000005,205.09741970000005,205.09741970000005,206.0971827000003,206.13393730000007,l,l,1,0.757184099999904,206.84812550000015,206.84812550000015,206.84812550000015,206.84812550000015,206.84812550000015,206.84812550000015,,,,,,,,,,,,,,,,,,,,,,,,,,,,,,,,,,,,,,,,,,,,,,,320,2023-02-06_12h58.05.810,Main,2022.2.2,60.129217688808296,
neutral,neutral,1,k,k,0,0,0,0,0,0,0,0,,,,,1,4,22,1,,,,,,,,,,,,,,,,,,,,,,,,,,,,,,,,,,,,,,,,,,,,prac,2,2,1,neutral,neutral,206.84812550000015,206.84812550000015,206.84812550000015,206.84812550000015,207.83548710000014,207.86749069999996,k,k,1,0.8270273999996789,208.6852501000003,208.6852501000003,208.6852501000003,208.6852501000003,208.6852501000003,208.6852501000003,,,,,,,,,,,,,,,,,,,,,,,,,,,,,,,,,,,,,,,,,,,,,,,320,2023-02-06_12h58.05.810,Main,2022.2.2,60.129217688808296,
positive,negative,1,l,j,0,0,0,0,0,0,0,0,,,,,1,5,23,5,,,,,,,,,,,,,,,,,,,,,,,,,,,,,,,,,,,,,,,,,,,,prac,1,1,1,negative,positive,208.6852501000003,208.6852501000003,208.6852501000003,208.6852501000003,209.6717761,209.70592669999996,l,j,0,1.1592442999999548,210.84258630000022,210.84258630000022,210.84258630000022,211.88555780000024,211.88555780000024,211.88555780000024,,,,,,,,,,,,,,,,,,,,,,,,,,,,,,,,,,,,,,,,,,,,,,,320,2023-02-06_12h58.05.810,Main,2022.2.2,60.129217688808296,
negative,negative,1,j,l,0,0,0,0,0,0,0,0,,,,,1,6,24,0,,,,,,,,,,,,,,,,,,,,,,,,,,,,,,,,,,,,,,,,,,,,prac,2,2,1,negative,negative,211.88555780000024,211.88555780000024,211.88555780000024,211.88555780000024,212.86421480000035,212.93189980000034,j,j,1,1.2234057000000575,214.11538580000024,214.11538580000024,214.11538580000024,214.11538580000024,214.11538580000024,214.11538580000024,,,,,,,,,,,,,,,,,,,,,,,,,,,,,,,,,,,,,,,,,,,,,,,320,2023-02-06_12h58.05.810,Main,2022.2.2,60.129217688808296,
positive,neutral,1,l,j,0,0,0,0,0,0,0,0,,,,,1,7,25,8,,,,,,,,,,,,,,,,,,,,,,,,,,,,,,,,,,,,,,,,,,,,prac,2,2,1,neutral,positive,214.11538580000024,214.11538580000024,214.11538580000024,214.11538580000024,215.1146050000002,215.14541800000006,l,l,1,1.0870442999998886,216.2113833000003,216.2113833000003,216.2113833000003,216.2113833000003,216.2113833000003,216.2113833000003,,,,,,,,,,,,,,,,,,,,,,,,,,,,,,,,,,,,,,,,,,,,,,,320,2023-02-06_12h58.05.810,Main,2022.2.2,60.129217688808296,
neutral,positive,2,k,k,0,0,0,0,0,0,0,0,,,,,1,8,26,13,,,,,,,,,,,,,,,,,,,,,,,,,,,,,,,,,,,,,,,,,,,,prac,1,1,2,positive,neutral,216.2113833000003,216.2113833000003,216.2113833000003,216.2113833000003,217.19428240000025,217.22781149999992,k,k,1,0.860883400000148,218.0725041999999,218.0725041999999,218.0725041999999,218.0725041999999,218.0725041999999,218.0725041999999,,,,,,,,,,,,,,,,,,,,,,,,,,,,,,,,,,,,,,,,,,,,,,,320,2023-02-06_12h58.05.810,Main,2022.2.2,60.129217688808296,
neutral,negative,1,k,k,0,0,0,0,0,0,0,0,,,,,1,9,27,7,,,,,,,,,,,,,,,,,,,,,,,,,,,,,,,,,,,,,,,,,,,,prac,2,2,1,negative,neutral,218.0725041999999,218.0725041999999,218.0725041999999,218.0725041999999,219.0451825,219.11117980000017,k,k,1,1.014976200000092,220.0870831000002,220.0870831000002,220.0870831000002,220.0870831000002,220.0870831000002,220.0870831000002,,,,,,,,,,,,,,,,,,,,,,,,,,,,,,,,,,,,,,,,,,,,,,,320,2023-02-06_12h58.05.810,Main,2022.2.2,60.129217688808296,
negative,negative,2,j,l,0,0,0,0,0,0,0,0,,,,,1,10,28,9,,,,,,,,,,,,,,,,,,,,,,,,,,,,,,,,,,,,,,,,,,,,prac,1,1,2,negative,negative,220.0870831000002,220.0870831000002,220.0870831000002,220.0870831000002,221.0771907000003,221.1077679,j,j,1,0.7971907000001011,221.8871621000003,221.8871621000003,221.8871621000003,221.8871621000003,221.8871621000003,221.8871621000003,,,,,,,,,,,,,,,,,,,,,,,,,,,,,,,,,,,,,,,,,,,,,,,320,2023-02-06_12h58.05.810,Main,2022.2.2,60.129217688808296,
negative,positive,2,j,l,0,0,0,0,0,0,0,0,,,,,1,11,29,15,,,,,,,,,,,,,,,,,,,,,,,,,,,,,,,,,,,,,,,,,,,,prac,1,1,2,positive,negative,221.8871621000003,221.8871621000003,221.8871621000003,221.8871621000003,222.86902740000005,222.93714640000007,j,j,1,1.0389578999997866,223.93620660000033,223.93620660000033,223.93620660000033,223.93620660000033,223.93620660000033,223.93620660000033,,,,,,,,,,,,,,,,,,,,,,,,,,,,,,,,,,,,,,,,,,,,,,,320,2023-02-06_12h58.05.810,Main,2022.2.2,60.129217688808296,
positive,neutral,2,l,j,0,0,0,0,0,0,0,0,,,,,1,12,30,17,,,,,,,,,,,,,,,,,,,,,,,,,,,,,,,,,,,,,,,,,,,,prac,2,2,2,neutral,positive,223.93620660000033,223.93620660000033,223.93620660000033,223.93620660000033,224.91252340000028,224.97250190000022,l,l,1,0.7998354999999719,225.7334552000002,225.7334552000002,225.7334552000002,225.7334552000002,225.7334552000002,225.7334552000002,,,,,,,,,,,,,,,,,,,,,,,,,,,,,,,,,,,,,,,,,,,,,,,320,2023-02-06_12h58.05.810,Main,2022.2.2,60.129217688808296,
neutral,positive,1,k,k,0,0,0,0,0,0,0,0,,,,,1,13,31,4,,,,,,,,,,,,,,,,,,,,,,,,,,,,,,,,,,,,,,,,,,,,prac,2,2,1,positive,neutral,225.7334552000002,225.7334552000002,225.7334552000002,225.7334552000002,226.7194324000002,226.7496758000002,k,k,1,0.8062299000002895,227.54328920000034,227.54328920000034,227.54328920000034,227.54328920000034,227.54328920000034,227.54328920000034,,,,,,,,,,,,,,,,,,,,,,,,,,,,,,,,,,,,,,,,,,,,,,,320,2023-02-06_12h58.05.810,Main,2022.2.2,60.129217688808296,
positive,negative,2,l,j,0,0,0,0,0,0,0,0,,,,,1,14,32,14,,,,,,,,,,,,,,,,,,,,,,,,,,,,,,,,,,,,,,,,,,,,prac,1,1,2,negative,positive,227.54328920000034,227.54328920000034,227.54328920000034,227.54328920000034,228.54020710000032,228.57111430000032,l,l,1,0.903186800000185,229.44704219999994,229.44704219999994,229.44704219999994,229.44704219999994,229.44704219999994,229.44704219999994,,,,,,,,,,,,,,,,,,,,,,,,,,,,,,,,,,,,,,,,,,,,,,,320,2023-02-06_12h58.05.810,Main,2022.2.2,60.129217688808296,
negative,positive,1,j,l,0,0,0,0,0,0,0,0,,,,,1,15,33,6,,,,,,,,,,,,,,,,,,,,,,,,,,,,,,,,,,,,,,,,,,,,prac,2,2,1,positive,negative,229.44704219999994,229.44704219999994,229.44704219999994,229.44704219999994,230.4530866,230.48662330000025,j,j,1,0.9656006000000161,231.4180666000002,231.4180666000002,231.4180666000002,231.4180666000002,231.4180666000002,231.4180666000002,,,,,,,,,,,,,,,,,,,,,,,,,,,,,,,,,,,,,,,,,,,,,,,320,2023-02-06_12h58.05.810,Main,2022.2.2,60.129217688808296,
negative,neutral,1,j,l,0,0,0,0,0,0,0,0,,,,,1,16,34,3,,,,,,,,,,,,,,,,,,,,,,,,,,,,,,,,,,,,,,,,,,,,prac,2,2,1,neutral,negative,231.4180666000002,231.4180666000002,231.4180666000002,231.4180666000002,232.3977036000001,232.45996140000034,j,j,1,0.8434627999999975,233.2620380000003,233.2620380000003,233.2620380000003,233.2620380000003,233.2620380000003,233.2620380000003,,,,,,,,,,,,,,,,,,,,,,,,,,,,,,,,,,,,,,,,,,,,,,,320,2023-02-06_12h58.05.810,Main,2022.2.2,60.129217688808296,
neutral,neutral,2,k,k,0,0,0,0,0,0,0,0,,,,,1,17,35,10,,,,,,,,,,,,,,,,,,,,,,,,,,,,,,,,,,,,,,,,,,,,prac,2,2,2,neutral,neutral,233.2620380000003,233.2620380000003,233.2620380000003,233.2620380000003,234.23599689999992,234.29686029999993,k,k,1,0.6497804000000542,234.90038800000002,234.90038800000002,234.90038800000002,234.90038800000002,234.90038800000002,234.90038800000002,,,,,,,,,,,,,,,,,,,,,,,,,,,,,,,,,,,,,,,,,,,,,,,320,2023-02-06_12h58.05.810,Main,2022.2.2,60.129217688808296,
negative,negative,1,j,l,0,0,0,0,0,0,0,0,,,,,,,,,0,0,0,0,,,,,,,,,,,,,,,,,,,,,,,,,,,,,,,,,,,,,,,237.40247690000024,main,1,1,1,negative,negative,239.4533246000001,239.4533246000001,239.4533246000001,239.4533246000001,240.44713850000016,240.48368800000026,j,j,1,1.6213622000000214,242.06116520000023,242.06116520000023,242.06116520000023,243.09907040000007,243.09907040000007,243.09907040000007,234.90038800000002,0.00022659999967800104,None,0.15,-0.12222222222222222,0,0,0,,,,,,,,,,,,,,,,,,,,,,,,,,,,,,,,,,,,,,,320,2023-02-06_12h58.05.810,Main,2022.2.2,60.129217688808296,
neutral,positive,2,k,k,0,0,0,0,0,0,0,0,,,,,,,,,0,1,1,13,,,,,,,,,,,,,,,,,,,,,,,,,,,,,,,,,,,,,,,,main,2,2,2,positive,neutral,243.09907040000007,243.09907040000007,243.09907040000007,243.09907040000007,244.07217919999994,244.13468030000013,k,k,1,1.0077914000003148,245.11925689999998,245.11925689999998,245.11925689999998,245.11925689999998,245.11925689999998,245.11925689999998,,,,,,,,,,,,,,,,,,,,,,,,,,,,,,,,,,,,,,,,,,,,,,,320,2023-02-06_12h58.05.810,Main,2022.2.2,60.129217688808296,
positive,positive,1,l,j,0,0,0,0,0,0,0,0,,,,,,,,,0,2,2,2,,,,,,,,,,,,,,,,,,,,,,,,,,,,,,,,,,,,,,,,main,2,2,1,positive,positive,245.11925689999998,245.11925689999998,245.11925689999998,245.11925689999998,246.11263820000022,246.14939619999996,l,l,1,0.9144486000000143,247.03447000000006,247.03447000000006,247.03447000000006,247.03447000000006,247.03447000000006,247.03447000000006,,,,,,,,,,,,,,,,,,,,,,,,,,,,,,,,,,,,,,,,,,,,,,,320,2023-02-06_12h58.05.810,Main,2022.2.2,60.129217688808296,
neutral,negative,2,k,k,0,0,0,0,0,0,0,0,,,,,,,,,0,3,3,16,,,,,,,,,,,,,,,,,,,,,,,,,,,,,,,,,,,,,,,,main,1,1,2,negative,neutral,247.03447000000006,247.03447000000006,247.03447000000006,247.03447000000006,248.03343910000012,248.0652259000003,k,k,1,0.9618427000000338,248.9993171000001,248.9993171000001,248.9993171000001,248.9993171000001,248.9993171000001,248.9993171000001,,,,,,,,,,,,,,,,,,,,,,,,,,,,,,,,,,,,,,,,,,,,,,,320,2023-02-06_12h58.05.810,Main,2022.2.2,60.129217688808296,
negative,neutral,2,j,l,0,0,0,0,0,0,0,0,,,,,,,,,0,4,4,12,,,,,,,,,,,,,,,,,,,,,,,,,,,,,,,,,,,,,,,,main,1,1,2,neutral,negative,248.9993171000001,248.9993171000001,248.9993171000001,248.9993171000001,249.9941805000003,250.02405709999994,j,j,1,0.8873218000003362,250.89340489999995,250.89340489999995,250.89340489999995,250.89340489999995,250.89340489999995,250.89340489999995,,,,,,,,,,,,,,,,,,,,,,,,,,,,,,,,,,,,,,,,,,,,,,,320,2023-02-06_12h58.05.810,Main,2022.2.2,60.129217688808296,
positive,positive,2,l,j,0,0,0,0,0,0,0,0,,,,,,,,,0,5,5,11,,,,,,,,,,,,,,,,,,,,,,,,,,,,,,,,,,,,,,,,main,1,1,2,positive,positive,250.89340489999995,250.89340489999995,250.89340489999995,250.89340489999995,251.8853570000001,251.91793000000007,l,l,1,0.924861299999975,252.82307889999993,252.82307889999993,252.82307889999993,252.82307889999993,252.82307889999993,252.82307889999993,,,,,,,,,,,,,,,,,,,,,,,,,,,,,,,,,,,,,,,,,,,,,,,320,2023-02-06_12h58.05.810,Main,2022.2.2,60.129217688808296,
negative,neutral,1,j,l,0,0,0,0,0,0,0,0,,,,,,,,,0,6,6,3,,,,,,,,,,,,,,,,,,,,,,,,,,,,,,,,,,,,,,,,main,1,1,1,neutral,negative,252.82307889999993,252.82307889999993,252.82307889999993,252.82307889999993,253.8024203,253.8717256,j,j,1,0.887856499999998,254.71676030000026,254.71676030000026,254.71676030000026,254.71676030000026,254.71676030000026,254.71676030000026,,,,,,,,,,,,,,,,,,,,,,,,,,,,,,,,,,,,,,,,,,,,,,,320,2023-02-06_12h58.05.810,Main,2022.2.2,60.129217688808296,
neutral,neutral,2,k,k,0,0,0,0,0,0,0,0,,,,,,,,,0,7,7,10,,,,,,,,,,,,,,,,,,,,,,,,,,,,,,,,,,,,,,,,main,1,1,2,neutral,neutral,254.71676030000026,254.71676030000026,254.71676030000026,254.71676030000026,255.7002335000002,255.73170740000023,k,k,1,0.7982151999999587,256.5136115,256.5136115,256.5136115,256.5136115,256.5136115,256.5136115,,,,,,,,,,,,,,,,,,,,,,,,,,,,,,,,,,,,,,,,,,,,,,,320,2023-02-06_12h58.05.810,Main,2022.2.2,60.129217688808296,
positive,negative,2,l,j,0,0,0,0,0,0,0,0,,,,,,,,,0,8,8,14,,,,,,,,,,,,,,,,,,,,,,,,,,,,,,,,,,,,,,,,main,2,2,2,negative,positive,256.5136115,256.5136115,256.5136115,256.5136115,257.50455200000033,257.53618400000005,l,l,1,1.014890099999775,258.53401380000014,258.53401380000014,258.53401380000014,258.53401380000014,258.53401380000014,258.53401380000014,,,,,,,,,,,,,,,,,,,,,,,,,,,,,,,,,,,,,,,,,,,,,,,320,2023-02-06_12h58.05.810,Main,2022.2.2,60.129217688808296,
neutral,negative,1,k,k,0,0,0,0,0,0,0,0,,,,,,,,,0,9,9,7,,,,,,,,,,,,,,,,,,,,,,,,,,,,,,,,,,,,,,,,main,1,1,1,negative,neutral,258.53401380000014,258.53401380000014,258.53401380000014,258.53401380000014,259.5232705000003,259.5539939,k,k,1,0.8928651000001082,260.43540630000007,260.43540630000007,260.43540630000007,260.43540630000007,260.43540630000007,260.43540630000007,,,,,,,,,,,,,,,,,,,,,,,,,,,,,,,,,,,,,,,,,,,,,,,320,2023-02-06_12h58.05.810,Main,2022.2.2,60.129217688808296,
positive,neutral,1,l,j,0,0,0,0,0,0,0,0,,,,,,,,,0,10,10,8,,,,,,,,,,,,,,,,,,,,,,,,,,,,,,,,,,,,,,,,main,1,1,1,neutral,positive,260.43540630000007,260.43540630000007,260.43540630000007,260.43540630000007,261.4162157999999,261.47889110000006,l,l,1,0.8242070999999669,262.26460650000035,262.26460650000035,262.26460650000035,262.26460650000035,262.26460650000035,262.26460650000035,,,,,,,,,,,,,,,,,,,,,,,,,,,,,,,,,,,,,,,,,,,,,,,320,2023-02-06_12h58.05.810,Main,2022.2.2,60.129217688808296,
positive,negative,1,l,j,0,0,0,0,0,0,0,0,,,,,,,,,0,11,11,5,,,,,,,,,,,,,,,,,,,,,,,,,,,,,,,,,,,,,,,,main,1,1,1,negative,positive,262.26460650000035,262.26460650000035,262.26460650000035,262.26460650000035,263.25045530000034,263.2838863000002,l,l,1,0.8412718000004134,264.11538980000023,264.11538980000023,264.11538980000023,264.11538980000023,264.11538980000023,264.11538980000023,,,,,,,,,,,,,,,,,,,,,,,,,,,,,,,,,,,,,,,,,,,,,,,320,2023-02-06_12h58.05.810,Main,2022.2.2,60.129217688808296,
neutral,neutral,1,k,k,0,0,0,0,0,0,0,0,,,,,,,,,0,12,12,1,,,,,,,,,,,,,,,,,,,,,,,,,,,,,,,,,,,,,,,,main,2,2,1,neutral,neutral,264.11538980000023,264.11538980000023,264.11538980000023,264.11538980000023,265.1120811999999,265.1428528000001,k,k,1,0.8500491999998303,265.96642880000036,265.96642880000036,265.96642880000036,265.96642880000036,265.96642880000036,265.96642880000036,,,,,,,,,,,,,,,,,,,,,,,,,,,,,,,,,,,,,,,,,,,,,,,320,2023-02-06_12h58.05.810,Main,2022.2.2,60.129217688808296,
negative,positive,2,j,l,0,0,0,0,0,0,0,0,,,,,,,,,0,13,13,15,,,,,,,,,,,,,,,,,,,,,,,,,,,,,,,,,,,,,,,,main,1,1,2,positive,negative,265.96642880000036,265.96642880000036,265.96642880000036,265.96642880000036,266.9549151000001,266.9905939,j,j,1,0.7037230999999338,267.67751309999994,267.67751309999994,267.67751309999994,267.67751309999994,267.67751309999994,267.67751309999994,,,,,,,,,,,,,,,,,,,,,,,,,,,,,,,,,,,,,,,,,,,,,,,320,2023-02-06_12h58.05.810,Main,2022.2.2,60.129217688808296,
negative,positive,1,j,l,0,0,0,0,0,0,0,0,,,,,,,,,0,14,14,6,,,,,,,,,,,,,,,,,,,,,,,,,,,,,,,,,,,,,,,,main,2,2,1,positive,negative,267.67751309999994,267.67751309999994,267.67751309999994,267.67751309999994,268.66228960000035,268.6934150000002,j,j,1,1.4308797999997296,270.10946220000005,270.10946220000005,270.10946220000005,270.10946220000005,270.10946220000005,270.10946220000005,,,,,,,,,,,,,,,,,,,,,,,,,,,,,,,,,,,,,,,,,,,,,,,320,2023-02-06_12h58.05.810,Main,2022.2.2,60.129217688808296,
positive,neutral,2,l,j,0,0,0,0,0,0,0,0,,,,,,,,,0,15,15,17,,,,,,,,,,,,,,,,,,,,,,,,,,,,,,,,,,,,,,,,main,1,1,2,neutral,positive,270.10946220000005,270.10946220000005,270.10946220000005,270.10946220000005,271.09006980000004,271.1507891000001,l,l,1,0.8427974000001086,271.9592573,271.9592573,271.9592573,271.9592573,271.9592573,271.9592573,,,,,,,,,,,,,,,,,,,,,,,,,,,,,,,,,,,,,,,,,,,,,,,320,2023-02-06_12h58.05.810,Main,2022.2.2,60.129217688808296,
neutral,positive,1,k,k,0,0,0,0,0,0,0,0,,,,,,,,,0,16,16,4,,,,,,,,,,,,,,,,,,,,,,,,,,,,,,,,,,,,,,,,main,2,2,1,positive,neutral,271.9592573,271.9592573,271.9592573,271.9592573,272.9591338,272.9892116000001,k,k,1,0.8971317999998973,273.8598572000001,273.8598572000001,273.8598572000001,273.8598572000001,273.8598572000001,273.8598572000001,,,,,,,,,,,,,,,,,,,,,,,,,,,,,,,,,,,,,,,,,,,,,,,320,2023-02-06_12h58.05.810,Main,2022.2.2,60.129217688808296,
negative,negative,2,j,l,0,0,0,0,0,0,0,0,,,,,,,,,0,17,17,9,,,,,,,,,,,,,,,,,,,,,,,,,,,,,,,,,,,,,,,,main,2,2,2,negative,negative,273.8598572000001,273.8598572000001,273.8598572000001,273.8598572000001,274.83737050000036,274.89877879999995,j,j,1,0.9226292000003014,275.78808100000015,275.78808100000015,275.78808100000015,275.78808100000015,275.78808100000015,275.78808100000015,,,,,,,,,,,,,,,,,,,,,,,,,,,,,,,,,,,,,,,,,,,,,,,320,2023-02-06_12h58.05.810,Main,2022.2.2,60.129217688808296,
negative,neutral,2,j,l,0,0,0,0,0,0,0,0,,,,,,,,,1,0,18,12,,,,,,,,,,,,,,,,,,,,,,,,,,,,,,,,,,,,,,,,main,2,2,2,neutral,negative,275.78808100000015,275.78808100000015,275.78808100000015,275.78808100000015,276.77762600000005,276.8145720000002,j,j,1,0.9673111000001882,277.75818070000014,277.75818070000014,277.75818070000014,277.75818070000014,277.75818070000014,277.75818070000014,,,,,,,,,,,,,,,,,,,,,,,,,,,,,,,,,,,,,,,,,,,,,,,320,2023-02-06_12h58.05.810,Main,2022.2.2,60.129217688808296,
neutral,negative,1,k,k,0,0,0,0,0,0,0,0,,,,,,,,,1,1,19,7,,,,,,,,,,,,,,,,,,,,,,,,,,,,,,,,,,,,,,,,main,1,1,1,negative,neutral,277.75818070000014,277.75818070000014,277.75818070000014,277.75818070000014,278.7469722000001,278.78074330000027,k,k,1,0.7954289999997854,279.55785620000006,279.55785620000006,279.55785620000006,279.55785620000006,279.55785620000006,279.55785620000006,,,,,,,,,,,,,,,,,,,,,,,,,,,,,,,,,,,,,,,,,,,,,,,320,2023-02-06_12h58.05.810,Main,2022.2.2,60.129217688808296,
neutral,positive,1,k,k,0,0,0,0,0,0,0,0,,,,,,,,,1,2,20,4,,,,,,,,,,,,,,,,,,,,,,,,,,,,,,,,,,,,,,,,main,2,2,1,positive,neutral,279.55785620000006,279.55785620000006,279.55785620000006,279.55785620000006,280.55260560000033,280.5836346000001,k,k,1,0.9588309000000663,281.51386420000017,281.51386420000017,281.51386420000017,281.51386420000017,281.51386420000017,281.51386420000017,,,,,,,,,,,,,,,,,,,,,,,,,,,,,,,,,,,,,,,,,,,,,,,320,2023-02-06_12h58.05.810,Main,2022.2.2,60.129217688808296,
negative,negative,1,j,l,0,0,0,0,0,0,0,0,,,,,,,,,1,3,21,0,,,,,,,,,,,,,,,,,,,,,,,,,,,,,,,,,,,,,,,,main,2,2,1,negative,negative,281.51386420000017,281.51386420000017,281.51386420000017,281.51386420000017,282.5085543,282.53969910000023,j,j,1,1.0034597999997459,283.52566780000006,283.52566780000006,283.52566780000006,283.52566780000006,283.52566780000006,283.52566780000006,,,,,,,,,,,,,,,,,,,,,,,,,,,,,,,,,,,,,,,,,,,,,,,320,2023-02-06_12h58.05.810,Main,2022.2.2,60.129217688808296,
negative,positive,2,j,l,0,0,0,0,0,0,0,0,,,,,,,,,1,4,22,15,,,,,,,,,,,,,,,,,,,,,,,,,,,,,,,,,,,,,,,,main,2,2,2,positive,negative,283.52566780000006,283.52566780000006,283.52566780000006,283.52566780000006,284.51431100000036,284.5446813000003,j,j,1,0.8525442000000112,285.37869520000004,285.37869520000004,285.37869520000004,285.37869520000004,285.37869520000004,285.37869520000004,,,,,,,,,,,,,,,,,,,,,,,,,,,,,,,,,,,,,,,,,,,,,,,320,2023-02-06_12h58.05.810,Main,2022.2.2,60.129217688808296,
positive,neutral,1,l,j,0,0,0,0,0,0,0,0,,,,,,,,,1,5,23,8,,,,,,,,,,,,,,,,,,,,,,,,,,,,,,,,,,,,,,,,main,1,1,1,neutral,positive,285.37869520000004,285.37869520000004,285.37869520000004,285.37869520000004,286.3617919000003,286.39238430000023,l,j,0,1.1569680000002336,287.5181785,287.5181785,287.5181785,288.5572723,288.5572723,288.5572723,,,,,,,,,,,,,,,,,,,,,,,,,,,,,,,,,,,,,,,,,,,,,,,320,2023-02-06_12h58.05.810,Main,2022.2.2,60.129217688808296,
positive,negative,2,l,j,0,0,0,0,0,0,0,0,,,,,,,,,1,6,24,14,,,,,,,,,,,,,,,,,,,,,,,,,,,,,,,,,,,,,,,,main,1,1,2,negative,positive,288.5572723,288.5572723,288.5572723,288.5572723,289.56760740000027,289.5976316000001,l,l,1,1.0532116999997925,290.6151371000001,290.6151371000001,290.6151371000001,290.6151371000001,290.6151371000001,290.6151371000001,,,,,,,,,,,,,,,,,,,,,,,,,,,,,,,,,,,,,,,,,,,,,,,320,2023-02-06_12h58.05.810,Main,2022.2.2,60.129217688808296,
neutral,positive,2,k,k,0,0,0,0,0,0,0,0,,,,,,,,,1,7,25,13,,,,,,,,,,,,,,,,,,,,,,,,,,,,,,,,,,,,,,,,main,2,2,2,positive,neutral,290.6151371000001,290.6151371000001,290.6151371000001,290.6151371000001,291.61249369999996,291.6444799000001,k,j,0,1.040279499999997,292.63156449999997,292.63156449999997,292.63156449999997,293.6633753000001,293.6633753000001,293.6633753000001,,,,,,,,,,,,,,,,,,,,,,,,,,,,,,,,,,,,,,,,,,,,,,,320,2023-02-06_12h58.05.810,Main,2022.2.2,60.129217688808296,
negative,negative,2,j,l,0,0,0,0,0,0,0,0,,,,,,,,,1,8,26,9,,,,,,,,,,,,,,,,,,,,,,,,,,,,,,,,,,,,,,,,main,1,1,2,negative,negative,293.6633753000001,293.6633753000001,293.6633753000001,293.6633753000001,294.65485450000006,294.6890846000001,j,j,1,1.0764294000000518,295.74951850000025,295.74951850000025,295.74951850000025,295.74951850000025,295.74951850000025,295.74951850000025,,,,,,,,,,,,,,,,,,,,,,,,,,,,,,,,,,,,,,,,,,,,,,,320,2023-02-06_12h58.05.810,Main,2022.2.2,60.129217688808296,
negative,neutral,1,j,l,0,0,0,0,0,0,0,0,,,,,,,,,1,9,27,3,,,,,,,,,,,,,,,,,,,,,,,,,,,,,,,,,,,,,,,,main,2,2,1,neutral,negative,295.74951850000025,295.74951850000025,295.74951850000025,295.74951850000025,296.7393597,296.77101300000004,j,j,1,1.0579787000001488,297.81505140000036,297.81505140000036,297.81505140000036,297.81505140000036,297.81505140000036,297.81505140000036,,,,,,,,,,,,,,,,,,,,,,,,,,,,,,,,,,,,,,,,,,,,,,,320,2023-02-06_12h58.05.810,Main,2022.2.2,60.129217688808296,
positive,negative,1,l,j,0,0,0,0,0,0,0,0,,,,,,,,,1,10,28,5,,,,,,,,,,,,,,,,,,,,,,,,,,,,,,,,,,,,,,,,main,2,2,1,negative,positive,297.81505140000036,297.81505140000036,297.81505140000036,297.81505140000036,298.8157719999999,298.8484728000003,l,l,1,0.8652359000002434,299.68010200000026,299.68010200000026,299.68010200000026,299.68010200000026,299.68010200000026,299.68010200000026,,,,,,,,,,,,,,,,,,,,,,,,,,,,,,,,,,,,,,,,,,,,,,,320,2023-02-06_12h58.05.810,Main,2022.2.2,60.129217688808296,
positive,positive,1,l,j,0,0,0,0,0,0,0,0,,,,,,,,,1,11,29,2,,,,,,,,,,,,,,,,,,,,,,,,,,,,,,,,,,,,,,,,main,2,2,1,positive,positive,299.68010200000026,299.68010200000026,299.68010200000026,299.68010200000026,300.6901965000002,300.7255349000002,l,l,1,0.8236544000001231,301.51170920000004,301.51170920000004,301.51170920000004,301.51170920000004,301.51170920000004,301.51170920000004,,,,,,,,,,,,,,,,,,,,,,,,,,,,,,,,,,,,,,,,,,,,,,,320,2023-02-06_12h58.05.810,Main,2022.2.2,60.129217688808296,
negative,positive,1,j,l,0,0,0,0,0,0,0,0,,,,,,,,,1,12,30,6,,,,,,,,,,,,,,,,,,,,,,,,,,,,,,,,,,,,,,,,main,2,2,1,positive,negative,301.51170920000004,301.51170920000004,301.51170920000004,301.51170920000004,302.5032291000002,302.5353348000003,j,j,1,0.8769089000002168,303.39455320000025,303.39455320000025,303.39455320000025,303.39455320000025,303.39455320000025,303.39455320000025,,,,,,,,,,,,,,,,,,,,,,,,,,,,,,,,,,,,,,,,,,,,,,,320,2023-02-06_12h58.05.810,Main,2022.2.2,60.129217688808296,
neutral,neutral,2,k,k,0,0,0,0,0,0,0,0,,,,,,,,,1,13,31,10,,,,,,,,,,,,,,,,,,,,,,,,,,,,,,,,,,,,,,,,main,1,1,2,neutral,neutral,303.39455320000025,303.39455320000025,303.39455320000025,303.39455320000025,304.3800057000003,304.41528719999997,k,k,1,0.7948363999998946,305.1923260000003,305.1923260000003,305.1923260000003,305.1923260000003,305.1923260000003,305.1923260000003,,,,,,,,,,,,,,,,,,,,,,,,,,,,,,,,,,,,,,,,,,,,,,,320,2023-02-06_12h58.05.810,Main,2022.2.2,60.129217688808296,
neutral,neutral,1,k,k,0,0,0,0,0,0,0,0,,,,,,,,,1,14,32,1,,,,,,,,,,,,,,,,,,,,,,,,,,,,,,,,,,,,,,,,main,1,1,1,neutral,neutral,305.1923260000003,305.1923260000003,305.1923260000003,305.1923260000003,306.16743680000036,306.2302171000001,k,k,1,0.8004015999999865,306.9968586,306.9968586,306.9968586,306.9968586,306.9968586,306.9968586,,,,,,,,,,,,,,,,,,,,,,,,,,,,,,,,,,,,,,,,,,,,,,,320,2023-02-06_12h58.05.810,Main,2022.2.2,60.129217688808296,
positive,positive,2,l,j,0,0,0,0,0,0,0,0,,,,,,,,,1,15,33,11,,,,,,,,,,,,,,,,,,,,,,,,,,,,,,,,,,,,,,,,main,2,2,2,positive,positive,306.9968586,306.9968586,306.9968586,306.9968586,307.97840940000015,308.04014540000026,l,l,1,0.8441861999999674,308.8408876000003,308.8408876000003,308.8408876000003,308.8408876000003,308.8408876000003,308.8408876000003,,,,,,,,,,,,,,,,,,,,,,,,,,,,,,,,,,,,,,,,,,,,,,,320,2023-02-06_12h58.05.810,Main,2022.2.2,60.129217688808296,
neutral,negative,2,k,k,0,0,0,0,0,0,0,0,,,,,,,,,1,16,34,16,,,,,,,,,,,,,,,,,,,,,,,,,,,,,,,,,,,,,,,,main,2,2,2,negative,neutral,308.8408876000003,308.8408876000003,308.8408876000003,308.8408876000003,309.8301107000002,309.86061500000005,k,k,1,0.8862829999998212,310.7327462000003,310.7327462000003,310.7327462000003,310.7327462000003,310.7327462000003,310.7327462000003,,,,,,,,,,,,,,,,,,,,,,,,,,,,,,,,,,,,,,,,,,,,,,,320,2023-02-06_12h58.05.810,Main,2022.2.2,60.129217688808296,
positive,neutral,2,l,j,0,0,0,0,0,0,0,0,,,,,,,,,1,17,35,17,,,,,,,,,,,,,,,,,,,,,,,,,,,,,,,,,,,,,,,,main,2,2,2,neutral,positive,310.7327462000003,310.7327462000003,310.7327462000003,310.7327462000003,311.71811130000015,311.76075420000006,l,l,1,0.8552613000001656,312.58663220000017,312.58663220000017,312.58663220000017,312.58663220000017,312.58663220000017,312.58663220000017,,,,,,,,,,,,,,,,,,,,,,,,,,,,,,,,,,,,,,,,,,,,,,,320,2023-02-06_12h58.05.810,Main,2022.2.2,60.129217688808296,
positive,negative,1,l,j,0,0,0,0,0,0,0,0,,,,,,,,,2,0,36,5,,,,,,,,,,,,,,,,,,,,,,,,,,,,,,,,,,,,,,,,main,2,2,1,negative,positive,312.58663220000017,312.58663220000017,312.58663220000017,312.58663220000017,313.5831895000001,313.61351379999996,l,l,1,1.1705495999999584,314.76840459999994,314.76840459999994,314.76840459999994,314.76840459999994,314.76840459999994,314.76840459999994,,,,,,,,,,,,,,,,,,,,,,,,,,,,,,,,,,,,,,,,,,,,,,,320,2023-02-06_12h58.05.810,Main,2022.2.2,60.129217688808296,
negative,negative,1,j,l,0,0,0,0,0,0,0,0,,,,,,,,,2,1,37,0,,,,,,,,,,,,,,,,,,,,,,,,,,,,,,,,,,,,,,,,main,2,2,1,negative,negative,314.76840459999994,314.76840459999994,314.76840459999994,314.76840459999994,315.73910060000026,315.8006719,j,j,1,0.9366494000000785,316.7103483000001,316.7103483000001,316.7103483000001,316.7103483000001,316.7103483000001,316.7103483000001,,,,,,,,,,,,,,,,,,,,,,,,,,,,,,,,,,,,,,,,,,,,,,,320,2023-02-06_12h58.05.810,Main,2022.2.2,60.129217688808296,
negative,neutral,2,j,l,0,0,0,0,0,0,0,0,,,,,,,,,2,2,38,12,,,,,,,,,,,,,,,,,,,,,,,,,,,,,,,,,,,,,,,,main,1,1,2,neutral,negative,316.7103483000001,316.7103483000001,316.7103483000001,316.7103483000001,317.7016982,317.73409340000035,j,j,1,0.9556468999999197,318.6586778000001,318.6586778000001,318.6586778000001,318.6586778000001,318.6586778000001,318.6586778000001,,,,,,,,,,,,,,,,,,,,,,,,,,,,,,,,,,,,,,,,,,,,,,,320,2023-02-06_12h58.05.810,Main,2022.2.2,60.129217688808296,
negative,positive,1,j,l,0,0,0,0,0,0,0,0,,,,,,,,,2,3,39,6,,,,,,,,,,,,,,,,,,,,,,,,,,,,,,,,,,,,,,,,main,2,2,1,positive,negative,318.6586778000001,318.6586778000001,318.6586778000001,318.6586778000001,319.64767170000005,319.68042689999993,j,j,1,0.8236176000000341,320.49038420000034,320.49038420000034,320.49038420000034,320.49038420000034,320.49038420000034,320.49038420000034,,,,,,,,,,,,,,,,,,,,,,,,,,,,,,,,,,,,,,,,,,,,,,,320,2023-02-06_12h58.05.810,Main,2022.2.2,60.129217688808296,
negative,positive,2,j,l,0,0,0,0,0,0,0,0,,,,,,,,,2,4,40,15,,,,,,,,,,,,,,,,,,,,,,,,,,,,,,,,,,,,,,,,main,2,2,2,positive,negative,320.49038420000034,320.49038420000034,320.49038420000034,320.49038420000034,321.4864170000001,321.51863619999995,j,j,1,1.1004983999996512,322.5965524000003,322.5965524000003,322.5965524000003,322.5965524000003,322.5965524000003,322.5965524000003,,,,,,,,,,,,,,,,,,,,,,,,,,,,,,,,,,,,,,,,,,,,,,,320,2023-02-06_12h58.05.810,Main,2022.2.2,60.129217688808296,
positive,neutral,2,l,j,0,0,0,0,0,0,0,0,,,,,,,,,2,5,41,17,,,,,,,,,,,,,,,,,,,,,,,,,,,,,,,,,,,,,,,,main,2,2,2,neutral,positive,322.5965524000003,322.5965524000003,322.5965524000003,322.5965524000003,323.58340320000025,323.61920690000034,l,l,1,1.0059940000001006,324.6066430000001,324.6066430000001,324.6066430000001,324.6066430000001,324.6066430000001,324.6066430000001,,,,,,,,,,,,,,,,,,,,,,,,,,,,,,,,,,,,,,,,,,,,,,,320,2023-02-06_12h58.05.810,Main,2022.2.2,60.129217688808296,
neutral,negative,2,k,k,0,0,0,0,0,0,0,0,,,,,,,,,2,6,42,16,,,,,,,,,,,,,,,,,,,,,,,,,,,,,,,,,,,,,,,,main,1,1,2,negative,neutral,324.6066430000001,324.6066430000001,324.6066430000001,324.6066430000001,325.5933189000002,325.62422430000015,k,k,1,0.902744999999868,326.5163898999999,326.5163898999999,326.5163898999999,326.5163898999999,326.5163898999999,326.5163898999999,,,,,,,,,,,,,,,,,,,,,,,,,,,,,,,,,,,,,,,,,,,,,,,320,2023-02-06_12h58.05.810,Main,2022.2.2,60.129217688808296,
neutral,neutral,1,k,k,0,0,0,0,0,0,0,0,,,,,,,,,2,7,43,1,,,,,,,,,,,,,,,,,,,,,,,,,,,,,,,,,,,,,,,,main,2,2,1,neutral,neutral,326.5163898999999,326.5163898999999,326.5163898999999,326.5163898999999,327.5132426,327.5442668999999,k,k,1,0.982755300000008,328.5028077000002,328.5028077000002,328.5028077000002,328.5028077000002,328.5028077000002,328.5028077000002,,,,,,,,,,,,,,,,,,,,,,,,,,,,,,,,,,,,,,,,,,,,,,,320,2023-02-06_12h58.05.810,Main,2022.2.2,60.129217688808296,
negative,neutral,1,j,l,0,0,0,0,0,0,0,0,,,,,,,,,2,8,44,3,,,,,,,,,,,,,,,,,,,,,,,,,,,,,,,,,,,,,,,,main,1,1,1,neutral,negative,328.5028077000002,328.5028077000002,328.5028077000002,328.5028077000002,329.49330820000023,329.5252154,j,j,1,0.9768355000001065,330.48462480000035,330.48462480000035,330.48462480000035,330.48462480000035,330.48462480000035,330.48462480000035,,,,,,,,,,,,,,,,,,,,,,,,,,,,,,,,,,,,,,,,,,,,,,,320,2023-02-06_12h58.05.810,Main,2022.2.2,60.129217688808296,
positive,negative,2,l,j,0,0,0,0,0,0,0,0,,,,,,,,,2,9,45,14,,,,,,,,,,,,,,,,,,,,,,,,,,,,,,,,,,,,,,,,main,1,1,2,negative,positive,330.48462480000035,330.48462480000035,330.48462480000035,330.48462480000035,331.4591412,331.52325199999996,l,l,1,0.8569633000001886,332.3382260000003,332.3382260000003,332.3382260000003,332.3382260000003,332.3382260000003,332.3382260000003,,,,,,,,,,,,,,,,,,,,,,,,,,,,,,,,,,,,,,,,,,,,,,,320,2023-02-06_12h58.05.810,Main,2022.2.2,60.129217688808296,
positive,positive,1,l,j,0,0,0,0,0,0,0,0,,,,,,,,,2,10,46,2,,,,,,,,,,,,,,,,,,,,,,,,,,,,,,,,,,,,,,,,main,1,1,1,positive,positive,332.3382260000003,332.3382260000003,332.3382260000003,332.3382260000003,333.3298024999999,333.36037650000026,l,l,1,0.9635858000001463,334.30470330000026,334.30470330000026,334.30470330000026,334.30470330000026,334.30470330000026,334.30470330000026,,,,,,,,,,,,,,,,,,,,,,,,,,,,,,,,,,,,,,,,,,,,,,,320,2023-02-06_12h58.05.810,Main,2022.2.2,60.129217688808296,
negative,negative,2,j,l,0,0,0,0,0,0,0,0,,,,,,,,,2,11,47,9,,,,,,,,,,,,,,,,,,,,,,,,,,,,,,,,,,,,,,,,main,2,2,2,negative,negative,334.30470330000026,334.30470330000026,334.30470330000026,334.30470330000026,335.30820810000023,335.33764020000035,j,j,1,0.9101892000003318,336.2137812000001,336.2137812000001,336.2137812000001,336.2137812000001,336.2137812000001,336.2137812000001,,,,,,,,,,,,,,,,,,,,,,,,,,,,,,,,,,,,,,,,,,,,,,,320,2023-02-06_12h58.05.810,Main,2022.2.2,60.129217688808296,
positive,neutral,1,l,j,0,0,0,0,0,0,0,0,,,,,,,,,2,12,48,8,,,,,,,,,,,,,,,,,,,,,,,,,,,,,,,,,,,,,,,,main,2,2,1,neutral,positive,336.2137812000001,336.2137812000001,336.2137812000001,336.2137812000001,337.1897849000002,337.2491312000002,l,l,1,0.9782456999996612,338.19828860000007,338.19828860000007,338.19828860000007,338.19828860000007,338.19828860000007,338.19828860000007,,,,,,,,,,,,,,,,,,,,,,,,,,,,,,,,,,,,,,,,,,,,,,,320,2023-02-06_12h58.05.810,Main,2022.2.2,60.129217688808296,
neutral,positive,2,k,k,0,0,0,0,0,0,0,0,,,,,,,,,2,13,49,13,,,,,,,,,,,,,,,,,,,,,,,,,,,,,,,,,,,,,,,,main,2,2,2,positive,neutral,338.19828860000007,338.19828860000007,338.19828860000007,338.19828860000007,339.1736234,339.23448400000007,k,k,1,0.9719686999997066,340.1758399,340.1758399,340.1758399,340.1758399,340.1758399,340.1758399,,,,,,,,,,,,,,,,,,,,,,,,,,,,,,,,,,,,,,,,,,,,,,,320,2023-02-06_12h58.05.810,Main,2022.2.2,60.129217688808296,
positive,positive,2,l,j,0,0,0,0,0,0,0,0,,,,,,,,,2,14,50,11,,,,,,,,,,,,,,,,,,,,,,,,,,,,,,,,,,,,,,,,main,2,2,2,positive,positive,340.1758399,340.1758399,340.1758399,340.1758399,341.1739689000001,341.2075383000001,l,l,1,0.8946590000000469,342.07506460000013,342.07506460000013,342.07506460000013,342.07506460000013,342.07506460000013,342.07506460000013,,,,,,,,,,,,,,,,,,,,,,,,,,,,,,,,,,,,,,,,,,,,,,,320,2023-02-06_12h58.05.810,Main,2022.2.2,60.129217688808296,
neutral,neutral,2,k,k,0,0,0,0,0,0,0,0,,,,,,,,,2,15,51,10,,,,,,,,,,,,,,,,,,,,,,,,,,,,,,,,,,,,,,,,main,2,2,2,neutral,neutral,342.07506460000013,342.07506460000013,342.07506460000013,342.07506460000013,343.05778439999995,343.08935539999993,k,k,1,0.9071458000003076,343.98750050000035,343.98750050000035,343.98750050000035,343.98750050000035,343.98750050000035,343.98750050000035,,,,,,,,,,,,,,,,,,,,,,,,,,,,,,,,,,,,,,,,,,,,,,,320,2023-02-06_12h58.05.810,Main,2022.2.2,60.129217688808296,
neutral,negative,1,k,k,0,0,0,0,0,0,0,0,,,,,,,,,2,16,52,7,,,,,,,,,,,,,,,,,,,,,,,,,,,,,,,,,,,,,,,,main,2,2,1,negative,neutral,343.98750050000035,343.98750050000035,343.98750050000035,343.98750050000035,344.9562734000001,345.0185383000003,k,k,1,0.9910894999998163,345.9787931000001,345.9787931000001,345.9787931000001,345.9787931000001,345.9787931000001,345.9787931000001,,,,,,,,,,,,,,,,,,,,,,,,,,,,,,,,,,,,,,,,,,,,,,,320,2023-02-06_12h58.05.810,Main,2022.2.2,60.129217688808296,
neutral,positive,1,k,k,0,0,0,0,0,0,0,0,,,,,,,,,2,17,53,4,,,,,,,,,,,,,,,,,,,,,,,,,,,,,,,,,,,,,,,,main,2,2,1,positive,neutral,345.9787931000001,345.9787931000001,345.9787931000001,345.9787931000001,346.9701828000002,347.00442950000024,k,k,1,0.8554567999999563,347.8436445000002,347.8436445000002,347.8436445000002,347.8436445000002,347.8436445000002,347.8436445000002,,,,,,,,,,,,,,,,,,,,,,,,,,,,,,,,,,,,,,,,,,,,,,,320,2023-02-06_12h58.05.810,Main,2022.2.2,60.129217688808296,
positive,neutral,2,l,j,0,0,0,0,0,0,0,0,,,,,,,,,3,0,54,17,,,,,,,,,,,,,,,,,,,,,,,,,,,,,,,,,,,,,,,,main,2,2,2,neutral,positive,347.8436445000002,347.8436445000002,347.8436445000002,347.8436445000002,348.82041879999997,348.8839478,l,l,1,0.7661805999996432,349.6022415000002,349.6022415000002,349.6022415000002,349.6022415000002,349.6022415000002,349.6022415000002,,,,,,,,,,,,,,,,,,,,,,,,,,,,,,,,,,,,,,,,,,,,,,,320,2023-02-06_12h58.05.810,Main,2022.2.2,60.129217688808296,
positive,neutral,1,l,j,0,0,0,0,0,0,0,0,,,,,,,,,3,1,55,8,,,,,,,,,,,,,,,,,,,,,,,,,,,,,,,,,,,,,,,,main,2,2,1,neutral,positive,349.6022415000002,349.6022415000002,349.6022415000002,349.6022415000002,350.6015261000002,350.6348266,l,l,1,0.934951700000056,351.5513552000002,351.5513552000002,351.5513552000002,351.5513552000002,351.5513552000002,351.5513552000002,,,,,,,,,,,,,,,,,,,,,,,,,,,,,,,,,,,,,,,,,,,,,,,320,2023-02-06_12h58.05.810,Main,2022.2.2,60.129217688808296,
positive,negative,2,l,j,0,0,0,0,0,0,0,0,,,,,,,,,3,2,56,14,,,,,,,,,,,,,,,,,,,,,,,,,,,,,,,,,,,,,,,,main,1,1,2,negative,positive,351.5513552000002,351.5513552000002,351.5513552000002,351.5513552000002,352.53752120000036,352.5674878,l,l,1,0.8235601999999744,353.3744191999999,353.3744191999999,353.3744191999999,353.3744191999999,353.3744191999999,353.3744191999999,,,,,,,,,,,,,,,,,,,,,,,,,,,,,,,,,,,,,,,,,,,,,,,320,2023-02-06_12h58.05.810,Main,2022.2.2,60.129217688808296,
neutral,positive,2,k,k,0,0,0,0,0,0,0,0,,,,,,,,,3,3,57,13,,,,,,,,,,,,,,,,,,,,,,,,,,,,,,,,,,,,,,,,main,1,1,2,positive,neutral,353.3744191999999,353.3744191999999,353.3744191999999,353.3744191999999,354.36331480000035,354.40694120000035,k,k,1,0.9465701000003719,355.3230162,355.3230162,355.3230162,355.3230162,355.3230162,355.3230162,,,,,,,,,,,,,,,,,,,,,,,,,,,,,,,,,,,,,,,,,,,,,,,320,2023-02-06_12h58.05.810,Main,2022.2.2,60.129217688808296,
negative,negative,1,j,l,0,0,0,0,0,0,0,0,,,,,,,,,3,4,58,0,,,,,,,,,,,,,,,,,,,,,,,,,,,,,,,,,,,,,,,,main,2,2,1,negative,negative,355.3230162,355.3230162,355.3230162,355.3230162,356.3162718000003,356.34634890000007,j,j,1,0.9052802000001066,357.22743949999995,357.22743949999995,357.22743949999995,357.22743949999995,357.22743949999995,357.22743949999995,,,,,,,,,,,,,,,,,,,,,,,,,,,,,,,,,,,,,,,,,,,,,,,320,2023-02-06_12h58.05.810,Main,2022.2.2,60.129217688808296,
positive,negative,1,l,j,0,0,0,0,0,0,0,0,,,,,,,,,3,5,59,5,,,,,,,,,,,,,,,,,,,,,,,,,,,,,,,,,,,,,,,,main,2,2,1,negative,positive,357.22743949999995,357.22743949999995,357.22743949999995,357.22743949999995,358.20632060000025,358.2687831000003,l,l,1,0.9991304999998647,359.23526489999995,359.23526489999995,359.23526489999995,359.23526489999995,359.23526489999995,359.23526489999995,,,,,,,,,,,,,,,,,,,,,,,,,,,,,,,,,,,,,,,,,,,,,,,320,2023-02-06_12h58.05.810,Main,2022.2.2,60.129217688808296,
neutral,negative,2,k,k,0,0,0,0,0,0,0,0,,,,,,,,,3,6,60,16,,,,,,,,,,,,,,,,,,,,,,,,,,,,,,,,,,,,,,,,main,1,1,2,negative,neutral,359.23526489999995,359.23526489999995,359.23526489999995,359.23526489999995,360.22601520000035,360.25563390000025,k,k,1,0.9489867999996022,361.18409820000034,361.18409820000034,361.18409820000034,361.18409820000034,361.18409820000034,361.18409820000034,,,,,,,,,,,,,,,,,,,,,,,,,,,,,,,,,,,,,,,,,,,,,,,320,2023-02-06_12h58.05.810,Main,2022.2.2,60.129217688808296,
negative,neutral,1,j,l,0,0,0,0,0,0,0,0,,,,,,,,,3,7,61,3,,,,,,,,,,,,,,,,,,,,,,,,,,,,,,,,,,,,,,,,main,1,1,1,neutral,negative,361.18409820000034,361.18409820000034,361.18409820000034,361.18409820000034,362.1735901000002,362.20535420000033,j,j,1,0.9143960999999763,363.10283670000035,363.10283670000035,363.10283670000035,363.10283670000035,363.10283670000035,363.10283670000035,,,,,,,,,,,,,,,,,,,,,,,,,,,,,,,,,,,,,,,,,,,,,,,320,2023-02-06_12h58.05.810,Main,2022.2.2,60.129217688808296,
neutral,negative,1,k,k,0,0,0,0,0,0,0,0,,,,,,,,,3,8,62,7,,,,,,,,,,,,,,,,,,,,,,,,,,,,,,,,,,,,,,,,main,1,1,1,negative,neutral,363.10283670000035,363.10283670000035,363.10283670000035,363.10283670000035,364.0991776999999,364.1285790000002,k,k,1,0.9284772000000885,365.0452257000002,365.0452257000002,365.0452257000002,365.0452257000002,365.0452257000002,365.0452257000002,,,,,,,,,,,,,,,,,,,,,,,,,,,,,,,,,,,,,,,,,,,,,,,320,2023-02-06_12h58.05.810,Main,2022.2.2,60.129217688808296,
neutral,positive,1,k,k,0,0,0,0,0,0,0,0,,,,,,,,,3,9,63,4,,,,,,,,,,,,,,,,,,,,,,,,,,,,,,,,,,,,,,,,main,2,2,1,positive,neutral,365.0452257000002,365.0452257000002,365.0452257000002,365.0452257000002,366.0374389000003,366.07421810000005,k,k,1,0.9499916999998277,366.9930472000001,366.9930472000001,366.9930472000001,366.9930472000001,366.9930472000001,366.9930472000001,,,,,,,,,,,,,,,,,,,,,,,,,,,,,,,,,,,,,,,,,,,,,,,320,2023-02-06_12h58.05.810,Main,2022.2.2,60.129217688808296,
positive,positive,1,l,j,0,0,0,0,0,0,0,0,,,,,,,,,3,10,64,2,,,,,,,,,,,,,,,,,,,,,,,,,,,,,,,,,,,,,,,,main,2,2,1,positive,positive,366.9930472000001,366.9930472000001,366.9930472000001,366.9930472000001,367.97568060000003,368.0155181,l,l,1,0.8503347000000758,368.8493619999999,368.8493619999999,368.8493619999999,368.8493619999999,368.8493619999999,368.8493619999999,,,,,,,,,,,,,,,,,,,,,,,,,,,,,,,,,,,,,,,,,,,,,,,320,2023-02-06_12h58.05.810,Main,2022.2.2,60.129217688808296,
negative,neutral,2,j,l,0,0,0,0,0,0,0,0,,,,,,,,,3,11,65,12,,,,,,,,,,,,,,,,,,,,,,,,,,,,,,,,,,,,,,,,main,2,2,2,neutral,negative,368.8493619999999,368.8493619999999,368.8493619999999,368.8493619999999,369.8163829,369.8782279000002,j,j,1,0.9634485999999924,370.8106504000002,370.8106504000002,370.8106504000002,370.8106504000002,370.8106504000002,370.8106504000002,,,,,,,,,,,,,,,,,,,,,,,,,,,,,,,,,,,,,,,,,,,,,,,320,2023-02-06_12h58.05.810,Main,2022.2.2,60.129217688808296,
negative,positive,2,j,l,0,0,0,0,0,0,0,0,,,,,,,,,3,12,66,15,,,,,,,,,,,,,,,,,,,,,,,,,,,,,,,,,,,,,,,,main,2,2,2,positive,negative,370.8106504000002,370.8106504000002,370.8106504000002,370.8106504000002,371.7874429000003,371.8511550000003,j,j,1,0.7731865000000653,372.58603360000006,372.58603360000006,372.58603360000006,372.58603360000006,372.58603360000006,372.58603360000006,,,,,,,,,,,,,,,,,,,,,,,,,,,,,,,,,,,,,,,,,,,,,,,320,2023-02-06_12h58.05.810,Main,2022.2.2,60.129217688808296,
positive,positive,2,l,j,0,0,0,0,0,0,0,0,,,,,,,,,3,13,67,11,,,,,,,,,,,,,,,,,,,,,,,,,,,,,,,,,,,,,,,,main,1,1,2,positive,positive,372.58603360000006,372.58603360000006,372.58603360000006,372.58603360000006,373.58103870000014,373.6139210000001,l,l,1,0.9060174000001098,374.4982484000002,374.4982484000002,374.4982484000002,374.4982484000002,374.4982484000002,374.4982484000002,,,,,,,,,,,,,,,,,,,,,,,,,,,,,,,,,,,,,,,,,,,,,,,320,2023-02-06_12h58.05.810,Main,2022.2.2,60.129217688808296,
negative,negative,2,j,l,0,0,0,0,0,0,0,0,,,,,,,,,3,14,68,9,,,,,,,,,,,,,,,,,,,,,,,,,,,,,,,,,,,,,,,,main,2,2,2,negative,negative,374.4982484000002,374.4982484000002,374.4982484000002,374.4982484000002,375.4758300000003,375.5389180000002,j,j,1,0.9833634999999958,376.48411209999995,376.48411209999995,376.48411209999995,376.48411209999995,376.48411209999995,376.48411209999995,,,,,,,,,,,,,,,,,,,,,,,,,,,,,,,,,,,,,,,,,,,,,,,320,2023-02-06_12h58.05.810,Main,2022.2.2,60.129217688808296,
neutral,neutral,2,k,k,0,0,0,0,0,0,0,0,,,,,,,,,3,15,69,10,,,,,,,,,,,,,,,,,,,,,,,,,,,,,,,,,,,,,,,,main,2,2,2,neutral,neutral,376.48411209999995,376.48411209999995,376.48411209999995,376.48411209999995,377.4687845000003,377.4997814000003,k,k,1,0.8185878000003868,378.3008367000002,378.3008367000002,378.3008367000002,378.3008367000002,378.3008367000002,378.3008367000002,,,,,,,,,,,,,,,,,,,,,,,,,,,,,,,,,,,,,,,,,,,,,,,320,2023-02-06_12h58.05.810,Main,2022.2.2,60.129217688808296,
neutral,neutral,1,k,k,0,0,0,0,0,0,0,0,,,,,,,,,3,16,70,1,,,,,,,,,,,,,,,,,,,,,,,,,,,,,,,,,,,,,,,,main,2,2,1,neutral,neutral,378.3008367000002,378.3008367000002,378.3008367000002,378.3008367000002,379.30429920000006,379.3401263999999,k,k,1,0.8554733999999371,380.1549825000002,380.1549825000002,380.1549825000002,380.1549825000002,380.1549825000002,380.1549825000002,,,,,,,,,,,,,,,,,,,,,,,,,,,,,,,,,,,,,,,,,,,,,,,320,2023-02-06_12h58.05.810,Main,2022.2.2,60.129217688808296,
negative,positive,1,j,l,0,0,0,0,0,0,0,0,,,,,,,,,3,17,71,6,,,,,,,,,,,,,,,,,,,,,,,,,,,,,,,,,,,,,,,,main,1,1,1,positive,negative,380.1549825000002,380.1549825000002,380.1549825000002,380.1549825000002,381.4668746000002,381.4668746000002,j,j,1,1.2833958999999595,382.44823610000003,382.44823610000003,382.44823610000003,382.44823610000003,382.44823610000003,382.44823610000003,,,,,,,,,,,,,,,,,,,,,,,,,,,,,,,,,,,,,,,,,,,,,,,320,2023-02-06_12h58.05.810,Main,2022.2.2,60.129217688808296,
negative,neutral,1,j,l,0,0,0,0,0,0,0,0,,,,,,,,,4,0,72,3,,,,,,,,,,,,,,,,,,,,,,,,,,,,,,,,,,,,,,,,main,2,2,1,neutral,negative,382.44823610000003,382.44823610000003,382.44823610000003,382.44823610000003,383.4464776,383.47825220000004,j,j,1,0.8646552000000156,384.31894680000005,384.31894680000005,384.31894680000005,384.31894680000005,384.31894680000005,384.31894680000005,,,,,,,,,,,,,,,,,,,,,,,,,,,,,,,,,,,,,,,,,,,,,,,320,2023-02-06_12h58.05.810,Main,2022.2.2,60.129217688808296,
neutral,positive,1,k,k,0,0,0,0,0,0,0,0,,,,,,,,,4,1,73,4,,,,,,,,,,,,,,,,,,,,,,,,,,,,,,,,,,,,,,,,main,2,2,1,positive,neutral,384.31894680000005,384.31894680000005,384.31894680000005,384.31894680000005,385.3046826,385.33702270000003,k,k,1,0.8442127000002984,386.16732420000017,386.16732420000017,386.16732420000017,386.16732420000017,386.16732420000017,386.16732420000017,,,,,,,,,,,,,,,,,,,,,,,,,,,,,,,,,,,,,,,,,,,,,,,320,2023-02-06_12h58.05.810,Main,2022.2.2,60.129217688808296,
negative,positive,2,j,l,0,0,0,0,0,0,0,0,,,,,,,,,4,2,74,15,,,,,,,,,,,,,,,,,,,,,,,,,,,,,,,,,,,,,,,,main,2,2,2,positive,negative,386.16732420000017,386.16732420000017,386.16732420000017,386.16732420000017,387.1465271000002,387.21256310000035,j,j,1,0.9418144000001121,388.1148782,388.1148782,388.1148782,388.1148782,388.1148782,388.1148782,,,,,,,,,,,,,,,,,,,,,,,,,,,,,,,,,,,,,,,,,,,,,,,320,2023-02-06_12h58.05.810,Main,2022.2.2,60.129217688808296,
negative,neutral,2,j,l,0,0,0,0,0,0,0,0,,,,,,,,,4,3,75,12,,,,,,,,,,,,,,,,,,,,,,,,,,,,,,,,,,,,,,,,main,2,2,2,neutral,negative,388.1148782,388.1148782,388.1148782,388.1148782,389.1092923000001,389.1384714999999,j,j,1,0.7732801000001928,389.8903244000003,389.8903244000003,389.8903244000003,389.8903244000003,389.8903244000003,389.8903244000003,,,,,,,,,,,,,,,,,,,,,,,,,,,,,,,,,,,,,,,,,,,,,,,320,2023-02-06_12h58.05.810,Main,2022.2.2,60.129217688808296,
neutral,neutral,1,k,k,0,0,0,0,0,0,0,0,,,,,,,,,4,4,76,1,,,,,,,,,,,,,,,,,,,,,,,,,,,,,,,,,,,,,,,,main,1,1,1,neutral,neutral,389.8903244000003,389.8903244000003,389.8903244000003,389.8903244000003,390.8917289000001,390.9230708,k,k,1,0.8583298999997169,391.75119029999996,391.75119029999996,391.75119029999996,391.75119029999996,391.75119029999996,391.75119029999996,,,,,,,,,,,,,,,,,,,,,,,,,,,,,,,,,,,,,,,,,,,,,,,320,2023-02-06_12h58.05.810,Main,2022.2.2,60.129217688808296,
negative,negative,1,j,l,0,0,0,0,0,0,0,0,,,,,,,,,4,5,77,0,,,,,,,,,,,,,,,,,,,,,,,,,,,,,,,,,,,,,,,,main,2,2,1,negative,negative,391.75119029999996,391.75119029999996,391.75119029999996,391.75119029999996,392.7306421000003,392.7939609,j,j,1,0.9633966999999757,393.7185921,393.7185921,393.7185921,393.7185921,393.7185921,393.7185921,,,,,,,,,,,,,,,,,,,,,,,,,,,,,,,,,,,,,,,,,,,,,,,320,2023-02-06_12h58.05.810,Main,2022.2.2,60.129217688808296,
positive,neutral,2,l,j,0,0,0,0,0,0,0,0,,,,,,,,,4,6,78,17,,,,,,,,,,,,,,,,,,,,,,,,,,,,,,,,,,,,,,,,main,2,2,2,neutral,positive,393.7185921,393.7185921,393.7185921,393.7185921,394.70996890000015,394.74092500000006,l,l,1,0.8488898000000518,395.57298040000023,395.57298040000023,395.57298040000023,395.57298040000023,395.57298040000023,395.57298040000023,,,,,,,,,,,,,,,,,,,,,,,,,,,,,,,,,,,,,,,,,,,,,,,320,2023-02-06_12h58.05.810,Main,2022.2.2,60.129217688808296,
positive,positive,1,l,j,0,0,0,0,0,0,0,0,,,,,,,,,4,7,79,2,,,,,,,,,,,,,,,,,,,,,,,,,,,,,,,,,,,,,,,,main,2,2,1,positive,positive,395.57298040000023,395.57298040000023,395.57298040000023,395.57298040000023,396.5683154000003,396.5987143000002,l,l,1,0.9576415999999881,397.5345751,397.5345751,397.5345751,397.5345751,397.5345751,397.5345751,,,,,,,,,,,,,,,,,,,,,,,,,,,,,,,,,,,,,,,,,,,,,,,320,2023-02-06_12h58.05.810,Main,2022.2.2,60.129217688808296,
neutral,negative,1,k,k,0,0,0,0,0,0,0,0,,,,,,,,,4,8,80,7,,,,,,,,,,,,,,,,,,,,,,,,,,,,,,,,,,,,,,,,main,1,1,1,negative,neutral,397.5345751,397.5345751,397.5345751,397.5345751,398.5024518,398.5635075,k,k,1,0.834621099999822,399.36634030000005,399.36634030000005,399.36634030000005,399.36634030000005,399.36634030000005,399.36634030000005,,,,,,,,,,,,,,,,,,,,,,,,,,,,,,,,,,,,,,,,,,,,,,,320,2023-02-06_12h58.05.810,Main,2022.2.2,60.129217688808296,
positive,negative,2,l,j,0,0,0,0,0,0,0,0,,,,,,,,,4,9,81,14,,,,,,,,,,,,,,,,,,,,,,,,,,,,,,,,,,,,,,,,main,1,1,2,negative,positive,399.36634030000005,399.36634030000005,399.36634030000005,399.36634030000005,400.36006510000016,400.39885870000035,l,l,1,1.4434359000001677,401.8130774000001,401.8130774000001,401.8130774000001,401.8130774000001,401.8130774000001,401.8130774000001,,,,,,,,,,,,,,,,,,,,,,,,,,,,,,,,,,,,,,,,,,,,,,,320,2023-02-06_12h58.05.810,Main,2022.2.2,60.129217688808296,
neutral,neutral,2,k,k,0,0,0,0,0,0,0,0,,,,,,,,,4,10,82,10,,,,,,,,,,,,,,,,,,,,,,,,,,,,,,,,,,,,,,,,main,1,1,2,neutral,neutral,401.8130774000001,401.8130774000001,401.8130774000001,401.8130774000001,402.7962014,402.8255924,k,k,1,0.8783051000000341,403.70073550000006,403.70073550000006,403.70073550000006,403.70073550000006,403.70073550000006,403.70073550000006,,,,,,,,,,,,,,,,,,,,,,,,,,,,,,,,,,,,,,,,,,,,,,,320,2023-02-06_12h58.05.810,Main,2022.2.2,60.129217688808296,
positive,negative,1,l,j,0,0,0,0,0,0,0,0,,,,,,,,,4,11,83,5,,,,,,,,,,,,,,,,,,,,,,,,,,,,,,,,,,,,,,,,main,1,1,1,negative,positive,403.70073550000006,403.70073550000006,403.70073550000006,403.70073550000006,404.68846280000025,404.7179954000003,l,l,1,0.8703399999999419,405.5759601,405.5759601,405.5759601,405.5759601,405.5759601,405.5759601,,,,,,,,,,,,,,,,,,,,,,,,,,,,,,,,,,,,,,,,,,,,,,,320,2023-02-06_12h58.05.810,Main,2022.2.2,60.129217688808296,
positive,neutral,1,l,j,0,0,0,0,0,0,0,0,,,,,,,,,4,12,84,8,,,,,,,,,,,,,,,,,,,,,,,,,,,,,,,,,,,,,,,,main,2,2,1,neutral,positive,405.5759601,405.5759601,405.5759601,405.5759601,406.5551608999999,406.6160173000003,l,l,1,0.7452751000000717,407.3159171000002,407.3159171000002,407.3159171000002,407.3159171000002,407.3159171000002,407.3159171000002,,,,,,,,,,,,,,,,,,,,,,,,,,,,,,,,,,,,,,,,,,,,,,,320,2023-02-06_12h58.05.810,Main,2022.2.2,60.129217688808296,
positive,positive,2,l,j,0,0,0,0,0,0,0,0,,,,,,,,,4,13,85,11,,,,,,,,,,,,,,,,,,,,,,,,,,,,,,,,,,,,,,,,main,2,2,2,positive,positive,407.3159171000002,407.3159171000002,407.3159171000002,407.3159171000002,408.3065351,408.34174630000007,l,l,1,1.2994750000002568,409.6251305999999,409.6251305999999,409.6251305999999,409.6251305999999,409.6251305999999,409.6251305999999,,,,,,,,,,,,,,,,,,,,,,,,,,,,,,,,,,,,,,,,,,,,,,,320,2023-02-06_12h58.05.810,Main,2022.2.2,60.129217688808296,
negative,positive,1,j,l,0,0,0,0,0,0,0,0,,,,,,,,,4,14,86,6,,,,,,,,,,,,,,,,,,,,,,,,,,,,,,,,,,,,,,,,main,2,2,1,positive,negative,409.6251305999999,409.6251305999999,409.6251305999999,409.6251305999999,410.6242201,410.65438700000004,j,j,1,0.9696203000003152,411.59574440000006,411.59574440000006,411.59574440000006,411.59574440000006,411.59574440000006,411.59574440000006,,,,,,,,,,,,,,,,,,,,,,,,,,,,,,,,,,,,,,,,,,,,,,,320,2023-02-06_12h58.05.810,Main,2022.2.2,60.129217688808296,
negative,negative,2,j,l,0,0,0,0,0,0,0,0,,,,,,,,,4,15,87,9,,,,,,,,,,,,,,,,,,,,,,,,,,,,,,,,,,,,,,,,main,2,2,2,negative,negative,411.59574440000006,411.59574440000006,411.59574440000006,411.59574440000006,412.58123160000014,412.61345340000025,j,j,1,0.7661902999998347,413.36746570000014,413.36746570000014,413.36746570000014,413.36746570000014,413.36746570000014,413.36746570000014,,,,,,,,,,,,,,,,,,,,,,,,,,,,,,,,,,,,,,,,,,,,,,,320,2023-02-06_12h58.05.810,Main,2022.2.2,60.129217688808296,
neutral,positive,2,k,k,0,0,0,0,0,0,0,0,,,,,,,,,4,16,88,13,,,,,,,,,,,,,,,,,,,,,,,,,,,,,,,,,,,,,,,,main,1,1,2,positive,neutral,413.36746570000014,413.36746570000014,413.36746570000014,413.36746570000014,414.3461665,414.4092792000001,k,k,1,0.8553197000001092,415.2202328000003,415.2202328000003,415.2202328000003,415.2202328000003,415.2202328000003,415.2202328000003,,,,,,,,,,,,,,,,,,,,,,,,,,,,,,,,,,,,,,,,,,,,,,,320,2023-02-06_12h58.05.810,Main,2022.2.2,60.129217688808296,
neutral,negative,2,k,k,0,0,0,0,0,0,0,0,,,,,,,,,4,17,89,16,,,,,,,,,,,,,,,,,,,,,,,,,,,,,,,,,,,,,,,,main,1,1,2,negative,neutral,415.2202328000003,415.2202328000003,415.2202328000003,415.2202328000003,416.19196920000013,416.2631584999999,k,k,1,0.7698067999999694,416.9993870000003,416.9993870000003,416.9993870000003,416.9993870000003,416.9993870000003,416.9993870000003,,,,,,,,,,,,,,,,,,,,,,,,,,,,,,,,,,,,,,,,,,,,,,,320,2023-02-06_12h58.05.810,Main,2022.2.2,60.129217688808296,
negative,neutral,1,j,l,0,0,0,0,0,0,0,0,,,,,,,,,5,0,90,3,,,,,,,,,,,,,,,,,,,,,,,,,,,,,,,,,,,,,,,,main,1,1,1,neutral,negative,416.9993870000003,416.9993870000003,416.9993870000003,416.9993870000003,418.00242419999995,418.03636300000016,j,j,1,1.0175168000000667,419.01579390000006,419.01579390000006,419.01579390000006,419.01579390000006,419.01579390000006,419.01579390000006,,,,,,,,,,,,,,,,,,,,,,,,,,,,,,,,,,,,,,,,,,,,,,,320,2023-02-06_12h58.05.810,Main,2022.2.2,60.129217688808296,
neutral,positive,2,k,k,0,0,0,0,0,0,0,0,,,,,,,,,5,1,91,13,,,,,,,,,,,,,,,,,,,,,,,,,,,,,,,,,,,,,,,,main,2,2,2,positive,neutral,419.01579390000006,419.01579390000006,419.01579390000006,419.01579390000006,420.0145190000003,420.0453278,k,k,1,0.9990901000001031,421.0206783000003,421.0206783000003,421.0206783000003,421.0206783000003,421.0206783000003,421.0206783000003,,,,,,,,,,,,,,,,,,,,,,,,,,,,,,,,,,,,,,,,,,,,,,,320,2023-02-06_12h58.05.810,Main,2022.2.2,60.129217688808296,
positive,neutral,1,l,j,0,0,0,0,0,0,0,0,,,,,,,,,5,2,92,8,,,,,,,,,,,,,,,,,,,,,,,,,,,,,,,,,,,,,,,,main,2,2,1,neutral,positive,421.0206783000003,421.0206783000003,421.0206783000003,421.0206783000003,422.0189113000001,422.04959869999993,l,l,1,0.9304462999998577,422.95590500000026,422.95590500000026,422.95590500000026,422.95590500000026,422.95590500000026,422.95590500000026,,,,,,,,,,,,,,,,,,,,,,,,,,,,,,,,,,,,,,,,,,,,,,,320,2023-02-06_12h58.05.810,Main,2022.2.2,60.129217688808296,
neutral,neutral,2,k,k,0,0,0,0,0,0,0,0,,,,,,,,,5,3,93,10,,,,,,,,,,,,,,,,,,,,,,,,,,,,,,,,,,,,,,,,main,2,2,2,neutral,neutral,422.95590500000026,422.95590500000026,422.95590500000026,422.95590500000026,423.92602620000025,423.98924380000017,k,k,1,0.9000317999998515,424.85551780000014,424.85551780000014,424.85551780000014,424.85551780000014,424.85551780000014,424.85551780000014,,,,,,,,,,,,,,,,,,,,,,,,,,,,,,,,,,,,,,,,,,,,,,,320,2023-02-06_12h58.05.810,Main,2022.2.2,60.129217688808296,
neutral,negative,1,k,k,0,0,0,0,0,0,0,0,,,,,,,,,5,4,94,7,,,,,,,,,,,,,,,,,,,,,,,,,,,,,,,,,,,,,,,,main,2,2,1,negative,neutral,424.85551780000014,424.85551780000014,424.85551780000014,424.85551780000014,425.85177920000024,425.8818524000003,k,k,1,0.7979667999998128,426.6559926,426.6559926,426.6559926,426.6559926,426.6559926,426.6559926,,,,,,,,,,,,,,,,,,,,,,,,,,,,,,,,,,,,,,,,,,,,,,,320,2023-02-06_12h58.05.810,Main,2022.2.2,60.129217688808296,
positive,positive,2,l,j,0,0,0,0,0,0,0,0,,,,,,,,,5,5,95,11,,,,,,,,,,,,,,,,,,,,,,,,,,,,,,,,,,,,,,,,main,2,2,2,positive,positive,426.6559926,426.6559926,426.6559926,426.6559926,427.6286957000002,427.69743830000016,l,l,1,0.9567910000000666,428.6202776,428.6202776,428.6202776,428.6202776,428.6202776,428.6202776,,,,,,,,,,,,,,,,,,,,,,,,,,,,,,,,,,,,,,,,,,,,,,,320,2023-02-06_12h58.05.810,Main,2022.2.2,60.129217688808296,
negative,negative,1,j,l,0,0,0,0,0,0,0,0,,,,,,,,,5,6,96,0,,,,,,,,,,,,,,,,,,,,,,,,,,,,,,,,,,,,,,,,main,2,2,1,negative,negative,428.6202776,428.6202776,428.6202776,428.6202776,429.5927277999999,429.6594376000003,j,j,1,0.8124652999999853,430.4310849000003,430.4310849000003,430.4310849000003,430.4310849000003,430.4310849000003,430.4310849000003,,,,,,,,,,,,,,,,,,,,,,,,,,,,,,,,,,,,,,,,,,,,,,,320,2023-02-06_12h58.05.810,Main,2022.2.2,60.129217688808296,
positive,positive,1,l,j,0,0,0,0,0,0,0,0,,,,,,,,,5,7,97,2,,,,,,,,,,,,,,,,,,,,,,,,,,,,,,,,,,,,,,,,main,1,1,1,positive,positive,430.4310849000003,430.4310849000003,430.4310849000003,430.4310849000003,431.40766570000005,431.46795790000033,l,l,1,0.9029758000001493,432.34091820000003,432.34091820000003,432.34091820000003,432.34091820000003,432.34091820000003,432.34091820000003,,,,,,,,,,,,,,,,,,,,,,,,,,,,,,,,,,,,,,,,,,,,,,,320,2023-02-06_12h58.05.810,Main,2022.2.2,60.129217688808296,
neutral,positive,1,k,k,0,0,0,0,0,0,0,0,,,,,,,,,5,8,98,4,,,,,,,,,,,,,,,,,,,,,,,,,,,,,,,,,,,,,,,,main,2,2,1,positive,neutral,432.34091820000003,432.34091820000003,432.34091820000003,432.34091820000003,433.3329155000001,433.36409410000033,k,k,1,0.8573375999999371,434.20009990000017,434.20009990000017,434.20009990000017,434.20009990000017,434.20009990000017,434.20009990000017,,,,,,,,,,,,,,,,,,,,,,,,,,,,,,,,,,,,,,,,,,,,,,,320,2023-02-06_12h58.05.810,Main,2022.2.2,60.129217688808296,
neutral,neutral,1,k,k,0,0,0,0,0,0,0,0,,,,,,,,,5,9,99,1,,,,,,,,,,,,,,,,,,,,,,,,,,,,,,,,,,,,,,,,main,1,1,1,neutral,neutral,434.20009990000017,434.20009990000017,434.20009990000017,434.20009990000017,435.1891117,435.22708520000015,k,k,1,0.8028027000000293,436.0036091000002,436.0036091000002,436.0036091000002,436.0036091000002,436.0036091000002,436.0036091000002,,,,,,,,,,,,,,,,,,,,,,,,,,,,,,,,,,,,,,,,,,,,,,,320,2023-02-06_12h58.05.810,Main,2022.2.2,60.129217688808296,
negative,neutral,2,j,l,0,0,0,0,0,0,0,0,,,,,,,,,5,10,100,12,,,,,,,,,,,,,,,,,,,,,,,,,,,,,,,,,,,,,,,,main,2,2,2,neutral,negative,436.0036091000002,436.0036091000002,436.0036091000002,436.0036091000002,436.9979972000001,437.03258510000023,j,j,1,0.9281446999998479,437.94211240000004,437.94211240000004,437.94211240000004,437.94211240000004,437.94211240000004,437.94211240000004,,,,,,,,,,,,,,,,,,,,,,,,,,,,,,,,,,,,,,,,,,,,,,,320,2023-02-06_12h58.05.810,Main,2022.2.2,60.129217688808296,
neutral,negative,2,k,k,0,0,0,0,0,0,0,0,,,,,,,,,5,11,101,16,,,,,,,,,,,,,,,,,,,,,,,,,,,,,,,,,,,,,,,,main,1,1,2,negative,neutral,437.94211240000004,437.94211240000004,437.94211240000004,437.94211240000004,438.93724840000004,438.9697664,k,k,1,0.819497599999977,439.76354949999995,439.76354949999995,439.76354949999995,439.76354949999995,439.76354949999995,439.76354949999995,,,,,,,,,,,,,,,,,,,,,,,,,,,,,,,,,,,,,,,,,,,,,,,320,2023-02-06_12h58.05.810,Main,2022.2.2,60.129217688808296,
positive,negative,2,l,j,0,0,0,0,0,0,0,0,,,,,,,,,5,12,102,14,,,,,,,,,,,,,,,,,,,,,,,,,,,,,,,,,,,,,,,,main,2,2,2,negative,positive,439.76354949999995,439.76354949999995,439.76354949999995,439.76354949999995,440.7399088000002,440.80164060000016,l,l,1,0.7633326000000125,441.5324697000001,441.5324697000001,441.5324697000001,441.5324697000001,441.5324697000001,441.5324697000001,,,,,,,,,,,,,,,,,,,,,,,,,,,,,,,,,,,,,,,,,,,,,,,320,2023-02-06_12h58.05.810,Main,2022.2.2,60.129217688808296,
positive,neutral,2,l,j,0,0,0,0,0,0,0,0,,,,,,,,,5,13,103,17,,,,,,,,,,,,,,,,,,,,,,,,,,,,,,,,,,,,,,,,main,2,2,2,neutral,positive,441.5324697000001,441.5324697000001,441.5324697000001,441.5324697000001,442.5292826,442.5647164000002,l,l,1,0.7642299999997704,443.30126040000005,443.30126040000005,443.30126040000005,443.30126040000005,443.30126040000005,443.30126040000005,,,,,,,,,,,,,,,,,,,,,,,,,,,,,,,,,,,,,,,,,,,,,,,320,2023-02-06_12h58.05.810,Main,2022.2.2,60.129217688808296,
negative,positive,2,j,l,0,0,0,0,0,0,0,0,,,,,,,,,5,14,104,15,,,,,,,,,,,,,,,,,,,,,,,,,,,,,,,,,,,,,,,,main,2,2,2,positive,negative,443.30126040000005,443.30126040000005,443.30126040000005,443.30126040000005,444.273291,444.336143,j,j,1,0.8376493999999184,445.14185399999997,445.14185399999997,445.14185399999997,445.14185399999997,445.14185399999997,445.14185399999997,,,,,,,,,,,,,,,,,,,,,,,,,,,,,,,,,,,,,,,,,,,,,,,320,2023-02-06_12h58.05.810,Main,2022.2.2,60.129217688808296,
negative,positive,1,j,l,0,0,0,0,0,0,0,0,,,,,,,,,5,15,105,6,,,,,,,,,,,,,,,,,,,,,,,,,,,,,,,,,,,,,,,,main,1,1,1,positive,negative,445.14185399999997,445.14185399999997,445.14185399999997,445.14185399999997,446.1261138,446.1590569,j,j,1,0.7127784999997857,446.8557715000002,446.8557715000002,446.8557715000002,446.8557715000002,446.8557715000002,446.8557715000002,,,,,,,,,,,,,,,,,,,,,,,,,,,,,,,,,,,,,,,,,,,,,,,320,2023-02-06_12h58.05.810,Main,2022.2.2,60.129217688808296,
positive,negative,1,l,j,0,0,0,0,0,0,0,0,,,,,,,,,5,16,106,5,,,,,,,,,,,,,,,,,,,,,,,,,,,,,,,,,,,,,,,,main,1,1,1,negative,positive,446.8557715000002,446.8557715000002,446.8557715000002,446.8557715000002,447.85069909999993,447.88533700000016,l,l,1,0.9633976000000075,448.82016680000015,448.82016680000015,448.82016680000015,448.82016680000015,448.82016680000015,448.82016680000015,,,,,,,,,,,,,,,,,,,,,,,,,,,,,,,,,,,,,,,,,,,,,,,320,2023-02-06_12h58.05.810,Main,2022.2.2,60.129217688808296,
negative,negative,2,j,l,0,0,0,0,0,0,0,0,,,,,,,,,5,17,107,9,,,,,,,,,,,,,,,,,,,,,,,,,,,,,,,,,,,,,,,,main,1,1,2,negative,negative,448.82016680000015,448.82016680000015,448.82016680000015,448.82016680000015,449.7966924000002,449.8634267000002,j,j,1,0.8780189999997674,450.6996806000002,450.6996806000002,450.6996806000002,450.6996806000002,450.6996806000002,450.6996806000002,,,,,,,,,,,,,,,,,,,,,,,,,,,,,,,,,,,,,,,,,,,,,,,320,2023-02-06_12h58.05.810,Main,2022.2.2,60.129217688808296,
negative,positive,1,j,l,0,0,0,0,0,0,0,0,,,,,,,,,6,0,108,6,,,,,,,,,,,,,,,,,,,,,,,,,,,,,,,,,,,,,,,,main,2,2,1,positive,negative,450.6996806000002,450.6996806000002,450.6996806000002,450.6996806000002,451.6830755000001,451.71886220000033,j,j,1,1.04685789999985,452.76166600000033,452.76166600000033,452.76166600000033,452.76166600000033,452.76166600000033,452.76166600000033,,,,,,,,,,,,,,,,,,,,,,,,,,,,,,,,,,,,,,,,,,,,,,,320,2023-02-06_12h58.05.810,Main,2022.2.2,60.129217688808296,
positive,positive,2,l,j,0,0,0,0,0,0,0,0,,,,,,,,,6,1,109,11,,,,,,,,,,,,,,,,,,,,,,,,,,,,,,,,,,,,,,,,main,2,2,2,positive,positive,452.76166600000033,452.76166600000033,452.76166600000033,452.76166600000033,453.7532415999999,453.784001,l,l,1,0.8130538999998862,454.56979880000017,454.56979880000017,454.56979880000017,454.56979880000017,454.56979880000017,454.56979880000017,,,,,,,,,,,,,,,,,,,,,,,,,,,,,,,,,,,,,,,,,,,,,,,320,2023-02-06_12h58.05.810,Main,2022.2.2,60.129217688808296,
neutral,negative,1,k,k,0,0,0,0,0,0,0,0,,,,,,,,,6,2,110,7,,,,,,,,,,,,,,,,,,,,,,,,,,,,,,,,,,,,,,,,main,2,2,1,negative,neutral,454.56979880000017,454.56979880000017,454.56979880000017,454.56979880000017,455.56403709999995,455.6018911000001,k,k,1,0.8572558999999274,456.4346211000002,456.4346211000002,456.4346211000002,456.4346211000002,456.4346211000002,456.4346211000002,,,,,,,,,,,,,,,,,,,,,,,,,,,,,,,,,,,,,,,,,,,,,,,320,2023-02-06_12h58.05.810,Main,2022.2.2,60.129217688808296,
neutral,negative,2,k,k,0,0,0,0,0,0,0,0,,,,,,,,,6,3,111,16,,,,,,,,,,,,,,,,,,,,,,,,,,,,,,,,,,,,,,,,main,2,2,2,negative,neutral,456.4346211000002,456.4346211000002,456.4346211000002,456.4346211000002,457.4298125,457.46056620000036,k,k,1,0.7535022000001845,458.19170950000034,458.19170950000034,458.19170950000034,458.19170950000034,458.19170950000034,458.19170950000034,,,,,,,,,,,,,,,,,,,,,,,,,,,,,,,,,,,,,,,,,,,,,,,320,2023-02-06_12h58.05.810,Main,2022.2.2,60.129217688808296,
negative,neutral,2,j,l,0,0,0,0,0,0,0,0,,,,,,,,,6,4,112,12,,,,,,,,,,,,,,,,,,,,,,,,,,,,,,,,,,,,,,,,main,2,2,2,neutral,negative,458.19170950000034,458.19170950000034,458.19170950000034,458.19170950000034,459.17438930000026,459.20481940000036,j,j,1,0.9471336000001429,460.14001559999997,460.14001559999997,460.14001559999997,460.14001559999997,460.14001559999997,460.14001559999997,,,,,,,,,,,,,,,,,,,,,,,,,,,,,,,,,,,,,,,,,,,,,,,320,2023-02-06_12h58.05.810,Main,2022.2.2,60.129217688808296,
positive,neutral,2,l,j,0,0,0,0,0,0,0,0,,,,,,,,,6,5,113,17,,,,,,,,,,,,,,,,,,,,,,,,,,,,,,,,,,,,,,,,main,2,2,2,neutral,positive,460.14001559999997,460.14001559999997,460.14001559999997,460.14001559999997,461.1313255,461.1633028000001,l,l,1,0.8344750999999633,461.98382979999997,461.98382979999997,461.98382979999997,461.98382979999997,461.98382979999997,461.98382979999997,,,,,,,,,,,,,,,,,,,,,,,,,,,,,,,,,,,,,,,,,,,,,,,320,2023-02-06_12h58.05.810,Main,2022.2.2,60.129217688808296,
negative,positive,2,j,l,0,0,0,0,0,0,0,0,,,,,,,,,6,6,114,15,,,,,,,,,,,,,,,,,,,,,,,,,,,,,,,,,,,,,,,,main,1,1,2,positive,negative,461.98382979999997,461.98382979999997,461.98382979999997,461.98382979999997,462.9662168,463.03466670000034,j,j,1,0.9231174999999894,463.9119062,463.9119062,463.9119062,463.9119062,463.9119062,463.9119062,,,,,,,,,,,,,,,,,,,,,,,,,,,,,,,,,,,,,,,,,,,,,,,320,2023-02-06_12h58.05.810,Main,2022.2.2,60.129217688808296,
neutral,neutral,2,k,k,0,0,0,0,0,0,0,0,,,,,,,,,6,7,115,10,,,,,,,,,,,,,,,,,,,,,,,,,,,,,,,,,,,,,,,,main,1,1,2,neutral,neutral,463.9119062,463.9119062,463.9119062,463.9119062,464.8796811000002,464.94444310000017,k,k,1,0.9071600000002036,465.81478270000025,465.81478270000025,465.81478270000025,465.81478270000025,465.81478270000025,465.81478270000025,,,,,,,,,,,,,,,,,,,,,,,,,,,,,,,,,,,,,,,,,,,,,,,320,2023-02-06_12h58.05.810,Main,2022.2.2,60.129217688808296,
negative,neutral,1,j,l,0,0,0,0,0,0,0,0,,,,,,,,,6,8,116,3,,,,,,,,,,,,,,,,,,,,,,,,,,,,,,,,,,,,,,,,main,2,2,1,neutral,negative,465.81478270000025,465.81478270000025,465.81478270000025,465.81478270000025,466.79735310000024,466.8282538000003,j,j,1,0.9798784999998134,467.79949110000007,467.79949110000007,467.79949110000007,467.79949110000007,467.79949110000007,467.79949110000007,,,,,,,,,,,,,,,,,,,,,,,,,,,,,,,,,,,,,,,,,,,,,,,320,2023-02-06_12h58.05.810,Main,2022.2.2,60.129217688808296,
positive,negative,2,l,j,0,0,0,0,0,0,0,0,,,,,,,,,6,9,117,14,,,,,,,,,,,,,,,,,,,,,,,,,,,,,,,,,,,,,,,,main,1,1,2,negative,positive,467.79949110000007,467.79949110000007,467.79949110000007,467.79949110000007,468.8020997000003,468.83425080000006,l,l,1,0.9078787000003103,469.71261570000024,469.71261570000024,469.71261570000024,469.71261570000024,469.71261570000024,469.71261570000024,,,,,,,,,,,,,,,,,,,,,,,,,,,,,,,,,,,,,,,,,,,,,,,320,2023-02-06_12h58.05.810,Main,2022.2.2,60.129217688808296,
neutral,positive,2,k,k,0,0,0,0,0,0,0,0,,,,,,,,,6,10,118,13,,,,,,,,,,,,,,,,,,,,,,,,,,,,,,,,,,,,,,,,main,2,2,2,positive,neutral,469.71261570000024,469.71261570000024,469.71261570000024,469.71261570000024,470.69202870000026,470.7523821,k,k,1,0.8056010000000242,471.51857450000034,471.51857450000034,471.51857450000034,471.51857450000034,471.51857450000034,471.51857450000034,,,,,,,,,,,,,,,,,,,,,,,,,,,,,,,,,,,,,,,,,,,,,,,320,2023-02-06_12h58.05.810,Main,2022.2.2,60.129217688808296,
neutral,neutral,1,k,k,0,0,0,0,0,0,0,0,,,,,,,,,6,11,119,1,,,,,,,,,,,,,,,,,,,,,,,,,,,,,,,,,,,,,,,,main,2,2,1,neutral,neutral,471.51857450000034,471.51857450000034,471.51857450000034,471.51857450000034,472.50705070000004,472.5364883000002,k,k,1,0.9559312000001228,473.4820568,473.4820568,473.4820568,473.4820568,473.4820568,473.4820568,,,,,,,,,,,,,,,,,,,,,,,,,,,,,,,,,,,,,,,,,,,,,,,320,2023-02-06_12h58.05.810,Main,2022.2.2,60.129217688808296,
positive,positive,1,l,j,0,0,0,0,0,0,0,0,,,,,,,,,6,12,120,2,,,,,,,,,,,,,,,,,,,,,,,,,,,,,,,,,,,,,,,,main,1,1,1,positive,positive,473.4820568,473.4820568,473.4820568,473.4820568,474.46684529999993,474.4969017000003,l,l,1,0.9446695999999974,475.4278019000003,475.4278019000003,475.4278019000003,475.4278019000003,475.4278019000003,475.4278019000003,,,,,,,,,,,,,,,,,,,,,,,,,,,,,,,,,,,,,,,,,,,,,,,320,2023-02-06_12h58.05.810,Main,2022.2.2,60.129217688808296,
negative,negative,2,j,l,0,0,0,0,0,0,0,0,,,,,,,,,6,13,121,9,,,,,,,,,,,,,,,,,,,,,,,,,,,,,,,,,,,,,,,,main,2,2,2,negative,negative,475.4278019000003,475.4278019000003,475.4278019000003,475.4278019000003,476.4183929999999,476.45090130000017,j,j,1,0.756403599999885,477.1814773000001,477.1814773000001,477.1814773000001,477.1814773000001,477.1814773000001,477.1814773000001,,,,,,,,,,,,,,,,,,,,,,,,,,,,,,,,,,,,,,,,,,,,,,,320,2023-02-06_12h58.05.810,Main,2022.2.2,60.129217688808296,
negative,negative,1,j,l,0,0,0,0,0,0,0,0,,,,,,,,,6,14,122,0,,,,,,,,,,,,,,,,,,,,,,,,,,,,,,,,,,,,,,,,main,1,1,1,negative,negative,477.1814773000001,477.1814773000001,477.1814773000001,477.1814773000001,478.16532750000033,478.1982631000001,j,j,1,0.9361847999998645,479.1277476,479.1277476,479.1277476,479.1277476,479.1277476,479.1277476,,,,,,,,,,,,,,,,,,,,,,,,,,,,,,,,,,,,,,,,,,,,,,,320,2023-02-06_12h58.05.810,Main,2022.2.2,60.129217688808296,
positive,negative,1,l,j,0,0,0,0,0,0,0,0,,,,,,,,,6,15,123,5,,,,,,,,,,,,,,,,,,,,,,,,,,,,,,,,,,,,,,,,main,1,1,1,negative,positive,479.1277476,479.1277476,479.1277476,479.1277476,480.1166963999999,480.14724300000034,l,l,1,1.0167136999998547,481.14363500000036,481.14363500000036,481.14363500000036,481.14363500000036,481.14363500000036,481.14363500000036,,,,,,,,,,,,,,,,,,,,,,,,,,,,,,,,,,,,,,,,,,,,,,,320,2023-02-06_12h58.05.810,Main,2022.2.2,60.129217688808296,
neutral,positive,1,k,k,0,0,0,0,0,0,0,0,,,,,,,,,6,16,124,4,,,,,,,,,,,,,,,,,,,,,,,,,,,,,,,,,,,,,,,,main,2,2,1,positive,neutral,481.14363500000036,481.14363500000036,481.14363500000036,481.14363500000036,482.1358332,482.16971730000023,k,k,1,0.8122515000000021,482.9631177000001,482.9631177000001,482.9631177000001,482.9631177000001,482.9631177000001,482.9631177000001,,,,,,,,,,,,,,,,,,,,,,,,,,,,,,,,,,,,,,,,,,,,,,,320,2023-02-06_12h58.05.810,Main,2022.2.2,60.129217688808296,
positive,neutral,1,l,j,0,0,0,0,0,0,0,0,,,,,,,,,6,17,125,8,,,,,,,,,,,,,,,,,,,,,,,,,,,,,,,,,,,,,,,,main,1,1,1,neutral,positive,482.9631177000001,482.9631177000001,482.9631177000001,482.9631177000001,483.9490022,483.97865850000017,l,l,1,0.8035576000002038,484.77073569999993,484.77073569999993,484.77073569999993,484.77073569999993,484.77073569999993,484.77073569999993,,,,,,,,,,,,,,,,,,,,,,,,,,,,,,,,,,,,,,,,,,,,,,,320,2023-02-06_12h58.05.810,Main,2022.2.2,60.129217688808296,
neutral,negative,2,k,k,0,0,0,0,0,0,0,0,,,,,,,,,7,0,126,16,,,,,,,,,,,,,,,,,,,,,,,,,,,,,,,,,,,,,,,,main,1,1,2,negative,neutral,484.77073569999993,484.77073569999993,484.77073569999993,484.77073569999993,485.7482937,485.8104198000001,k,k,1,0.8639815000001363,486.63805189999994,486.63805189999994,486.63805189999994,486.63805189999994,486.63805189999994,486.63805189999994,,,,,,,,,,,,,,,,,,,,,,,,,,,,,,,,,,,,,,,,,,,,,,,320,2023-02-06_12h58.05.810,Main,2022.2.2,60.129217688808296,
positive,positive,1,l,j,0,0,0,0,0,0,0,0,,,,,,,,,7,1,127,2,,,,,,,,,,,,,,,,,,,,,,,,,,,,,,,,,,,,,,,,main,1,1,1,positive,positive,486.63805189999994,486.63805189999994,486.63805189999994,486.63805189999994,487.61113190000015,487.6812149000002,l,l,1,0.8576256000001194,488.50185379999994,488.50185379999994,488.50185379999994,488.50185379999994,488.50185379999994,488.50185379999994,,,,,,,,,,,,,,,,,,,,,,,,,,,,,,,,,,,,,,,,,,,,,,,320,2023-02-06_12h58.05.810,Main,2022.2.2,60.129217688808296,
neutral,positive,1,k,k,0,0,0,0,0,0,0,0,,,,,,,,,7,2,128,4,,,,,,,,,,,,,,,,,,,,,,,,,,,,,,,,,,,,,,,,main,2,2,1,positive,neutral,488.50185379999994,488.50185379999994,488.50185379999994,488.50185379999994,489.47518930000024,489.53844630000003,k,k,1,0.853175199999896,490.3559634000003,490.3559634000003,490.3559634000003,490.3559634000003,490.3559634000003,490.3559634000003,,,,,,,,,,,,,,,,,,,,,,,,,,,,,,,,,,,,,,,,,,,,,,,320,2023-02-06_12h58.05.810,Main,2022.2.2,60.129217688808296,
negative,neutral,2,j,l,0,0,0,0,0,0,0,0,,,,,,,,,7,3,129,12,,,,,,,,,,,,,,,,,,,,,,,,,,,,,,,,,,,,,,,,main,1,1,2,neutral,negative,490.3559634000003,490.3559634000003,490.3559634000003,490.3559634000003,491.3452298000002,491.37629110000034,j,j,1,0.9354072000000997,492.2983767999999,492.2983767999999,492.2983767999999,492.2983767999999,492.2983767999999,492.2983767999999,,,,,,,,,,,,,,,,,,,,,,,,,,,,,,,,,,,,,,,,,,,,,,,320,2023-02-06_12h58.05.810,Main,2022.2.2,60.129217688808296,
negative,negative,1,j,l,0,0,0,0,0,0,0,0,,,,,,,,,7,4,130,0,,,,,,,,,,,,,,,,,,,,,,,,,,,,,,,,,,,,,,,,main,2,2,1,negative,negative,492.2983767999999,492.2983767999999,492.2983767999999,492.2983767999999,493.27988099999993,493.3422998000001,j,j,1,0.700320300000385,494.00160380000034,494.00160380000034,494.00160380000034,494.00160380000034,494.00160380000034,494.00160380000034,,,,,,,,,,,,,,,,,,,,,,,,,,,,,,,,,,,,,,,,,,,,,,,320,2023-02-06_12h58.05.810,Main,2022.2.2,60.129217688808296,
neutral,positive,2,k,k,0,0,0,0,0,0,0,0,,,,,,,,,7,5,131,13,,,,,,,,,,,,,,,,,,,,,,,,,,,,,,,,,,,,,,,,main,2,2,2,positive,neutral,494.00160380000034,494.00160380000034,494.00160380000034,494.00160380000034,494.97447200000033,495.0406103,k,k,1,0.8587190999996892,495.8622285000001,495.8622285000001,495.8622285000001,495.8622285000001,495.8622285000001,495.8622285000001,,,,,,,,,,,,,,,,,,,,,,,,,,,,,,,,,,,,,,,,,,,,,,,320,2023-02-06_12h58.05.810,Main,2022.2.2,60.129217688808296,
positive,negative,2,l,j,0,0,0,0,0,0,0,0,,,,,,,,,7,6,132,14,,,,,,,,,,,,,,,,,,,,,,,,,,,,,,,,,,,,,,,,main,1,1,2,negative,positive,495.8622285000001,495.8622285000001,495.8622285000001,495.8622285000001,496.8523862000002,496.88812499999995,l,l,1,0.7909346999999798,497.6637714000003,497.6637714000003,497.6637714000003,497.6637714000003,497.6637714000003,497.6637714000003,,,,,,,,,,,,,,,,,,,,,,,,,,,,,,,,,,,,,,,,,,,,,,,320,2023-02-06_12h58.05.810,Main,2022.2.2,60.129217688808296,
negative,neutral,1,j,l,0,0,0,0,0,0,0,0,,,,,,,,,7,7,133,3,,,,,,,,,,,,,,,,,,,,,,,,,,,,,,,,,,,,,,,,main,2,2,1,neutral,negative,497.6637714000003,497.6637714000003,497.6637714000003,497.6637714000003,498.6360695000003,498.6950386000003,j,j,1,0.9177103000001807,499.5794797000003,499.5794797000003,499.5794797000003,499.5794797000003,499.5794797000003,499.5794797000003,,,,,,,,,,,,,,,,,,,,,,,,,,,,,,,,,,,,,,,,,,,,,,,320,2023-02-06_12h58.05.810,Main,2022.2.2,60.129217688808296,
positive,neutral,1,l,j,0,0,0,0,0,0,0,0,,,,,,,,,7,8,134,8,,,,,,,,,,,,,,,,,,,,,,,,,,,,,,,,,,,,,,,,main,1,1,1,neutral,positive,499.5794797000003,499.5794797000003,499.5794797000003,499.5794797000003,500.5771442,500.60794950000036,l,l,1,0.9638058999998975,501.55842340000027,501.55842340000027,501.55842340000027,501.55842340000027,501.55842340000027,501.55842340000027,,,,,,,,,,,,,,,,,,,,,,,,,,,,,,,,,,,,,,,,,,,,,,,320,2023-02-06_12h58.05.810,Main,2022.2.2,60.129217688808296,
neutral,negative,1,k,k,0,0,0,0,0,0,0,0,,,,,,,,,7,9,135,7,0,0,0,0,,,,,,,,,,,,,,,,,,,,,,,,,,,,,,,,,,,,main,1,1,1,negative,neutral,501.55842340000027,501.55842340000027,501.55842340000027,501.55842340000027,502.54455469999994,502.5828918000002,k,k,1,0.8524582999998529,503.3894786000001,503.3894786000001,503.3894786000001,503.3894786000001,503.3894786000001,503.3894786000001,,,,,,,,,503.3894786000001,503.3894786000001,503.3894786000001,503.3894786000001,None,,,,,,,,,,,,,,,,,,,,,,,,,,,,,,,,,,320,2023-02-06_12h58.05.810,Main,2022.2.2,60.129217688808296,
neutral,negative,1,k,k,0,0,0,0,0,0,0,0,,,,,,,,,7,9,135,7,,,,,,,,,,,,,,,,,,,,,,,,,,,,,,,,,,,,,,,,,,,,,,,,,,,,,,,,,,,,,,,,,,,,,,,,,,,,,,,,,,,,,,,,,,,,,,,,,,,,,,,,,,,,320,2023-02-06_12h58.05.810,Main,2022.2.2,60.129217688808296,
negative,positive,1,j,l,0,0,0,0,0,0,0,0,,,,,,,,,7,10,136,6,,,,,,,,,,,,,,,,,,,,,,,,,,,,,,,,,,,,,,,,main,2,2,1,positive,negative,563.4271343,563.4271343,563.4271343,563.4271343,564.3955857999999,564.4566755000001,j,j,1,1.2278888000000734,565.6568775999999,565.6568775999999,565.6568775999999,565.6568775999999,565.6568775999999,565.6568775999999,,,,,,,,,,,,,,,,,,,,,,,,,,,,,,,,,,,,,,,,,,,,,,,320,2023-02-06_12h58.05.810,Main,2022.2.2,60.129217688808296,
neutral,neutral,1,k,k,0,0,0,0,0,0,0,0,,,,,,,,,7,11,137,1,,,,,,,,,,,,,,,,,,,,,,,,,,,,,,,,,,,,,,,,main,2,2,1,neutral,neutral,565.6568775999999,565.6568775999999,565.6568775999999,565.6568775999999,566.6373404000001,566.7003741000003,k,k,1,0.8967341999996279,567.5507967000003,567.5507967000003,567.5507967000003,567.5507967000003,567.5507967000003,567.5507967000003,,,,,,,,,,,,,,,,,,,,,,,,,,,,,,,,,,,,,,,,,,,,,,,320,2023-02-06_12h58.05.810,Main,2022.2.2,60.129217688808296,
positive,neutral,2,l,j,0,0,0,0,0,0,0,0,,,,,,,,,7,12,138,17,,,,,,,,,,,,,,,,,,,,,,,,,,,,,,,,,,,,,,,,main,1,1,2,neutral,positive,567.5507967000003,567.5507967000003,567.5507967000003,567.5507967000003,568.5421172000001,568.5751114,l,l,1,0.8275525000003654,569.3916180000001,569.3916180000001,569.3916180000001,569.3916180000001,569.3916180000001,569.3916180000001,,,,,,,,,,,,,,,,,,,,,,,,,,,,,,,,,,,,,,,,,,,,,,,320,2023-02-06_12h58.05.810,Main,2022.2.2,60.129217688808296,
negative,positive,2,j,l,0,0,0,0,0,0,0,0,,,,,,,,,7,13,139,15,,,,,,,,,,,,,,,,,,,,,,,,,,,,,,,,,,,,,,,,main,1,1,2,positive,negative,569.3916180000001,569.3916180000001,569.3916180000001,569.3916180000001,570.3774473000003,570.4069258,j,j,1,0.922965899999781,571.3127959000003,571.3127959000003,571.3127959000003,571.3127959000003,571.3127959000003,571.3127959000003,,,,,,,,,,,,,,,,,,,,,,,,,,,,,,,,,,,,,,,,,,,,,,,320,2023-02-06_12h58.05.810,Main,2022.2.2,60.129217688808296,
negative,negative,2,j,l,0,0,0,0,0,0,0,0,,,,,,,,,7,14,140,9,,,,,,,,,,,,,,,,,,,,,,,,,,,,,,,,,,,,,,,,main,1,1,2,negative,negative,571.3127959000003,571.3127959000003,571.3127959000003,571.3127959000003,572.3039936,572.3415658000004,j,j,1,0.7693812000002254,573.0838787000002,573.0838787000002,573.0838787000002,573.0838787000002,573.0838787000002,573.0838787000002,,,,,,,,,,,,,,,,,,,,,,,,,,,,,,,,,,,,,,,,,,,,,,,320,2023-02-06_12h58.05.810,Main,2022.2.2,60.129217688808296,
neutral,neutral,2,k,k,0,0,0,0,0,0,0,0,,,,,,,,,7,15,141,10,,,,,,,,,,,,,,,,,,,,,,,,,,,,,,,,,,,,,,,,main,2,2,2,neutral,neutral,573.0838787000002,573.0838787000002,573.0838787000002,573.0838787000002,574.0826174000003,574.1130410999999,k,k,1,0.7333753000002616,574.8258903999999,574.8258903999999,574.8258903999999,574.8258903999999,574.8258903999999,574.8258903999999,,,,,,,,,,,,,,,,,,,,,,,,,,,,,,,,,,,,,,,,,,,,,,,320,2023-02-06_12h58.05.810,Main,2022.2.2,60.129217688808296,
positive,positive,2,l,j,0,0,0,0,0,0,0,0,,,,,,,,,7,16,142,11,,,,,,,,,,,,,,,,,,,,,,,,,,,,,,,,,,,,,,,,main,1,1,2,positive,positive,574.8258903999999,574.8258903999999,574.8258903999999,574.8258903999999,575.8199622000002,575.8494853000002,l,l,1,0.8756327000000965,576.7058926,576.7058926,576.7058926,576.7058926,576.7058926,576.7058926,,,,,,,,,,,,,,,,,,,,,,,,,,,,,,,,,,,,,,,,,,,,,,,320,2023-02-06_12h58.05.810,Main,2022.2.2,60.129217688808296,
positive,negative,1,l,j,0,0,0,0,0,0,0,0,,,,,,,,,7,17,143,5,,,,,,,,,,,,,,,,,,,,,,,,,,,,,,,,,,,,,,,,main,2,2,1,negative,positive,576.7058926,576.7058926,576.7058926,576.7058926,577.6928714999999,577.7241326000003,l,l,1,0.7257109000001947,578.4394390000002,578.4394390000002,578.4394390000002,578.4394390000002,578.4394390000002,578.4394390000002,,,,,,,,,,,,,,,,,,,,,,,,,,,,,,,,,,,,,,,,,,,,,,,320,2023-02-06_12h58.05.810,Main,2022.2.2,60.129217688808296,
neutral,positive,2,k,k,0,0,0,0,0,0,0,0,,,,,,,,,8,0,144,13,,,,,,,,,,,,,,,,,,,,,,,,,,,,,,,,,,,,,,,,main,1,1,2,positive,neutral,578.4394390000002,578.4394390000002,578.4394390000002,578.4394390000002,579.4220061999999,579.4547500000003,k,k,1,0.898693799999819,580.3383311000002,580.3383311000002,580.3383311000002,580.3383311000002,580.3383311000002,580.3383311000002,,,,,,,,,,,,,,,,,,,,,,,,,,,,,,,,,,,,,,,,,,,,,,,320,2023-02-06_12h58.05.810,Main,2022.2.2,60.129217688808296,
neutral,neutral,1,k,k,0,0,0,0,0,0,0,0,,,,,,,,,8,1,145,1,,,,,,,,,,,,,,,,,,,,,,,,,,,,,,,,,,,,,,,,main,1,1,1,neutral,neutral,580.3383311000002,580.3383311000002,580.3383311000002,580.3383311000002,581.3373405000002,581.3667810000002,k,k,1,0.8333205000003545,582.1727141000001,582.1727141000001,582.1727141000001,582.1727141000001,582.1727141000001,582.1727141000001,,,,,,,,,,,,,,,,,,,,,,,,,,,,,,,,,,,,,,,,,,,,,,,320,2023-02-06_12h58.05.810,Main,2022.2.2,60.129217688808296,
neutral,neutral,2,k,k,0,0,0,0,0,0,0,0,,,,,,,,,8,2,146,10,,,,,,,,,,,,,,,,,,,,,,,,,,,,,,,,,,,,,,,,main,2,2,2,neutral,neutral,582.1727141000001,582.1727141000001,582.1727141000001,582.1727141000001,583.1731765,583.2027415000002,k,k,1,0.9791678000001411,584.1561716000001,584.1561716000001,584.1561716000001,584.1561716000001,584.1561716000001,584.1561716000001,,,,,,,,,,,,,,,,,,,,,,,,,,,,,,,,,,,,,,,,,,,,,,,320,2023-02-06_12h58.05.810,Main,2022.2.2,60.129217688808296,
negative,neutral,2,j,l,0,0,0,0,0,0,0,0,,,,,,,,,8,3,147,12,,,,,,,,,,,,,,,,,,,,,,,,,,,,,,,,,,,,,,,,main,2,2,2,neutral,negative,584.1561716000001,584.1561716000001,584.1561716000001,584.1561716000001,585.1330825,585.1972003000001,j,j,1,0.8917083000001185,586.0530656000001,586.0530656000001,586.0530656000001,586.0530656000001,586.0530656000001,586.0530656000001,,,,,,,,,,,,,,,,,,,,,,,,,,,,,,,,,,,,,,,,,,,,,,,320,2023-02-06_12h58.05.810,Main,2022.2.2,60.129217688808296,
neutral,negative,1,k,k,0,0,0,0,0,0,0,0,,,,,,,,,8,4,148,7,,,,,,,,,,,,,,,,,,,,,,,,,,,,,,,,,,,,,,,,main,1,1,1,negative,neutral,586.0530656000001,586.0530656000001,586.0530656000001,586.0530656000001,587.0224965000002,587.0820723000002,k,k,1,0.8503541000000041,587.9050519000002,587.9050519000002,587.9050519000002,587.9050519000002,587.9050519000002,587.9050519000002,,,,,,,,,,,,,,,,,,,,,,,,,,,,,,,,,,,,,,,,,,,,,,,320,2023-02-06_12h58.05.810,Main,2022.2.2,60.129217688808296,
positive,neutral,2,l,j,0,0,0,0,0,0,0,0,,,,,,,,,8,5,149,17,,,,,,,,,,,,,,,,,,,,,,,,,,,,,,,,,,,,,,,,main,1,1,2,neutral,positive,587.9050519000002,587.9050519000002,587.9050519000002,587.9050519000002,588.8900653000001,588.9208074000003,l,l,1,0.8763692000002266,589.7835803000003,589.7835803000003,589.7835803000003,589.7835803000003,589.7835803000003,589.7835803000003,,,,,,,,,,,,,,,,,,,,,,,,,,,,,,,,,,,,,,,,,,,,,,,320,2023-02-06_12h58.05.810,Main,2022.2.2,60.129217688808296,
negative,neutral,1,j,l,0,0,0,0,0,0,0,0,,,,,,,,,8,6,150,3,,,,,,,,,,,,,,,,,,,,,,,,,,,,,,,,,,,,,,,,main,2,2,1,neutral,negative,589.7835803000003,589.7835803000003,589.7835803000003,589.7835803000003,590.7820689,590.8125607000002,j,j,1,0.9112712000001011,591.6937731000003,591.6937731000003,591.6937731000003,591.6937731000003,591.6937731000003,591.6937731000003,,,,,,,,,,,,,,,,,,,,,,,,,,,,,,,,,,,,,,,,,,,,,,,320,2023-02-06_12h58.05.810,Main,2022.2.2,60.129217688808296,
negative,positive,2,j,l,0,0,0,0,0,0,0,0,,,,,,,,,8,7,151,15,,,,,,,,,,,,,,,,,,,,,,,,,,,,,,,,,,,,,,,,main,1,1,2,positive,negative,591.6937731000003,591.6937731000003,591.6937731000003,591.6937731000003,592.6909882,592.7238161,j,j,1,0.9872067000001152,593.6888367000001,593.6888367000001,593.6888367000001,593.6888367000001,593.6888367000001,593.6888367000001,,,,,,,,,,,,,,,,,,,,,,,,,,,,,,,,,,,,,,,,,,,,,,,320,2023-02-06_12h58.05.810,Main,2022.2.2,60.129217688808296,
neutral,negative,2,k,k,0,0,0,0,0,0,0,0,,,,,,,,,8,8,152,16,,,,,,,,,,,,,,,,,,,,,,,,,,,,,,,,,,,,,,,,main,2,2,2,negative,neutral,593.6888367000001,593.6888367000001,593.6888367000001,593.6888367000001,594.6730626000003,594.7101494000003,k,k,1,0.7500434999997196,595.4371529,595.4371529,595.4371529,595.4371529,595.4371529,595.4371529,,,,,,,,,,,,,,,,,,,,,,,,,,,,,,,,,,,,,,,,,,,,,,,320,2023-02-06_12h58.05.810,Main,2022.2.2,60.129217688808296,
positive,neutral,1,l,j,0,0,0,0,0,0,0,0,,,,,,,,,8,9,153,8,,,,,,,,,,,,,,,,,,,,,,,,,,,,,,,,,,,,,,,,main,2,2,1,neutral,positive,595.4371529,595.4371529,595.4371529,595.4371529,596.4262089000003,596.4596793999999,l,l,1,0.7536245000001145,597.1943322000002,597.1943322000002,597.1943322000002,597.1943322000002,597.1943322000002,597.1943322000002,,,,,,,,,,,,,,,,,,,,,,,,,,,,,,,,,,,,,,,,,,,,,,,320,2023-02-06_12h58.05.810,Main,2022.2.2,60.129217688808296,
positive,positive,1,l,j,0,0,0,0,0,0,0,0,,,,,,,,,8,10,154,2,,,,,,,,,,,,,,,,,,,,,,,,,,,,,,,,,,,,,,,,main,1,1,1,positive,positive,597.1943322000002,597.1943322000002,597.1943322000002,597.1943322000002,598.1946919000002,598.2332550000001,l,l,1,0.7855304999998225,598.9852277,598.9852277,598.9852277,598.9852277,598.9852277,598.9852277,,,,,,,,,,,,,,,,,,,,,,,,,,,,,,,,,,,,,,,,,,,,,,,320,2023-02-06_12h58.05.810,Main,2022.2.2,60.129217688808296,
neutral,positive,1,k,k,0,0,0,0,0,0,0,0,,,,,,,,,8,11,155,4,,,,,,,,,,,,,,,,,,,,,,,,,,,,,,,,,,,,,,,,main,2,2,1,positive,neutral,598.9852277,598.9852277,598.9852277,598.9852277,599.9684288000003,599.9989799,k,k,1,0.7062856000002284,600.6985484000002,600.6985484000002,600.6985484000002,600.6985484000002,600.6985484000002,600.6985484000002,,,,,,,,,,,,,,,,,,,,,,,,,,,,,,,,,,,,,,,,,,,,,,,320,2023-02-06_12h58.05.810,Main,2022.2.2,60.129217688808296,
positive,negative,2,l,j,0,0,0,0,0,0,0,0,,,,,,,,,8,12,156,14,,,,,,,,,,,,,,,,,,,,,,,,,,,,,,,,,,,,,,,,main,2,2,2,negative,positive,600.6985484000002,600.6985484000002,600.6985484000002,600.6985484000002,601.6859387,601.7191554999999,l,l,1,0.8758867000001374,602.5712773,602.5712773,602.5712773,602.5712773,602.5712773,602.5712773,,,,,,,,,,,,,,,,,,,,,,,,,,,,,,,,,,,,,,,,,,,,,,,320,2023-02-06_12h58.05.810,Main,2022.2.2,60.129217688808296,
negative,negative,1,j,l,0,0,0,0,0,0,0,0,,,,,,,,,8,13,157,0,,,,,,,,,,,,,,,,,,,,,,,,,,,,,,,,,,,,,,,,main,1,1,1,negative,negative,602.5712773,602.5712773,602.5712773,602.5712773,603.5571290000003,603.5880566999999,j,j,1,0.95936649999976,604.5385313000002,604.5385313000002,604.5385313000002,604.5385313000002,604.5385313000002,604.5385313000002,,,,,,,,,,,,,,,,,,,,,,,,,,,,,,,,,,,,,,,,,,,,,,,320,2023-02-06_12h58.05.810,Main,2022.2.2,60.129217688808296,
positive,negative,1,l,j,0,0,0,0,0,0,0,0,,,,,,,,,8,14,158,5,,,,,,,,,,,,,,,,,,,,,,,,,,,,,,,,,,,,,,,,main,2,2,1,negative,positive,604.5385313000002,604.5385313000002,604.5385313000002,604.5385313000002,605.5250842,605.5547672000002,l,l,1,0.847944600000119,606.3899455999999,606.3899455999999,606.3899455999999,606.3899455999999,606.3899455999999,606.3899455999999,,,,,,,,,,,,,,,,,,,,,,,,,,,,,,,,,,,,,,,,,,,,,,,320,2023-02-06_12h58.05.810,Main,2022.2.2,60.129217688808296,
positive,positive,2,l,j,0,0,0,0,0,0,0,0,,,,,,,,,8,15,159,11,,,,,,,,,,,,,,,,,,,,,,,,,,,,,,,,,,,,,,,,main,2,2,2,positive,positive,606.3899455999999,606.3899455999999,606.3899455999999,606.3899455999999,607.3845058000002,607.4151311,l,l,1,0.7756728999997904,608.1679543,608.1679543,608.1679543,608.1679543,608.1679543,608.1679543,,,,,,,,,,,,,,,,,,,,,,,,,,,,,,,,,,,,,,,,,,,,,,,320,2023-02-06_12h58.05.810,Main,2022.2.2,60.129217688808296,
negative,positive,1,j,l,0,0,0,0,0,0,0,0,,,,,,,,,8,16,160,6,,,,,,,,,,,,,,,,,,,,,,,,,,,,,,,,,,,,,,,,main,2,2,1,positive,negative,608.1679543,608.1679543,608.1679543,608.1679543,609.1413070000003,609.2043405,j,j,1,0.816970400000173,609.9866630000001,609.9866630000001,609.9866630000001,609.9866630000001,609.9866630000001,609.9866630000001,,,,,,,,,,,,,,,,,,,,,,,,,,,,,,,,,,,,,,,,,,,,,,,320,2023-02-06_12h58.05.810,Main,2022.2.2,60.129217688808296,
negative,negative,2,j,l,0,0,0,0,0,0,0,0,,,,,,,,,8,17,161,9,,,,,,,,,,,,,,,,,,,,,,,,,,,,,,,,,,,,,,,,main,2,2,2,negative,negative,609.9866630000001,609.9866630000001,609.9866630000001,609.9866630000001,610.9593009,611.0190699,j,j,1,0.826846999999816,611.8136933000001,611.8136933000001,611.8136933000001,611.8136933000001,611.8136933000001,611.8136933000001,,,,,,,,,,,,,,,,,,,,,,,,,,,,,,,,,,,,,,,,,,,,,,,320,2023-02-06_12h58.05.810,Main,2022.2.2,60.129217688808296,
positive,neutral,1,l,j,0,0,0,0,0,0,0,0,,,,,,,,,9,0,162,8,,,,,,,,,,,,,,,,,,,,,,,,,,,,,,,,,,,,,,,,main,1,1,1,neutral,positive,611.8136933000001,611.8136933000001,611.8136933000001,611.8136933000001,612.7971634,612.8312980999999,l,l,1,0.9228483000001688,613.7430891000004,613.7430891000004,613.7430891000004,613.7430891000004,613.7430891000004,613.7430891000004,,,,,,,,,,,,,,,,,,,,,,,,,,,,,,,,,,,,,,,,,,,,,,,320,2023-02-06_12h58.05.810,Main,2022.2.2,60.129217688808296,
negative,negative,2,j,l,0,0,0,0,0,0,0,0,,,,,,,,,9,1,163,9,,,,,,,,,,,,,,,,,,,,,,,,,,,,,,,,,,,,,,,,main,2,2,2,negative,negative,613.7430891000004,613.7430891000004,613.7430891000004,613.7430891000004,614.7381482999999,614.7737334000003,j,j,1,0.9122944000000643,615.6513745000002,615.6513745000002,615.6513745000002,615.6513745000002,615.6513745000002,615.6513745000002,,,,,,,,,,,,,,,,,,,,,,,,,,,,,,,,,,,,,,,,,,,,,,,320,2023-02-06_12h58.05.810,Main,2022.2.2,60.129217688808296,
neutral,positive,2,k,k,0,0,0,0,0,0,0,0,,,,,,,,,9,2,164,13,,,,,,,,,,,,,,,,,,,,,,,,,,,,,,,,,,,,,,,,main,2,2,2,positive,neutral,615.6513745000002,615.6513745000002,615.6513745000002,615.6513745000002,616.6430969000003,616.6746867000002,k,k,1,0.801404199999979,617.4610921000003,617.4610921000003,617.4610921000003,617.4610921000003,617.4610921000003,617.4610921000003,,,,,,,,,,,,,,,,,,,,,,,,,,,,,,,,,,,,,,,,,,,,,,,320,2023-02-06_12h58.05.810,Main,2022.2.2,60.129217688808296,
negative,positive,1,j,l,0,0,0,0,0,0,0,0,,,,,,,,,9,3,165,6,,,,,,,,,,,,,,,,,,,,,,,,,,,,,,,,,,,,,,,,main,1,1,1,positive,negative,617.4610921000003,617.4610921000003,617.4610921000003,617.4610921000003,618.4381951,618.5033564,j,j,1,0.797732200000155,619.2676940000001,619.2676940000001,619.2676940000001,619.2676940000001,619.2676940000001,619.2676940000001,,,,,,,,,,,,,,,,,,,,,,,,,,,,,,,,,,,,,,,,,,,,,,,320,2023-02-06_12h58.05.810,Main,2022.2.2,60.129217688808296,
positive,positive,2,l,j,0,0,0,0,0,0,0,0,,,,,,,,,9,4,166,11,,,,,,,,,,,,,,,,,,,,,,,,,,,,,,,,,,,,,,,,main,1,1,2,positive,positive,619.2676940000001,619.2676940000001,619.2676940000001,619.2676940000001,620.2567139000002,620.2961373000003,l,l,1,0.7752634000003127,621.0475524000003,621.0475524000003,621.0475524000003,621.0475524000003,621.0475524000003,621.0475524000003,,,,,,,,,,,,,,,,,,,,,,,,,,,,,,,,,,,,,,,,,,,,,,,320,2023-02-06_12h58.05.810,Main,2022.2.2,60.129217688808296,
positive,positive,1,l,j,0,0,0,0,0,0,0,0,,,,,,,,,9,5,167,2,,,,,,,,,,,,,,,,,,,,,,,,,,,,,,,,,,,,,,,,main,1,1,1,positive,positive,621.0475524000003,621.0475524000003,621.0475524000003,621.0475524000003,622.0286134000003,622.0926536000002,l,l,1,0.7499518999998145,622.7981404000002,622.7981404000002,622.7981404000002,622.7981404000002,622.7981404000002,622.7981404000002,,,,,,,,,,,,,,,,,,,,,,,,,,,,,,,,,,,,,,,,,,,,,,,320,2023-02-06_12h58.05.810,Main,2022.2.2,60.129217688808296,
neutral,positive,1,k,k,0,0,0,0,0,0,0,0,,,,,,,,,9,6,168,4,,,,,,,,,,,,,,,,,,,,,,,,,,,,,,,,,,,,,,,,main,2,2,1,positive,neutral,622.7981404000002,622.7981404000002,622.7981404000002,622.7981404000002,623.7901218000002,623.8202079000002,k,k,1,0.7074680000000626,624.5151850000002,624.5151850000002,624.5151850000002,624.5151850000002,624.5151850000002,624.5151850000002,,,,,,,,,,,,,,,,,,,,,,,,,,,,,,,,,,,,,,,,,,,,,,,320,2023-02-06_12h58.05.810,Main,2022.2.2,60.129217688808296,
