distractor,target,set,ans1,ans2,total_experiment.thisRepN,total_experiment.thisTrialN,total_experiment.thisN,total_experiment.thisIndex,boat.thisRepN,boat.thisTrialN,boat.thisN,boat.thisIndex,para.thisRepN,para.thisTrialN,para.thisN,para.thisIndex,para_rep_loop.thisRepN,para_rep_loop.thisTrialN,para_rep_loop.thisN,para_rep_loop.thisIndex,para_prac_loop.thisRepN,para_prac_loop.thisTrialN,para_prac_loop.thisN,para_prac_loop.thisIndex,para_main_loop.thisRepN,para_main_loop.thisTrialN,para_main_loop.thisN,para_main_loop.thisIndex,para_rest.thisRepN,para_rest.thisTrialN,para_rest.thisN,para_rest.thisIndex,fl_rep_loop2.thisRepN,fl_rep_loop2.thisTrialN,fl_rep_loop2.thisN,fl_rep_loop2.thisIndex,flanker_prac_loop.thisRepN,flanker_prac_loop.thisTrialN,flanker_prac_loop.thisN,flanker_prac_loop.thisIndex,flanker_main_loop.thisRepN,flanker_main_loop.thisTrialN,flanker_main_loop.thisN,flanker_main_loop.thisIndex,flanker_rest.thisRepN,flanker_rest.thisTrialN,flanker_rest.thisN,flanker_rest.thisIndex,para_starter.started,para_starter_key.started,para_starter_key.keys,para_starter_key.rt,para_inst_sound.started,para_inst_key.keys,para_inst_key.rt,para_inst_image.started,para_prac_back.started,para_prac_text.started,para_fix_back.started,para_fix_2.started,main_prac,para_back.started,st_ans,st_res,st_corr,st_rt,st2_resp.keys,st2_resp.corr,para_main_back.started,para_main_text.started,para_mouse.started,para_mouse.x,para_mouse.y,para_mouse.leftButton,para_mouse.midButton,para_mouse.rightButton,rest_text.started,rest_key.started,rest_inst_text.started,rest_time.started,rest_key.keys,exp_end_key.started,exp_end_back.started,exp_end_text.started,exp_end_key.keys,exp_end_key.rt,fl_starter_back.started,fl_starter.started,fl_starter_text.started,fl_starter.keys,fl_starter.rt,fl_inst_resp.keys,fl_inst_resp.rt,fl_back.started,fl_mouse_prac.started,fl_mouse_prac.x,fl_mouse_prac.y,fl_mouse_prac.leftButton,fl_mouse_prac.midButton,fl_mouse_prac.rightButton,back_2.started,fl_cold,fl_colt,fl_set,fl_dcond,fl_tcond,fl_fix.started,j_button.started,k_button.started,l_button.started,targ.started,fl_fix.stopped,fl_ans,fl_res,fl_corr,fl_rt,j_button2.started,k_button2.started,l_button2.started,j_button2.stopped,k_button2.stopped,l_button2.stopped,fl_mainback.started,fl_mouse_m.started,fl_key_resp.keys,fl_mouse_m.x,fl_mouse_m.y,fl_mouse_m.leftButton,fl_mouse_m.midButton,fl_mouse_m.rightButton,rest_text.stopped,rest_key.stopped,rest_inst_text.stopped,rest_time.stopped,total_end_text.started,id*,date,expName,psychopyVersion,frameRate,
,,,,,0,0,0,0,,,,,0,0,0,0,0,0,0,0,,,,,,,,,,,,,,,,,,,,,,,,,,,,,91.67521639999995,91.67521639999995,space,6.371207300000037,99.07988537000003,space,110.61542369999995,209.77952370000003,,,,,,,,,,,,,,,,,,,,,,,,,,,,,,,,,,,,,,,,,,,,,,,,,,,,,,,,,,,,,,,,,,,,,,,,,,,,,,,,321,2023-02-13_11h01.50.499,Main,2022.2.2,59.86052497680231,
positive,blue,2,k,None,0,0,0,0,,,,,0,0,0,0,,,,,0,0,0,14,,,,,,,,,,,,,,,,,,,,,,,,,,,,,,,,,212.6935570999999,212.6935570999999,214.67501019999986,214.67501019999986,prac,216.83613100000002,None,None,1,1.5031659000001127,None,1,,,,,,,,,,,,,,,,,,,,,,,,,,,,,,,,,,,,,,,,,,,,,,,,,,,,,,,,,,,,,,,,,,,,321,2023-02-13_11h01.50.499,Main,2022.2.2,59.86052497680231,
negative,blue,2,None,k,0,0,0,0,,,,,0,0,0,0,,,,,0,1,1,2,,,,,,,,,,,,,,,,,,,,,,,,,,,,,,,,,,,,,prac,219.3215106,k,k,1,1.6242970000000696,None,0,,,,,,,,,,,,,,,,,,,,,,,,,,,,,,,,,,,,,,,,,,,,,,,,,,,,,,,,,,,,,,,,,,,,321,2023-02-13_11h01.50.499,Main,2022.2.2,59.86052497680231,
positive,yellow,1,None,k,0,0,0,0,,,,,0,0,0,0,,,,,0,2,2,19,,,,,,,,,,,,,,,,,,,,,,,,,,,,,,,,,,,,,prac,223.00794730000007,k,k,1,3.5019615999999587,None,0,,,,,,,,,,,,,,,,,,,,,,,,,,,,,,,,,,,,,,,,,,,,,,,,,,,,,,,,,,,,,,,,,,,,321,2023-02-13_11h01.50.499,Main,2022.2.2,59.86052497680231,
positive,yellow,2,None,k,0,0,0,0,,,,,0,0,0,0,,,,,0,3,3,10,,,,,,,,,,,,,,,,,,,,,,,,,,,,,,,,,,,,,prac,228.54797949999988,k,k,1,1.4434192999999595,None,0,,,,,,,,,,,,,,,,,,,,,,,,,,,,,,,,,,,,,,,,,,,,,,,,,,,,,,,,,,,,,,,,,,,,321,2023-02-13_11h01.50.499,Main,2022.2.2,59.86052497680231,
positive,blue,1,k,None,0,0,0,0,,,,,0,0,0,0,,,,,0,4,4,15,,,,,,,,,,,,,,,,,,,,,,,,,,,,,,,,,,,,,prac,230.99157639999999,None,None,1,1.527168999999958,None,1,,,,,,,,,,,,,,,,,,,,,,,,,,,,,,,,,,,,,,,,,,,,,,,,,,,,,,,,,,,,,,,,,,,,321,2023-02-13_11h01.50.499,Main,2022.2.2,59.86052497680231,
negative,red,2,None,None,0,0,0,0,,,,,0,0,0,0,,,,,0,5,5,12,,,,,,,,,,,,,,,,,,,,,,,,,,,,,,,,,,,,,prac,233.51278639999987,None,None,1,1.5293405999998413,None,1,,,,,,,,,,,,,,,,,,,,,,,,,,,,,,,,,,,,,,,,,,,,,,,,,,,,,,,,,,,,,,,,,,,,321,2023-02-13_11h01.50.499,Main,2022.2.2,59.86052497680231,
negative,blue,2,None,k,0,0,0,0,,,,,0,0,0,0,,,,,0,6,6,4,,,,,,,,,,,,,,,,,,,,,,,,,,,,,,,,,,,,,prac,236.04115090000005,k,k,1,1.9658014999999978,None,0,,,,,,,,,,,,,,,,,,,,,,,,,,,,,,,,,,,,,,,,,,,,,,,,,,,,,,,,,,,,,,,,,,,,321,2023-02-13_11h01.50.499,Main,2022.2.2,59.86052497680231,
negative,red,1,None,None,0,0,0,0,,,,,0,0,0,0,,,,,0,7,7,7,,,,,,,,,,,,,,,,,,,,,,,,,,,,,,,,,,,,,prac,240.0591950999999,None,None,1,1.5097335000000385,None,1,,,,,,,,,,,,,,,,,,,,,,,,,,,,,,,,,,,,,,,,,,,,,,,,,,,,,,,,,,,,,,,,,,,,321,2023-02-13_11h01.50.499,Main,2022.2.2,59.86052497680231,
negative,yellow,1,k,None,0,0,0,0,,,,,0,0,0,0,,,,,0,8,8,9,,,,,,,,,,,,,,,,,,,,,,,,,,,,,,,,,,,,,prac,242.5683414,None,None,1,1.530989800000043,None,1,,,,,,,,,,,,,,,,,,,,,,,,,,,,,,,,,,,,,,,,,,,,,,,,,,,,,,,,,,,,,,,,,,,,321,2023-02-13_11h01.50.499,Main,2022.2.2,59.86052497680231,
negative,yellow,2,k,None,0,0,0,0,,,,,0,0,0,0,,,,,0,9,9,11,,,,,,,,,,,,,,,,,,,,,,,,,,,,,,,,,,,,,prac,245.09723009999993,None,None,1,1.523272899999938,None,1,,,,,,,,,,,,,,,,,,,,,,,,,,,,,,,,,,,,,,,,,,,,,,,,,,,,,,,,,,,,,,,,,,,,321,2023-02-13_11h01.50.499,Main,2022.2.2,59.86052497680231,
positive,blue,1,k,None,0,0,0,0,,,,,0,0,0,0,,,,,0,10,10,18,,,,,,,,,,,,,,,,,,,,,,,,,,,,,,,,,,,,,prac,247.62526709999997,None,None,1,1.519447300000138,None,1,,,,,,,,,,,,,,,,,,,,,,,,,,,,,,,,,,,,,,,,,,,,,,,,,,,,,,,,,,,,,,,,,,,,321,2023-02-13_11h01.50.499,Main,2022.2.2,59.86052497680231,
positive,yellow,2,None,k,0,0,0,0,,,,,0,0,0,0,,,,,0,11,11,8,,,,,,,,,,,,,,,,,,,,,,,,,,,,,,,,,,,,,prac,250.14416800000004,k,None,0,9.056864800000085,None,0,,,,,,,,,,,,,,,,,,,,,,,,,,,,,,,,,,,,,,,,,,,,,,,,,,,,,,,,,,,,,,,,,,,,321,2023-02-13_11h01.50.499,Main,2022.2.2,59.86052497680231,
negative,yellow,2,k,None,0,0,0,0,,,,,0,0,0,0,,,,,0,12,12,6,,,,,,,,,,,,,,,,,,,,,,,,,,,,,,,,,,,,,prac,261.2666448,None,None,1,1.5295595000000048,None,1,,,,,,,,,,,,,,,,,,,,,,,,,,,,,,,,,,,,,,,,,,,,,,,,,,,,,,,,,,,,,,,,,,,,321,2023-02-13_11h01.50.499,Main,2022.2.2,59.86052497680231,
positive,blue,2,k,None,0,0,0,0,,,,,0,0,0,0,,,,,0,13,13,17,,,,,,,,,,,,,,,,,,,,,,,,,,,,,,,,,,,,,prac,263.79175209999994,None,None,1,1.5131874999999582,None,1,,,,,,,,,,,,,,,,,,,,,,,,,,,,,,,,,,,,,,,,,,,,,,,,,,,,,,,,,,,,,,,,,,,,321,2023-02-13_11h01.50.499,Main,2022.2.2,59.86052497680231,
negative,blue,1,None,k,0,0,0,0,,,,,0,0,0,0,,,,,0,14,14,5,,,,,,,,,,,,,,,,,,,,,,,,,,,,,,,,,,,,,prac,266.30938420000007,k,k,1,1.7050489999999172,None,0,,,,,,,,,,,,,,,,,,,,,,,,,,,,,,,,,,,,,,,,,,,,,,,,,,,,,,,,,,,,,,,,,,,,321,2023-02-13_11h01.50.499,Main,2022.2.2,59.86052497680231,
negative,blue,1,None,k,0,0,0,0,,,,,0,0,0,0,,,,,0,15,15,16,,,,,,,,,,,,,,,,,,,,,,,,,,,,,,,,,,,,,prac,270.04019649999987,k,k,1,1.6963949999999386,None,0,,,,,,,,,,,,,,,,,,,,,,,,,,,,,,,,,,,,,,,,,,,,,,,,,,,,,,,,,,,,,,,,,,,,321,2023-02-13_11h01.50.499,Main,2022.2.2,59.86052497680231,
positive,red,2,None,None,0,0,0,0,,,,,0,0,0,0,,,,,0,16,16,1,,,,,,,,,,,,,,,,,,,,,,,,,,,,,,,,,,,,,prac,273.7583763,None,None,1,1.517543700000033,None,1,,,,,,,,,,,,,,,,,,,,,,,,,,,,,,,,,,,,,,,,,,,,,,,,,,,,,,,,,,,,,,,,,,,,321,2023-02-13_11h01.50.499,Main,2022.2.2,59.86052497680231,
positive,yellow,1,None,k,0,0,0,0,,,,,0,0,0,0,,,,,0,17,17,3,,,,,,,,,,,,,,,,,,,,,,,,,,,,,,,,,,,,,prac,276.2781754,k,k,1,2.014472000000069,None,0,,,,,,,,,,,,,,,,,,,,,,,,,,,,,,,,,,,,,,,,,,,,,,,,,,,,,,,,,,,,,,,,,,,,321,2023-02-13_11h01.50.499,Main,2022.2.2,59.86052497680231,
positive,red,1,None,None,0,0,0,0,,,,,0,0,0,0,,,,,0,18,18,13,,,,,,,,,,,,,,,,,,,,,,,,,,,,,,,,,,,,,prac,280.30568470000003,None,None,1,1.5280645000000277,None,1,,,,,,,,,,,,,,,,,,,,,,,,,,,,,,,,,,,,,,,,,,,,,,,,,,,,,,,,,,,,,,,,,,,,321,2023-02-13_11h01.50.499,Main,2022.2.2,59.86052497680231,
negative,yellow,1,k,None,0,0,0,0,,,,,0,0,0,0,,,,,0,19,19,0,,,,,,,,,,,,,,,,,,,,,,,,,,,,,,,,,,,,,prac,282.8370875999999,None,None,1,1.531642500000089,None,1,,,,,,,,,,,,,,,,,,,,,,,,,,,,,,,,,,,,,,,,,,,,,,,,,,,,,,,,,,,,,,,,,,,,321,2023-02-13_11h01.50.499,Main,2022.2.2,59.86052497680231,
positive,red,2,None,None,0,0,0,0,,,,,0,0,0,0,,,,,1,0,20,1,,,,,,,,,,,,,,,,,,,,,,,,,,,,,,,,,,,,,prac,285.36426589999996,None,None,1,1.5278021000001445,None,1,,,,,,,,,,,,,,,,,,,,,,,,,,,,,,,,,,,,,,,,,,,,,,,,,,,,,,,,,,,,,,,,,,,,321,2023-02-13_11h01.50.499,Main,2022.2.2,59.86052497680231,
negative,blue,1,None,k,0,0,0,0,,,,,0,0,0,0,,,,,1,1,21,16,,,,,,,,,,,,,,,,,,,,,,,,,,,,,,,,,,,,,prac,287.8958728,k,k,1,2.5599823000000015,None,0,,,,,,,,,,,,,,,,,,,,,,,,,,,,,,,,,,,,,,,,,,,,,,,,,,,,,,,,,,,,,,,,,,,,321,2023-02-13_11h01.50.499,Main,2022.2.2,59.86052497680231,
positive,blue,1,k,None,0,0,0,0,,,,,0,0,0,0,,,,,1,2,22,15,,,,,,,,,,,,,,,,,,,,,,,,,,,,,,,,,,,,,prac,292.47190380000006,None,None,1,1.5160739999998896,None,1,,,,,,,,,,,,,,,,,,,,,,,,,,,,,,,,,,,,,,,,,,,,,,,,,,,,,,,,,,,,,,,,,,,,321,2023-02-13_11h01.50.499,Main,2022.2.2,59.86052497680231,
positive,yellow,1,None,k,0,0,0,0,,,,,0,0,0,0,,,,,1,3,23,3,,,,,,,,,,,,,,,,,,,,,,,,,,,,,,,,,,,,,prac,294.9864279000001,k,k,1,1.9545043000000533,None,0,,,,,,,,,,,,,,,,,,,,,,,,,,,,,,,,,,,,,,,,,,,,,,,,,,,,,,,,,,,,,,,,,,,,321,2023-02-13_11h01.50.499,Main,2022.2.2,59.86052497680231,
positive,yellow,1,None,k,0,0,0,0,,,,,0,0,0,0,,,,,1,4,24,19,,,,,,,,,,,,,,,,,,,,,,,,,,,,,,,,,,,,,prac,298.97784350000006,k,k,1,1.41662180000003,None,0,,,,,,,,,,,,,,,,,,,,,,,,,,,,,,,,,,,,,,,,,,,,,,,,,,,,,,,,,,,,,,,,,,,,321,2023-02-13_11h01.50.499,Main,2022.2.2,59.86052497680231,
positive,yellow,2,None,k,0,0,0,0,,,,,0,0,0,0,,,,,1,5,25,8,,,,,,,,,,,,,,,,,,,,,,,,,,,,,,,,,,,,,prac,301.4072561999999,k,k,1,2.015666900000042,None,0,,,,,,,,,,,,,,,,,,,,,,,,,,,,,,,,,,,,,,,,,,,,,,,,,,,,,,,,,,,,,,,,,,,,321,2023-02-13_11h01.50.499,Main,2022.2.2,59.86052497680231,
positive,blue,2,k,None,0,0,0,0,,,,,0,0,0,0,,,,,1,6,26,14,,,,,,,,,,,,,,,,,,,,,,,,,,,,,,,,,,,,,prac,305.43858309999996,None,None,1,1.521239899999955,None,1,,,,,,,,,,,,,,,,,,,,,,,,,,,,,,,,,,,,,,,,,,,,,,,,,,,,,,,,,,,,,,,,,,,,321,2023-02-13_11h01.50.499,Main,2022.2.2,59.86052497680231,
negative,yellow,2,k,None,0,0,0,0,,,,,0,0,0,0,,,,,1,7,27,11,,,,,,,,,,,,,,,,,,,,,,,,,,,,,,,,,,,,,prac,307.9668096999999,None,None,1,1.5265219000000343,None,1,,,,,,,,,,,,,,,,,,,,,,,,,,,,,,,,,,,,,,,,,,,,,,,,,,,,,,,,,,,,,,,,,,,,321,2023-02-13_11h01.50.499,Main,2022.2.2,59.86052497680231,
negative,blue,1,None,k,0,0,0,0,,,,,0,0,0,0,,,,,1,8,28,5,,,,,,,,,,,,,,,,,,,,,,,,,,,,,,,,,,,,,prac,310.4947580999999,k,k,1,1.3837330999999722,None,0,,,,,,,,,,,,,,,,,,,,,,,,,,,,,,,,,,,,,,,,,,,,,,,,,,,,,,,,,,,,,,,,,,,,321,2023-02-13_11h01.50.499,Main,2022.2.2,59.86052497680231,
negative,yellow,1,k,None,0,0,0,0,,,,,0,0,0,0,,,,,1,9,29,9,,,,,,,,,,,,,,,,,,,,,,,,,,,,,,,,,,,,,prac,312.88566949999995,None,None,1,1.5123889999999847,None,1,,,,,,,,,,,,,,,,,,,,,,,,,,,,,,,,,,,,,,,,,,,,,,,,,,,,,,,,,,,,,,,,,,,,321,2023-02-13_11h01.50.499,Main,2022.2.2,59.86052497680231,
negative,yellow,1,k,None,0,0,0,0,,,,,0,0,0,0,,,,,1,10,30,0,,,,,,,,,,,,,,,,,,,,,,,,,,,,,,,,,,,,,prac,315.3949528999999,None,None,1,1.5244786000000659,None,1,,,,,,,,,,,,,,,,,,,,,,,,,,,,,,,,,,,,,,,,,,,,,,,,,,,,,,,,,,,,,,,,,,,,321,2023-02-13_11h01.50.499,Main,2022.2.2,59.86052497680231,
positive,red,1,None,None,0,0,0,0,,,,,0,0,0,0,,,,,1,11,31,13,,,,,,,,,,,,,,,,,,,,,,,,,,,,,,,,,,,,,prac,317.9230361,None,None,1,1.525861500000019,None,1,,,,,,,,,,,,,,,,,,,,,,,,,,,,,,,,,,,,,,,,,,,,,,,,,,,,,,,,,,,,,,,,,,,,321,2023-02-13_11h01.50.499,Main,2022.2.2,59.86052497680231,
positive,blue,1,k,None,0,0,0,0,,,,,0,0,0,0,,,,,1,12,32,18,,,,,,,,,,,,,,,,,,,,,,,,,,,,,,,,,,,,,prac,320.4516982,None,None,1,1.5252732999999807,None,1,,,,,,,,,,,,,,,,,,,,,,,,,,,,,,,,,,,,,,,,,,,,,,,,,,,,,,,,,,,,,,,,,,,,321,2023-02-13_11h01.50.499,Main,2022.2.2,59.86052497680231,
negative,yellow,2,k,None,0,0,0,0,,,,,0,0,0,0,,,,,1,13,33,6,,,,,,,,,,,,,,,,,,,,,,,,,,,,,,,,,,,,,prac,322.97563519999994,None,None,1,1.515525000000025,None,1,,,,,,,,,,,,,,,,,,,,,,,,,,,,,,,,,,,,,,,,,,,,,,,,,,,,,,,,,,,,,,,,,,,,321,2023-02-13_11h01.50.499,Main,2022.2.2,59.86052497680231,
negative,red,2,None,None,0,0,0,0,,,,,0,0,0,0,,,,,1,14,34,12,,,,,,,,,,,,,,,,,,,,,,,,,,,,,,,,,,,,,prac,325.4976801999999,None,None,1,1.5279617000001053,None,1,,,,,,,,,,,,,,,,,,,,,,,,,,,,,,,,,,,,,,,,,,,,,,,,,,,,,,,,,,,,,,,,,,,,321,2023-02-13_11h01.50.499,Main,2022.2.2,59.86052497680231,
negative,blue,2,None,k,0,0,0,0,,,,,0,0,0,0,,,,,1,15,35,4,,,,,,,,,,,,,,,,,,,,,,,,,,,,,,,,,,,,,prac,328.0219981,k,k,1,1.5668067999999948,None,0,,,,,,,,,,,,,,,,,,,,,,,,,,,,,,,,,,,,,,,,,,,,,,,,,,,,,,,,,,,,,,,,,,,,321,2023-02-13_11h01.50.499,Main,2022.2.2,59.86052497680231,
positive,yellow,2,None,k,0,0,0,0,,,,,0,0,0,0,,,,,1,16,36,10,,,,,,,,,,,,,,,,,,,,,,,,,,,,,,,,,,,,,prac,331.62555569999995,k,k,1,1.2983406000000741,None,0,,,,,,,,,,,,,,,,,,,,,,,,,,,,,,,,,,,,,,,,,,,,,,,,,,,,,,,,,,,,,,,,,,,,321,2023-02-13_11h01.50.499,Main,2022.2.2,59.86052497680231,
negative,red,1,None,None,0,0,0,0,,,,,0,0,0,0,,,,,1,17,37,7,,,,,,,,,,,,,,,,,,,,,,,,,,,,,,,,,,,,,prac,333.9293499999999,None,None,1,1.5237927000000582,None,1,,,,,,,,,,,,,,,,,,,,,,,,,,,,,,,,,,,,,,,,,,,,,,,,,,,,,,,,,,,,,,,,,,,,321,2023-02-13_11h01.50.499,Main,2022.2.2,59.86052497680231,
negative,blue,2,None,k,0,0,0,0,,,,,0,0,0,0,,,,,1,18,38,2,,,,,,,,,,,,,,,,,,,,,,,,,,,,,,,,,,,,,prac,336.45204779999995,k,k,1,1.7228871999998319,None,0,,,,,,,,,,,,,,,,,,,,,,,,,,,,,,,,,,,,,,,,,,,,,,,,,,,,,,,,,,,,,,,,,,,,321,2023-02-13_11h01.50.499,Main,2022.2.2,59.86052497680231,
positive,blue,2,k,None,0,0,0,0,,,,,0,0,0,0,,,,,1,19,39,17,,,,,,,,,,,,,,,,,,,,,,,,,,,,,,,,,,,,,prac,340.19137090000004,None,None,1,1.525894899999912,None,1,,,,,,,,,,,,,,,,,,,,,,,,,,,,,,,,,,,,,,,,,,,,,,,,,,,,,,,,,,,,,,,,,,,,321,2023-02-13_11h01.50.499,Main,2022.2.2,59.86052497680231,
negative,blue,1,None,k,0,0,0,0,,,,,0,0,0,0,,,,,,,,,0,0,0,162,,,,,,,,,,,,,,,,,,,,,,,,,,,,,,,346.1592131,346.1592131,main,348.22708139999986,k,k,1,1.5225576999998793,None,0,342.74157149999996,342.74157149999996,0.00018980000004376052,0.2953703703703704,-0.05,0,0,0,,,,,,,,,,,,,,,,,,,,,,,,,,,,,,,,,,,,,,,,,,,,,,,,,,,,,,,,,,,,321,2023-02-13_11h01.50.499,Main,2022.2.2,59.86052497680231,
positive,blue,2,k,None,0,0,0,0,,,,,0,0,0,0,,,,,,,,,0,1,1,172,,,,,,,,,,,,,,,,,,,,,,,,,,,,,,,,,main,351.78639339999995,None,None,1,1.5264090000000579,None,1,,,,,,,,,,,,,,,,,,,,,,,,,,,,,,,,,,,,,,,,,,,,,,,,,,,,,,,,,,,,,,,,,,,,321,2023-02-13_11h01.50.499,Main,2022.2.2,59.86052497680231,
positive,red,1,None,None,0,0,0,0,,,,,0,0,0,0,,,,,,,,,0,2,2,236,,,,,,,,,,,,,,,,,,,,,,,,,,,,,,,,,main,354.3099052,None,None,1,1.5236511000000519,None,1,,,,,,,,,,,,,,,,,,,,,,,,,,,,,,,,,,,,,,,,,,,,,,,,,,,,,,,,,,,,,,,,,,,,321,2023-02-13_11h01.50.499,Main,2022.2.2,59.86052497680231,
positive,blue,1,k,None,0,0,0,0,,,,,0,0,0,0,,,,,,,,,0,3,3,213,,,,,,,,,,,,,,,,,,,,,,,,,,,,,,,,,main,356.8346621999999,None,None,1,1.5234384999998838,None,1,,,,,,,,,,,,,,,,,,,,,,,,,,,,,,,,,,,,,,,,,,,,,,,,,,,,,,,,,,,,,,,,,,,,321,2023-02-13_11h01.50.499,Main,2022.2.2,59.86052497680231,
positive,red,1,None,None,0,0,0,0,,,,,0,0,0,0,,,,,,,,,0,4,4,203,,,,,,,,,,,,,,,,,,,,,,,,,,,,,,,,,main,359.3582862999999,None,None,1,1.5133422999999766,None,1,,,,,,,,,,,,,,,,,,,,,,,,,,,,,,,,,,,,,,,,,,,,,,,,,,,,,,,,,,,,,,,,,,,,321,2023-02-13_11h01.50.499,Main,2022.2.2,59.86052497680231,
negative,yellow,2,k,None,0,0,0,0,,,,,0,0,0,0,,,,,,,,,0,5,5,173,,,,,,,,,,,,,,,,,,,,,,,,,,,,,,,,,main,361.8739839,None,None,1,1.5225567999998475,None,1,,,,,,,,,,,,,,,,,,,,,,,,,,,,,,,,,,,,,,,,,,,,,,,,,,,,,,,,,,,,,,,,,,,,321,2023-02-13_11h01.50.499,Main,2022.2.2,59.86052497680231,
negative,yellow,1,k,None,0,0,0,0,,,,,0,0,0,0,,,,,,,,,0,6,6,129,,,,,,,,,,,,,,,,,,,,,,,,,,,,,,,,,main,364.4027547999999,None,None,1,1.5063642000000073,None,1,,,,,,,,,,,,,,,,,,,,,,,,,,,,,,,,,,,,,,,,,,,,,,,,,,,,,,,,,,,,,,,,,,,,321,2023-02-13_11h01.50.499,Main,2022.2.2,59.86052497680231,
negative,blue,2,None,k,0,0,0,0,,,,,0,0,0,0,,,,,,,,,0,7,7,76,,,,,,,,,,,,,,,,,,,,,,,,,,,,,,,,,main,366.9153449999999,k,k,1,1.3359024999999747,None,0,,,,,,,,,,,,,,,,,,,,,,,,,,,,,,,,,,,,,,,,,,,,,,,,,,,,,,,,,,,,,,,,,,,,321,2023-02-13_11h01.50.499,Main,2022.2.2,59.86052497680231,
negative,yellow,2,k,None,0,0,0,0,,,,,0,0,0,0,,,,,,,,,0,8,8,124,,,,,,,,,,,,,,,,,,,,,,,,,,,,,,,,,main,369.25509850000003,None,None,1,1.531590900000083,None,1,,,,,,,,,,,,,,,,,,,,,,,,,,,,,,,,,,,,,,,,,,,,,,,,,,,,,,,,,,,,,,,,,,,,321,2023-02-13_11h01.50.499,Main,2022.2.2,59.86052497680231,
negative,blue,1,None,k,0,0,0,0,,,,,0,0,0,0,,,,,,,,,0,9,9,95,,,,,,,,,,,,,,,,,,,,,,,,,,,,,,,,,main,371.79173259999993,k,k,1,2.4684336000000258,None,0,,,,,,,,,,,,,,,,,,,,,,,,,,,,,,,,,,,,,,,,,,,,,,,,,,,,,,,,,,,,,,,,,,,,321,2023-02-13_11h01.50.499,Main,2022.2.2,59.86052497680231,
positive,blue,2,k,None,0,0,0,0,,,,,0,0,0,0,,,,,,,,,0,10,10,142,,,,,,,,,,,,,,,,,,,,,,,,,,,,,,,,,main,376.27520060000006,None,None,1,1.5141327999999703,None,1,,,,,,,,,,,,,,,,,,,,,,,,,,,,,,,,,,,,,,,,,,,,,,,,,,,,,,,,,,,,,,,,,,,,321,2023-02-13_11h01.50.499,Main,2022.2.2,59.86052497680231,
negative,blue,1,None,k,0,0,0,0,,,,,0,0,0,0,,,,,,,,,0,11,11,196,,,,,,,,,,,,,,,,,,,,,,,,,,,,,,,,,main,378.79309250000006,k,k,1,1.1775592000001325,None,0,,,,,,,,,,,,,,,,,,,,,,,,,,,,,,,,,,,,,,,,,,,,,,,,,,,,,,,,,,,,,,,,,,,,321,2023-02-13_11h01.50.499,Main,2022.2.2,59.86052497680231,
negative,yellow,2,k,None,0,0,0,0,,,,,0,0,0,0,,,,,,,,,0,12,12,38,,,,,,,,,,,,,,,,,,,,,,,,,,,,,,,,,main,380.9752341000001,None,None,1,1.5295149000000947,None,1,,,,,,,,,,,,,,,,,,,,,,,,,,,,,,,,,,,,,,,,,,,,,,,,,,,,,,,,,,,,,,,,,,,,321,2023-02-13_11h01.50.499,Main,2022.2.2,59.86052497680231,
positive,red,2,None,None,0,0,0,0,,,,,0,0,0,0,,,,,,,,,0,13,13,80,,,,,,,,,,,,,,,,,,,,,,,,,,,,,,,,,main,383.5041563,None,None,1,1.534560699999929,None,1,,,,,,,,,,,,,,,,,,,,,,,,,,,,,,,,,,,,,,,,,,,,,,,,,,,,,,,,,,,,,,,,,,,,321,2023-02-13_11h01.50.499,Main,2022.2.2,59.86052497680231,
negative,yellow,1,k,None,0,0,0,0,,,,,0,0,0,0,,,,,,,,,0,14,14,223,,,,,,,,,,,,,,,,,,,,,,,,,,,,,,,,,main,386.04392000000007,None,None,1,1.5059358999999404,None,1,,,,,,,,,,,,,,,,,,,,,,,,,,,,,,,,,,,,,,,,,,,,,,,,,,,,,,,,,,,,,,,,,,,,321,2023-02-13_11h01.50.499,Main,2022.2.2,59.86052497680231,
negative,yellow,1,k,None,0,0,0,0,,,,,0,0,0,0,,,,,,,,,0,15,15,35,,,,,,,,,,,,,,,,,,,,,,,,,,,,,,,,,main,388.55386799999997,None,None,1,1.5129276999998638,None,1,,,,,,,,,,,,,,,,,,,,,,,,,,,,,,,,,,,,,,,,,,,,,,,,,,,,,,,,,,,,,,,,,,,,321,2023-02-13_11h01.50.499,Main,2022.2.2,59.86052497680231,
negative,yellow,2,k,None,0,0,0,0,,,,,0,0,0,0,,,,,,,,,0,16,16,183,,,,,,,,,,,,,,,,,,,,,,,,,,,,,,,,,main,391.0653806,None,None,1,1.5281736000001729,None,1,,,,,,,,,,,,,,,,,,,,,,,,,,,,,,,,,,,,,,,,,,,,,,,,,,,,,,,,,,,,,,,,,,,,321,2023-02-13_11h01.50.499,Main,2022.2.2,59.86052497680231,
negative,yellow,2,k,None,0,0,0,0,,,,,0,0,0,0,,,,,,,,,0,17,17,88,,,,,,,,,,,,,,,,,,,,,,,,,,,,,,,,,main,393.59476819999986,None,None,1,1.5295346000000336,None,1,,,,,,,,,,,,,,,,,,,,,,,,,,,,,,,,,,,,,,,,,,,,,,,,,,,,,,,,,,,,,,,,,,,,321,2023-02-13_11h01.50.499,Main,2022.2.2,59.86052497680231,
negative,blue,1,None,k,0,0,0,0,,,,,0,0,0,0,,,,,,,,,0,18,18,51,,,,,,,,,,,,,,,,,,,,,,,,,,,,,,,,,main,396.13320799999997,k,k,1,1.2321027000000413,None,0,,,,,,,,,,,,,,,,,,,,,,,,,,,,,,,,,,,,,,,,,,,,,,,,,,,,,,,,,,,,,,,,,,,,321,2023-02-13_11h01.50.499,Main,2022.2.2,59.86052497680231,
positive,red,2,None,None,0,0,0,0,,,,,0,0,0,0,,,,,,,,,0,19,19,23,,,,,,,,,,,,,,,,,,,,,,,,,,,,,,,,,main,398.3706216999999,None,None,1,1.5289278999998714,None,1,,,,,,,,,,,,,,,,,,,,,,,,,,,,,,,,,,,,,,,,,,,,,,,,,,,,,,,,,,,,,,,,,,,,321,2023-02-13_11h01.50.499,Main,2022.2.2,59.86052497680231,
negative,blue,2,None,k,0,0,0,0,,,,,0,0,0,0,,,,,,,,,0,20,20,204,,,,,,,,,,,,,,,,,,,,,,,,,,,,,,,,,main,400.89745859999994,k,k,1,1.1998711999999614,None,0,,,,,,,,,,,,,,,,,,,,,,,,,,,,,,,,,,,,,,,,,,,,,,,,,,,,,,,,,,,,,,,,,,,,321,2023-02-13_11h01.50.499,Main,2022.2.2,59.86052497680231,
negative,blue,2,None,k,0,0,0,0,,,,,0,0,0,0,,,,,,,,,0,21,21,152,,,,,,,,,,,,,,,,,,,,,,,,,,,,,,,,,main,403.10300289999986,k,k,1,1.5966769999999997,None,0,,,,,,,,,,,,,,,,,,,,,,,,,,,,,,,,,,,,,,,,,,,,,,,,,,,,,,,,,,,,,,,,,,,,321,2023-02-13_11h01.50.499,Main,2022.2.2,59.86052497680231,
negative,yellow,1,k,None,0,0,0,0,,,,,0,0,0,0,,,,,,,,,0,22,22,61,,,,,,,,,,,,,,,,,,,,,,,,,,,,,,,,,main,406.7200642999999,None,None,1,1.5180605999998988,None,1,,,,,,,,,,,,,,,,,,,,,,,,,,,,,,,,,,,,,,,,,,,,,,,,,,,,,,,,,,,,,,,,,,,,321,2023-02-13_11h01.50.499,Main,2022.2.2,59.86052497680231,
negative,blue,2,None,k,0,0,0,0,,,,,0,0,0,0,,,,,,,,,0,23,23,21,,,,,,,,,,,,,,,,,,,,,,,,,,,,,,,,,main,409.23931429999993,k,k,1,1.0313583999998173,None,0,,,,,,,,,,,,,,,,,,,,,,,,,,,,,,,,,,,,,,,,,,,,,,,,,,,,,,,,,,,,,,,,,,,,321,2023-02-13_11h01.50.499,Main,2022.2.2,59.86052497680231,
negative,blue,1,None,k,0,0,0,0,,,,,0,0,0,0,,,,,,,,,0,24,24,127,,,,,,,,,,,,,,,,,,,,,,,,,,,,,,,,,main,411.2802294999999,k,k,1,1.2618757999998707,None,0,,,,,,,,,,,,,,,,,,,,,,,,,,,,,,,,,,,,,,,,,,,,,,,,,,,,,,,,,,,,,,,,,,,,321,2023-02-13_11h01.50.499,Main,2022.2.2,59.86052497680231,
negative,blue,1,None,k,0,0,0,0,,,,,0,0,0,0,,,,,,,,,0,25,25,229,,,,,,,,,,,,,,,,,,,,,,,,,,,,,,,,,main,413.54504900000006,k,k,1,1.193394200000057,None,0,,,,,,,,,,,,,,,,,,,,,,,,,,,,,,,,,,,,,,,,,,,,,,,,,,,,,,,,,,,,,,,,,,,,321,2023-02-13_11h01.50.499,Main,2022.2.2,59.86052497680231,
negative,yellow,1,k,None,0,0,0,0,,,,,0,0,0,0,,,,,,,,,0,26,26,98,,,,,,,,,,,,,,,,,,,,,,,,,,,,,,,,,main,415.7392075999999,None,None,1,1.516092800000024,None,1,,,,,,,,,,,,,,,,,,,,,,,,,,,,,,,,,,,,,,,,,,,,,,,,,,,,,,,,,,,,,,,,,,,,321,2023-02-13_11h01.50.499,Main,2022.2.2,59.86052497680231,
negative,yellow,1,k,None,0,0,0,0,,,,,0,0,0,0,,,,,,,,,0,27,27,91,,,,,,,,,,,,,,,,,,,,,,,,,,,,,,,,,main,418.2564497000001,None,None,1,1.5112833999999111,None,1,,,,,,,,,,,,,,,,,,,,,,,,,,,,,,,,,,,,,,,,,,,,,,,,,,,,,,,,,,,,,,,,,,,,321,2023-02-13_11h01.50.499,Main,2022.2.2,59.86052497680231,
positive,yellow,1,None,k,0,0,0,0,,,,,0,0,0,0,,,,,,,,,0,28,28,39,,,,,,,,,,,,,,,,,,,,,,,,,,,,,,,,,main,420.77025890000004,k,k,1,1.1309909000001426,None,0,,,,,,,,,,,,,,,,,,,,,,,,,,,,,,,,,,,,,,,,,,,,,,,,,,,,,,,,,,,,,,,,,,,,321,2023-02-13_11h01.50.499,Main,2022.2.2,59.86052497680231,
positive,yellow,1,None,k,0,0,0,0,,,,,0,0,0,0,,,,,,,,,0,29,29,193,,,,,,,,,,,,,,,,,,,,,,,,,,,,,,,,,main,422.91607769999996,k,k,1,1.0201689999998962,None,0,,,,,,,,,,,,,,,,,,,,,,,,,,,,,,,,,,,,,,,,,,,,,,,,,,,,,,,,,,,,,,,,,,,,321,2023-02-13_11h01.50.499,Main,2022.2.2,59.86052497680231,
positive,yellow,2,None,k,0,0,0,0,,,,,0,0,0,0,,,,,,,,,0,30,30,122,,,,,,,,,,,,,,,,,,,,,,,,,,,,,,,,,main,424.93624019999993,k,k,1,1.524370799999815,None,0,,,,,,,,,,,,,,,,,,,,,,,,,,,,,,,,,,,,,,,,,,,,,,,,,,,,,,,,,,,,,,,,,,,,321,2023-02-13_11h01.50.499,Main,2022.2.2,59.86052497680231,
positive,yellow,1,None,k,0,0,0,0,,,,,0,0,0,0,,,,,,,,,0,31,31,215,,,,,,,,,,,,,,,,,,,,,,,,,,,,,,,,,main,428.4957489000001,k,k,1,1.0430493999999726,None,0,,,,,,,,,,,,,,,,,,,,,,,,,,,,,,,,,,,,,,,,,,,,,,,,,,,,,,,,,,,,,,,,,,,,321,2023-02-13_11h01.50.499,Main,2022.2.2,59.86052497680231,
negative,red,2,None,None,0,0,0,0,,,,,0,0,0,0,,,,,,,,,0,32,32,73,,,,,,,,,,,,,,,,,,,,,,,,,,,,,,,,,main,430.5459117999999,None,None,1,1.537029500000017,None,1,,,,,,,,,,,,,,,,,,,,,,,,,,,,,,,,,,,,,,,,,,,,,,,,,,,,,,,,,,,,,,,,,,,,321,2023-02-13_11h01.50.499,Main,2022.2.2,59.86052497680231,
negative,red,2,None,None,0,0,0,0,,,,,0,0,0,0,,,,,,,,,0,33,33,194,,,,,,,,,,,,,,,,,,,,,,,,,,,,,,,,,main,433.0847343999999,None,None,1,1.5299563999999464,None,1,,,,,,,,,,,,,,,,,,,,,,,,,,,,,,,,,,,,,,,,,,,,,,,,,,,,,,,,,,,,,,,,,,,,321,2023-02-13_11h01.50.499,Main,2022.2.2,59.86052497680231,
positive,yellow,2,None,k,0,0,0,0,,,,,0,0,0,0,,,,,,,,,0,34,34,184,,,,,,,,,,,,,,,,,,,,,,,,,,,,,,,,,main,435.61674960000005,k,k,1,1.053631199999927,None,0,,,,,,,,,,,,,,,,,,,,,,,,,,,,,,,,,,,,,,,,,,,,,,,,,,,,,,,,,,,,,,,,,,,,321,2023-02-13_11h01.50.499,Main,2022.2.2,59.86052497680231,
positive,red,2,None,None,0,0,0,0,,,,,0,0,0,0,,,,,,,,,0,35,35,119,,,,,,,,,,,,,,,,,,,,,,,,,,,,,,,,,main,437.6823245999999,None,None,1,1.5196043000000827,None,1,,,,,,,,,,,,,,,,,,,,,,,,,,,,,,,,,,,,,,,,,,,,,,,,,,,,,,,,,,,,,,,,,,,,321,2023-02-13_11h01.50.499,Main,2022.2.2,59.86052497680231,
negative,red,2,None,None,0,0,0,0,,,,,0,0,0,0,,,,,,,,,0,36,36,24,,,,,,,,,,,,,,,,,,,,,,,,,,,,,,,,,main,440.1992049999999,None,None,1,1.5155171000001246,None,1,,,,,,,,,,,,,,,,,,,,,,,,,,,,,,,,,,,,,,,,,,,,,,,,,,,,,,,,,,,,,,,,,,,,321,2023-02-13_11h01.50.499,Main,2022.2.2,59.86052497680231,
negative,yellow,2,k,None,0,0,0,0,,,,,0,0,0,0,,,,,,,,,0,37,37,167,,,,,,,,,,,,,,,,,,,,,,,,,,,,,,,,,main,442.7168397999999,None,None,1,1.5288215000000491,None,1,,,,,,,,,,,,,,,,,,,,,,,,,,,,,,,,,,,,,,,,,,,,,,,,,,,,,,,,,,,,,,,,,,,,321,2023-02-13_11h01.50.499,Main,2022.2.2,59.86052497680231,
negative,blue,2,None,k,0,0,0,0,,,,,0,0,0,0,,,,,,,,,0,38,38,28,,,,,,,,,,,,,,,,,,,,,,,,,,,,,,,,,main,445.2478633999999,k,k,1,1.2473135000000184,None,0,,,,,,,,,,,,,,,,,,,,,,,,,,,,,,,,,,,,,,,,,,,,,,,,,,,,,,,,,,,,,,,,,,,,321,2023-02-13_11h01.50.499,Main,2022.2.2,59.86052497680231,
negative,yellow,1,k,None,0,0,0,0,,,,,0,0,0,0,,,,,,,,,0,39,39,77,,,,,,,,,,,,,,,,,,,,,,,,,,,,,,,,,main,447.50552990000006,None,None,1,1.5258249999999407,None,1,,,,,,,,,,,,,,,,,,,,,,,,,,,,,,,,,,,,,,,,,,,,,,,,,,,,,,,,,,,,,,,,,,,,321,2023-02-13_11h01.50.499,Main,2022.2.2,59.86052497680231,
negative,blue,2,None,k,0,0,0,0,,,,,0,0,0,0,,,,,,,,,0,40,40,126,,,,,,,,,,,,,,,,,,,,,,,,,,,,,,,,,main,450.0293649,k,k,1,1.137336199999936,None,0,,,,,,,,,,,,,,,,,,,,,,,,,,,,,,,,,,,,,,,,,,,,,,,,,,,,,,,,,,,,,,,,,,,,321,2023-02-13_11h01.50.499,Main,2022.2.2,59.86052497680231,
positive,blue,1,k,None,0,0,0,0,,,,,0,0,0,0,,,,,,,,,0,41,41,15,,,,,,,,,,,,,,,,,,,,,,,,,,,,,,,,,main,452.1738309,None,None,1,1.528528999999935,None,1,,,,,,,,,,,,,,,,,,,,,,,,,,,,,,,,,,,,,,,,,,,,,,,,,,,,,,,,,,,,,,,,,,,,321,2023-02-13_11h01.50.499,Main,2022.2.2,59.86052497680231,
positive,yellow,1,None,k,0,0,0,0,,,,,0,0,0,0,,,,,,,,,0,42,42,220,,,,,,,,,,,,,,,,,,,,,,,,,,,,,,,,,main,454.7008899,k,k,1,1.6549070999999458,None,0,,,,,,,,,,,,,,,,,,,,,,,,,,,,,,,,,,,,,,,,,,,,,,,,,,,,,,,,,,,,,,,,,,,,321,2023-02-13_11h01.50.499,Main,2022.2.2,59.86052497680231,
positive,yellow,2,None,k,0,0,0,0,,,,,0,0,0,0,,,,,,,,,0,43,43,189,,,,,,,,,,,,,,,,,,,,,,,,,,,,,,,,,main,458.3791168,k,k,1,0.8945209000000887,None,0,,,,,,,,,,,,,,,,,,,,,,,,,,,,,,,,,,,,,,,,,,,,,,,,,,,,,,,,,,,,,,,,,,,,321,2023-02-13_11h01.50.499,Main,2022.2.2,59.86052497680231,
positive,yellow,1,None,k,0,0,0,0,,,,,0,0,0,0,,,,,,,,,0,44,44,138,,,,,,,,,,,,,,,,,,,,,,,,,,,,,,,,,main,460.2882703,k,k,1,0.9676116000000548,None,0,,,,,,,,,,,,,,,,,,,,,,,,,,,,,,,,,,,,,,,,,,,,,,,,,,,,,,,,,,,,,,,,,,,,321,2023-02-13_11h01.50.499,Main,2022.2.2,59.86052497680231,
positive,red,2,None,None,0,0,0,0,,,,,0,0,0,0,,,,,,,,,0,45,45,169,,,,,,,,,,,,,,,,,,,,,,,,,,,,,,,,,main,462.2601718000001,None,None,1,1.5159064999998009,None,1,,,,,,,,,,,,,,,,,,,,,,,,,,,,,,,,,,,,,,,,,,,,,,,,,,,,,,,,,,,,,,,,,,,,321,2023-02-13_11h01.50.499,Main,2022.2.2,59.86052497680231,
positive,blue,2,k,None,0,0,0,0,,,,,0,0,0,0,,,,,,,,,0,46,46,200,,,,,,,,,,,,,,,,,,,,,,,,,,,,,,,,,main,464.7762614999999,None,None,1,1.5151792999999998,None,1,,,,,,,,,,,,,,,,,,,,,,,,,,,,,,,,,,,,,,,,,,,,,,,,,,,,,,,,,,,,,,,,,,,,321,2023-02-13_11h01.50.499,Main,2022.2.2,59.86052497680231,
positive,blue,2,k,None,0,0,0,0,,,,,0,0,0,0,,,,,,,,,0,47,47,197,,,,,,,,,,,,,,,,,,,,,,,,,,,,,,,,,main,467.29747640000005,None,None,1,1.522660999999971,None,1,,,,,,,,,,,,,,,,,,,,,,,,,,,,,,,,,,,,,,,,,,,,,,,,,,,,,,,,,,,,,,,,,,,,321,2023-02-13_11h01.50.499,Main,2022.2.2,59.86052497680231,
positive,blue,1,k,None,0,0,0,0,,,,,0,0,0,0,,,,,,,,,0,48,48,105,,,,,,,,,,,,,,,,,,,,,,,,,,,,,,,,,main,469.82407579999995,None,None,1,1.5214606000001822,None,1,,,,,,,,,,,,,,,,,,,,,,,,,,,,,,,,,,,,,,,,,,,,,,,,,,,,,,,,,,,,,,,,,,,,321,2023-02-13_11h01.50.499,Main,2022.2.2,59.86052497680231,
negative,blue,1,None,k,0,0,0,0,,,,,0,0,0,0,,,,,,,,,0,49,49,154,,,,,,,,,,,,,,,,,,,,,,,,,,,,,,,,,main,472.3495854,k,k,1,1.062723799999958,None,0,,,,,,,,,,,,,,,,,,,,,,,,,,,,,,,,,,,,,,,,,,,,,,,,,,,,,,,,,,,,,,,,,,,,321,2023-02-13_11h01.50.499,Main,2022.2.2,59.86052497680231,
positive,red,1,None,None,0,0,0,0,,,,,0,0,0,0,,,,,,,,,0,50,50,68,,,,,,,,,,,,,,,,,,,,,,,,,,,,,,,,,main,474.42128120000007,None,None,1,1.5069241000001057,None,1,,,,,,,,,,,,,,,,,,,,,,,,,,,,,,,,,,,,,,,,,,,,,,,,,,,,,,,,,,,,,,,,,,,,321,2023-02-13_11h01.50.499,Main,2022.2.2,59.86052497680231,
negative,blue,2,None,k,0,0,0,0,,,,,0,0,0,0,,,,,,,,,0,51,51,89,,,,,,,,,,,,,,,,,,,,,,,,,,,,,,,,,main,476.92773740000007,k,k,1,1.0729023999999754,None,0,,,,,,,,,,,,,,,,,,,,,,,,,,,,,,,,,,,,,,,,,,,,,,,,,,,,,,,,,,,,,,,,,,,,321,2023-02-13_11h01.50.499,Main,2022.2.2,59.86052497680231,
negative,blue,2,None,k,0,0,0,0,,,,,0,0,0,0,,,,,,,,,0,52,52,110,,,,,,,,,,,,,,,,,,,,,,,,,,,,,,,,,main,479.00803870000004,k,k,1,1.7429566000000705,None,0,,,,,,,,,,,,,,,,,,,,,,,,,,,,,,,,,,,,,,,,,,,,,,,,,,,,,,,,,,,,,,,,,,,,321,2023-02-13_11h01.50.499,Main,2022.2.2,59.86052497680231,
negative,blue,1,None,k,0,0,0,0,,,,,0,0,0,0,,,,,,,,,0,53,53,49,,,,,,,,,,,,,,,,,,,,,,,,,,,,,,,,,main,482.77047500000003,k,k,1,1.126904199999899,None,0,,,,,,,,,,,,,,,,,,,,,,,,,,,,,,,,,,,,,,,,,,,,,,,,,,,,,,,,,,,,,,,,,,,,321,2023-02-13_11h01.50.499,Main,2022.2.2,59.86052497680231,
negative,yellow,1,k,None,0,0,0,0,,,,,0,0,0,0,,,,,,,,,0,54,54,159,,,,,,,,,,,,,,,,,,,,,,,,,,,,,,,,,main,484.9067173000001,None,None,1,1.5285852000001796,None,1,,,,,,,,,,,,,,,,,,,,,,,,,,,,,,,,,,,,,,,,,,,,,,,,,,,,,,,,,,,,,,,,,,,,321,2023-02-13_11h01.50.499,Main,2022.2.2,59.86052497680231,
positive,blue,1,k,None,0,0,0,0,,,,,0,0,0,0,,,,,,,,,0,55,55,82,,,,,,,,,,,,,,,,,,,,,,,,,,,,,,,,,main,487.4319737999999,None,None,1,1.513322700000117,None,1,,,,,,,,,,,,,,,,,,,,,,,,,,,,,,,,,,,,,,,,,,,,,,,,,,,,,,,,,,,,,,,,,,,,321,2023-02-13_11h01.50.499,Main,2022.2.2,59.86052497680231,
negative,yellow,1,k,None,0,0,0,0,,,,,0,0,0,0,,,,,,,,,0,56,56,212,,,,,,,,,,,,,,,,,,,,,,,,,,,,,,,,,main,489.949666,None,None,1,1.5158183999999437,None,1,,,,,,,,,,,,,,,,,,,,,,,,,,,,,,,,,,,,,,,,,,,,,,,,,,,,,,,,,,,,,,,,,,,,321,2023-02-13_11h01.50.499,Main,2022.2.2,59.86052497680231,
positive,blue,2,k,None,0,0,0,0,,,,,0,0,0,0,,,,,,,,,0,57,57,2,,,,,,,,,,,,,,,,,,,,,,,,,,,,,,,,,main,492.4683580000001,None,None,1,1.5219422000000122,None,1,,,,,,,,,,,,,,,,,,,,,,,,,,,,,,,,,,,,,,,,,,,,,,,,,,,,,,,,,,,,,,,,,,,,321,2023-02-13_11h01.50.499,Main,2022.2.2,59.86052497680231,
positive,blue,2,k,None,0,0,0,0,,,,,0,0,0,0,,,,,,,,,0,58,58,111,,,,,,,,,,,,,,,,,,,,,,,,,,,,,,,,,main,494.9972865,None,None,1,1.5278682000000572,None,1,,,,,,,,,,,,,,,,,,,,,,,,,,,,,,,,,,,,,,,,,,,,,,,,,,,,,,,,,,,,,,,,,,,,321,2023-02-13_11h01.50.499,Main,2022.2.2,59.86052497680231,
negative,yellow,2,k,None,0,0,0,0,,,,,0,0,0,0,,,,,,,,,0,59,59,70,,,,,,,,,,,,,,,,,,,,,,,,,,,,,,,,,main,497.5286670999999,None,None,1,1.5208147000000736,None,1,,,,,,,,,,,,,,,,,,,,,,,,,,,,,,,,,,,,,,,,,,,,,,,,,,,,,,,,,,,,,,,,,,,,321,2023-02-13_11h01.50.499,Main,2022.2.2,59.86052497680231,
negative,blue,1,None,k,0,0,0,0,,,,,0,0,0,0,,,,,,,,,0,60,60,72,,,,,,,,,,,,,,,,,,,,,,,,,,,,,,,,,main,500.0561837,k,k,1,1.147457999999915,None,0,,,,,,,,,,,,,,,,,,,,,,,,,,,,,,,,,,,,,,,,,,,,,,,,,,,,,,,,,,,,,,,,,,,,321,2023-02-13_11h01.50.499,Main,2022.2.2,59.86052497680231,
positive,blue,2,k,None,0,0,0,0,,,,,0,0,0,0,,,,,,,,,0,61,61,41,,,,,,,,,,,,,,,,,,,,,,,,,,,,,,,,,main,502.2095646999999,None,None,1,1.5090631000000485,None,1,,,,,,,,,,,,,,,,,,,,,,,,,,,,,,,,,,,,,,,,,,,,,,,,,,,,,,,,,,,,,,,,,,,,321,2023-02-13_11h01.50.499,Main,2022.2.2,59.86052497680231,
positive,blue,1,k,None,0,0,0,0,,,,,0,0,0,0,,,,,,,,,0,62,62,57,,,,,,,,,,,,,,,,,,,,,,,,,,,,,,,,,main,504.71527079999987,None,None,1,1.5268063000000893,None,1,,,,,,,,,,,,,,,,,,,,,,,,,,,,,,,,,,,,,,,,,,,,,,,,,,,,,,,,,,,,,,,,,,,,321,2023-02-13_11h01.50.499,Main,2022.2.2,59.86052497680231,
negative,blue,2,None,k,0,0,0,0,,,,,0,0,0,0,,,,,,,,,0,63,63,145,,,,,,,,,,,,,,,,,,,,,,,,,,,,,,,,,main,507.24806220000005,k,k,1,0.9356240999998136,None,0,,,,,,,,,,,,,,,,,,,,,,,,,,,,,,,,,,,,,,,,,,,,,,,,,,,,,,,,,,,,,,,,,,,,321,2023-02-13_11h01.50.499,Main,2022.2.2,59.86052497680231,
negative,red,2,None,None,0,0,0,0,,,,,0,0,0,0,,,,,,,,,0,64,64,92,,,,,,,,,,,,,,,,,,,,,,,,,,,,,,,,,main,509.18900080000003,None,None,1,1.51755490000005,None,1,,,,,,,,,,,,,,,,,,,,,,,,,,,,,,,,,,,,,,,,,,,,,,,,,,,,,,,,,,,,,,,,,,,,321,2023-02-13_11h01.50.499,Main,2022.2.2,59.86052497680231,
positive,blue,2,k,None,0,0,0,0,,,,,0,0,0,0,,,,,,,,,0,65,65,106,,,,,,,,,,,,,,,,,,,,,,,,,,,,,,,,,main,511.70927729999994,None,None,1,1.54400899999996,None,1,,,,,,,,,,,,,,,,,,,,,,,,,,,,,,,,,,,,,,,,,,,,,,,,,,,,,,,,,,,,,,,,,,,,321,2023-02-13_11h01.50.499,Main,2022.2.2,59.86052497680231,
negative,yellow,2,k,None,0,0,0,0,,,,,0,0,0,0,,,,,,,,,0,66,66,65,,,,,,,,,,,,,,,,,,,,,,,,,,,,,,,,,main,514.2523134999999,None,None,1,1.5310254999999415,None,1,,,,,,,,,,,,,,,,,,,,,,,,,,,,,,,,,,,,,,,,,,,,,,,,,,,,,,,,,,,,,,,,,,,,321,2023-02-13_11h01.50.499,Main,2022.2.2,59.86052497680231,
positive,yellow,2,None,k,0,0,0,0,,,,,0,0,0,0,,,,,,,,,0,67,67,50,,,,,,,,,,,,,,,,,,,,,,,,,,,,,,,,,main,516.788939,k,k,1,1.1245132999999896,None,0,,,,,,,,,,,,,,,,,,,,,,,,,,,,,,,,,,,,,,,,,,,,,,,,,,,,,,,,,,,,,,,,,,,,321,2023-02-13_11h01.50.499,Main,2022.2.2,59.86052497680231,
negative,red,2,None,None,0,0,0,0,,,,,0,0,0,0,,,,,,,,,0,68,68,210,,,,,,,,,,,,,,,,,,,,,,,,,,,,,,,,,main,518.9241317999999,None,None,1,1.5259954999999081,None,1,,,,,,,,,,,,,,,,,,,,,,,,,,,,,,,,,,,,,,,,,,,,,,,,,,,,,,,,,,,,,,,,,,,,321,2023-02-13_11h01.50.499,Main,2022.2.2,59.86052497680231,
positive,red,1,None,None,0,0,0,0,,,,,0,0,0,0,,,,,,,,,0,69,69,115,,,,,,,,,,,,,,,,,,,,,,,,,,,,,,,,,main,521.4475345999999,None,None,1,1.5122523,None,1,,,,,,,,,,,,,,,,,,,,,,,,,,,,,,,,,,,,,,,,,,,,,,,,,,,,,,,,,,,,,,,,,,,,321,2023-02-13_11h01.50.499,Main,2022.2.2,59.86052497680231,
negative,blue,1,None,k,0,0,0,0,,,,,0,0,0,0,,,,,,,,,0,70,70,218,,,,,,,,,,,,,,,,,,,,,,,,,,,,,,,,,main,523.9594341,k,k,1,1.0372231000001193,None,0,,,,,,,,,,,,,,,,,,,,,,,,,,,,,,,,,,,,,,,,,,,,,,,,,,,,,,,,,,,,,,,,,,,,321,2023-02-13_11h01.50.499,Main,2022.2.2,59.86052497680231,
negative,yellow,2,k,None,0,0,0,0,,,,,0,0,0,0,,,,,,,,,0,71,71,32,,,,,,,,,,,,,,,,,,,,,,,,,,,,,,,,,main,526.0046485999999,None,None,1,1.5331639000000905,None,1,,,,,,,,,,,,,,,,,,,,,,,,,,,,,,,,,,,,,,,,,,,,,,,,,,,,,,,,,,,,,,,,,,,,321,2023-02-13_11h01.50.499,Main,2022.2.2,59.86052497680231,
negative,red,2,None,None,0,0,0,0,,,,,0,0,0,0,,,,,,,,,0,72,72,123,,,,,,,,,,,,,,,,,,,,,,,,,,,,,,,,,main,528.5352012999999,None,None,1,1.5173373999998603,None,1,,,,,,,,,,,,,,,,,,,,,,,,,,,,,,,,,,,,,,,,,,,,,,,,,,,,,,,,,,,,,,,,,,,,321,2023-02-13_11h01.50.499,Main,2022.2.2,59.86052497680231,
negative,blue,1,None,k,0,0,0,0,,,,,0,0,0,0,,,,,,,,,0,73,73,182,,,,,,,,,,,,,,,,,,,,,,,,,,,,,,,,,main,531.0584549,k,k,1,1.0820839999998952,None,0,,,,,,,,,,,,,,,,,,,,,,,,,,,,,,,,,,,,,,,,,,,,,,,,,,,,,,,,,,,,,,,,,,,,321,2023-02-13_11h01.50.499,Main,2022.2.2,59.86052497680231,
positive,blue,2,k,None,0,0,0,0,,,,,0,0,0,0,,,,,,,,,0,74,74,168,,,,,,,,,,,,,,,,,,,,,,,,,,,,,,,,,main,533.1469044,None,None,1,1.5338916999999128,None,1,,,,,,,,,,,,,,,,,,,,,,,,,,,,,,,,,,,,,,,,,,,,,,,,,,,,,,,,,,,,,,,,,,,,321,2023-02-13_11h01.50.499,Main,2022.2.2,59.86052497680231,
negative,yellow,2,k,None,0,0,0,0,,,,,0,0,0,0,,,,,,,,,0,75,75,59,,,,,,,,,,,,,,,,,,,,,,,,,,,,,,,,,main,535.6790750999999,None,None,1,1.5276278999999704,None,1,,,,,,,,,,,,,,,,,,,,,,,,,,,,,,,,,,,,,,,,,,,,,,,,,,,,,,,,,,,,,,,,,,,,321,2023-02-13_11h01.50.499,Main,2022.2.2,59.86052497680231,
negative,red,2,None,None,0,0,0,0,,,,,0,0,0,0,,,,,,,,,0,76,76,237,,,,,,,,,,,,,,,,,,,,,,,,,,,,,,,,,main,538.2086612,None,None,1,1.5136230000000523,None,1,,,,,,,,,,,,,,,,,,,,,,,,,,,,,,,,,,,,,,,,,,,,,,,,,,,,,,,,,,,,,,,,,,,,321,2023-02-13_11h01.50.499,Main,2022.2.2,59.86052497680231,
positive,yellow,2,None,k,0,0,0,0,,,,,0,0,0,0,,,,,,,,,0,77,77,208,,,,,,,,,,,,,,,,,,,,,,,,,,,,,,,,,main,540.7313565,k,k,1,0.9764149999998608,None,0,,,,,,,,,,,,,,,,,,,,,,,,,,,,,,,,,,,,,,,,,,,,,,,,,,,,,,,,,,,,,,,,,,,,321,2023-02-13_11h01.50.499,Main,2022.2.2,59.86052497680231,
positive,red,1,None,None,0,0,0,0,,,,,0,0,0,0,,,,,,,,,0,78,78,99,,,,,,,,,,,,,,,,,,,,,,,,,,,,,,,,,main,542.7103705,None,None,1,1.5288072999999258,None,1,,,,,,,,,,,,,,,,,,,,,,,,,,,,,,,,,,,,,,,,,,,,,,,,,,,,,,,,,,,,,,,,,,,,321,2023-02-13_11h01.50.499,Main,2022.2.2,59.86052497680231,
positive,blue,1,k,None,0,0,0,0,,,,,0,0,0,0,,,,,,,,,0,79,79,137,,,,,,,,,,,,,,,,,,,,,,,,,,,,,,,,,main,545.2365479,None,None,1,1.5306606999999985,None,1,,,,,,,,,,,,,,,,,,,,,,,,,,,,,,,,,,,,,,,,,,,,,,,,,,,,,,,,,,,,,,,,,,,,321,2023-02-13_11h01.50.499,Main,2022.2.2,59.86052497680231,
negative,yellow,2,k,None,0,0,0,0,,,,,0,0,0,0,,,,,,,,,0,80,80,151,,,,,,,,,,,,,,,,,,,,,,,,,,,,,,,,,main,547.7734782,None,None,1,1.519553500000029,None,1,,,,,,,,,,,,,,,,,,,,,,,,,,,,,,,,,,,,,,,,,,,,,,,,,,,,,,,,,,,,,,,,,,,,321,2023-02-13_11h01.50.499,Main,2022.2.2,59.86052497680231,
negative,yellow,1,k,None,0,0,0,0,,,,,0,0,0,0,,,,,,,,,0,81,81,109,,,,,,,,,,,,,,,,,,,,,,,,,,,,,,,,,main,550.2959063999999,None,None,1,1.534260599999925,None,1,,,,,,,,,,,,,,,,,,,,,,,,,,,,,,,,,,,,,,,,,,,,,,,,,,,,,,,,,,,,,,,,,,,,321,2023-02-13_11h01.50.499,Main,2022.2.2,59.86052497680231,
negative,blue,1,None,k,0,0,0,0,,,,,0,0,0,0,,,,,,,,,0,82,82,16,,,,,,,,,,,,,,,,,,,,,,,,,,,,,,,,,main,552.8316373,k,k,1,0.9991238999998586,None,0,,,,,,,,,,,,,,,,,,,,,,,,,,,,,,,,,,,,,,,,,,,,,,,,,,,,,,,,,,,,,,,,,,,,321,2023-02-13_11h01.50.499,Main,2022.2.2,59.86052497680231,
positive,red,1,None,None,0,0,0,0,,,,,0,0,0,0,,,,,,,,,0,83,83,170,,,,,,,,,,,,,,,,,,,,,,,,,,,,,,,,,main,554.8421779,None,None,1,1.5100165999999717,None,1,,,,,,,,,,,,,,,,,,,,,,,,,,,,,,,,,,,,,,,,,,,,,,,,,,,,,,,,,,,,,,,,,,,,321,2023-02-13_11h01.50.499,Main,2022.2.2,59.86052497680231,
positive,blue,1,k,None,0,0,0,0,,,,,0,0,0,0,,,,,,,,,0,84,84,34,,,,,,,,,,,,,,,,,,,,,,,,,,,,,,,,,main,557.3492851999999,None,None,1,1.5101853000001029,None,1,,,,,,,,,,,,,,,,,,,,,,,,,,,,,,,,,,,,,,,,,,,,,,,,,,,,,,,,,,,,,,,,,,,,321,2023-02-13_11h01.50.499,Main,2022.2.2,59.86052497680231,
positive,blue,1,k,None,0,0,0,0,,,,,0,0,0,0,,,,,,,,,0,85,85,141,,,,,,,,,,,,,,,,,,,,,,,,,,,,,,,,,main,559.8621714000001,None,None,1,1.5196474000001672,None,1,,,,,,,,,,,,,,,,,,,,,,,,,,,,,,,,,,,,,,,,,,,,,,,,,,,,,,,,,,,,,,,,,,,,321,2023-02-13_11h01.50.499,Main,2022.2.2,59.86052497680231,
positive,yellow,2,None,k,0,0,0,0,,,,,0,0,0,0,,,,,,,,,0,86,86,108,,,,,,,,,,,,,,,,,,,,,,,,,,,,,,,,,main,562.3833440999999,k,k,1,1.059035300000005,None,0,,,,,,,,,,,,,,,,,,,,,,,,,,,,,,,,,,,,,,,,,,,,,,,,,,,,,,,,,,,,,,,,,,,,321,2023-02-13_11h01.50.499,Main,2022.2.2,59.86052497680231,
negative,blue,1,None,k,0,0,0,0,,,,,0,0,0,0,,,,,,,,,0,87,87,33,,,,,,,,,,,,,,,,,,,,,,,,,,,,,,,,,main,564.4503213,k,k,1,1.2940431999998054,None,0,,,,,,,,,,,,,,,,,,,,,,,,,,,,,,,,,,,,,,,,,,,,,,,,,,,,,,,,,,,,,,,,,,,,321,2023-02-13_11h01.50.499,Main,2022.2.2,59.86052497680231,
positive,yellow,2,None,k,0,0,0,0,,,,,0,0,0,0,,,,,,,,,0,88,88,14,,,,,,,,,,,,,,,,,,,,,,,,,,,,,,,,,main,566.7487638,k,k,1,1.011256499999945,None,0,,,,,,,,,,,,,,,,,,,,,,,,,,,,,,,,,,,,,,,,,,,,,,,,,,,,,,,,,,,,,,,,,,,,321,2023-02-13_11h01.50.499,Main,2022.2.2,59.86052497680231,
positive,red,2,None,None,0,0,0,0,,,,,0,0,0,0,,,,,,,,,0,89,89,186,,,,,,,,,,,,,,,,,,,,,,,,,,,,,,,,,main,568.7644561,None,None,1,1.5116316999999526,None,1,,,,,,,,,,,,,,,,,,,,,,,,,,,,,,,,,,,,,,,,,,,,,,,,,,,,,,,,,,,,,,,,,,,,321,2023-02-13_11h01.50.499,Main,2022.2.2,59.86052497680231,
positive,blue,1,k,None,0,0,0,0,,,,,0,0,0,0,,,,,,,,,0,90,90,147,,,,,,,,,,,,,,,,,,,,,,,,,,,,,,,,,main,571.2759149999999,None,None,1,1.5194785999999567,None,1,,,,,,,,,,,,,,,,,,,,,,,,,,,,,,,,,,,,,,,,,,,,,,,,,,,,,,,,,,,,,,,,,,,,321,2023-02-13_11h01.50.499,Main,2022.2.2,59.86052497680231,
positive,yellow,1,None,k,0,0,0,0,,,,,0,0,0,0,,,,,,,,,0,91,91,10,,,,,,,,,,,,,,,,,,,,,,,,,,,,,,,,,main,573.7979078999999,k,k,1,0.9882259000000886,None,0,,,,,,,,,,,,,,,,,,,,,,,,,,,,,,,,,,,,,,,,,,,,,,,,,,,,,,,,,,,,,,,,,,,,321,2023-02-13_11h01.50.499,Main,2022.2.2,59.86052497680231,
positive,blue,1,k,None,0,0,0,0,,,,,0,0,0,0,,,,,,,,,0,92,92,58,,,,,,,,,,,,,,,,,,,,,,,,,,,,,,,,,main,575.7910603999999,None,None,1,1.5249549999998635,None,1,,,,,,,,,,,,,,,,,,,,,,,,,,,,,,,,,,,,,,,,,,,,,,,,,,,,,,,,,,,,,,,,,,,,321,2023-02-13_11h01.50.499,Main,2022.2.2,59.86052497680231,
positive,blue,2,k,None,0,0,0,0,,,,,0,0,0,0,,,,,,,,,0,93,93,86,,,,,,,,,,,,,,,,,,,,,,,,,,,,,,,,,main,578.3138061,None,None,1,1.5293167999998332,None,1,,,,,,,,,,,,,,,,,,,,,,,,,,,,,,,,,,,,,,,,,,,,,,,,,,,,,,,,,,,,,,,,,,,,321,2023-02-13_11h01.50.499,Main,2022.2.2,59.86052497680231,
positive,red,2,None,None,0,0,0,0,,,,,0,0,0,0,,,,,,,,,0,94,94,7,,,,,,,,,,,,,,,,,,,,,,,,,,,,,,,,,main,580.8456530000001,None,None,1,1.5240495000000465,None,1,,,,,,,,,,,,,,,,,,,,,,,,,,,,,,,,,,,,,,,,,,,,,,,,,,,,,,,,,,,,,,,,,,,,321,2023-02-13_11h01.50.499,Main,2022.2.2,59.86052497680231,
positive,blue,2,k,None,0,0,0,0,,,,,0,0,0,0,,,,,,,,,0,95,95,192,,,,,,,,,,,,,,,,,,,,,,,,,,,,,,,,,main,583.3702656,None,None,1,1.5258131000000503,None,1,,,,,,,,,,,,,,,,,,,,,,,,,,,,,,,,,,,,,,,,,,,,,,,,,,,,,,,,,,,,,,,,,,,,321,2023-02-13_11h01.50.499,Main,2022.2.2,59.86052497680231,
negative,blue,1,None,k,0,0,0,0,,,,,0,0,0,0,,,,,,,,,0,96,96,131,,,,,,,,,,,,,,,,,,,,,,,,,,,,,,,,,main,585.9038839,k,k,1,0.9792555999999877,None,0,,,,,,,,,,,,,,,,,,,,,,,,,,,,,,,,,,,,,,,,,,,,,,,,,,,,,,,,,,,,,,,,,,,,321,2023-02-13_11h01.50.499,Main,2022.2.2,59.86052497680231,
positive,yellow,1,None,k,0,0,0,0,,,,,0,0,0,0,,,,,,,,,0,97,97,69,,,,,,,,,,,,,,,,,,,,,,,,,,,,,,,,,main,587.8801100000001,k,k,1,1.1442054999999982,None,0,,,,,,,,,,,,,,,,,,,,,,,,,,,,,,,,,,,,,,,,,,,,,,,,,,,,,,,,,,,,,,,,,,,,321,2023-02-13_11h01.50.499,Main,2022.2.2,59.86052497680231,
positive,blue,2,k,None,0,0,0,0,,,,,0,0,0,0,,,,,,,,,0,98,98,25,,,,,,,,,,,,,,,,,,,,,,,,,,,,,,,,,main,590.0298828,None,None,1,1.5232430000000932,None,1,,,,,,,,,,,,,,,,,,,,,,,,,,,,,,,,,,,,,,,,,,,,,,,,,,,,,,,,,,,,,,,,,,,,321,2023-02-13_11h01.50.499,Main,2022.2.2,59.86052497680231,
negative,yellow,1,k,None,0,0,0,0,,,,,0,0,0,0,,,,,,,,,0,99,99,153,,,,,,,,,,,,,,,,,,,,,,,,,,,,,,,,,main,592.5546302999999,None,None,1,1.5335999000001266,None,1,,,,,,,,,,,,,,,,,,,,,,,,,,,,,,,,,,,,,,,,,,,,,,,,,,,,,,,,,,,,,,,,,,,,321,2023-02-13_11h01.50.499,Main,2022.2.2,59.86052497680231,
positive,yellow,2,None,k,0,0,0,0,,,,,0,0,0,0,,,,,,,,,0,100,100,53,,,,,,,,,,,,,,,,,,,,,,,,,,,,,,,,,main,595.0908901999999,k,k,1,0.9755178000000342,None,0,,,,,,,,,,,,,,,,,,,,,,,,,,,,,,,,,,,,,,,,,,,,,,,,,,,,,,,,,,,,,,,,,,,,321,2023-02-13_11h01.50.499,Main,2022.2.2,59.86052497680231,
negative,blue,1,None,k,0,0,0,0,,,,,0,0,0,0,,,,,,,,,0,101,101,238,,,,,,,,,,,,,,,,,,,,,,,,,,,,,,,,,main,597.0711707,k,k,1,1.0264912999998614,None,0,,,,,,,,,,,,,,,,,,,,,,,,,,,,,,,,,,,,,,,,,,,,,,,,,,,,,,,,,,,,,,,,,,,,321,2023-02-13_11h01.50.499,Main,2022.2.2,59.86052497680231,
positive,yellow,2,None,k,0,0,0,0,,,,,0,0,0,0,,,,,,,,,0,102,102,217,,,,,,,,,,,,,,,,,,,,,,,,,,,,,,,,,main,599.1055773999999,k,k,1,1.0247882000001027,None,0,,,,,,,,,,,,,,,,,,,,,,,,,,,,,,,,,,,,,,,,,,,,,,,,,,,,,,,,,,,,,,,,,,,,321,2023-02-13_11h01.50.499,Main,2022.2.2,59.86052497680231,
positive,yellow,2,None,k,0,0,0,0,,,,,0,0,0,0,,,,,,,,,0,103,103,174,,,,,,,,,,,,,,,,,,,,,,,,,,,,,,,,,main,601.1386299999999,k,None,0,0.9526482000001124,None,0,,,,,,,,,,,,,,,,,,,,,,,,,,,,,,,,,,,,,,,,,,,,,,,,,,,,,,,,,,,,,,,,,,,,321,2023-02-13_11h01.50.499,Main,2022.2.2,59.86052497680231,
negative,yellow,1,k,None,0,0,0,0,,,,,0,0,0,0,,,,,,,,,0,104,104,128,,,,,,,,,,,,,,,,,,,,,,,,,,,,,,,,,main,604.1222068,None,None,1,1.5159350999999788,None,1,,,,,,,,,,,,,,,,,,,,,,,,,,,,,,,,,,,,,,,,,,,,,,,,,,,,,,,,,,,,,,,,,,,,321,2023-02-13_11h01.50.499,Main,2022.2.2,59.86052497680231,
positive,blue,2,k,None,0,0,0,0,,,,,0,0,0,0,,,,,,,,,0,105,105,158,,,,,,,,,,,,,,,,,,,,,,,,,,,,,,,,,main,606.6408031999999,None,None,1,1.5282485999998698,None,1,,,,,,,,,,,,,,,,,,,,,,,,,,,,,,,,,,,,,,,,,,,,,,,,,,,,,,,,,,,,,,,,,,,,321,2023-02-13_11h01.50.499,Main,2022.2.2,59.86052497680231,
positive,yellow,2,None,k,0,0,0,0,,,,,0,0,0,0,,,,,,,,,0,106,106,67,,,,,,,,,,,,,,,,,,,,,,,,,,,,,,,,,main,609.1732238,k,k,1,1.3930270999999266,None,0,,,,,,,,,,,,,,,,,,,,,,,,,,,,,,,,,,,,,,,,,,,,,,,,,,,,,,,,,,,,,,,,,,,,321,2023-02-13_11h01.50.499,Main,2022.2.2,59.86052497680231,
negative,blue,2,None,k,0,0,0,0,,,,,0,0,0,0,,,,,,,,,0,107,107,175,,,,,,,,,,,,,,,,,,,,,,,,,,,,,,,,,main,611.5754543,k,k,1,1.5618369999999686,None,0,,,,,,,,,,,,,,,,,,,,,,,,,,,,,,,,,,,,,,,,,,,,,,,,,,,,,,,,,,,,,,,,,,,,321,2023-02-13_11h01.50.499,Main,2022.2.2,59.86052497680231,
negative,blue,1,None,k,0,0,0,0,,,,,0,0,0,0,,,,,,,,,0,108,108,211,,,,,,,,,,,,,,,,,,,,,,,,,,,,,,,,,main,615.1599077000001,k,k,1,1.9473669999999856,None,0,,,,,,,,,,,,,,,,,,,,,,,,,,,,,,,,,,,,,,,,,,,,,,,,,,,,,,,,,,,,,,,,,,,,321,2023-02-13_11h01.50.499,Main,2022.2.2,59.86052497680231,
positive,blue,1,k,None,0,0,0,0,,,,,0,0,0,0,,,,,,,,,0,109,109,87,,,,,,,,,,,,,,,,,,,,,,,,,,,,,,,,,main,619.1164392000001,None,None,1,1.5160796000000119,None,1,,,,,,,,,,,,,,,,,,,,,,,,,,,,,,,,,,,,,,,,,,,,,,,,,,,,,,,,,,,,,,,,,,,,321,2023-02-13_11h01.50.499,Main,2022.2.2,59.86052497680231,
negative,yellow,1,k,None,0,0,0,0,,,,,0,0,0,0,,,,,,,,,0,110,110,188,,,,,,,,,,,,,,,,,,,,,,,,,,,,,,,,,main,621.6363041,None,None,1,1.512494199999992,None,1,,,,,,,,,,,,,,,,,,,,,,,,,,,,,,,,,,,,,,,,,,,,,,,,,,,,,,,,,,,,,,,,,,,,321,2023-02-13_11h01.50.499,Main,2022.2.2,59.86052497680231,
positive,yellow,2,None,k,0,0,0,0,,,,,0,0,0,0,,,,,,,,,0,111,111,136,,,,,,,,,,,,,,,,,,,,,,,,,,,,,,,,,main,624.152482,k,None,0,0.921581999999944,None,0,,,,,,,,,,,,,,,,,,,,,,,,,,,,,,,,,,,,,,,,,,,,,,,,,,,,,,,,,,,,,,,,,,,,321,2023-02-13_11h01.50.499,Main,2022.2.2,59.86052497680231,
negative,blue,1,None,k,0,0,0,0,,,,,0,0,0,0,,,,,,,,,0,112,112,112,,,,,,,,,,,,,,,,,,,,,,,,,,,,,,,,,main,627.1256831000001,k,k,1,4.288756499999863,None,0,,,,,,,,,,,,,,,,,,,,,,,,,,,,,,,,,,,,,,,,,,,,,,,,,,,,,,,,,,,,,,,,,,,,321,2023-02-13_11h01.50.499,Main,2022.2.2,59.86052497680231,
negative,yellow,2,k,None,0,0,0,0,,,,,0,0,0,0,,,,,,,,,0,113,113,0,,,,,,,,,,,,,,,,,,,,,,,,,,,,,,,,,main,633.4301771999999,None,None,1,1.531276200000093,None,1,,,,,,,,,,,,,,,,,,,,,,,,,,,,,,,,,,,,,,,,,,,,,,,,,,,,,,,,,,,,,,,,,,,,321,2023-02-13_11h01.50.499,Main,2022.2.2,59.86052497680231,
positive,blue,1,k,None,0,0,0,0,,,,,0,0,0,0,,,,,,,,,0,114,114,176,,,,,,,,,,,,,,,,,,,,,,,,,,,,,,,,,main,635.9638462999999,None,None,1,1.5282154000001356,None,1,,,,,,,,,,,,,,,,,,,,,,,,,,,,,,,,,,,,,,,,,,,,,,,,,,,,,,,,,,,,,,,,,,,,321,2023-02-13_11h01.50.499,Main,2022.2.2,59.86052497680231,
positive,blue,1,k,None,0,0,0,0,,,,,0,0,0,0,,,,,,,,,0,115,115,78,,,,,,,,,,,,,,,,,,,,,,,,,,,,,,,,,main,638.4947976999999,None,None,1,1.505272399999967,None,1,,,,,,,,,,,,,,,,,,,,,,,,,,,,,,,,,,,,,,,,,,,,,,,,,,,,,,,,,,,,,,,,,,,,321,2023-02-13_11h01.50.499,Main,2022.2.2,59.86052497680231,
positive,blue,1,k,None,0,0,0,0,,,,,0,0,0,0,,,,,,,,,0,116,116,100,,,,,,,,,,,,,,,,,,,,,,,,,,,,,,,,,main,641.0036536,None,None,1,1.5125092000000677,None,1,,,,,,,,,,,,,,,,,,,,,,,,,,,,,,,,,,,,,,,,,,,,,,,,,,,,,,,,,,,,,,,,,,,,321,2023-02-13_11h01.50.499,Main,2022.2.2,59.86052497680231,
positive,yellow,2,None,k,0,0,0,0,,,,,0,0,0,0,,,,,,,,,0,117,117,90,,,,,,,,,,,,,,,,,,,,,,,,,,,,,,,,,main,643.5181794999999,k,k,1,1.1435246999999436,None,0,,,,,,,,,,,,,,,,,,,,,,,,,,,,,,,,,,,,,,,,,,,,,,,,,,,,,,,,,,,,,,,,,,,,321,2023-02-13_11h01.50.499,Main,2022.2.2,59.86052497680231,
positive,yellow,2,None,k,0,0,0,0,,,,,0,0,0,0,,,,,,,,,0,118,118,179,,,,,,,,,,,,,,,,,,,,,,,,,,,,,,,,,main,645.6633829,k,k,1,1.1644297000000279,None,0,,,,,,,,,,,,,,,,,,,,,,,,,,,,,,,,,,,,,,,,,,,,,,,,,,,,,,,,,,,,,,,,,,,,321,2023-02-13_11h01.50.499,Main,2022.2.2,59.86052497680231,
positive,yellow,1,None,k,0,0,0,0,,,,,0,0,0,0,,,,,,,,,0,119,119,230,,,,,,,,,,,,,,,,,,,,,,,,,,,,,,,,,main,647.8352029999999,k,k,1,1.1501888000000235,None,0,,,,,,,,,,,,,,,,,,,,,,,,,,,,,,,,,,,,,,,,,,,,,,,,,,,,,,,,,,,,,,,,,,,,321,2023-02-13_11h01.50.499,Main,2022.2.2,59.86052497680231,
negative,blue,1,None,k,0,0,0,0,,,,,0,0,0,0,,,,,,,,,0,120,120,150,0,0,0,0,,,,,,,,,,,,,,,,,,,,,,,,,,,,,main,649.9894145000001,k,k,1,1.1137928999999076,None,0,,,,,,,,,652.1147406,652.1147406,652.1147406,652.1147406,None,,,,,,,,,,,,,,,,,,,,,,,,,,,,,,,,,,,,,,,,,,,,,,,,,,,,,,,321,2023-02-13_11h01.50.499,Main,2022.2.2,59.86052497680231,
negative,blue,1,None,k,0,0,0,0,,,,,0,0,0,0,,,,,,,,,0,120,120,150,,,,,,,,,,,,,,,,,,,,,,,,,,,,,,,,,,,,,,,,,,,,,,,,,,,,,,,,,,,,,,,,,,,,,,,,,,,,,,,,,,,,,,,,,,,,,,,,,,,,,,,,,,,,321,2023-02-13_11h01.50.499,Main,2022.2.2,59.86052497680231,
negative,yellow,1,k,None,0,0,0,0,,,,,0,0,0,0,,,,,,,,,0,121,121,164,,,,,,,,,,,,,,,,,,,,,,,,,,,,,,,,,main,712.1216376,None,None,1,1.5303869000001669,None,1,,,,,,,,,,,,,,,,,,,,,,,,,,,,,,,,,,,,,,,,,,,,,,,,,,,,,,,,,,,,,,,,,,,,321,2023-02-13_11h01.50.499,Main,2022.2.2,59.86052497680231,
positive,yellow,1,None,k,0,0,0,0,,,,,0,0,0,0,,,,,,,,,0,122,122,118,,,,,,,,,,,,,,,,,,,,,,,,,,,,,,,,,main,714.6521065,k,k,1,1.0079419999999573,None,0,,,,,,,,,,,,,,,,,,,,,,,,,,,,,,,,,,,,,,,,,,,,,,,,,,,,,,,,,,,,,,,,,,,,321,2023-02-13_11h01.50.499,Main,2022.2.2,59.86052497680231,
positive,yellow,2,None,k,0,0,0,0,,,,,0,0,0,0,,,,,,,,,0,123,123,37,,,,,,,,,,,,,,,,,,,,,,,,,,,,,,,,,main,716.6636828999999,k,k,1,0.8729875999999877,None,0,,,,,,,,,,,,,,,,,,,,,,,,,,,,,,,,,,,,,,,,,,,,,,,,,,,,,,,,,,,,,,,,,,,,321,2023-02-13_11h01.50.499,Main,2022.2.2,59.86052497680231,
negative,yellow,1,k,None,0,0,0,0,,,,,0,0,0,0,,,,,,,,,0,124,124,191,,,,,,,,,,,,,,,,,,,,,,,,,,,,,,,,,main,718.5434865,None,None,1,1.5280010999999831,None,1,,,,,,,,,,,,,,,,,,,,,,,,,,,,,,,,,,,,,,,,,,,,,,,,,,,,,,,,,,,,,,,,,,,,321,2023-02-13_11h01.50.499,Main,2022.2.2,59.86052497680231,
positive,yellow,1,None,k,0,0,0,0,,,,,0,0,0,0,,,,,,,,,0,125,125,71,,,,,,,,,,,,,,,,,,,,,,,,,,,,,,,,,main,721.0701262,k,k,1,0.9510683999999401,None,0,,,,,,,,,,,,,,,,,,,,,,,,,,,,,,,,,,,,,,,,,,,,,,,,,,,,,,,,,,,,,,,,,,,,321,2023-02-13_11h01.50.499,Main,2022.2.2,59.86052497680231,
positive,yellow,1,None,k,0,0,0,0,,,,,0,0,0,0,,,,,,,,,0,126,126,148,,,,,,,,,,,,,,,,,,,,,,,,,,,,,,,,,main,723.0330979,k,k,1,0.9162132999999812,None,0,,,,,,,,,,,,,,,,,,,,,,,,,,,,,,,,,,,,,,,,,,,,,,,,,,,,,,,,,,,,,,,,,,,,321,2023-02-13_11h01.50.499,Main,2022.2.2,59.86052497680231,
negative,blue,1,None,k,0,0,0,0,,,,,0,0,0,0,,,,,,,,,0,127,127,107,,,,,,,,,,,,,,,,,,,,,,,,,,,,,,,,,main,724.95182,k,k,1,1.23229409999999,None,0,,,,,,,,,,,,,,,,,,,,,,,,,,,,,,,,,,,,,,,,,,,,,,,,,,,,,,,,,,,,,,,,,,,,321,2023-02-13_11h01.50.499,Main,2022.2.2,59.86052497680231,
positive,blue,2,k,None,0,0,0,0,,,,,0,0,0,0,,,,,,,,,0,128,128,64,,,,,,,,,,,,,,,,,,,,,,,,,,,,,,,,,main,727.1870116,None,None,1,1.5322728999999526,None,1,,,,,,,,,,,,,,,,,,,,,,,,,,,,,,,,,,,,,,,,,,,,,,,,,,,,,,,,,,,,,,,,,,,,321,2023-02-13_11h01.50.499,Main,2022.2.2,59.86052497680231,
negative,red,1,None,None,0,0,0,0,,,,,0,0,0,0,,,,,,,,,0,129,129,44,,,,,,,,,,,,,,,,,,,,,,,,,,,,,,,,,main,729.7167267,None,None,1,1.515940700000101,None,1,,,,,,,,,,,,,,,,,,,,,,,,,,,,,,,,,,,,,,,,,,,,,,,,,,,,,,,,,,,,,,,,,,,,321,2023-02-13_11h01.50.499,Main,2022.2.2,59.86052497680231,
positive,yellow,2,None,k,0,0,0,0,,,,,0,0,0,0,,,,,,,,,0,130,130,143,,,,,,,,,,,,,,,,,,,,,,,,,,,,,,,,,main,732.2371567,k,k,1,1.016327199999978,None,0,,,,,,,,,,,,,,,,,,,,,,,,,,,,,,,,,,,,,,,,,,,,,,,,,,,,,,,,,,,,,,,,,,,,321,2023-02-13_11h01.50.499,Main,2022.2.2,59.86052497680231,
positive,red,1,None,None,0,0,0,0,,,,,0,0,0,0,,,,,,,,,0,131,131,125,,,,,,,,,,,,,,,,,,,,,,,,,,,,,,,,,main,734.2604544999999,None,None,1,1.5186963999999534,None,1,,,,,,,,,,,,,,,,,,,,,,,,,,,,,,,,,,,,,,,,,,,,,,,,,,,,,,,,,,,,,,,,,,,,321,2023-02-13_11h01.50.499,Main,2022.2.2,59.86052497680231,
negative,blue,2,None,k,0,0,0,0,,,,,0,0,0,0,,,,,,,,,0,132,132,231,,,,,,,,,,,,,,,,,,,,,,,,,,,,,,,,,main,736.7748078,k,k,1,1.1365107999999964,None,0,,,,,,,,,,,,,,,,,,,,,,,,,,,,,,,,,,,,,,,,,,,,,,,,,,,,,,,,,,,,,,,,,,,,321,2023-02-13_11h01.50.499,Main,2022.2.2,59.86052497680231,
positive,blue,2,k,None,0,0,0,0,,,,,0,0,0,0,,,,,,,,,0,133,133,84,,,,,,,,,,,,,,,,,,,,,,,,,,,,,,,,,main,738.9226306999999,None,None,1,1.5322722999999314,None,1,,,,,,,,,,,,,,,,,,,,,,,,,,,,,,,,,,,,,,,,,,,,,,,,,,,,,,,,,,,,,,,,,,,,321,2023-02-13_11h01.50.499,Main,2022.2.2,59.86052497680231,
negative,blue,1,None,k,0,0,0,0,,,,,0,0,0,0,,,,,,,,,0,134,134,63,,,,,,,,,,,,,,,,,,,,,,,,,,,,,,,,,main,741.4522918,k,k,1,1.1794155000000046,None,0,,,,,,,,,,,,,,,,,,,,,,,,,,,,,,,,,,,,,,,,,,,,,,,,,,,,,,,,,,,,,,,,,,,,321,2023-02-13_11h01.50.499,Main,2022.2.2,59.86052497680231,
negative,red,1,None,None,0,0,0,0,,,,,0,0,0,0,,,,,,,,,0,135,135,181,,,,,,,,,,,,,,,,,,,,,,,,,,,,,,,,,main,743.6446171,None,None,1,1.5291692000000694,None,1,,,,,,,,,,,,,,,,,,,,,,,,,,,,,,,,,,,,,,,,,,,,,,,,,,,,,,,,,,,,,,,,,,,,321,2023-02-13_11h01.50.499,Main,2022.2.2,59.86052497680231,
negative,blue,2,None,k,0,0,0,0,,,,,0,0,0,0,,,,,,,,,0,136,136,6,,,,,,,,,,,,,,,,,,,,,,,,,,,,,,,,,main,746.1667732000001,k,k,1,0.9126230000001669,None,0,,,,,,,,,,,,,,,,,,,,,,,,,,,,,,,,,,,,,,,,,,,,,,,,,,,,,,,,,,,,,,,,,,,,321,2023-02-13_11h01.50.499,Main,2022.2.2,59.86052497680231,
negative,yellow,2,k,None,0,0,0,0,,,,,0,0,0,0,,,,,,,,,0,137,137,144,,,,,,,,,,,,,,,,,,,,,,,,,,,,,,,,,main,748.0907629999999,None,None,1,1.5280394999999771,None,1,,,,,,,,,,,,,,,,,,,,,,,,,,,,,,,,,,,,,,,,,,,,,,,,,,,,,,,,,,,,,,,,,,,,321,2023-02-13_11h01.50.499,Main,2022.2.2,59.86052497680231,
negative,yellow,1,k,None,0,0,0,0,,,,,0,0,0,0,,,,,,,,,0,138,138,234,,,,,,,,,,,,,,,,,,,,,,,,,,,,,,,,,main,750.6175942,None,k,0,1.2110669999999573,None,1,,,,,,,,,,,,,,,,,,,,,,,,,,,,,,,,,,,,,,,,,,,,,,,,,,,,,,,,,,,,,,,,,,,,321,2023-02-13_11h01.50.499,Main,2022.2.2,59.86052497680231,
positive,blue,1,k,None,0,0,0,0,,,,,0,0,0,0,,,,,,,,,0,139,139,214,,,,,,,,,,,,,,,,,,,,,,,,,,,,,,,,,main,753.8592383999999,None,None,1,1.5176466999998866,None,1,,,,,,,,,,,,,,,,,,,,,,,,,,,,,,,,,,,,,,,,,,,,,,,,,,,,,,,,,,,,,,,,,,,,321,2023-02-13_11h01.50.499,Main,2022.2.2,59.86052497680231,
negative,red,1,None,None,0,0,0,0,,,,,0,0,0,0,,,,,,,,,0,140,140,166,,,,,,,,,,,,,,,,,,,,,,,,,,,,,,,,,main,756.3783246999999,None,None,1,1.511240700000144,None,1,,,,,,,,,,,,,,,,,,,,,,,,,,,,,,,,,,,,,,,,,,,,,,,,,,,,,,,,,,,,,,,,,,,,321,2023-02-13_11h01.50.499,Main,2022.2.2,59.86052497680231,
negative,blue,2,None,k,0,0,0,0,,,,,0,0,0,0,,,,,,,,,0,141,141,56,,,,,,,,,,,,,,,,,,,,,,,,,,,,,,,,,main,758.8920292999999,k,k,1,1.0850041999999576,None,0,,,,,,,,,,,,,,,,,,,,,,,,,,,,,,,,,,,,,,,,,,,,,,,,,,,,,,,,,,,,,,,,,,,,321,2023-02-13_11h01.50.499,Main,2022.2.2,59.86052497680231,
positive,yellow,2,None,k,0,0,0,0,,,,,0,0,0,0,,,,,,,,,0,142,142,104,,,,,,,,,,,,,,,,,,,,,,,,,,,,,,,,,main,760.9852983000001,k,None,0,1.0094389000000774,None,0,,,,,,,,,,,,,,,,,,,,,,,,,,,,,,,,,,,,,,,,,,,,,,,,,,,,,,,,,,,,,,,,,,,,321,2023-02-13_11h01.50.499,Main,2022.2.2,59.86052497680231,
positive,yellow,1,None,k,0,0,0,0,,,,,0,0,0,0,,,,,,,,,0,143,143,216,,,,,,,,,,,,,,,,,,,,,,,,,,,,,,,,,main,764.0293746,k,None,0,1.4338227999999162,None,0,,,,,,,,,,,,,,,,,,,,,,,,,,,,,,,,,,,,,,,,,,,,,,,,,,,,,,,,,,,,,,,,,,,,321,2023-02-13_11h01.50.499,Main,2022.2.2,59.86052497680231,
positive,yellow,1,None,k,0,0,0,0,,,,,0,0,0,0,,,,,,,,,0,144,144,140,,,,,,,,,,,,,,,,,,,,,,,,,,,,,,,,,main,767.496224,k,k,1,1.5288531999999577,None,0,,,,,,,,,,,,,,,,,,,,,,,,,,,,,,,,,,,,,,,,,,,,,,,,,,,,,,,,,,,,,,,,,,,,321,2023-02-13_11h01.50.499,Main,2022.2.2,59.86052497680231,
positive,blue,1,k,None,0,0,0,0,,,,,0,0,0,0,,,,,,,,,0,145,145,30,,,,,,,,,,,,,,,,,,,,,,,,,,,,,,,,,main,771.0563508999999,None,None,1,1.5258057999999437,None,1,,,,,,,,,,,,,,,,,,,,,,,,,,,,,,,,,,,,,,,,,,,,,,,,,,,,,,,,,,,,,,,,,,,,321,2023-02-13_11h01.50.499,Main,2022.2.2,59.86052497680231,
negative,yellow,2,k,None,0,0,0,0,,,,,0,0,0,0,,,,,,,,,0,146,146,202,,,,,,,,,,,,,,,,,,,,,,,,,,,,,,,,,main,773.5880331000001,None,None,1,1.5118689000000813,None,1,,,,,,,,,,,,,,,,,,,,,,,,,,,,,,,,,,,,,,,,,,,,,,,,,,,,,,,,,,,,,,,,,,,,321,2023-02-13_11h01.50.499,Main,2022.2.2,59.86052497680231,
positive,yellow,1,None,k,0,0,0,0,,,,,0,0,0,0,,,,,,,,,0,147,147,31,,,,,,,,,,,,,,,,,,,,,,,,,,,,,,,,,main,776.1038034999999,k,k,1,1.1943092999999863,None,0,,,,,,,,,,,,,,,,,,,,,,,,,,,,,,,,,,,,,,,,,,,,,,,,,,,,,,,,,,,,,,,,,,,,321,2023-02-13_11h01.50.499,Main,2022.2.2,59.86052497680231,
positive,yellow,2,None,k,0,0,0,0,,,,,0,0,0,0,,,,,,,,,0,148,148,224,,,,,,,,,,,,,,,,,,,,,,,,,,,,,,,,,main,778.3083214000001,k,k,1,1.2973492000000988,None,0,,,,,,,,,,,,,,,,,,,,,,,,,,,,,,,,,,,,,,,,,,,,,,,,,,,,,,,,,,,,,,,,,,,,321,2023-02-13_11h01.50.499,Main,2022.2.2,59.86052497680231,
positive,red,2,None,None,0,0,0,0,,,,,0,0,0,0,,,,,,,,,0,149,149,60,,,,,,,,,,,,,,,,,,,,,,,,,,,,,,,,,main,780.6114301,None,None,1,1.5249826000001576,None,1,,,,,,,,,,,,,,,,,,,,,,,,,,,,,,,,,,,,,,,,,,,,,,,,,,,,,,,,,,,,,,,,,,,,321,2023-02-13_11h01.50.499,Main,2022.2.2,59.86052497680231,
positive,blue,2,k,None,0,0,0,0,,,,,0,0,0,0,,,,,,,,,0,150,150,133,,,,,,,,,,,,,,,,,,,,,,,,,,,,,,,,,main,783.1358998999999,None,None,1,1.5234820999999101,None,1,,,,,,,,,,,,,,,,,,,,,,,,,,,,,,,,,,,,,,,,,,,,,,,,,,,,,,,,,,,,,,,,,,,,321,2023-02-13_11h01.50.499,Main,2022.2.2,59.86052497680231,
positive,blue,2,k,None,0,0,0,0,,,,,0,0,0,0,,,,,,,,,0,151,151,201,,,,,,,,,,,,,,,,,,,,,,,,,,,,,,,,,main,785.6603900999999,None,None,1,1.5314421000000493,None,1,,,,,,,,,,,,,,,,,,,,,,,,,,,,,,,,,,,,,,,,,,,,,,,,,,,,,,,,,,,,,,,,,,,,321,2023-02-13_11h01.50.499,Main,2022.2.2,59.86052497680231,
positive,yellow,1,None,k,0,0,0,0,,,,,0,0,0,0,,,,,,,,,0,152,152,8,,,,,,,,,,,,,,,,,,,,,,,,,,,,,,,,,main,788.1987449000001,k,k,1,0.9962974000000031,None,0,,,,,,,,,,,,,,,,,,,,,,,,,,,,,,,,,,,,,,,,,,,,,,,,,,,,,,,,,,,,,,,,,,,,321,2023-02-13_11h01.50.499,Main,2022.2.2,59.86052497680231,
negative,red,1,None,None,0,0,0,0,,,,,0,0,0,0,,,,,,,,,0,153,153,9,,,,,,,,,,,,,,,,,,,,,,,,,,,,,,,,,main,790.1961156,None,None,1,1.5140341000001172,None,1,,,,,,,,,,,,,,,,,,,,,,,,,,,,,,,,,,,,,,,,,,,,,,,,,,,,,,,,,,,,,,,,,,,,321,2023-02-13_11h01.50.499,Main,2022.2.2,59.86052497680231,
positive,blue,1,k,None,0,0,0,0,,,,,0,0,0,0,,,,,,,,,0,154,154,239,,,,,,,,,,,,,,,,,,,,,,,,,,,,,,,,,main,792.7114047,None,None,1,1.5093749999998636,None,1,,,,,,,,,,,,,,,,,,,,,,,,,,,,,,,,,,,,,,,,,,,,,,,,,,,,,,,,,,,,,,,,,,,,321,2023-02-13_11h01.50.499,Main,2022.2.2,59.86052497680231,
negative,blue,2,None,k,0,0,0,0,,,,,0,0,0,0,,,,,,,,,0,155,155,132,,,,,,,,,,,,,,,,,,,,,,,,,,,,,,,,,main,795.2261034,k,k,1,1.1707401999999547,None,0,,,,,,,,,,,,,,,,,,,,,,,,,,,,,,,,,,,,,,,,,,,,,,,,,,,,,,,,,,,,,,,,,,,,321,2023-02-13_11h01.50.499,Main,2022.2.2,59.86052497680231,
positive,blue,2,k,None,0,0,0,0,,,,,0,0,0,0,,,,,,,,,0,156,156,74,,,,,,,,,,,,,,,,,,,,,,,,,,,,,,,,,main,797.4015016000001,None,None,1,1.532533199999989,None,1,,,,,,,,,,,,,,,,,,,,,,,,,,,,,,,,,,,,,,,,,,,,,,,,,,,,,,,,,,,,,,,,,,,,321,2023-02-13_11h01.50.499,Main,2022.2.2,59.86052497680231,
negative,red,1,None,None,0,0,0,0,,,,,0,0,0,0,,,,,,,,,0,157,157,96,,,,,,,,,,,,,,,,,,,,,,,,,,,,,,,,,main,799.9321206,None,None,1,1.5292524999999841,None,1,,,,,,,,,,,,,,,,,,,,,,,,,,,,,,,,,,,,,,,,,,,,,,,,,,,,,,,,,,,,,,,,,,,,321,2023-02-13_11h01.50.499,Main,2022.2.2,59.86052497680231,
negative,red,1,None,None,0,0,0,0,,,,,0,0,0,0,,,,,,,,,0,158,158,146,,,,,,,,,,,,,,,,,,,,,,,,,,,,,,,,,main,802.4636751,None,None,1,1.513663700000052,None,1,,,,,,,,,,,,,,,,,,,,,,,,,,,,,,,,,,,,,,,,,,,,,,,,,,,,,,,,,,,,,,,,,,,,321,2023-02-13_11h01.50.499,Main,2022.2.2,59.86052497680231,
negative,yellow,1,k,None,0,0,0,0,,,,,0,0,0,0,,,,,,,,,0,159,159,209,,,,,,,,,,,,,,,,,,,,,,,,,,,,,,,,,main,804.9777105000001,None,None,1,1.5090496000000257,None,1,,,,,,,,,,,,,,,,,,,,,,,,,,,,,,,,,,,,,,,,,,,,,,,,,,,,,,,,,,,,,,,,,,,,321,2023-02-13_11h01.50.499,Main,2022.2.2,59.86052497680231,
negative,blue,2,None,k,0,0,0,0,,,,,0,0,0,0,,,,,,,,,0,160,160,226,,,,,,,,,,,,,,,,,,,,,,,,,,,,,,,,,main,807.489435,k,k,1,0.9502245999999559,None,0,,,,,,,,,,,,,,,,,,,,,,,,,,,,,,,,,,,,,,,,,,,,,,,,,,,,,,,,,,,,,,,,,,,,321,2023-02-13_11h01.50.499,Main,2022.2.2,59.86052497680231,
negative,blue,2,None,k,0,0,0,0,,,,,0,0,0,0,,,,,,,,,0,161,161,171,,,,,,,,,,,,,,,,,,,,,,,,,,,,,,,,,main,809.4464539999999,k,k,1,1.1654476000001068,None,0,,,,,,,,,,,,,,,,,,,,,,,,,,,,,,,,,,,,,,,,,,,,,,,,,,,,,,,,,,,,,,,,,,,,321,2023-02-13_11h01.50.499,Main,2022.2.2,59.86052497680231,
positive,blue,2,k,None,0,0,0,0,,,,,0,0,0,0,,,,,,,,,0,162,162,42,,,,,,,,,,,,,,,,,,,,,,,,,,,,,,,,,main,811.6205995,None,None,1,1.5070887999997922,None,1,,,,,,,,,,,,,,,,,,,,,,,,,,,,,,,,,,,,,,,,,,,,,,,,,,,,,,,,,,,,,,,,,,,,321,2023-02-13_11h01.50.499,Main,2022.2.2,59.86052497680231,
negative,red,2,None,None,0,0,0,0,,,,,0,0,0,0,,,,,,,,,0,163,163,149,,,,,,,,,,,,,,,,,,,,,,,,,,,,,,,,,main,814.1242496,None,None,1,1.5276060999999572,None,1,,,,,,,,,,,,,,,,,,,,,,,,,,,,,,,,,,,,,,,,,,,,,,,,,,,,,,,,,,,,,,,,,,,,321,2023-02-13_11h01.50.499,Main,2022.2.2,59.86052497680231,
positive,red,1,None,None,0,0,0,0,,,,,0,0,0,0,,,,,,,,,0,164,164,1,,,,,,,,,,,,,,,,,,,,,,,,,,,,,,,,,main,816.6508180000001,None,None,1,1.5125233000001117,None,1,,,,,,,,,,,,,,,,,,,,,,,,,,,,,,,,,,,,,,,,,,,,,,,,,,,,,,,,,,,,,,,,,,,,321,2023-02-13_11h01.50.499,Main,2022.2.2,59.86052497680231,
positive,blue,2,k,None,0,0,0,0,,,,,0,0,0,0,,,,,,,,,0,165,165,17,,,,,,,,,,,,,,,,,,,,,,,,,,,,,,,,,main,819.1647659,None,None,1,1.5184017999999924,None,1,,,,,,,,,,,,,,,,,,,,,,,,,,,,,,,,,,,,,,,,,,,,,,,,,,,,,,,,,,,,,,,,,,,,321,2023-02-13_11h01.50.499,Main,2022.2.2,59.86052497680231,
negative,blue,2,None,k,0,0,0,0,,,,,0,0,0,0,,,,,,,,,0,166,166,198,,,,,,,,,,,,,,,,,,,,,,,,,,,,,,,,,main,821.6887311999999,k,k,1,0.9820529999999508,None,0,,,,,,,,,,,,,,,,,,,,,,,,,,,,,,,,,,,,,,,,,,,,,,,,,,,,,,,,,,,,,,,,,,,,321,2023-02-13_11h01.50.499,Main,2022.2.2,59.86052497680231,
positive,blue,1,k,None,0,0,0,0,,,,,0,0,0,0,,,,,,,,,0,167,167,178,,,,,,,,,,,,,,,,,,,,,,,,,,,,,,,,,main,823.6782587,None,None,1,1.5162112999998953,None,1,,,,,,,,,,,,,,,,,,,,,,,,,,,,,,,,,,,,,,,,,,,,,,,,,,,,,,,,,,,,,,,,,,,,321,2023-02-13_11h01.50.499,Main,2022.2.2,59.86052497680231,
positive,blue,1,k,None,0,0,0,0,,,,,0,0,0,0,,,,,,,,,0,168,168,79,,,,,,,,,,,,,,,,,,,,,,,,,,,,,,,,,main,826.1981816,None,None,1,1.5227778999999373,None,1,,,,,,,,,,,,,,,,,,,,,,,,,,,,,,,,,,,,,,,,,,,,,,,,,,,,,,,,,,,,,,,,,,,,321,2023-02-13_11h01.50.499,Main,2022.2.2,59.86052497680231,
positive,yellow,1,None,k,0,0,0,0,,,,,0,0,0,0,,,,,,,,,0,169,169,185,,,,,,,,,,,,,,,,,,,,,,,,,,,,,,,,,main,828.7187243000001,k,k,1,1.2861818999999741,None,0,,,,,,,,,,,,,,,,,,,,,,,,,,,,,,,,,,,,,,,,,,,,,,,,,,,,,,,,,,,,,,,,,,,,321,2023-02-13_11h01.50.499,Main,2022.2.2,59.86052497680231,
negative,yellow,1,k,None,0,0,0,0,,,,,0,0,0,0,,,,,,,,,0,170,170,163,,,,,,,,,,,,,,,,,,,,,,,,,,,,,,,,,main,831.0159180999999,None,None,1,1.5077645000001212,None,1,,,,,,,,,,,,,,,,,,,,,,,,,,,,,,,,,,,,,,,,,,,,,,,,,,,,,,,,,,,,,,,,,,,,321,2023-02-13_11h01.50.499,Main,2022.2.2,59.86052497680231,
positive,blue,2,k,None,0,0,0,0,,,,,0,0,0,0,,,,,,,,,0,171,171,27,,,,,,,,,,,,,,,,,,,,,,,,,,,,,,,,,main,833.5254941999999,None,None,1,1.5250575000000026,None,1,,,,,,,,,,,,,,,,,,,,,,,,,,,,,,,,,,,,,,,,,,,,,,,,,,,,,,,,,,,,,,,,,,,,321,2023-02-13_11h01.50.499,Main,2022.2.2,59.86052497680231,
negative,yellow,1,k,None,0,0,0,0,,,,,0,0,0,0,,,,,,,,,0,172,172,46,,,,,,,,,,,,,,,,,,,,,,,,,,,,,,,,,main,836.0463841000001,None,None,1,1.5194687000000613,None,1,,,,,,,,,,,,,,,,,,,,,,,,,,,,,,,,,,,,,,,,,,,,,,,,,,,,,,,,,,,,,,,,,,,,321,2023-02-13_11h01.50.499,Main,2022.2.2,59.86052497680231,
positive,yellow,2,None,k,0,0,0,0,,,,,0,0,0,0,,,,,,,,,0,173,173,155,,,,,,,,,,,,,,,,,,,,,,,,,,,,,,,,,main,838.5716651,k,k,1,1.55857600000013,None,0,,,,,,,,,,,,,,,,,,,,,,,,,,,,,,,,,,,,,,,,,,,,,,,,,,,,,,,,,,,,,,,,,,,,321,2023-02-13_11h01.50.499,Main,2022.2.2,59.86052497680231,
positive,red,1,None,None,0,0,0,0,,,,,0,0,0,0,,,,,,,,,0,174,174,157,,,,,,,,,,,,,,,,,,,,,,,,,,,,,,,,,main,842.1534331,None,None,1,1.520630600000004,None,1,,,,,,,,,,,,,,,,,,,,,,,,,,,,,,,,,,,,,,,,,,,,,,,,,,,,,,,,,,,,,,,,,,,,321,2023-02-13_11h01.50.499,Main,2022.2.2,59.86052497680231,
negative,red,2,None,None,0,0,0,0,,,,,0,0,0,0,,,,,,,,,0,175,175,13,,,,,,,,,,,,,,,,,,,,,,,,,,,,,,,,,main,844.67959,None,None,1,1.5167483000000175,None,1,,,,,,,,,,,,,,,,,,,,,,,,,,,,,,,,,,,,,,,,,,,,,,,,,,,,,,,,,,,,,,,,,,,,321,2023-02-13_11h01.50.499,Main,2022.2.2,59.86052497680231,
positive,blue,1,k,None,0,0,0,0,,,,,0,0,0,0,,,,,,,,,0,176,176,187,,,,,,,,,,,,,,,,,,,,,,,,,,,,,,,,,main,847.1969365,None,None,1,1.5232942999998613,None,1,,,,,,,,,,,,,,,,,,,,,,,,,,,,,,,,,,,,,,,,,,,,,,,,,,,,,,,,,,,,,,,,,,,,321,2023-02-13_11h01.50.499,Main,2022.2.2,59.86052497680231,
negative,blue,2,None,k,0,0,0,0,,,,,0,0,0,0,,,,,,,,,0,177,177,75,,,,,,,,,,,,,,,,,,,,,,,,,,,,,,,,,main,849.7191425999999,k,k,1,0.9568887000000359,None,0,,,,,,,,,,,,,,,,,,,,,,,,,,,,,,,,,,,,,,,,,,,,,,,,,,,,,,,,,,,,,,,,,,,,321,2023-02-13_11h01.50.499,Main,2022.2.2,59.86052497680231,
negative,blue,2,None,k,0,0,0,0,,,,,0,0,0,0,,,,,,,,,0,178,178,199,,,,,,,,,,,,,,,,,,,,,,,,,,,,,,,,,main,851.6875723,k,k,1,1.7549205000000256,None,0,,,,,,,,,,,,,,,,,,,,,,,,,,,,,,,,,,,,,,,,,,,,,,,,,,,,,,,,,,,,,,,,,,,,321,2023-02-13_11h01.50.499,Main,2022.2.2,59.86052497680231,
positive,yellow,2,None,k,0,0,0,0,,,,,0,0,0,0,,,,,,,,,0,179,179,81,,,,,,,,,,,,,,,,,,,,,,,,,,,,,,,,,main,855.4719992,k,k,1,1.028375499999811,None,0,,,,,,,,,,,,,,,,,,,,,,,,,,,,,,,,,,,,,,,,,,,,,,,,,,,,,,,,,,,,,,,,,,,,321,2023-02-13_11h01.50.499,Main,2022.2.2,59.86052497680231,
positive,blue,1,k,None,0,0,0,0,,,,,0,0,0,0,,,,,,,,,0,180,180,3,,,,,,,,,,,,,,,,,,,,,,,,,,,,,,,,,main,857.5057353,None,None,1,1.5084994999999708,None,1,,,,,,,,,,,,,,,,,,,,,,,,,,,,,,,,,,,,,,,,,,,,,,,,,,,,,,,,,,,,,,,,,,,,321,2023-02-13_11h01.50.499,Main,2022.2.2,59.86052497680231,
negative,blue,1,None,k,0,0,0,0,,,,,0,0,0,0,,,,,,,,,0,181,181,94,,,,,,,,,,,,,,,,,,,,,,,,,,,,,,,,,main,860.0092554999999,k,k,1,1.2974063999999998,None,0,,,,,,,,,,,,,,,,,,,,,,,,,,,,,,,,,,,,,,,,,,,,,,,,,,,,,,,,,,,,,,,,,,,,321,2023-02-13_11h01.50.499,Main,2022.2.2,59.86052497680231,
negative,yellow,1,k,None,0,0,0,0,,,,,0,0,0,0,,,,,,,,,0,182,182,11,,,,,,,,,,,,,,,,,,,,,,,,,,,,,,,,,main,862.3141292999999,None,None,1,1.5250261999999566,None,1,,,,,,,,,,,,,,,,,,,,,,,,,,,,,,,,,,,,,,,,,,,,,,,,,,,,,,,,,,,,,,,,,,,,321,2023-02-13_11h01.50.499,Main,2022.2.2,59.86052497680231,
negative,yellow,2,k,None,0,0,0,0,,,,,0,0,0,0,,,,,,,,,0,183,183,103,,,,,,,,,,,,,,,,,,,,,,,,,,,,,,,,,main,864.8364968000001,None,None,1,1.529623299999912,None,1,,,,,,,,,,,,,,,,,,,,,,,,,,,,,,,,,,,,,,,,,,,,,,,,,,,,,,,,,,,,,,,,,,,,321,2023-02-13_11h01.50.499,Main,2022.2.2,59.86052497680231,
positive,yellow,1,None,k,0,0,0,0,,,,,0,0,0,0,,,,,,,,,0,184,184,139,,,,,,,,,,,,,,,,,,,,,,,,,,,,,,,,,main,867.3697325,k,k,1,1.1681573999999273,None,0,,,,,,,,,,,,,,,,,,,,,,,,,,,,,,,,,,,,,,,,,,,,,,,,,,,,,,,,,,,,,,,,,,,,321,2023-02-13_11h01.50.499,Main,2022.2.2,59.86052497680231,
negative,red,1,None,None,0,0,0,0,,,,,0,0,0,0,,,,,,,,,0,185,185,232,,,,,,,,,,,,,,,,,,,,,,,,,,,,,,,,,main,869.5452098000001,None,None,1,1.5285645999999815,None,1,,,,,,,,,,,,,,,,,,,,,,,,,,,,,,,,,,,,,,,,,,,,,,,,,,,,,,,,,,,,,,,,,,,,321,2023-02-13_11h01.50.499,Main,2022.2.2,59.86052497680231,
positive,red,1,None,None,0,0,0,0,,,,,0,0,0,0,,,,,,,,,0,186,186,29,,,,,,,,,,,,,,,,,,,,,,,,,,,,,,,,,main,872.0746723,None,None,1,1.5281549000001178,None,1,,,,,,,,,,,,,,,,,,,,,,,,,,,,,,,,,,,,,,,,,,,,,,,,,,,,,,,,,,,,,,,,,,,,321,2023-02-13_11h01.50.499,Main,2022.2.2,59.86052497680231,
negative,blue,2,None,k,0,0,0,0,,,,,0,0,0,0,,,,,,,,,0,187,187,206,,,,,,,,,,,,,,,,,,,,,,,,,,,,,,,,,main,874.6119552999999,k,k,1,1.0329165999999077,None,0,,,,,,,,,,,,,,,,,,,,,,,,,,,,,,,,,,,,,,,,,,,,,,,,,,,,,,,,,,,,,,,,,,,,321,2023-02-13_11h01.50.499,Main,2022.2.2,59.86052497680231,
negative,yellow,2,k,None,0,0,0,0,,,,,0,0,0,0,,,,,,,,,0,188,188,117,,,,,,,,,,,,,,,,,,,,,,,,,,,,,,,,,main,876.6494771999999,None,None,1,1.5156054999999924,None,1,,,,,,,,,,,,,,,,,,,,,,,,,,,,,,,,,,,,,,,,,,,,,,,,,,,,,,,,,,,,,,,,,,,,321,2023-02-13_11h01.50.499,Main,2022.2.2,59.86052497680231,
negative,yellow,2,k,None,0,0,0,0,,,,,0,0,0,0,,,,,,,,,0,189,189,40,,,,,,,,,,,,,,,,,,,,,,,,,,,,,,,,,main,879.1623233999999,None,None,1,1.5199357999999847,None,1,,,,,,,,,,,,,,,,,,,,,,,,,,,,,,,,,,,,,,,,,,,,,,,,,,,,,,,,,,,,,,,,,,,,321,2023-02-13_11h01.50.499,Main,2022.2.2,59.86052497680231,
negative,red,2,None,None,0,0,0,0,,,,,0,0,0,0,,,,,,,,,0,190,190,160,,,,,,,,,,,,,,,,,,,,,,,,,,,,,,,,,main,881.6949319,None,None,1,1.5166357000000517,None,1,,,,,,,,,,,,,,,,,,,,,,,,,,,,,,,,,,,,,,,,,,,,,,,,,,,,,,,,,,,,,,,,,,,,321,2023-02-13_11h01.50.499,Main,2022.2.2,59.86052497680231,
negative,yellow,1,k,None,0,0,0,0,,,,,0,0,0,0,,,,,,,,,0,191,191,45,,,,,,,,,,,,,,,,,,,,,,,,,,,,,,,,,main,884.2126194,None,None,1,1.514317199999823,None,1,,,,,,,,,,,,,,,,,,,,,,,,,,,,,,,,,,,,,,,,,,,,,,,,,,,,,,,,,,,,,,,,,,,,321,2023-02-13_11h01.50.499,Main,2022.2.2,59.86052497680231,
positive,yellow,1,None,k,0,0,0,0,,,,,0,0,0,0,,,,,,,,,0,192,192,165,,,,,,,,,,,,,,,,,,,,,,,,,,,,,,,,,main,886.7352942,k,k,1,1.3503593000000365,None,0,,,,,,,,,,,,,,,,,,,,,,,,,,,,,,,,,,,,,,,,,,,,,,,,,,,,,,,,,,,,,,,,,,,,321,2023-02-13_11h01.50.499,Main,2022.2.2,59.86052497680231,
negative,blue,1,None,k,0,0,0,0,,,,,0,0,0,0,,,,,,,,,0,193,193,20,,,,,,,,,,,,,,,,,,,,,,,,,,,,,,,,,main,889.0947813,k,k,1,1.3263155000001916,None,0,,,,,,,,,,,,,,,,,,,,,,,,,,,,,,,,,,,,,,,,,,,,,,,,,,,,,,,,,,,,,,,,,,,,321,2023-02-13_11h01.50.499,Main,2022.2.2,59.86052497680231,
positive,red,2,None,None,0,0,0,0,,,,,0,0,0,0,,,,,,,,,0,194,194,227,,,,,,,,,,,,,,,,,,,,,,,,,,,,,,,,,main,891.4224675,None,None,1,1.5152467000000343,None,1,,,,,,,,,,,,,,,,,,,,,,,,,,,,,,,,,,,,,,,,,,,,,,,,,,,,,,,,,,,,,,,,,,,,321,2023-02-13_11h01.50.499,Main,2022.2.2,59.86052497680231,
positive,yellow,1,None,k,0,0,0,0,,,,,0,0,0,0,,,,,,,,,0,195,195,113,,,,,,,,,,,,,,,,,,,,,,,,,,,,,,,,,main,893.9327991999999,k,k,1,1.145533099999966,None,0,,,,,,,,,,,,,,,,,,,,,,,,,,,,,,,,,,,,,,,,,,,,,,,,,,,,,,,,,,,,,,,,,,,,321,2023-02-13_11h01.50.499,Main,2022.2.2,59.86052497680231,
negative,red,1,None,None,0,0,0,0,,,,,0,0,0,0,,,,,,,,,0,196,196,62,,,,,,,,,,,,,,,,,,,,,,,,,,,,,,,,,main,896.0892506,None,None,1,1.5190115000000333,None,1,,,,,,,,,,,,,,,,,,,,,,,,,,,,,,,,,,,,,,,,,,,,,,,,,,,,,,,,,,,,,,,,,,,,321,2023-02-13_11h01.50.499,Main,2022.2.2,59.86052497680231,
negative,yellow,1,k,None,0,0,0,0,,,,,0,0,0,0,,,,,,,,,0,197,197,26,,,,,,,,,,,,,,,,,,,,,,,,,,,,,,,,,main,898.6061336999999,None,None,1,1.5305855999999949,None,1,,,,,,,,,,,,,,,,,,,,,,,,,,,,,,,,,,,,,,,,,,,,,,,,,,,,,,,,,,,,,,,,,,,,321,2023-02-13_11h01.50.499,Main,2022.2.2,59.86052497680231,
positive,yellow,1,None,k,0,0,0,0,,,,,0,0,0,0,,,,,,,,,0,198,198,48,,,,,,,,,,,,,,,,,,,,,,,,,,,,,,,,,main,901.1380369999999,k,k,1,1.01027380000005,None,0,,,,,,,,,,,,,,,,,,,,,,,,,,,,,,,,,,,,,,,,,,,,,,,,,,,,,,,,,,,,,,,,,,,,321,2023-02-13_11h01.50.499,Main,2022.2.2,59.86052497680231,
positive,red,2,None,None,0,0,0,0,,,,,0,0,0,0,,,,,,,,,0,199,199,156,,,,,,,,,,,,,,,,,,,,,,,,,,,,,,,,,main,903.154597,None,None,1,1.5187344999999368,None,1,,,,,,,,,,,,,,,,,,,,,,,,,,,,,,,,,,,,,,,,,,,,,,,,,,,,,,,,,,,,,,,,,,,,321,2023-02-13_11h01.50.499,Main,2022.2.2,59.86052497680231,
negative,yellow,2,k,None,0,0,0,0,,,,,0,0,0,0,,,,,,,,,0,200,200,4,,,,,,,,,,,,,,,,,,,,,,,,,,,,,,,,,main,905.6764086000001,None,None,1,1.5240166999999474,None,1,,,,,,,,,,,,,,,,,,,,,,,,,,,,,,,,,,,,,,,,,,,,,,,,,,,,,,,,,,,,,,,,,,,,321,2023-02-13_11h01.50.499,Main,2022.2.2,59.86052497680231,
positive,red,1,None,None,0,0,0,0,,,,,0,0,0,0,,,,,,,,,0,201,201,195,,,,,,,,,,,,,,,,,,,,,,,,,,,,,,,,,main,908.1997534,None,None,1,1.516820800000005,None,1,,,,,,,,,,,,,,,,,,,,,,,,,,,,,,,,,,,,,,,,,,,,,,,,,,,,,,,,,,,,,,,,,,,,321,2023-02-13_11h01.50.499,Main,2022.2.2,59.86052497680231,
negative,red,2,None,None,0,0,0,0,,,,,0,0,0,0,,,,,,,,,0,202,202,116,,,,,,,,,,,,,,,,,,,,,,,,,,,,,,,,,main,910.7213777,None,None,1,1.524163999999928,None,1,,,,,,,,,,,,,,,,,,,,,,,,,,,,,,,,,,,,,,,,,,,,,,,,,,,,,,,,,,,,,,,,,,,,321,2023-02-13_11h01.50.499,Main,2022.2.2,59.86052497680231,
negative,yellow,2,k,None,0,0,0,0,,,,,0,0,0,0,,,,,,,,,0,203,203,207,,,,,,,,,,,,,,,,,,,,,,,,,,,,,,,,,main,913.2483361,None,None,1,1.5297577000001183,None,1,,,,,,,,,,,,,,,,,,,,,,,,,,,,,,,,,,,,,,,,,,,,,,,,,,,,,,,,,,,,,,,,,,,,321,2023-02-13_11h01.50.499,Main,2022.2.2,59.86052497680231,
positive,yellow,2,None,k,0,0,0,0,,,,,0,0,0,0,,,,,,,,,0,204,204,36,,,,,,,,,,,,,,,,,,,,,,,,,,,,,,,,,main,915.7811075,k,k,1,0.9035934999999427,None,0,,,,,,,,,,,,,,,,,,,,,,,,,,,,,,,,,,,,,,,,,,,,,,,,,,,,,,,,,,,,,,,,,,,,321,2023-02-13_11h01.50.499,Main,2022.2.2,59.86052497680231,
negative,red,1,None,None,0,0,0,0,,,,,0,0,0,0,,,,,,,,,0,205,205,205,,,,,,,,,,,,,,,,,,,,,,,,,,,,,,,,,main,917.6903115,None,None,1,1.5145531999999093,None,1,,,,,,,,,,,,,,,,,,,,,,,,,,,,,,,,,,,,,,,,,,,,,,,,,,,,,,,,,,,,,,,,,,,,321,2023-02-13_11h01.50.499,Main,2022.2.2,59.86052497680231,
negative,yellow,1,k,None,0,0,0,0,,,,,0,0,0,0,,,,,,,,,0,206,206,12,,,,,,,,,,,,,,,,,,,,,,,,,,,,,,,,,main,920.2023179999999,None,None,1,1.5166067000000112,None,1,,,,,,,,,,,,,,,,,,,,,,,,,,,,,,,,,,,,,,,,,,,,,,,,,,,,,,,,,,,,,,,,,,,,321,2023-02-13_11h01.50.499,Main,2022.2.2,59.86052497680231,
negative,red,1,None,None,0,0,0,0,,,,,0,0,0,0,,,,,,,,,0,207,207,121,,,,,,,,,,,,,,,,,,,,,,,,,,,,,,,,,main,922.726836,None,None,1,1.5072787000001426,None,1,,,,,,,,,,,,,,,,,,,,,,,,,,,,,,,,,,,,,,,,,,,,,,,,,,,,,,,,,,,,,,,,,,,,321,2023-02-13_11h01.50.499,Main,2022.2.2,59.86052497680231,
positive,red,2,None,None,0,0,0,0,,,,,0,0,0,0,,,,,,,,,0,208,208,134,,,,,,,,,,,,,,,,,,,,,,,,,,,,,,,,,main,925.2369683,None,None,1,1.5315711000000647,None,1,,,,,,,,,,,,,,,,,,,,,,,,,,,,,,,,,,,,,,,,,,,,,,,,,,,,,,,,,,,,,,,,,,,,321,2023-02-13_11h01.50.499,Main,2022.2.2,59.86052497680231,
positive,yellow,2,None,k,0,0,0,0,,,,,0,0,0,0,,,,,,,,,0,209,209,66,,,,,,,,,,,,,,,,,,,,,,,,,,,,,,,,,main,927.7700009999999,k,k,1,1.1483666999999969,None,0,,,,,,,,,,,,,,,,,,,,,,,,,,,,,,,,,,,,,,,,,,,,,,,,,,,,,,,,,,,,,,,,,,,,321,2023-02-13_11h01.50.499,Main,2022.2.2,59.86052497680231,
positive,yellow,1,None,k,0,0,0,0,,,,,0,0,0,0,,,,,,,,,0,210,210,55,,,,,,,,,,,,,,,,,,,,,,,,,,,,,,,,,main,929.9247556,k,k,1,1.0054433999998764,None,0,,,,,,,,,,,,,,,,,,,,,,,,,,,,,,,,,,,,,,,,,,,,,,,,,,,,,,,,,,,,,,,,,,,,321,2023-02-13_11h01.50.499,Main,2022.2.2,59.86052497680231,
negative,yellow,2,k,None,0,0,0,0,,,,,0,0,0,0,,,,,,,,,0,211,211,83,,,,,,,,,,,,,,,,,,,,,,,,,,,,,,,,,main,931.9345586,None,None,1,1.5304777999999715,None,1,,,,,,,,,,,,,,,,,,,,,,,,,,,,,,,,,,,,,,,,,,,,,,,,,,,,,,,,,,,,,,,,,,,,321,2023-02-13_11h01.50.499,Main,2022.2.2,59.86052497680231,
negative,yellow,2,k,None,0,0,0,0,,,,,0,0,0,0,,,,,,,,,0,212,212,225,,,,,,,,,,,,,,,,,,,,,,,,,,,,,,,,,main,934.4643999,None,None,1,1.512707300000102,None,1,,,,,,,,,,,,,,,,,,,,,,,,,,,,,,,,,,,,,,,,,,,,,,,,,,,,,,,,,,,,,,,,,,,,321,2023-02-13_11h01.50.499,Main,2022.2.2,59.86052497680231,
positive,yellow,2,None,k,0,0,0,0,,,,,0,0,0,0,,,,,,,,,0,213,213,222,,,,,,,,,,,,,,,,,,,,,,,,,,,,,,,,,main,936.9782577999999,k,k,1,1.1119034999999258,None,0,,,,,,,,,,,,,,,,,,,,,,,,,,,,,,,,,,,,,,,,,,,,,,,,,,,,,,,,,,,,,,,,,,,,321,2023-02-13_11h01.50.499,Main,2022.2.2,59.86052497680231,
positive,yellow,2,None,k,0,0,0,0,,,,,0,0,0,0,,,,,,,,,0,214,214,5,,,,,,,,,,,,,,,,,,,,,,,,,,,,,,,,,main,939.0965209999999,k,k,1,1.0688159000001178,None,0,,,,,,,,,,,,,,,,,,,,,,,,,,,,,,,,,,,,,,,,,,,,,,,,,,,,,,,,,,,,,,,,,,,,321,2023-02-13_11h01.50.499,Main,2022.2.2,59.86052497680231,
positive,blue,2,k,None,0,0,0,0,,,,,0,0,0,0,,,,,,,,,0,215,215,233,,,,,,,,,,,,,,,,,,,,,,,,,,,,,,,,,main,941.1675089,None,None,1,1.5250604000000294,None,1,,,,,,,,,,,,,,,,,,,,,,,,,,,,,,,,,,,,,,,,,,,,,,,,,,,,,,,,,,,,,,,,,,,,321,2023-02-13_11h01.50.499,Main,2022.2.2,59.86052497680231,
positive,yellow,1,None,k,0,0,0,0,,,,,0,0,0,0,,,,,,,,,0,216,216,85,,,,,,,,,,,,,,,,,,,,,,,,,,,,,,,,,main,943.6952747,k,k,1,0.9398697999999968,None,0,,,,,,,,,,,,,,,,,,,,,,,,,,,,,,,,,,,,,,,,,,,,,,,,,,,,,,,,,,,,,,,,,,,,321,2023-02-13_11h01.50.499,Main,2022.2.2,59.86052497680231,
positive,yellow,1,None,k,0,0,0,0,,,,,0,0,0,0,,,,,,,,,0,217,217,97,,,,,,,,,,,,,,,,,,,,,,,,,,,,,,,,,main,945.6444179999999,k,k,1,1.0792383000000427,None,0,,,,,,,,,,,,,,,,,,,,,,,,,,,,,,,,,,,,,,,,,,,,,,,,,,,,,,,,,,,,,,,,,,,,321,2023-02-13_11h01.50.499,Main,2022.2.2,59.86052497680231,
negative,red,2,None,None,0,0,0,0,,,,,0,0,0,0,,,,,,,,,0,218,218,54,,,,,,,,,,,,,,,,,,,,,,,,,,,,,,,,,main,947.7273000999999,None,None,1,1.5201383000000988,None,1,,,,,,,,,,,,,,,,,,,,,,,,,,,,,,,,,,,,,,,,,,,,,,,,,,,,,,,,,,,,,,,,,,,,321,2023-02-13_11h01.50.499,Main,2022.2.2,59.86052497680231,
negative,blue,2,None,k,0,0,0,0,,,,,0,0,0,0,,,,,,,,,0,219,219,102,,,,,,,,,,,,,,,,,,,,,,,,,,,,,,,,,main,950.2420064,k,k,1,1.3905448000000433,None,0,,,,,,,,,,,,,,,,,,,,,,,,,,,,,,,,,,,,,,,,,,,,,,,,,,,,,,,,,,,,,,,,,,,,321,2023-02-13_11h01.50.499,Main,2022.2.2,59.86052497680231,
negative,red,1,None,None,0,0,0,0,,,,,0,0,0,0,,,,,,,,,0,220,220,114,,,,,,,,,,,,,,,,,,,,,,,,,,,,,,,,,main,952.6433910999999,None,None,1,1.5184811999999965,None,1,,,,,,,,,,,,,,,,,,,,,,,,,,,,,,,,,,,,,,,,,,,,,,,,,,,,,,,,,,,,,,,,,,,,321,2023-02-13_11h01.50.499,Main,2022.2.2,59.86052497680231,
positive,red,2,None,None,0,0,0,0,,,,,0,0,0,0,,,,,,,,,0,221,221,52,,,,,,,,,,,,,,,,,,,,,,,,,,,,,,,,,main,955.1620702,None,None,1,1.5065002999999706,None,1,,,,,,,,,,,,,,,,,,,,,,,,,,,,,,,,,,,,,,,,,,,,,,,,,,,,,,,,,,,,,,,,,,,,321,2023-02-13_11h01.50.499,Main,2022.2.2,59.86052497680231,
positive,blue,1,k,None,0,0,0,0,,,,,0,0,0,0,,,,,,,,,0,222,222,130,,,,,,,,,,,,,,,,,,,,,,,,,,,,,,,,,main,957.6731967999999,None,None,1,1.5109906000000137,None,1,,,,,,,,,,,,,,,,,,,,,,,,,,,,,,,,,,,,,,,,,,,,,,,,,,,,,,,,,,,,,,,,,,,,321,2023-02-13_11h01.50.499,Main,2022.2.2,59.86052497680231,
negative,yellow,2,k,None,0,0,0,0,,,,,0,0,0,0,,,,,,,,,0,223,223,235,,,,,,,,,,,,,,,,,,,,,,,,,,,,,,,,,main,960.1811164999999,None,None,1,1.5179188000001886,None,1,,,,,,,,,,,,,,,,,,,,,,,,,,,,,,,,,,,,,,,,,,,,,,,,,,,,,,,,,,,,,,,,,,,,321,2023-02-13_11h01.50.499,Main,2022.2.2,59.86052497680231,
negative,blue,1,None,k,0,0,0,0,,,,,0,0,0,0,,,,,,,,,0,224,224,161,,,,,,,,,,,,,,,,,,,,,,,,,,,,,,,,,main,962.7052461000001,k,k,1,1.2253327999999328,None,0,,,,,,,,,,,,,,,,,,,,,,,,,,,,,,,,,,,,,,,,,,,,,,,,,,,,,,,,,,,,,,,,,,,,321,2023-02-13_11h01.50.499,Main,2022.2.2,59.86052497680231,
positive,blue,2,k,None,0,0,0,0,,,,,0,0,0,0,,,,,,,,,0,225,225,228,,,,,,,,,,,,,,,,,,,,,,,,,,,,,,,,,main,964.9374310999999,None,None,1,1.5269177999998647,None,1,,,,,,,,,,,,,,,,,,,,,,,,,,,,,,,,,,,,,,,,,,,,,,,,,,,,,,,,,,,,,,,,,,,,321,2023-02-13_11h01.50.499,Main,2022.2.2,59.86052497680231,
negative,yellow,2,k,None,0,0,0,0,,,,,0,0,0,0,,,,,,,,,0,226,226,135,,,,,,,,,,,,,,,,,,,,,,,,,,,,,,,,,main,967.4583819,None,None,1,1.5118138000000272,None,1,,,,,,,,,,,,,,,,,,,,,,,,,,,,,,,,,,,,,,,,,,,,,,,,,,,,,,,,,,,,,,,,,,,,321,2023-02-13_11h01.50.499,Main,2022.2.2,59.86052497680231,
negative,yellow,1,k,None,0,0,0,0,,,,,0,0,0,0,,,,,,,,,0,227,227,101,,,,,,,,,,,,,,,,,,,,,,,,,,,,,,,,,main,969.9744665999999,None,None,1,1.5362916999999925,None,1,,,,,,,,,,,,,,,,,,,,,,,,,,,,,,,,,,,,,,,,,,,,,,,,,,,,,,,,,,,,,,,,,,,,321,2023-02-13_11h01.50.499,Main,2022.2.2,59.86052497680231,
negative,blue,2,None,k,0,0,0,0,,,,,0,0,0,0,,,,,,,,,0,228,228,93,,,,,,,,,,,,,,,,,,,,,,,,,,,,,,,,,main,972.5284234000001,k,k,1,1.1787991000001057,None,0,,,,,,,,,,,,,,,,,,,,,,,,,,,,,,,,,,,,,,,,,,,,,,,,,,,,,,,,,,,,,,,,,,,,321,2023-02-13_11h01.50.499,Main,2022.2.2,59.86052497680231,
negative,red,1,None,None,0,0,0,0,,,,,0,0,0,0,,,,,,,,,0,229,229,22,,,,,,,,,,,,,,,,,,,,,,,,,,,,,,,,,main,974.7060294,None,None,1,1.5207924999999705,None,1,,,,,,,,,,,,,,,,,,,,,,,,,,,,,,,,,,,,,,,,,,,,,,,,,,,,,,,,,,,,,,,,,,,,321,2023-02-13_11h01.50.499,Main,2022.2.2,59.86052497680231,
negative,blue,1,None,k,0,0,0,0,,,,,0,0,0,0,,,,,,,,,0,230,230,19,,,,,,,,,,,,,,,,,,,,,,,,,,,,,,,,,main,977.2276485,k,k,1,0.9649789999998575,None,0,,,,,,,,,,,,,,,,,,,,,,,,,,,,,,,,,,,,,,,,,,,,,,,,,,,,,,,,,,,,,,,,,,,,321,2023-02-13_11h01.50.499,Main,2022.2.2,59.86052497680231,
negative,yellow,2,k,None,0,0,0,0,,,,,0,0,0,0,,,,,,,,,0,231,231,190,,,,,,,,,,,,,,,,,,,,,,,,,,,,,,,,,main,979.1991912999999,None,None,1,1.5136226999998144,None,1,,,,,,,,,,,,,,,,,,,,,,,,,,,,,,,,,,,,,,,,,,,,,,,,,,,,,,,,,,,,,,,,,,,,321,2023-02-13_11h01.50.499,Main,2022.2.2,59.86052497680231,
negative,blue,2,None,k,0,0,0,0,,,,,0,0,0,0,,,,,,,,,0,232,232,43,,,,,,,,,,,,,,,,,,,,,,,,,,,,,,,,,main,981.7108478999999,k,k,1,0.9904188999998951,None,0,,,,,,,,,,,,,,,,,,,,,,,,,,,,,,,,,,,,,,,,,,,,,,,,,,,,,,,,,,,,,,,,,,,,321,2023-02-13_11h01.50.499,Main,2022.2.2,59.86052497680231,
positive,red,2,None,None,0,0,0,0,,,,,0,0,0,0,,,,,,,,,0,233,233,219,,,,,,,,,,,,,,,,,,,,,,,,,,,,,,,,,main,983.7118415,None,None,1,1.5185584000000745,None,1,,,,,,,,,,,,,,,,,,,,,,,,,,,,,,,,,,,,,,,,,,,,,,,,,,,,,,,,,,,,,,,,,,,,321,2023-02-13_11h01.50.499,Main,2022.2.2,59.86052497680231,
positive,blue,1,k,None,0,0,0,0,,,,,0,0,0,0,,,,,,,,,0,234,234,180,,,,,,,,,,,,,,,,,,,,,,,,,,,,,,,,,main,986.2322881,None,None,1,1.5287654999999631,None,1,,,,,,,,,,,,,,,,,,,,,,,,,,,,,,,,,,,,,,,,,,,,,,,,,,,,,,,,,,,,,,,,,,,,321,2023-02-13_11h01.50.499,Main,2022.2.2,59.86052497680231,
negative,blue,2,None,k,0,0,0,0,,,,,0,0,0,0,,,,,,,,,0,235,235,18,,,,,,,,,,,,,,,,,,,,,,,,,,,,,,,,,main,988.7627232,k,k,1,0.9483060999998543,None,0,,,,,,,,,,,,,,,,,,,,,,,,,,,,,,,,,,,,,,,,,,,,,,,,,,,,,,,,,,,,,,,,,,,,321,2023-02-13_11h01.50.499,Main,2022.2.2,59.86052497680231,
positive,blue,2,k,None,0,0,0,0,,,,,0,0,0,0,,,,,,,,,0,236,236,120,,,,,,,,,,,,,,,,,,,,,,,,,,,,,,,,,main,990.7194963,None,None,1,1.521631399999933,None,1,,,,,,,,,,,,,,,,,,,,,,,,,,,,,,,,,,,,,,,,,,,,,,,,,,,,,,,,,,,,,,,,,,,,321,2023-02-13_11h01.50.499,Main,2022.2.2,59.86052497680231,
positive,yellow,1,None,k,0,0,0,0,,,,,0,0,0,0,,,,,,,,,0,237,237,177,,,,,,,,,,,,,,,,,,,,,,,,,,,,,,,,,main,993.2385724000001,k,k,1,1.189121699999987,None,0,,,,,,,,,,,,,,,,,,,,,,,,,,,,,,,,,,,,,,,,,,,,,,,,,,,,,,,,,,,,,,,,,,,,321,2023-02-13_11h01.50.499,Main,2022.2.2,59.86052497680231,
positive,red,1,None,None,0,0,0,0,,,,,0,0,0,0,,,,,,,,,0,238,238,47,,,,,,,,,,,,,,,,,,,,,,,,,,,,,,,,,main,995.4338891,None,None,1,1.514364999999998,None,1,,,,,,,,,,,,,,,,,,,,,,,,,,,,,,,,,,,,,,,,,,,,,,,,,,,,,,,,,,,,,,,,,,,,321,2023-02-13_11h01.50.499,Main,2022.2.2,59.86052497680231,
positive,blue,1,k,None,0,0,0,0,,,,,0,0,0,0,,,,,,,,,0,239,239,221,,,,,,,,,,,,,,,,,,,,,,,,,,,,,,,,,main,997.9465797999999,None,None,1,1.51452519999998,None,1,,,,,,,,,,,,,,,,,,,,,,,,,,,,,,,,,,,,,,,,,,,,,,,,,,,,,,,,,,,,,,,,,,,,321,2023-02-13_11h01.50.499,Main,2022.2.2,59.86052497680231,
,,,,,0,0,0,0,,,,,0,0,0,0,,,,,,,,,,,,,,,,,,,,,,,,,,,,,,,,,,,,,,,,,,,,,,,,,,,,,,,,,,,,,,,,,,1000.4577813999999,1000.4577813999999,1000.4577813999999,space,15.158048299999905,,,,,,,,,,,,,,,,,,,,,,,,,,,,,,,,,,,,,,,,,,,,,,,,,,321,2023-02-13_11h01.50.499,Main,2022.2.2,59.86052497680231,
,,,,,0,0,0,0,,,,,,,,,,,,,,,,,,,,,,,,,,,,,,,,,,,,,,,,,,,,,,,,,,,,,,,,,,,,,,,,,,,,,,,,,,,,,,,,,,,,,,,,,,,,,,,,,,,,,,,,,,,,,,,,,,,,,,,,,,,,,,,,321,2023-02-13_11h01.50.499,Main,2022.2.2,59.86052497680231,
,,,,,1,0,1,0,0,0,0,0,,,,,,,,,,,,,,,,,,,,,0,0,0,0,,,,,,,,,,,,,,,,,,,,,,,,,,,,,,,,,,,,,,,,,,,,,,,,,,,1015.6695295,1015.6695295,1017.6460829999999,space,4.945956299999921,space,66.23175909999986,1087.917442,,,,,,,,,,,,,,,,,,,,,,,,,,,,,,,,,,,,,,,,,,321,2023-02-13_11h01.50.499,Main,2022.2.2,59.86052497680231,
positive,positive,2,l,j,1,0,1,0,0,0,0,0,,,,,,,,,,,,,,,,,,,,,,,,,0,0,0,11,,,,,,,,,,,,,,,,,,,,,prac,,,,,,,,,,,,,,,,,,,,,,,,,,,,,,,,,,0.0002105000000938162,0.1925925925925926,-0.16574074074074074,0,0,0,1091.5723323,1,1,2,positive,positive,1093.6507432,1093.6507432,1093.6507432,1093.6507432,1094.602476,1094.6673463,j,j,1,3.0053901999999653,1097.6314226,1097.6314226,1097.6314226,1098.6800008,1098.6800008,1098.6800008,,,,,,,,,,,,,,321,2023-02-13_11h01.50.499,Main,2022.2.2,59.86052497680231,
positive,positive,1,l,j,1,0,1,0,0,0,0,0,,,,,,,,,,,,,,,,,,,,,,,,,0,1,1,2,,,,,,,,,,,,,,,,,,,,,prac,,,,,,,,,,,,,,,,,,,,,,,,,,,,,,,,,,,,,,,,,2,2,1,positive,positive,1098.6800008,1098.6800008,1098.6800008,1098.6800008,1099.6670276,1099.6970293,j,j,1,3.2543315999998867,1102.9135373,1102.9135373,1102.9135373,1103.9628688,1103.9628688,1103.9628688,,,,,,,,,,,,,,321,2023-02-13_11h01.50.499,Main,2022.2.2,59.86052497680231,
neutral,neutral,2,k,k,1,0,1,0,0,0,0,0,,,,,,,,,,,,,,,,,,,,,,,,,0,2,2,10,,,,,,,,,,,,,,,,,,,,,prac,,,,,,,,,,,,,,,,,,,,,,,,,,,,,,,,,,,,,,,,,2,2,2,neutral,neutral,1103.9628688,1103.9628688,1103.9628688,1103.9628688,1104.9486562,1104.9771314,k,k,1,1.5306491999999707,1106.4644923,1106.4644923,1106.4644923,1107.4885805,1107.4885805,1107.4885805,,,,,,,,,,,,,,321,2023-02-13_11h01.50.499,Main,2022.2.2,59.86052497680231,
neutral,positive,2,l,j,1,0,1,0,0,0,0,0,,,,,,,,,,,,,,,,,,,,,,,,,0,3,3,17,,,,,,,,,,,,,,,,,,,,,prac,,,,,,,,,,,,,,,,,,,,,,,,,,,,,,,,,,,,,,,,,2,2,2,neutral,positive,1107.4885805,1107.4885805,1107.4885805,1107.4885805,1108.4977013999999,1108.528165,j,j,1,1.4716329999998834,1109.9743703999998,1109.9743703999998,1109.9743703999998,1109.9743703999998,1109.9743703999998,1109.9743703999998,,,,,,,,,,,,,,321,2023-02-13_11h01.50.499,Main,2022.2.2,59.86052497680231,
negative,neutral,1,k,k,1,0,1,0,0,0,0,0,,,,,,,,,,,,,,,,,,,,,,,,,0,4,4,7,,,,,,,,,,,,,,,,,,,,,prac,,,,,,,,,,,,,,,,,,,,,,,,,,,,,,,,,,,,,,,,,2,2,1,negative,neutral,1109.9743703999998,1109.9743703999998,1109.9743703999998,1109.9743703999998,1110.9381165,1111.0005667,k,k,1,1.6179227000002356,1112.5674614999998,1112.5674614999998,1112.5674614999998,1113.6124264999999,1113.6124264999999,1113.6124264999999,,,,,,,,,,,,,,321,2023-02-13_11h01.50.499,Main,2022.2.2,59.86052497680231,
neutral,negative,2,j,l,1,0,1,0,0,0,0,0,,,,,,,,,,,,,,,,,,,,,,,,,0,5,5,12,,,,,,,,,,,,,,,,,,,,,prac,,,,,,,,,,,,,,,,,,,,,,,,,,,,,,,,,,,,,,,,,1,1,2,neutral,negative,1113.6124264999999,1113.6124264999999,1113.6124264999999,1113.6124264999999,1114.5811342000002,1114.6468145,l,l,1,2.375187499999811,1116.9592710000002,1116.9592710000002,1116.9592710000002,1118.0161919000002,1118.0161919000002,1118.0161919000002,,,,,,,,,,,,,,321,2023-02-13_11h01.50.499,Main,2022.2.2,59.86052497680231,
positive,neutral,1,k,k,1,0,1,0,0,0,0,0,,,,,,,,,,,,,,,,,,,,,,,,,0,6,6,4,,,,,,,,,,,,,,,,,,,,,prac,,,,,,,,,,,,,,,,,,,,,,,,,,,,,,,,,,,,,,,,,1,1,1,positive,neutral,1118.0161919000002,1118.0161919000002,1118.0161919000002,1118.0161919000002,1118.9868673,1119.0535793,k,k,1,1.4377323999997316,1120.4442700999998,1120.4442700999998,1120.4442700999998,1120.4442700999998,1120.4442700999998,1120.4442700999998,,,,,,,,,,,,,,321,2023-02-13_11h01.50.499,Main,2022.2.2,59.86052497680231,
positive,neutral,2,k,k,1,0,1,0,0,0,0,0,,,,,,,,,,,,,,,,,,,,,,,,,0,7,7,13,,,,,,,,,,,,,,,,,,,,,prac,,,,,,,,,,,,,,,,,,,,,,,,,,,,,,,,,,,,,,,,,2,2,2,positive,neutral,1120.4442700999998,1120.4442700999998,1120.4442700999998,1120.4442700999998,1121.4351216,1121.4655306,k,k,1,1.5459611999999652,1122.9630587000001,1122.9630587000001,1122.9630587000001,1123.9947091999998,1123.9947091999998,1123.9947091999998,,,,,,,,,,,,,,321,2023-02-13_11h01.50.499,Main,2022.2.2,59.86052497680231,
negative,positive,1,l,j,1,0,1,0,0,0,0,0,,,,,,,,,,,,,,,,,,,,,,,,,0,8,8,5,,,,,,,,,,,,,,,,,,,,,prac,,,,,,,,,,,,,,,,,,,,,,,,,,,,,,,,,,,,,,,,,1,1,1,negative,positive,1123.9947091999998,1123.9947091999998,1123.9947091999998,1123.9947091999998,1124.9782833999998,1125.0078017,j,j,1,1.4737586000001102,1126.475687,1126.475687,1126.475687,1126.475687,1126.475687,1126.475687,,,,,,,,,,,,,,321,2023-02-13_11h01.50.499,Main,2022.2.2,59.86052497680231,
negative,positive,2,l,j,1,0,1,0,0,0,0,0,,,,,,,,,,,,,,,,,,,,,,,,,0,9,9,14,,,,,,,,,,,,,,,,,,,,,prac,,,,,,,,,,,,,,,,,,,,,,,,,,,,,,,,,,,,,,,,,2,2,2,negative,positive,1126.475687,1126.475687,1126.475687,1126.475687,1127.4790736,1127.5109475,j,j,1,1.7423068000002786,1129.1955039,1129.1955039,1129.1955039,1130.2400512999998,1130.2400512999998,1130.2400512999998,,,,,,,,,,,,,,321,2023-02-13_11h01.50.499,Main,2022.2.2,59.86052497680231,
neutral,positive,1,l,j,1,0,1,0,0,0,0,0,,,,,,,,,,,,,,,,,,,,,,,,,0,10,10,8,,,,,,,,,,,,,,,,,,,,,prac,,,,,,,,,,,,,,,,,,,,,,,,,,,,,,,,,,,,,,,,,2,2,1,neutral,positive,1130.2400512999998,1130.2400512999998,1130.2400512999998,1130.2400512999998,1131.226518,1131.2577958000002,j,j,1,1.3981440999996266,1132.6400371,1132.6400371,1132.6400371,1132.6400371,1132.6400371,1132.6400371,,,,,,,,,,,,,,321,2023-02-13_11h01.50.499,Main,2022.2.2,59.86052497680231,
negative,neutral,2,k,k,1,0,1,0,0,0,0,0,,,,,,,,,,,,,,,,,,,,,,,,,0,11,11,16,,,,,,,,,,,,,,,,,,,,,prac,,,,,,,,,,,,,,,,,,,,,,,,,,,,,,,,,,,,,,,,,1,1,2,negative,neutral,1132.6400371,1132.6400371,1132.6400371,1132.6400371,1133.6200275,1133.6882851999999,k,k,1,1.4078650999999809,1135.0547602000001,1135.0547602000001,1135.0547602000001,1135.0547602000001,1135.0547602000001,1135.0547602000001,,,,,,,,,,,,,,321,2023-02-13_11h01.50.499,Main,2022.2.2,59.86052497680231,
neutral,negative,1,j,l,1,0,1,0,0,0,0,0,,,,,,,,,,,,,,,,,,,,,,,,,0,12,12,3,,,,,,,,,,,,,,,,,,,,,prac,,,,,,,,,,,,,,,,,,,,,,,,,,,,,,,,,,,,,,,,,2,2,1,neutral,negative,1135.0547602000001,1135.0547602000001,1135.0547602000001,1135.0547602000001,1136.0384493000001,1136.0703961,l,l,1,1.5565735000000132,1137.5944061999999,1137.5944061999999,1137.5944061999999,1138.6279834000002,1138.6279834000002,1138.6279834000002,,,,,,,,,,,,,,321,2023-02-13_11h01.50.499,Main,2022.2.2,59.86052497680231,
positive,negative,2,j,l,1,0,1,0,0,0,0,0,,,,,,,,,,,,,,,,,,,,,,,,,0,13,13,15,,,,,,,,,,,,,,,,,,,,,prac,,,,,,,,,,,,,,,,,,,,,,,,,,,,,,,,,,,,,,,,,2,2,2,positive,negative,1138.6279834000002,1138.6279834000002,1138.6279834000002,1138.6279834000002,1139.6049011,1139.6676636000002,l,l,1,2.519709799999873,1142.1231355,1142.1231355,1142.1231355,1143.1519448999998,1143.1519448999998,1143.1519448999998,,,,,,,,,,,,,,321,2023-02-13_11h01.50.499,Main,2022.2.2,59.86052497680231,
neutral,neutral,1,k,k,1,0,1,0,0,0,0,0,,,,,,,,,,,,,,,,,,,,,,,,,0,14,14,1,,,,,,,,,,,,,,,,,,,,,prac,,,,,,,,,,,,,,,,,,,,,,,,,,,,,,,,,,,,,,,,,1,1,1,neutral,neutral,1143.1519448999998,1143.1519448999998,1143.1519448999998,1143.1519448999998,1144.1564434000002,1144.1874312,k,k,1,1.573782200000096,1145.7044388,1145.7044388,1145.7044388,1146.7433163,1146.7433163,1146.7433163,,,,,,,,,,,,,,321,2023-02-13_11h01.50.499,Main,2022.2.2,59.86052497680231,
negative,negative,1,j,l,1,0,1,0,0,0,0,0,,,,,,,,,,,,,,,,,,,,,,,,,0,15,15,0,,,,,,,,,,,,,,,,,,,,,prac,,,,,,,,,,,,,,,,,,,,,,,,,,,,,,,,,,,,,,,,,1,1,1,negative,negative,1146.7433163,1146.7433163,1146.7433163,1146.7433163,1147.7338872,1147.7627373999999,l,l,1,1.3103793999998743,1149.059878,1149.059878,1149.059878,1149.059878,1149.059878,1149.059878,,,,,,,,,,,,,,321,2023-02-13_11h01.50.499,Main,2022.2.2,59.86052497680231,
positive,negative,1,j,l,1,0,1,0,0,0,0,0,,,,,,,,,,,,,,,,,,,,,,,,,0,16,16,6,,,,,,,,,,,,,,,,,,,,,prac,,,,,,,,,,,,,,,,,,,,,,,,,,,,,,,,,,,,,,,,,2,2,1,positive,negative,1149.059878,1149.059878,1149.059878,1149.059878,1150.0441071,1150.0740723,l,l,1,1.0512097000000722,1151.1248120999999,1151.1248120999999,1151.1248120999999,1151.1248120999999,1151.1248120999999,1151.1248120999999,,,,,,,,,,,,,,321,2023-02-13_11h01.50.499,Main,2022.2.2,59.86052497680231,
negative,negative,2,j,l,1,0,1,0,0,0,0,0,,,,,,,,,,,,,,,,,,,,,,,,,0,17,17,9,,,,,,,,,,,,,,,,,,,,,prac,,,,,,,,,,,,,,,,,,,,,,,,,,,,,,,,,,,,,,,,,2,2,2,negative,negative,1151.1248120999999,1151.1248120999999,1151.1248120999999,1151.1248120999999,1152.1117374,1152.1455572,l,l,1,1.2838190000002214,1153.4008554000002,1153.4008554000002,1153.4008554000002,1153.4008554000002,1153.4008554000002,1153.4008554000002,,,,,,,,,,,,,,321,2023-02-13_11h01.50.499,Main,2022.2.2,59.86052497680231,
positive,positive,1,l,j,1,0,1,0,0,0,0,0,,,,,,,,,,,,,,,,,,,,,,,,,1,0,18,2,,,,,,,,,,,,,,,,,,,,,prac,,,,,,,,,,,,,,,,,,,,,,,,,,,,,,,,,,,,,,,,,1,1,1,positive,positive,1153.4008554000002,1153.4008554000002,1153.4008554000002,1153.4008554000002,1154.3912669000001,1154.4213816000001,j,j,1,1.5629385000002003,1155.9446127,1155.9446127,1155.9446127,1156.9782977999998,1156.9782977999998,1156.9782977999998,,,,,,,,,,,,,,321,2023-02-13_11h01.50.499,Main,2022.2.2,59.86052497680231,
negative,positive,1,l,j,1,0,1,0,0,0,0,0,,,,,,,,,,,,,,,,,,,,,,,,,1,1,19,5,,,,,,,,,,,,,,,,,,,,,prac,,,,,,,,,,,,,,,,,,,,,,,,,,,,,,,,,,,,,,,,,2,2,1,negative,positive,1156.9782977999998,1156.9782977999998,1156.9782977999998,1156.9782977999998,1157.9611841,1157.9911342999999,j,j,1,1.9074606000003769,1159.859822,1159.859822,1159.859822,1160.9172199,1160.9172199,1160.9172199,,,,,,,,,,,,,,321,2023-02-13_11h01.50.499,Main,2022.2.2,59.86052497680231,
negative,neutral,2,k,k,1,0,1,0,0,0,0,0,,,,,,,,,,,,,,,,,,,,,,,,,1,2,20,16,,,,,,,,,,,,,,,,,,,,,prac,,,,,,,,,,,,,,,,,,,,,,,,,,,,,,,,,,,,,,,,,1,1,2,negative,neutral,1160.9172199,1160.9172199,1160.9172199,1160.9172199,1161.9030434000001,1161.9331959,k,k,1,1.2548715999996602,1163.1664268999998,1163.1664268999998,1163.1664268999998,1163.1664268999998,1163.1664268999998,1163.1664268999998,,,,,,,,,,,,,,321,2023-02-13_11h01.50.499,Main,2022.2.2,59.86052497680231,
negative,negative,2,j,l,1,0,1,0,0,0,0,0,,,,,,,,,,,,,,,,,,,,,,,,,1,3,21,9,,,,,,,,,,,,,,,,,,,,,prac,,,,,,,,,,,,,,,,,,,,,,,,,,,,,,,,,,,,,,,,,1,1,2,negative,negative,1163.1664268999998,1163.1664268999998,1163.1664268999998,1163.1664268999998,1164.1750295000002,1164.2061012999998,l,l,1,1.8490074999999706,1165.9925207000001,1165.9925207000001,1165.9925207000001,1167.0182266000002,1167.0182266000002,1167.0182266000002,,,,,,,,,,,,,,321,2023-02-13_11h01.50.499,Main,2022.2.2,59.86052497680231,
neutral,positive,1,l,j,1,0,1,0,0,0,0,0,,,,,,,,,,,,,,,,,,,,,,,,,1,4,22,8,,,,,,,,,,,,,,,,,,,,,prac,,,,,,,,,,,,,,,,,,,,,,,,,,,,,,,,,,,,,,,,,1,1,1,neutral,positive,1167.0182266000002,1167.0182266000002,1167.0182266000002,1167.0182266000002,1168.0228363,1168.0566494,j,j,1,1.4229073000001335,1169.4522284,1169.4522284,1169.4522284,1169.4522284,1169.4522284,1169.4522284,,,,,,,,,,,,,,321,2023-02-13_11h01.50.499,Main,2022.2.2,59.86052497680231,
neutral,neutral,2,k,k,1,0,1,0,0,0,0,0,,,,,,,,,,,,,,,,,,,,,,,,,1,5,23,10,,,,,,,,,,,,,,,,,,,,,prac,,,,,,,,,,,,,,,,,,,,,,,,,,,,,,,,,,,,,,,,,1,1,2,neutral,neutral,1169.4522284,1169.4522284,1169.4522284,1169.4522284,1170.4350808999998,1170.4694894,k,k,1,1.263001400000121,1171.7155738000001,1171.7155738000001,1171.7155738000001,1171.7155738000001,1171.7155738000001,1171.7155738000001,,,,,,,,,,,,,,321,2023-02-13_11h01.50.499,Main,2022.2.2,59.86052497680231,
positive,negative,2,j,l,1,0,1,0,0,0,0,0,,,,,,,,,,,,,,,,,,,,,,,,,1,6,24,15,,,,,,,,,,,,,,,,,,,,,prac,,,,,,,,,,,,,,,,,,,,,,,,,,,,,,,,,,,,,,,,,1,1,2,positive,negative,1171.7155738000001,1171.7155738000001,1171.7155738000001,1171.7155738000001,1172.7038171,1172.7398991999999,l,l,1,1.5371015000000625,1174.231053,1174.231053,1174.231053,1175.269014,1175.269014,1175.269014,,,,,,,,,,,,,,321,2023-02-13_11h01.50.499,Main,2022.2.2,59.86052497680231,
neutral,negative,1,j,l,1,0,1,0,0,0,0,0,,,,,,,,,,,,,,,,,,,,,,,,,1,7,25,3,,,,,,,,,,,,,,,,,,,,,prac,,,,,,,,,,,,,,,,,,,,,,,,,,,,,,,,,,,,,,,,,2,2,1,neutral,negative,1175.269014,1175.269014,1175.269014,1175.269014,1176.2530473000002,1176.2860541999999,l,l,1,1.2412580999998681,1177.5199598,1177.5199598,1177.5199598,1177.5199598,1177.5199598,1177.5199598,,,,,,,,,,,,,,321,2023-02-13_11h01.50.499,Main,2022.2.2,59.86052497680231,
positive,neutral,1,k,k,1,0,1,0,0,0,0,0,,,,,,,,,,,,,,,,,,,,,,,,,1,8,26,4,,,,,,,,,,,,,,,,,,,,,prac,,,,,,,,,,,,,,,,,,,,,,,,,,,,,,,,,,,,,,,,,1,1,1,positive,neutral,1177.5199598,1177.5199598,1177.5199598,1177.5199598,1178.4963641999998,1178.5600682,k,k,1,1.447129799999857,1179.9634379,1179.9634379,1179.9634379,1179.9634379,1179.9634379,1179.9634379,,,,,,,,,,,,,,321,2023-02-13_11h01.50.499,Main,2022.2.2,59.86052497680231,
negative,positive,2,l,j,1,0,1,0,0,0,0,0,,,,,,,,,,,,,,,,,,,,,,,,,1,9,27,14,,,,,,,,,,,,,,,,,,,,,prac,,,,,,,,,,,,,,,,,,,,,,,,,,,,,,,,,,,,,,,,,1,1,2,negative,positive,1179.9634379,1179.9634379,1179.9634379,1179.9634379,1180.9651244000001,1180.9968116,j,j,1,1.17777789999991,1182.1421258999999,1182.1421258999999,1182.1421258999999,1182.1421258999999,1182.1421258999999,1182.1421258999999,,,,,,,,,,,,,,321,2023-02-13_11h01.50.499,Main,2022.2.2,59.86052497680231,
positive,positive,2,l,j,1,0,1,0,0,0,0,0,,,,,,,,,,,,,,,,,,,,,,,,,1,10,28,11,,,,,,,,,,,,,,,,,,,,,prac,,,,,,,,,,,,,,,,,,,,,,,,,,,,,,,,,,,,,,,,,2,2,2,positive,positive,1182.1421258999999,1182.1421258999999,1182.1421258999999,1182.1421258999999,1183.1449787000001,1183.1803322,j,j,1,1.5332502999999633,1184.6568332000002,1184.6568332000002,1184.6568332000002,1185.6919146999999,1185.6919146999999,1185.6919146999999,,,,,,,,,,,,,,321,2023-02-13_11h01.50.499,Main,2022.2.2,59.86052497680231,
negative,negative,1,j,l,1,0,1,0,0,0,0,0,,,,,,,,,,,,,,,,,,,,,,,,,1,11,29,0,,,,,,,,,,,,,,,,,,,,,prac,,,,,,,,,,,,,,,,,,,,,,,,,,,,,,,,,,,,,,,,,1,1,1,negative,negative,1185.6919146999999,1185.6919146999999,1185.6919146999999,1185.6919146999999,1186.6851028,1186.7167641,l,l,1,1.438042900000255,1188.1366816,1188.1366816,1188.1366816,1188.1366816,1188.1366816,1188.1366816,,,,,,,,,,,,,,321,2023-02-13_11h01.50.499,Main,2022.2.2,59.86052497680231,
neutral,negative,2,j,l,1,0,1,0,0,0,0,0,,,,,,,,,,,,,,,,,,,,,,,,,1,12,30,12,,,,,,,,,,,,,,,,,,,,,prac,,,,,,,,,,,,,,,,,,,,,,,,,,,,,,,,,,,,,,,,,2,2,2,neutral,negative,1188.1366816,1188.1366816,1188.1366816,1188.1366816,1189.1198656000001,1189.1561519000002,l,l,1,1.4081393000001299,1190.5503063,1190.5503063,1190.5503063,1190.5503063,1190.5503063,1190.5503063,,,,,,,,,,,,,,321,2023-02-13_11h01.50.499,Main,2022.2.2,59.86052497680231,
neutral,positive,2,l,j,1,0,1,0,0,0,0,0,,,,,,,,,,,,,,,,,,,,,,,,,1,13,31,17,,,,,,,,,,,,,,,,,,,,,prac,,,,,,,,,,,,,,,,,,,,,,,,,,,,,,,,,,,,,,,,,2,2,2,neutral,positive,1190.5503063,1190.5503063,1190.5503063,1190.5503063,1191.5366718,1191.5679347999999,j,j,1,1.384710400000131,1192.9360480999999,1192.9360480999999,1192.9360480999999,1192.9360480999999,1192.9360480999999,1192.9360480999999,,,,,,,,,,,,,,321,2023-02-13_11h01.50.499,Main,2022.2.2,59.86052497680231,
positive,negative,1,j,l,1,0,1,0,0,0,0,0,,,,,,,,,,,,,,,,,,,,,,,,,1,14,32,6,,,,,,,,,,,,,,,,,,,,,prac,,,,,,,,,,,,,,,,,,,,,,,,,,,,,,,,,,,,,,,,,1,1,1,positive,negative,1192.9360480999999,1192.9360480999999,1192.9360480999999,1192.9360480999999,1193.9153236000002,1193.9761052,l,l,1,1.2879699999998593,1195.2254693999998,1195.2254693999998,1195.2254693999998,1195.2254693999998,1195.2254693999998,1195.2254693999998,,,,,,,,,,,,,,321,2023-02-13_11h01.50.499,Main,2022.2.2,59.86052497680231,
positive,neutral,2,k,k,1,0,1,0,0,0,0,0,,,,,,,,,,,,,,,,,,,,,,,,,1,15,33,13,,,,,,,,,,,,,,,,,,,,,prac,,,,,,,,,,,,,,,,,,,,,,,,,,,,,,,,,,,,,,,,,1,1,2,positive,neutral,1195.2254693999998,1195.2254693999998,1195.2254693999998,1195.2254693999998,1196.2129925,1196.2494066,k,k,1,1.2826336000002811,1197.5112516999998,1197.5112516999998,1197.5112516999998,1197.5112516999998,1197.5112516999998,1197.5112516999998,,,,,,,,,,,,,,321,2023-02-13_11h01.50.499,Main,2022.2.2,59.86052497680231,
neutral,neutral,1,k,k,1,0,1,0,0,0,0,0,,,,,,,,,,,,,,,,,,,,,,,,,1,16,34,1,,,,,,,,,,,,,,,,,,,,,prac,,,,,,,,,,,,,,,,,,,,,,,,,,,,,,,,,,,,,,,,,2,2,1,neutral,neutral,1197.5112516999998,1197.5112516999998,1197.5112516999998,1197.5112516999998,1198.4929603,1198.5556898999998,k,k,1,1.5377110999997967,1200.0282453999998,1200.0282453999998,1200.0282453999998,1201.0583434999999,1201.0583434999999,1201.0583434999999,,,,,,,,,,,,,,321,2023-02-13_11h01.50.499,Main,2022.2.2,59.86052497680231,
negative,neutral,1,k,k,1,0,1,0,0,0,0,0,,,,,,,,,,,,,,,,,,,,,,,,,1,17,35,7,,,,,,,,,,,,,,,,,,,,,prac,,,,,,,,,,,,,,,,,,,,,,,,,,,,,,,,,,,,,,,,,1,1,1,negative,neutral,1201.0583434999999,1201.0583434999999,1201.0583434999999,1201.0583434999999,1202.0414359000001,1202.0732027999998,k,k,1,1.0625417000001107,1203.1264043,1203.1264043,1203.1264043,1203.1264043,1203.1264043,1203.1264043,,,,,,,,,,,,,,321,2023-02-13_11h01.50.499,Main,2022.2.2,59.86052497680231,
negative,positive,2,l,j,1,0,1,0,0,0,0,0,,,,,,,,,,,,,,,,,,,,,,,,,,,,,0,0,0,14,,,,,,,,,,,,,,,,,main,,,,,,,,,,,,,,,,,,,,,,,,,,,,,,,,,,,,,,,,1209.6447647,1,1,2,negative,positive,1211.7086282,1211.7086282,1211.7086282,1211.7086282,1212.7092355999998,1212.7401607000002,j,j,1,1.2583090000002812,1213.9806475999999,1213.9806475999999,1213.9806475999999,1213.9806475999999,1213.9806475999999,1213.9806475999999,1203.1264043,0.00015589999975418323,None,0.09166666666666666,-0.0962962962962963,0,0,0,,,,,,321,2023-02-13_11h01.50.499,Main,2022.2.2,59.86052497680231,
