target,distractor,set,ans1,ans2,total_experiment.thisRepN,total_experiment.thisTrialN,total_experiment.thisN,total_experiment.thisIndex,boat.thisRepN,boat.thisTrialN,boat.thisN,boat.thisIndex,fl_rep_loop2.thisRepN,fl_rep_loop2.thisTrialN,fl_rep_loop2.thisN,fl_rep_loop2.thisIndex,flanker_prac_loop.thisRepN,flanker_prac_loop.thisTrialN,flanker_prac_loop.thisN,flanker_prac_loop.thisIndex,flanker_main_loop.thisRepN,flanker_main_loop.thisTrialN,flanker_main_loop.thisN,flanker_main_loop.thisIndex,flanker_rest.thisRepN,flanker_rest.thisTrialN,flanker_rest.thisN,flanker_rest.thisIndex,para.thisRepN,para.thisTrialN,para.thisN,para.thisIndex,para_rep_loop.thisRepN,para_rep_loop.thisTrialN,para_rep_loop.thisN,para_rep_loop.thisIndex,para_prac_loop.thisRepN,para_prac_loop.thisTrialN,para_prac_loop.thisN,para_prac_loop.thisIndex,para_main_loop.thisRepN,para_main_loop.thisTrialN,para_main_loop.thisN,para_main_loop.thisIndex,para_rest.thisRepN,para_rest.thisTrialN,para_rest.thisN,para_rest.thisIndex,fl_starter_back.started,fl_starter.started,fl_starter.keys,fl_starter.rt,fl_inst_resp.keys,fl_inst_resp.rt,fl_back.started,fl_mouse_prac.started,fl_mouse_prac.x,fl_mouse_prac.y,fl_mouse_prac.leftButton,fl_mouse_prac.midButton,fl_mouse_prac.rightButton,back_2.started,main_prac,fl_cold,fl_colt,fl_set,fl_dcond,fl_tcond,fl_fix.started,j_button.started,k_button.started,l_button.started,targ.started,fl_fix.stopped,fl_ans,fl_res,fl_corr,fl_rt,j_button2.started,k_button2.started,l_button2.started,j_button2.stopped,k_button2.stopped,l_button2.stopped,fl_mainback.started,fl_mouse_m.started,fl_key_resp.keys,fl_mouse_m.x,fl_mouse_m.y,fl_mouse_m.leftButton,fl_mouse_m.midButton,fl_mouse_m.rightButton,rest_text.started,rest_key.started,rest_inst_text.started,rest_time.started,rest_key.keys,exp_end_key.started,exp_end_back.started,exp_end_text.started,exp_end_key.keys,exp_end_key.rt,para_starter.started,para_starter_key.started,para_starter_key.keys,para_starter_key.rt,para_inst_sound.started,para_inst_key.keys,para_inst_key.rt,para_inst_image.started,para_prac_back.started,para_prac_text.started,para_fix_back.started,para_fix_2.started,para_back.started,st_ans,st_res,st_corr,st_rt,st2_resp.keys,st2_resp.corr,para_main_back.started,para_main_text.started,para_mouse.started,para_mouse.x,para_mouse.y,para_mouse.leftButton,para_mouse.midButton,para_mouse.rightButton,total_end_text.started,id*,date,expName,psychopyVersion,frameRate,
,,,,,0,0,0,0,0,0,0,0,0,0,0,0,,,,,,,,,,,,,,,,,,,,,,,,,,,,,,,,,48.7309395999996,48.7309395999996,space,1.7132830000005015,space,0.5786022000006596,52.1746863999997,,,,,,,,,,,,,,,,,,,,,,,,,,,,,,,,,,,,,,,,,,,,,,,,,,,,,,,,,,,,,,,,,,,,,,,,,,,,322,2023-02-20_13h04.10.127,Main,2022.2.2,60.20118030430248,
negative,negative,2,j,l,0,0,0,0,0,0,0,0,,,,,0,0,0,9,,,,,,,,,,,,,,,,,,,,,,,,,,,,,,,,,,,,0.003155200000037439,0.008333333333333333,0.019444444444444445,0,0,0,55.073339699999906,prac,2,2,2,negative,negative,57.15595510000003,57.15595510000003,57.15595510000003,57.15595510000003,58.142520500000046,58.17534549999982,j,j,1,1.5525821000001088,59.709786599999916,59.709786599999916,59.709786599999916,60.75111100000004,60.75111100000004,60.75111100000004,,,,,,,,,,,,,,,,,,,,,,,,,,,,,,,,,,,,,,,,,,,,,,,322,2023-02-20_13h04.10.127,Main,2022.2.2,60.20118030430248,
neutral,neutral,2,k,k,0,0,0,0,0,0,0,0,,,,,0,1,1,10,,,,,,,,,,,,,,,,,,,,,,,,,,,,,,,,,,,,,,,,,,,prac,2,2,2,neutral,neutral,60.75111100000004,60.75111100000004,60.75111100000004,60.75111100000004,61.75188299999991,61.78460240000004,k,k,1,1.7488220999998703,63.47919159999992,63.47919159999992,63.47919159999992,64.51191909999989,64.51191909999989,64.51191909999989,,,,,,,,,,,,,,,,,,,,,,,,,,,,,,,,,,,,,,,,,,,,,,,322,2023-02-20_13h04.10.127,Main,2022.2.2,60.20118030430248,
negative,negative,1,j,l,0,0,0,0,0,0,0,0,,,,,0,2,2,0,,,,,,,,,,,,,,,,,,,,,,,,,,,,,,,,,,,,,,,,,,,prac,2,2,1,negative,negative,64.51191909999989,64.51191909999989,64.51191909999989,64.51191909999989,65.51597589999983,65.5509176999999,j,j,1,1.737595699999929,67.22576349999963,67.22576349999963,67.22576349999963,68.27735970000003,68.27735970000003,68.27735970000003,,,,,,,,,,,,,,,,,,,,,,,,,,,,,,,,,,,,,,,,,,,,,,,322,2023-02-20_13h04.10.127,Main,2022.2.2,60.20118030430248,
positive,positive,2,l,j,0,0,0,0,0,0,0,0,,,,,0,3,3,11,,,,,,,,,,,,,,,,,,,,,,,,,,,,,,,,,,,,,,,,,,,prac,1,1,2,positive,positive,68.27735970000003,68.27735970000003,68.27735970000003,68.27735970000003,69.26678939999965,69.2985165,l,l,1,1.7253761999995731,70.97636620000003,70.97636620000003,70.97636620000003,72.01136819999965,72.01136819999965,72.01136819999965,,,,,,,,,,,,,,,,,,,,,,,,,,,,,,,,,,,,,,,,,,,,,,,322,2023-02-20_13h04.10.127,Main,2022.2.2,60.20118030430248,
positive,negative,1,l,j,0,0,0,0,0,0,0,0,,,,,0,4,4,5,,,,,,,,,,,,,,,,,,,,,,,,,,,,,,,,,,,,,,,,,,,prac,2,2,1,negative,positive,72.01136819999965,72.01136819999965,72.01136819999965,72.01136819999965,72.9774639999996,73.04440729999988,l,k,0,2.7571101999997154,75.76665809999986,75.76665809999986,75.76665809999986,76.8075503,76.8075503,76.8075503,,,,,,,,,,,,,,,,,,,,,,,,,,,,,,,,,,,,,,,,,,,,,,,322,2023-02-20_13h04.10.127,Main,2022.2.2,60.20118030430248,
positive,neutral,2,l,j,0,0,0,0,0,0,0,0,,,,,0,5,5,17,,,,,,,,,,,,,,,,,,,,,,,,,,,,,,,,,,,,,,,,,,,prac,1,1,2,neutral,positive,76.8075503,76.8075503,76.8075503,76.8075503,77.78859149999971,77.85658839999996,l,l,1,1.965409300000374,79.75716879999982,79.75716879999982,79.75716879999982,80.79888489999985,80.79888489999985,80.79888489999985,,,,,,,,,,,,,,,,,,,,,,,,,,,,,,,,,,,,,,,,,,,,,,,322,2023-02-20_13h04.10.127,Main,2022.2.2,60.20118030430248,
positive,negative,2,l,j,0,0,0,0,0,0,0,0,,,,,0,6,6,14,,,,,,,,,,,,,,,,,,,,,,,,,,,,,,,,,,,,,,,,,,,prac,2,2,2,negative,positive,80.79888489999985,80.79888489999985,80.79888489999985,80.79888489999985,81.78710729999966,81.8235639999998,l,l,1,0.9230650999998034,82.74479099999962,82.74479099999962,82.74479099999962,82.74479099999962,82.74479099999962,82.74479099999962,,,,,,,,,,,,,,,,,,,,,,,,,,,,,,,,,,,,,,,,,,,,,,,322,2023-02-20_13h04.10.127,Main,2022.2.2,60.20118030430248,
neutral,negative,1,k,k,0,0,0,0,0,0,0,0,,,,,0,7,7,7,,,,,,,,,,,,,,,,,,,,,,,,,,,,,,,,,,,,,,,,,,,prac,2,2,1,negative,neutral,82.74479099999962,82.74479099999962,82.74479099999962,82.74479099999962,83.70920479999995,83.78486989999965,k,k,1,0.9133403999999246,84.6441006,84.6441006,84.6441006,84.6441006,84.6441006,84.6441006,,,,,,,,,,,,,,,,,,,,,,,,,,,,,,,,,,,,,,,,,,,,,,,322,2023-02-20_13h04.10.127,Main,2022.2.2,60.20118030430248,
negative,neutral,2,j,l,0,0,0,0,0,0,0,0,,,,,0,8,8,12,,,,,,,,,,,,,,,,,,,,,,,,,,,,,,,,,,,,,,,,,,,prac,2,2,2,neutral,negative,84.6441006,84.6441006,84.6441006,84.6441006,85.64886869999964,85.68281260000003,j,j,1,1.1167832000001,86.77513779999981,86.77513779999981,86.77513779999981,86.77513779999981,86.77513779999981,86.77513779999981,,,,,,,,,,,,,,,,,,,,,,,,,,,,,,,,,,,,,,,,,,,,,,,322,2023-02-20_13h04.10.127,Main,2022.2.2,60.20118030430248,
neutral,positive,1,k,k,0,0,0,0,0,0,0,0,,,,,0,9,9,4,,,,,,,,,,,,,,,,,,,,,,,,,,,,,,,,,,,,,,,,,,,prac,2,2,1,positive,neutral,86.77513779999981,86.77513779999981,86.77513779999981,86.77513779999981,87.76377139999977,87.80018919999975,k,k,1,0.7998606000001018,88.5704039999996,88.5704039999996,88.5704039999996,88.5704039999996,88.5704039999996,88.5704039999996,,,,,,,,,,,,,,,,,,,,,,,,,,,,,,,,,,,,,,,,,,,,,,,322,2023-02-20_13h04.10.127,Main,2022.2.2,60.20118030430248,
negative,positive,1,j,l,0,0,0,0,0,0,0,0,,,,,0,10,10,6,,,,,,,,,,,,,,,,,,,,,,,,,,,,,,,,,,,,,,,,,,,prac,2,2,1,positive,negative,88.5704039999996,88.5704039999996,88.5704039999996,88.5704039999996,89.54589109999961,89.61862799999972,j,j,1,0.9500071000002208,90.52823229999967,90.52823229999967,90.52823229999967,90.52823229999967,90.52823229999967,90.52823229999967,,,,,,,,,,,,,,,,,,,,,,,,,,,,,,,,,,,,,,,,,,,,,,,322,2023-02-20_13h04.10.127,Main,2022.2.2,60.20118030430248,
neutral,positive,2,k,k,0,0,0,0,0,0,0,0,,,,,0,11,11,13,,,,,,,,,,,,,,,,,,,,,,,,,,,,,,,,,,,,,,,,,,,prac,2,2,2,positive,neutral,90.52823229999967,90.52823229999967,90.52823229999967,90.52823229999967,91.51134789999969,91.5475922999999,k,k,1,0.7768971999998939,92.3039276999998,92.3039276999998,92.3039276999998,92.3039276999998,92.3039276999998,92.3039276999998,,,,,,,,,,,,,,,,,,,,,,,,,,,,,,,,,,,,,,,,,,,,,,,322,2023-02-20_13h04.10.127,Main,2022.2.2,60.20118030430248,
positive,positive,1,l,j,0,0,0,0,0,0,0,0,,,,,0,12,12,2,,,,,,,,,,,,,,,,,,,,,,,,,,,,,,,,,,,,,,,,,,,prac,1,1,1,positive,positive,92.3039276999998,92.3039276999998,92.3039276999998,92.3039276999998,93.29025279999996,93.3243424999996,l,j,0,0.7261097999999038,94.01554559999977,94.01554559999977,94.01554559999977,95.08901259999993,95.08901259999993,95.08901259999993,,,,,,,,,,,,,,,,,,,,,,,,,,,,,,,,,,,,,,,,,,,,,,,322,2023-02-20_13h04.10.127,Main,2022.2.2,60.20118030430248,
negative,neutral,1,j,l,0,0,0,0,0,0,0,0,,,,,0,13,13,3,,,,,,,,,,,,,,,,,,,,,,,,,,,,,,,,,,,,,,,,,,,prac,2,2,1,neutral,negative,95.08901259999993,95.08901259999993,95.08901259999993,95.08901259999993,96.03688149999971,96.10739239999975,j,j,1,0.9447015999999167,97.02017599999999,97.02017599999999,97.02017599999999,97.02017599999999,97.02017599999999,97.02017599999999,,,,,,,,,,,,,,,,,,,,,,,,,,,,,,,,,,,,,,,,,,,,,,,322,2023-02-20_13h04.10.127,Main,2022.2.2,60.20118030430248,
neutral,negative,2,k,k,0,0,0,0,0,0,0,0,,,,,0,14,14,16,,,,,,,,,,,,,,,,,,,,,,,,,,,,,,,,,,,,,,,,,,,prac,1,1,2,negative,neutral,97.02017599999999,97.02017599999999,97.02017599999999,97.02017599999999,98.00287179999987,98.03622219999988,k,k,1,0.7942657999997209,98.8204727999996,98.8204727999996,98.8204727999996,98.8204727999996,98.8204727999996,98.8204727999996,,,,,,,,,,,,,,,,,,,,,,,,,,,,,,,,,,,,,,,,,,,,,,,322,2023-02-20_13h04.10.127,Main,2022.2.2,60.20118030430248,
positive,neutral,1,l,j,0,0,0,0,0,0,0,0,,,,,0,15,15,8,,,,,,,,,,,,,,,,,,,,,,,,,,,,,,,,,,,,,,,,,,,prac,1,1,1,neutral,positive,98.8204727999996,98.8204727999996,98.8204727999996,98.8204727999996,99.804619,99.83631679999962,l,l,1,0.7712047999998504,100.58316160000004,100.58316160000004,100.58316160000004,100.58316160000004,100.58316160000004,100.58316160000004,,,,,,,,,,,,,,,,,,,,,,,,,,,,,,,,,,,,,,,,,,,,,,,322,2023-02-20_13h04.10.127,Main,2022.2.2,60.20118030430248,
negative,positive,2,j,l,0,0,0,0,0,0,0,0,,,,,0,16,16,15,,,,,,,,,,,,,,,,,,,,,,,,,,,,,,,,,,,,,,,,,,,prac,2,2,2,positive,negative,100.58316160000004,100.58316160000004,100.58316160000004,100.58316160000004,101.57477429999972,101.61148569999978,j,j,1,0.8633049000000028,102.45266649999985,102.45266649999985,102.45266649999985,102.45266649999985,102.45266649999985,102.45266649999985,,,,,,,,,,,,,,,,,,,,,,,,,,,,,,,,,,,,,,,,,,,,,,,322,2023-02-20_13h04.10.127,Main,2022.2.2,60.20118030430248,
neutral,neutral,1,k,k,0,0,0,0,0,0,0,0,,,,,0,17,17,1,,,,,,,,,,,,,,,,,,,,,,,,,,,,,,,,,,,,,,,,,,,prac,2,2,1,neutral,neutral,102.45266649999985,102.45266649999985,102.45266649999985,102.45266649999985,103.42513449999979,103.49220049999985,k,k,1,0.6859431000002587,104.13780359999964,104.13780359999964,104.13780359999964,104.13780359999964,104.13780359999964,104.13780359999964,,,,,,,,,,,,,,,,,,,,,,,,,,,,,,,,,,,,,,,,,,,,,,,322,2023-02-20_13h04.10.127,Main,2022.2.2,60.20118030430248,
neutral,positive,1,k,k,0,0,0,0,0,0,0,0,,,,,1,0,18,4,,,,,,,,,,,,,,,,,,,,,,,,,,,,,,,,,,,,,,,,,,,prac,2,2,1,positive,neutral,104.13780359999964,104.13780359999964,104.13780359999964,104.13780359999964,105.11922609999965,105.18456799999967,k,k,1,0.7804141999999956,105.91973499999995,105.91973499999995,105.91973499999995,105.91973499999995,105.91973499999995,105.91973499999995,,,,,,,,,,,,,,,,,,,,,,,,,,,,,,,,,,,,,,,,,,,,,,,322,2023-02-20_13h04.10.127,Main,2022.2.2,60.20118030430248,
negative,positive,2,j,l,0,0,0,0,0,0,0,0,,,,,1,1,19,15,,,,,,,,,,,,,,,,,,,,,,,,,,,,,,,,,,,,,,,,,,,prac,2,2,2,positive,negative,105.91973499999995,105.91973499999995,105.91973499999995,105.91973499999995,106.91080590000001,106.9465339999997,j,j,1,0.6763502000003427,107.60125930000004,107.60125930000004,107.60125930000004,107.60125930000004,107.60125930000004,107.60125930000004,,,,,,,,,,,,,,,,,,,,,,,,,,,,,,,,,,,,,,,,,,,,,,,322,2023-02-20_13h04.10.127,Main,2022.2.2,60.20118030430248,
positive,negative,1,l,j,0,0,0,0,0,0,0,0,,,,,1,2,20,5,,,,,,,,,,,,,,,,,,,,,,,,,,,,,,,,,,,,,,,,,,,prac,2,2,1,negative,positive,107.60125930000004,107.60125930000004,107.60125930000004,107.60125930000004,108.57094419999976,108.63544939999974,l,l,1,0.7177979999996751,109.31568149999976,109.31568149999976,109.31568149999976,109.31568149999976,109.31568149999976,109.31568149999976,,,,,,,,,,,,,,,,,,,,,,,,,,,,,,,,,,,,,,,,,,,,,,,322,2023-02-20_13h04.10.127,Main,2022.2.2,60.20118030430248,
neutral,neutral,1,k,k,0,0,0,0,0,0,0,0,,,,,1,3,21,1,,,,,,,,,,,,,,,,,,,,,,,,,,,,,,,,,,,,,,,,,,,prac,1,1,1,neutral,neutral,109.31568149999976,109.31568149999976,109.31568149999976,109.31568149999976,110.30846849999989,110.34360979999974,k,k,1,0.6062747000000854,110.92600029999994,110.92600029999994,110.92600029999994,110.92600029999994,110.92600029999994,110.92600029999994,,,,,,,,,,,,,,,,,,,,,,,,,,,,,,,,,,,,,,,,,,,,,,,322,2023-02-20_13h04.10.127,Main,2022.2.2,60.20118030430248,
negative,neutral,1,j,l,0,0,0,0,0,0,0,0,,,,,1,4,22,3,,,,,,,,,,,,,,,,,,,,,,,,,,,,,,,,,,,,,,,,,,,prac,2,2,1,neutral,negative,110.92600029999994,110.92600029999994,110.92600029999994,110.92600029999994,111.91130399999975,111.94493190000003,j,j,1,1.014291299999968,112.94235630000003,112.94235630000003,112.94235630000003,112.94235630000003,112.94235630000003,112.94235630000003,,,,,,,,,,,,,,,,,,,,,,,,,,,,,,,,,,,,,,,,,,,,,,,322,2023-02-20_13h04.10.127,Main,2022.2.2,60.20118030430248,
neutral,negative,1,k,k,0,0,0,0,0,0,0,0,,,,,1,5,23,7,,,,,,,,,,,,,,,,,,,,,,,,,,,,,,,,,,,,,,,,,,,prac,2,2,1,negative,neutral,112.94235630000003,112.94235630000003,112.94235630000003,112.94235630000003,113.94083890000002,113.97173599999996,k,k,1,0.6713254000001143,114.61952229999997,114.61952229999997,114.61952229999997,114.61952229999997,114.61952229999997,114.61952229999997,,,,,,,,,,,,,,,,,,,,,,,,,,,,,,,,,,,,,,,,,,,,,,,322,2023-02-20_13h04.10.127,Main,2022.2.2,60.20118030430248,
negative,negative,2,j,l,0,0,0,0,0,0,0,0,,,,,1,6,24,9,,,,,,,,,,,,,,,,,,,,,,,,,,,,,,,,,,,,,,,,,,,prac,2,2,2,negative,negative,114.61952229999997,114.61952229999997,114.61952229999997,114.61952229999997,115.59463759999971,115.66060759999982,j,j,1,0.7327763999996932,116.35052819999964,116.35052819999964,116.35052819999964,116.35052819999964,116.35052819999964,116.35052819999964,,,,,,,,,,,,,,,,,,,,,,,,,,,,,,,,,,,,,,,,,,,,,,,322,2023-02-20_13h04.10.127,Main,2022.2.2,60.20118030430248,
neutral,negative,2,k,k,0,0,0,0,0,0,0,0,,,,,1,7,25,16,,,,,,,,,,,,,,,,,,,,,,,,,,,,,,,,,,,,,,,,,,,prac,2,2,2,negative,neutral,116.35052819999964,116.35052819999964,116.35052819999964,116.35052819999964,117.35176239999964,117.38434999999981,k,k,1,0.7689314999997805,118.12300149999965,118.12300149999965,118.12300149999965,118.12300149999965,118.12300149999965,118.12300149999965,,,,,,,,,,,,,,,,,,,,,,,,,,,,,,,,,,,,,,,,,,,,,,,322,2023-02-20_13h04.10.127,Main,2022.2.2,60.20118030430248,
negative,negative,1,j,l,0,0,0,0,0,0,0,0,,,,,1,8,26,0,,,,,,,,,,,,,,,,,,,,,,,,,,,,,,,,,,,,,,,,,,,prac,1,1,1,negative,negative,118.12300149999965,118.12300149999965,118.12300149999965,118.12300149999965,119.10178439999981,119.16558349999968,j,j,1,0.8484967999997934,119.97310789999983,119.97310789999983,119.97310789999983,119.97310789999983,119.97310789999983,119.97310789999983,,,,,,,,,,,,,,,,,,,,,,,,,,,,,,,,,,,,,,,,,,,,,,,322,2023-02-20_13h04.10.127,Main,2022.2.2,60.20118030430248,
positive,neutral,1,l,j,0,0,0,0,0,0,0,0,,,,,1,9,27,8,,,,,,,,,,,,,,,,,,,,,,,,,,,,,,,,,,,,,,,,,,,prac,2,2,1,neutral,positive,119.97310789999983,119.97310789999983,119.97310789999983,119.97310789999983,120.94129559999965,121.00629660000004,l,k,0,0.6006357999999636,121.55436220000001,121.55436220000001,121.55436220000001,122.58554749999985,122.58554749999985,122.58554749999985,,,,,,,,,,,,,,,,,,,,,,,,,,,,,,,,,,,,,,,,,,,,,,,322,2023-02-20_13h04.10.127,Main,2022.2.2,60.20118030430248,
neutral,neutral,2,k,k,0,0,0,0,0,0,0,0,,,,,1,10,28,10,,,,,,,,,,,,,,,,,,,,,,,,,,,,,,,,,,,,,,,,,,,prac,2,2,2,neutral,neutral,122.58554749999985,122.58554749999985,122.58554749999985,122.58554749999985,123.5875403,123.6189844999999,k,k,1,0.7659155000001192,124.36015090000001,124.36015090000001,124.36015090000001,124.36015090000001,124.36015090000001,124.36015090000001,,,,,,,,,,,,,,,,,,,,,,,,,,,,,,,,,,,,,,,,,,,,,,,322,2023-02-20_13h04.10.127,Main,2022.2.2,60.20118030430248,
neutral,positive,2,k,k,0,0,0,0,0,0,0,0,,,,,1,11,29,13,,,,,,,,,,,,,,,,,,,,,,,,,,,,,,,,,,,,,,,,,,,prac,1,1,2,positive,neutral,124.36015090000001,124.36015090000001,124.36015090000001,124.36015090000001,125.34947479999983,125.38435769999978,k,k,1,0.9661149000003206,126.32622139999967,126.32622139999967,126.32622139999967,126.32622139999967,126.32622139999967,126.32622139999967,,,,,,,,,,,,,,,,,,,,,,,,,,,,,,,,,,,,,,,,,,,,,,,322,2023-02-20_13h04.10.127,Main,2022.2.2,60.20118030430248,
positive,positive,2,l,j,0,0,0,0,0,0,0,0,,,,,1,12,30,11,,,,,,,,,,,,,,,,,,,,,,,,,,,,,,,,,,,,,,,,,,,prac,1,1,2,positive,positive,126.32622139999967,126.32622139999967,126.32622139999967,126.32622139999967,127.32751469999994,127.36106669999981,l,l,1,0.9670057000002998,128.29655999999977,128.29655999999977,128.29655999999977,128.29655999999977,128.29655999999977,128.29655999999977,,,,,,,,,,,,,,,,,,,,,,,,,,,,,,,,,,,,,,,,,,,,,,,322,2023-02-20_13h04.10.127,Main,2022.2.2,60.20118030430248,
negative,neutral,2,j,l,0,0,0,0,0,0,0,0,,,,,1,13,31,12,,,,,,,,,,,,,,,,,,,,,,,,,,,,,,,,,,,,,,,,,,,prac,2,2,2,neutral,negative,128.29655999999977,128.29655999999977,128.29655999999977,128.29655999999977,129.2934395999996,129.3263493999998,j,j,1,0.8159897999998975,130.11633669999992,130.11633669999992,130.11633669999992,130.11633669999992,130.11633669999992,130.11633669999992,,,,,,,,,,,,,,,,,,,,,,,,,,,,,,,,,,,,,,,,,,,,,,,322,2023-02-20_13h04.10.127,Main,2022.2.2,60.20118030430248,
negative,positive,1,j,l,0,0,0,0,0,0,0,0,,,,,1,14,32,6,,,,,,,,,,,,,,,,,,,,,,,,,,,,,,,,,,,,,,,,,,,prac,2,2,1,positive,negative,130.11633669999992,130.11633669999992,130.11633669999992,130.11633669999992,131.08668639999996,131.15559749999966,j,j,1,0.8676908000002186,131.98346869999978,131.98346869999978,131.98346869999978,131.98346869999978,131.98346869999978,131.98346869999978,,,,,,,,,,,,,,,,,,,,,,,,,,,,,,,,,,,,,,,,,,,,,,,322,2023-02-20_13h04.10.127,Main,2022.2.2,60.20118030430248,
positive,neutral,2,l,j,0,0,0,0,0,0,0,0,,,,,1,15,33,17,,,,,,,,,,,,,,,,,,,,,,,,,,,,,,,,,,,,,,,,,,,prac,2,2,2,neutral,positive,131.98346869999978,131.98346869999978,131.98346869999978,131.98346869999978,132.96885359999987,133.00208810000004,l,l,1,0.9521047999996881,133.93854759999977,133.93854759999977,133.93854759999977,133.93854759999977,133.93854759999977,133.93854759999977,,,,,,,,,,,,,,,,,,,,,,,,,,,,,,,,,,,,,,,,,,,,,,,322,2023-02-20_13h04.10.127,Main,2022.2.2,60.20118030430248,
positive,negative,2,l,j,0,0,0,0,0,0,0,0,,,,,1,16,34,14,,,,,,,,,,,,,,,,,,,,,,,,,,,,,,,,,,,,,,,,,,,prac,2,2,2,negative,positive,133.93854759999977,133.93854759999977,133.93854759999977,133.93854759999977,134.92170639999995,134.95472410000002,l,l,1,0.9306395000003249,135.87306790000002,135.87306790000002,135.87306790000002,135.87306790000002,135.87306790000002,135.87306790000002,,,,,,,,,,,,,,,,,,,,,,,,,,,,,,,,,,,,,,,,,,,,,,,322,2023-02-20_13h04.10.127,Main,2022.2.2,60.20118030430248,
positive,positive,1,l,j,0,0,0,0,0,0,0,0,,,,,1,17,35,2,,,,,,,,,,,,,,,,,,,,,,,,,,,,,,,,,,,,,,,,,,,prac,1,1,1,positive,positive,135.87306790000002,135.87306790000002,135.87306790000002,135.87306790000002,136.85106159999987,136.92062450000003,l,l,1,1.7595854000001054,138.61045449999983,138.61045449999983,138.61045449999983,139.63480949999985,139.63480949999985,139.63480949999985,,,,,,,,,,,,,,,,,,,,,,,,,,,,,,,,,,,,,,,,,,,,,,,322,2023-02-20_13h04.10.127,Main,2022.2.2,60.20118030430248,
negative,positive,1,j,l,0,0,0,0,0,0,0,0,,,,,,,,,0,0,0,6,,,,,,,,,,,,,,,,,,,,,,,,,,,,,,,,,,,,,,143.63660630000004,main,1,1,1,positive,negative,145.69998589999977,145.69998589999977,145.69998589999977,145.69998589999977,146.6906726999996,146.72506399999975,j,j,1,1.0134617999997317,147.72426859999996,147.72426859999996,147.72426859999996,147.72426859999996,147.72426859999996,147.72426859999996,139.63480949999985,0.0005108000000291213,None,0.28703703703703703,-0.22037037037037038,0,0,0,,,,,,,,,,,,,,,,,,,,,,,,,,,,,,,,,,,,,,,322,2023-02-20_13h04.10.127,Main,2022.2.2,60.20118030430248,
neutral,negative,2,k,k,0,0,0,0,0,0,0,0,,,,,,,,,0,1,1,16,,,,,,,,,,,,,,,,,,,,,,,,,,,,,,,,,,,,,,,main,2,2,2,negative,neutral,147.72426859999996,147.72426859999996,147.72426859999996,147.72426859999996,148.7281264999997,148.76033489999963,k,k,1,0.7748999000000367,149.5016584,149.5016584,149.5016584,149.5016584,149.5016584,149.5016584,,,,,,,,,,,,,,,,,,,,,,,,,,,,,,,,,,,,,,,,,,,,,,,322,2023-02-20_13h04.10.127,Main,2022.2.2,60.20118030430248,
neutral,neutral,2,k,k,0,0,0,0,0,0,0,0,,,,,,,,,0,2,2,10,,,,,,,,,,,,,,,,,,,,,,,,,,,,,,,,,,,,,,,main,2,2,2,neutral,neutral,149.5016584,149.5016584,149.5016584,149.5016584,150.47229019999986,150.53959880000002,k,k,1,0.6312057000000095,151.13531029999967,151.13531029999967,151.13531029999967,151.13531029999967,151.13531029999967,151.13531029999967,,,,,,,,,,,,,,,,,,,,,,,,,,,,,,,,,,,,,,,,,,,,,,,322,2023-02-20_13h04.10.127,Main,2022.2.2,60.20118030430248,
neutral,negative,1,k,k,0,0,0,0,0,0,0,0,,,,,,,,,0,3,3,7,,,,,,,,,,,,,,,,,,,,,,,,,,,,,,,,,,,,,,,main,2,2,1,negative,neutral,151.13531029999967,151.13531029999967,151.13531029999967,151.13531029999967,152.11814519999962,152.15121789999966,k,k,1,3.233253500000046,155.3479929,155.3479929,155.3479929,156.39664889999995,156.39664889999995,156.39664889999995,,,,,,,,,,,,,,,,,,,,,,,,,,,,,,,,,,,,,,,,,,,,,,,322,2023-02-20_13h04.10.127,Main,2022.2.2,60.20118030430248,
negative,negative,1,j,l,0,0,0,0,0,0,0,0,,,,,,,,,0,4,4,0,,,,,,,,,,,,,,,,,,,,,,,,,,,,,,,,,,,,,,,main,2,2,1,negative,negative,156.39664889999995,156.39664889999995,156.39664889999995,156.39664889999995,157.37631379999993,157.4437015999997,j,j,1,0.9905809000001682,158.39192689999982,158.39192689999982,158.39192689999982,158.39192689999982,158.39192689999982,158.39192689999982,,,,,,,,,,,,,,,,,,,,,,,,,,,,,,,,,,,,,,,,,,,,,,,322,2023-02-20_13h04.10.127,Main,2022.2.2,60.20118030430248,
neutral,positive,2,k,k,0,0,0,0,0,0,0,0,,,,,,,,,0,5,5,13,,,,,,,,,,,,,,,,,,,,,,,,,,,,,,,,,,,,,,,main,1,1,2,positive,neutral,158.39192689999982,158.39192689999982,158.39192689999982,158.39192689999982,159.37311469999986,159.4387689,k,k,1,0.747335000000021,160.14105169999993,160.14105169999993,160.14105169999993,160.14105169999993,160.14105169999993,160.14105169999993,,,,,,,,,,,,,,,,,,,,,,,,,,,,,,,,,,,,,,,,,,,,,,,322,2023-02-20_13h04.10.127,Main,2022.2.2,60.20118030430248,
negative,neutral,2,j,l,0,0,0,0,0,0,0,0,,,,,,,,,0,6,6,12,,,,,,,,,,,,,,,,,,,,,,,,,,,,,,,,,,,,,,,main,1,1,2,neutral,negative,160.14105169999993,160.14105169999993,160.14105169999993,160.14105169999993,161.14425679999977,161.1775788,j,j,1,0.9445614000001115,162.08863870000005,162.08863870000005,162.08863870000005,162.08863870000005,162.08863870000005,162.08863870000005,,,,,,,,,,,,,,,,,,,,,,,,,,,,,,,,,,,,,,,,,,,,,,,322,2023-02-20_13h04.10.127,Main,2022.2.2,60.20118030430248,
positive,negative,2,l,j,0,0,0,0,0,0,0,0,,,,,,,,,0,7,7,14,,,,,,,,,,,,,,,,,,,,,,,,,,,,,,,,,,,,,,,main,1,1,2,negative,positive,162.08863870000005,162.08863870000005,162.08863870000005,162.08863870000005,163.09254539999984,163.12614629999962,l,l,1,1.0046118000000206,164.09890369999994,164.09890369999994,164.09890369999994,164.09890369999994,164.09890369999994,164.09890369999994,,,,,,,,,,,,,,,,,,,,,,,,,,,,,,,,,,,,,,,,,,,,,,,322,2023-02-20_13h04.10.127,Main,2022.2.2,60.20118030430248,
positive,positive,2,l,j,0,0,0,0,0,0,0,0,,,,,,,,,0,8,8,11,,,,,,,,,,,,,,,,,,,,,,,,,,,,,,,,,,,,,,,main,2,2,2,positive,positive,164.09890369999994,164.09890369999994,164.09890369999994,164.09890369999994,165.0904203,165.1246715999996,l,l,1,0.9391361999996661,166.04046319999998,166.04046319999998,166.04046319999998,166.04046319999998,166.04046319999998,166.04046319999998,,,,,,,,,,,,,,,,,,,,,,,,,,,,,,,,,,,,,,,,,,,,,,,322,2023-02-20_13h04.10.127,Main,2022.2.2,60.20118030430248,
neutral,neutral,1,k,k,0,0,0,0,0,0,0,0,,,,,,,,,0,9,9,1,,,,,,,,,,,,,,,,,,,,,,,,,,,,,,,,,,,,,,,main,1,1,1,neutral,neutral,166.04046319999998,166.04046319999998,166.04046319999998,166.04046319999998,167.01005080000004,167.08023419999972,k,k,1,0.7653647000001911,167.81005619999996,167.81005619999996,167.81005619999996,167.81005619999996,167.81005619999996,167.81005619999996,,,,,,,,,,,,,,,,,,,,,,,,,,,,,,,,,,,,,,,,,,,,,,,322,2023-02-20_13h04.10.127,Main,2022.2.2,60.20118030430248,
positive,neutral,2,l,j,0,0,0,0,0,0,0,0,,,,,,,,,0,10,10,17,,,,,,,,,,,,,,,,,,,,,,,,,,,,,,,,,,,,,,,main,2,2,2,neutral,positive,167.81005619999996,167.81005619999996,167.81005619999996,167.81005619999996,168.80325569999968,168.83846489999996,l,l,1,0.9441600000000108,169.75693339999998,169.75693339999998,169.75693339999998,169.75693339999998,169.75693339999998,169.75693339999998,,,,,,,,,,,,,,,,,,,,,,,,,,,,,,,,,,,,,,,,,,,,,,,322,2023-02-20_13h04.10.127,Main,2022.2.2,60.20118030430248,
neutral,positive,1,k,k,0,0,0,0,0,0,0,0,,,,,,,,,0,11,11,4,,,,,,,,,,,,,,,,,,,,,,,,,,,,,,,,,,,,,,,main,2,2,1,positive,neutral,169.75693339999998,169.75693339999998,169.75693339999998,169.75693339999998,170.7563680999997,170.78725880000002,k,k,1,0.805058999999801,171.56487799999968,171.56487799999968,171.56487799999968,171.56487799999968,171.56487799999968,171.56487799999968,,,,,,,,,,,,,,,,,,,,,,,,,,,,,,,,,,,,,,,,,,,,,,,322,2023-02-20_13h04.10.127,Main,2022.2.2,60.20118030430248,
negative,negative,2,j,l,0,0,0,0,0,0,0,0,,,,,,,,,0,12,12,9,,,,,,,,,,,,,,,,,,,,,,,,,,,,,,,,,,,,,,,main,2,2,2,negative,negative,171.56487799999968,171.56487799999968,171.56487799999968,171.56487799999968,172.56019109999988,172.5915590999998,j,j,1,0.823631000000205,173.39190869999993,173.39190869999993,173.39190869999993,173.39190869999993,173.39190869999993,173.39190869999993,,,,,,,,,,,,,,,,,,,,,,,,,,,,,,,,,,,,,,,,,,,,,,,322,2023-02-20_13h04.10.127,Main,2022.2.2,60.20118030430248,
positive,positive,1,l,j,0,0,0,0,0,0,0,0,,,,,,,,,0,13,13,2,,,,,,,,,,,,,,,,,,,,,,,,,,,,,,,,,,,,,,,main,1,1,1,positive,positive,173.39190869999993,173.39190869999993,173.39190869999993,173.39190869999993,174.38407819999975,174.41863769999964,l,l,1,1.0416277000003902,175.4353013,175.4353013,175.4353013,175.4353013,175.4353013,175.4353013,,,,,,,,,,,,,,,,,,,,,,,,,,,,,,,,,,,,,,,,,,,,,,,322,2023-02-20_13h04.10.127,Main,2022.2.2,60.20118030430248,
positive,neutral,1,l,j,0,0,0,0,0,0,0,0,,,,,,,,,0,14,14,8,,,,,,,,,,,,,,,,,,,,,,,,,,,,,,,,,,,,,,,main,2,2,1,neutral,positive,175.4353013,175.4353013,175.4353013,175.4353013,176.4183409999996,176.4564992999999,l,l,1,1.0643943000000036,177.50574519999964,177.50574519999964,177.50574519999964,177.50574519999964,177.50574519999964,177.50574519999964,,,,,,,,,,,,,,,,,,,,,,,,,,,,,,,,,,,,,,,,,,,,,,,322,2023-02-20_13h04.10.127,Main,2022.2.2,60.20118030430248,
negative,neutral,1,j,l,0,0,0,0,0,0,0,0,,,,,,,,,0,15,15,3,,,,,,,,,,,,,,,,,,,,,,,,,,,,,,,,,,,,,,,main,1,1,1,neutral,negative,177.50574519999964,177.50574519999964,177.50574519999964,177.50574519999964,178.49435730000005,178.52674829999978,j,j,1,1.1740562999998474,179.67731049999975,179.67731049999975,179.67731049999975,179.67731049999975,179.67731049999975,179.67731049999975,,,,,,,,,,,,,,,,,,,,,,,,,,,,,,,,,,,,,,,,,,,,,,,322,2023-02-20_13h04.10.127,Main,2022.2.2,60.20118030430248,
negative,positive,2,j,l,0,0,0,0,0,0,0,0,,,,,,,,,0,16,16,15,,,,,,,,,,,,,,,,,,,,,,,,,,,,,,,,,,,,,,,main,2,2,2,positive,negative,179.67731049999975,179.67731049999975,179.67731049999975,179.67731049999975,180.68727409999974,180.7237498999998,j,j,1,0.952812300000005,181.6402564,181.6402564,181.6402564,181.6402564,181.6402564,181.6402564,,,,,,,,,,,,,,,,,,,,,,,,,,,,,,,,,,,,,,,,,,,,,,,322,2023-02-20_13h04.10.127,Main,2022.2.2,60.20118030430248,
positive,negative,1,l,j,0,0,0,0,0,0,0,0,,,,,,,,,0,17,17,5,,,,,,,,,,,,,,,,,,,,,,,,,,,,,,,,,,,,,,,main,1,1,1,negative,positive,181.6402564,181.6402564,181.6402564,181.6402564,182.6335721999999,182.67953009999974,l,l,1,1.0611299000001964,183.70204029999968,183.70204029999968,183.70204029999968,183.70204029999968,183.70204029999968,183.70204029999968,,,,,,,,,,,,,,,,,,,,,,,,,,,,,,,,,,,,,,,,,,,,,,,322,2023-02-20_13h04.10.127,Main,2022.2.2,60.20118030430248,
positive,negative,1,l,j,0,0,0,0,0,0,0,0,,,,,,,,,1,0,18,5,,,,,,,,,,,,,,,,,,,,,,,,,,,,,,,,,,,,,,,main,2,2,1,negative,positive,183.70204029999968,183.70204029999968,183.70204029999968,183.70204029999968,184.68393709999964,184.75568539999995,l,l,1,0.7318749000000935,185.44096760000002,185.44096760000002,185.44096760000002,185.44096760000002,185.44096760000002,185.44096760000002,,,,,,,,,,,,,,,,,,,,,,,,,,,,,,,,,,,,,,,,,,,,,,,322,2023-02-20_13h04.10.127,Main,2022.2.2,60.20118030430248,
neutral,negative,2,k,k,0,0,0,0,0,0,0,0,,,,,,,,,1,1,19,16,,,,,,,,,,,,,,,,,,,,,,,,,,,,,,,,,,,,,,,main,2,2,2,negative,neutral,185.44096760000002,185.44096760000002,185.44096760000002,185.44096760000002,186.41676189999998,186.47913249999965,k,k,1,0.8222855999997591,187.2665777999996,187.2665777999996,187.2665777999996,187.2665777999996,187.2665777999996,187.2665777999996,,,,,,,,,,,,,,,,,,,,,,,,,,,,,,,,,,,,,,,,,,,,,,,322,2023-02-20_13h04.10.127,Main,2022.2.2,60.20118030430248,
positive,positive,1,l,j,0,0,0,0,0,0,0,0,,,,,,,,,1,2,20,2,,,,,,,,,,,,,,,,,,,,,,,,,,,,,,,,,,,,,,,main,1,1,1,positive,positive,187.2665777999996,187.2665777999996,187.2665777999996,187.2665777999996,188.2417604999996,188.3130173999998,l,l,1,0.7643615000001773,189.03443419999985,189.03443419999985,189.03443419999985,189.03443419999985,189.03443419999985,189.03443419999985,,,,,,,,,,,,,,,,,,,,,,,,,,,,,,,,,,,,,,,,,,,,,,,322,2023-02-20_13h04.10.127,Main,2022.2.2,60.20118030430248,
negative,neutral,1,j,l,0,0,0,0,0,0,0,0,,,,,,,,,1,3,21,3,,,,,,,,,,,,,,,,,,,,,,,,,,,,,,,,,,,,,,,main,1,1,1,neutral,negative,189.03443419999985,189.03443419999985,189.03443419999985,189.03443419999985,190.0293829999996,190.06281409999974,j,j,1,0.7694930000002387,190.80773379999982,190.80773379999982,190.80773379999982,190.80773379999982,190.80773379999982,190.80773379999982,,,,,,,,,,,,,,,,,,,,,,,,,,,,,,,,,,,,,,,,,,,,,,,322,2023-02-20_13h04.10.127,Main,2022.2.2,60.20118030430248,
neutral,neutral,1,k,k,0,0,0,0,0,0,0,0,,,,,,,,,1,4,22,1,,,,,,,,,,,,,,,,,,,,,,,,,,,,,,,,,,,,,,,main,1,1,1,neutral,neutral,190.80773379999982,190.80773379999982,190.80773379999982,190.80773379999982,191.78537059999962,191.85810509999965,k,k,1,0.8708083000001352,192.68204990000004,192.68204990000004,192.68204990000004,192.68204990000004,192.68204990000004,192.68204990000004,,,,,,,,,,,,,,,,,,,,,,,,,,,,,,,,,,,,,,,,,,,,,,,322,2023-02-20_13h04.10.127,Main,2022.2.2,60.20118030430248,
positive,neutral,2,l,j,0,0,0,0,0,0,0,0,,,,,,,,,1,5,23,17,,,,,,,,,,,,,,,,,,,,,,,,,,,,,,,,,,,,,,,main,1,1,2,neutral,positive,192.68204990000004,192.68204990000004,192.68204990000004,192.68204990000004,193.67911860000004,193.71276939999962,l,l,1,0.7346315999998296,194.44597299999987,194.44597299999987,194.44597299999987,194.44597299999987,194.44597299999987,194.44597299999987,,,,,,,,,,,,,,,,,,,,,,,,,,,,,,,,,,,,,,,,,,,,,,,322,2023-02-20_13h04.10.127,Main,2022.2.2,60.20118030430248,
positive,positive,2,l,j,0,0,0,0,0,0,0,0,,,,,,,,,1,6,24,11,,,,,,,,,,,,,,,,,,,,,,,,,,,,,,,,,,,,,,,main,2,2,2,positive,positive,194.44597299999987,194.44597299999987,194.44597299999987,194.44597299999987,195.4156770999998,195.48364330000004,l,l,1,0.9837090000000899,196.4025518999997,196.4025518999997,196.4025518999997,196.4025518999997,196.4025518999997,196.4025518999997,,,,,,,,,,,,,,,,,,,,,,,,,,,,,,,,,,,,,,,,,,,,,,,322,2023-02-20_13h04.10.127,Main,2022.2.2,60.20118030430248,
neutral,negative,1,k,k,0,0,0,0,0,0,0,0,,,,,,,,,1,7,25,7,,,,,,,,,,,,,,,,,,,,,,,,,,,,,,,,,,,,,,,main,1,1,1,negative,neutral,196.4025518999997,196.4025518999997,196.4025518999997,196.4025518999997,197.4105580999999,197.44534059999978,k,k,1,0.7724498000002313,198.18090279999979,198.18090279999979,198.18090279999979,198.18090279999979,198.18090279999979,198.18090279999979,,,,,,,,,,,,,,,,,,,,,,,,,,,,,,,,,,,,,,,,,,,,,,,322,2023-02-20_13h04.10.127,Main,2022.2.2,60.20118030430248,
negative,positive,1,j,l,0,0,0,0,0,0,0,0,,,,,,,,,1,8,26,6,,,,,,,,,,,,,,,,,,,,,,,,,,,,,,,,,,,,,,,main,1,1,1,positive,negative,198.18090279999979,198.18090279999979,198.18090279999979,198.18090279999979,199.15546519999998,199.2220557999999,j,j,1,1.1292908999998872,200.31372109999984,200.31372109999984,200.31372109999984,200.31372109999984,200.31372109999984,200.31372109999984,,,,,,,,,,,,,,,,,,,,,,,,,,,,,,,,,,,,,,,,,,,,,,,322,2023-02-20_13h04.10.127,Main,2022.2.2,60.20118030430248,
positive,negative,2,l,j,0,0,0,0,0,0,0,0,,,,,,,,,1,9,27,14,,,,,,,,,,,,,,,,,,,,,,,,,,,,,,,,,,,,,,,main,1,1,2,negative,positive,200.31372109999984,200.31372109999984,200.31372109999984,200.31372109999984,201.28973319999977,201.35690109999996,l,l,1,1.1854648999997153,202.5021939999997,202.5021939999997,202.5021939999997,202.5021939999997,202.5021939999997,202.5021939999997,,,,,,,,,,,,,,,,,,,,,,,,,,,,,,,,,,,,,,,,,,,,,,,322,2023-02-20_13h04.10.127,Main,2022.2.2,60.20118030430248,
neutral,positive,1,k,k,0,0,0,0,0,0,0,0,,,,,,,,,1,10,28,4,,,,,,,,,,,,,,,,,,,,,,,,,,,,,,,,,,,,,,,main,2,2,1,positive,neutral,202.5021939999997,202.5021939999997,202.5021939999997,202.5021939999997,203.4991258,203.53632749999997,k,k,1,0.7864045999999689,204.29323469999963,204.29323469999963,204.29323469999963,204.29323469999963,204.29323469999963,204.29323469999963,,,,,,,,,,,,,,,,,,,,,,,,,,,,,,,,,,,,,,,,,,,,,,,322,2023-02-20_13h04.10.127,Main,2022.2.2,60.20118030430248,
negative,neutral,2,j,l,0,0,0,0,0,0,0,0,,,,,,,,,1,11,29,12,,,,,,,,,,,,,,,,,,,,,,,,,,,,,,,,,,,,,,,main,2,2,2,neutral,negative,204.29323469999963,204.29323469999963,204.29323469999963,204.29323469999963,205.27021539999987,205.33789649999972,j,j,1,0.9844241999999213,206.2783675999999,206.2783675999999,206.2783675999999,206.2783675999999,206.2783675999999,206.2783675999999,,,,,,,,,,,,,,,,,,,,,,,,,,,,,,,,,,,,,,,,,,,,,,,322,2023-02-20_13h04.10.127,Main,2022.2.2,60.20118030430248,
positive,neutral,1,l,j,0,0,0,0,0,0,0,0,,,,,,,,,1,12,30,8,,,,,,,,,,,,,,,,,,,,,,,,,,,,,,,,,,,,,,,main,1,1,1,neutral,positive,206.2783675999999,206.2783675999999,206.2783675999999,206.2783675999999,207.2543437999998,207.31874960000005,l,l,1,1.85024280000016,209.11014579999983,209.11014579999983,209.11014579999983,210.15214100000003,210.15214100000003,210.15214100000003,,,,,,,,,,,,,,,,,,,,,,,,,,,,,,,,,,,,,,,,,,,,,,,322,2023-02-20_13h04.10.127,Main,2022.2.2,60.20118030430248,
neutral,positive,2,k,k,0,0,0,0,0,0,0,0,,,,,,,,,1,13,31,13,,,,,,,,,,,,,,,,,,,,,,,,,,,,,,,,,,,,,,,main,2,2,2,positive,neutral,210.15214100000003,210.15214100000003,210.15214100000003,210.15214100000003,211.13916629999994,211.1746876999996,k,k,1,0.9444200000002638,212.09794729999976,212.09794729999976,212.09794729999976,212.09794729999976,212.09794729999976,212.09794729999976,,,,,,,,,,,,,,,,,,,,,,,,,,,,,,,,,,,,,,,,,,,,,,,322,2023-02-20_13h04.10.127,Main,2022.2.2,60.20118030430248,
neutral,neutral,2,k,k,0,0,0,0,0,0,0,0,,,,,,,,,1,14,32,10,,,,,,,,,,,,,,,,,,,,,,,,,,,,,,,,,,,,,,,main,2,2,2,neutral,neutral,212.09794729999976,212.09794729999976,212.09794729999976,212.09794729999976,213.06896579999966,213.14060329999984,k,k,1,0.8784431999997651,213.97744669999975,213.97744669999975,213.97744669999975,213.97744669999975,213.97744669999975,213.97744669999975,,,,,,,,,,,,,,,,,,,,,,,,,,,,,,,,,,,,,,,,,,,,,,,322,2023-02-20_13h04.10.127,Main,2022.2.2,60.20118030430248,
negative,positive,2,j,l,0,0,0,0,0,0,0,0,,,,,,,,,1,15,33,15,,,,,,,,,,,,,,,,,,,,,,,,,,,,,,,,,,,,,,,main,2,2,2,positive,negative,213.97744669999975,213.97744669999975,213.97744669999975,213.97744669999975,214.9616848999999,214.9952331999998,j,j,1,1.0656567000000905,216.04598979999992,216.04598979999992,216.04598979999992,216.04598979999992,216.04598979999992,216.04598979999992,,,,,,,,,,,,,,,,,,,,,,,,,,,,,,,,,,,,,,,,,,,,,,,322,2023-02-20_13h04.10.127,Main,2022.2.2,60.20118030430248,
negative,negative,2,j,l,0,0,0,0,0,0,0,0,,,,,,,,,1,16,34,9,,,,,,,,,,,,,,,,,,,,,,,,,,,,,,,,,,,,,,,main,2,2,2,negative,negative,216.04598979999992,216.04598979999992,216.04598979999992,216.04598979999992,217.0257962999999,217.09187789999987,j,j,1,0.862106600000061,217.91117199999962,217.91117199999962,217.91117199999962,217.91117199999962,217.91117199999962,217.91117199999962,,,,,,,,,,,,,,,,,,,,,,,,,,,,,,,,,,,,,,,,,,,,,,,322,2023-02-20_13h04.10.127,Main,2022.2.2,60.20118030430248,
negative,negative,1,j,l,0,0,0,0,0,0,0,0,,,,,,,,,1,17,35,0,,,,,,,,,,,,,,,,,,,,,,,,,,,,,,,,,,,,,,,main,2,2,1,negative,negative,217.91117199999962,217.91117199999962,217.91117199999962,217.91117199999962,218.90251179999996,218.93670380000003,j,j,1,1.5034390000000712,220.39847839999993,220.39847839999993,220.39847839999993,221.43297889999985,221.43297889999985,221.43297889999985,,,,,,,,,,,,,,,,,,,,,,,,,,,,,,,,,,,,,,,,,,,,,,,322,2023-02-20_13h04.10.127,Main,2022.2.2,60.20118030430248,
positive,positive,2,l,j,0,0,0,0,0,0,0,0,,,,,,,,,2,0,36,11,,,,,,,,,,,,,,,,,,,,,,,,,,,,,,,,,,,,,,,main,2,2,2,positive,positive,221.43297889999985,221.43297889999985,221.43297889999985,221.43297889999985,222.4166482999999,222.45341439999993,l,l,1,1.204027799999949,223.6467106,223.6467106,223.6467106,223.6467106,223.6467106,223.6467106,,,,,,,,,,,,,,,,,,,,,,,,,,,,,,,,,,,,,,,,,,,,,,,322,2023-02-20_13h04.10.127,Main,2022.2.2,60.20118030430248,
positive,neutral,2,l,j,0,0,0,0,0,0,0,0,,,,,,,,,2,1,37,17,,,,,,,,,,,,,,,,,,,,,,,,,,,,,,,,,,,,,,,main,2,2,2,neutral,positive,223.6467106,223.6467106,223.6467106,223.6467106,224.65994490000003,224.70714719999978,l,l,1,0.8776873000001615,225.52260179999985,225.52260179999985,225.52260179999985,225.52260179999985,225.52260179999985,225.52260179999985,,,,,,,,,,,,,,,,,,,,,,,,,,,,,,,,,,,,,,,,,,,,,,,322,2023-02-20_13h04.10.127,Main,2022.2.2,60.20118030430248,
neutral,negative,2,k,k,0,0,0,0,0,0,0,0,,,,,,,,,2,2,38,16,,,,,,,,,,,,,,,,,,,,,,,,,,,,,,,,,,,,,,,main,2,2,2,negative,neutral,225.52260179999985,225.52260179999985,225.52260179999985,225.52260179999985,226.51463149999972,226.5482033999997,k,k,1,0.8748008000002301,227.40488449999975,227.40488449999975,227.40488449999975,227.40488449999975,227.40488449999975,227.40488449999975,,,,,,,,,,,,,,,,,,,,,,,,,,,,,,,,,,,,,,,,,,,,,,,322,2023-02-20_13h04.10.127,Main,2022.2.2,60.20118030430248,
positive,negative,1,l,j,0,0,0,0,0,0,0,0,,,,,,,,,2,3,39,5,,,,,,,,,,,,,,,,,,,,,,,,,,,,,,,,,,,,,,,main,2,2,1,negative,positive,227.40488449999975,227.40488449999975,227.40488449999975,227.40488449999975,228.39722359999996,228.43410359999962,l,l,1,1.3685912999999346,229.7730902999997,229.7730902999997,229.7730902999997,229.7730902999997,229.7730902999997,229.7730902999997,,,,,,,,,,,,,,,,,,,,,,,,,,,,,,,,,,,,,,,,,,,,,,,322,2023-02-20_13h04.10.127,Main,2022.2.2,60.20118030430248,
positive,positive,1,l,j,0,0,0,0,0,0,0,0,,,,,,,,,2,4,40,2,,,,,,,,,,,,,,,,,,,,,,,,,,,,,,,,,,,,,,,main,2,2,1,positive,positive,229.7730902999997,229.7730902999997,229.7730902999997,229.7730902999997,230.7755874999998,230.81053219999967,l,l,1,0.910533199999918,231.68804669999963,231.68804669999963,231.68804669999963,231.68804669999963,231.68804669999963,231.68804669999963,,,,,,,,,,,,,,,,,,,,,,,,,,,,,,,,,,,,,,,,,,,,,,,322,2023-02-20_13h04.10.127,Main,2022.2.2,60.20118030430248,
negative,neutral,2,j,l,0,0,0,0,0,0,0,0,,,,,,,,,2,5,41,12,,,,,,,,,,,,,,,,,,,,,,,,,,,,,,,,,,,,,,,main,2,2,2,neutral,negative,231.68804669999963,231.68804669999963,231.68804669999963,231.68804669999963,232.66174789999968,232.73155169999973,j,j,1,0.8395496999996794,233.52827149999985,233.52827149999985,233.52827149999985,233.52827149999985,233.52827149999985,233.52827149999985,,,,,,,,,,,,,,,,,,,,,,,,,,,,,,,,,,,,,,,,,,,,,,,322,2023-02-20_13h04.10.127,Main,2022.2.2,60.20118030430248,
neutral,positive,2,k,k,0,0,0,0,0,0,0,0,,,,,,,,,2,6,42,13,,,,,,,,,,,,,,,,,,,,,,,,,,,,,,,,,,,,,,,main,2,2,2,positive,neutral,233.52827149999985,233.52827149999985,233.52827149999985,233.52827149999985,234.5307270999997,234.5722384999999,k,k,1,0.9471720999999889,235.47427040000002,235.47427040000002,235.47427040000002,235.47427040000002,235.47427040000002,235.47427040000002,,,,,,,,,,,,,,,,,,,,,,,,,,,,,,,,,,,,,,,,,,,,,,,322,2023-02-20_13h04.10.127,Main,2022.2.2,60.20118030430248,
neutral,positive,1,k,k,0,0,0,0,0,0,0,0,,,,,,,,,2,7,43,4,,,,,,,,,,,,,,,,,,,,,,,,,,,,,,,,,,,,,,,main,1,1,1,positive,neutral,235.47427040000002,235.47427040000002,235.47427040000002,235.47427040000002,236.4506065999999,236.51356199999964,k,k,1,0.7111306000001605,237.18950859999995,237.18950859999995,237.18950859999995,237.18950859999995,237.18950859999995,237.18950859999995,,,,,,,,,,,,,,,,,,,,,,,,,,,,,,,,,,,,,,,,,,,,,,,322,2023-02-20_13h04.10.127,Main,2022.2.2,60.20118030430248,
neutral,neutral,1,k,k,0,0,0,0,0,0,0,0,,,,,,,,,2,8,44,1,,,,,,,,,,,,,,,,,,,,,,,,,,,,,,,,,,,,,,,main,2,2,1,neutral,neutral,237.18950859999995,237.18950859999995,237.18950859999995,237.18950859999995,238.16598269999986,238.23131269999976,k,k,1,0.6548950000001241,238.8504155999999,238.8504155999999,238.8504155999999,238.8504155999999,238.8504155999999,238.8504155999999,,,,,,,,,,,,,,,,,,,,,,,,,,,,,,,,,,,,,,,,,,,,,,,322,2023-02-20_13h04.10.127,Main,2022.2.2,60.20118030430248,
negative,positive,2,j,l,0,0,0,0,0,0,0,0,,,,,,,,,2,9,45,15,,,,,,,,,,,,,,,,,,,,,,,,,,,,,,,,,,,,,,,main,1,1,2,positive,negative,238.8504155999999,238.8504155999999,238.8504155999999,238.8504155999999,239.82181139999966,239.88927399999966,j,j,1,0.8500400000002628,240.70929019999994,240.70929019999994,240.70929019999994,240.70929019999994,240.70929019999994,240.70929019999994,,,,,,,,,,,,,,,,,,,,,,,,,,,,,,,,,,,,,,,,,,,,,,,322,2023-02-20_13h04.10.127,Main,2022.2.2,60.20118030430248,
neutral,negative,1,k,k,0,0,0,0,0,0,0,0,,,,,,,,,2,10,46,7,,,,,,,,,,,,,,,,,,,,,,,,,,,,,,,,,,,,,,,main,2,2,1,negative,neutral,240.70929019999994,240.70929019999994,240.70929019999994,240.70929019999994,241.7013536999998,241.7346408999997,k,k,1,0.9458988000001227,242.65638549999994,242.65638549999994,242.65638549999994,242.65638549999994,242.65638549999994,242.65638549999994,,,,,,,,,,,,,,,,,,,,,,,,,,,,,,,,,,,,,,,,,,,,,,,322,2023-02-20_13h04.10.127,Main,2022.2.2,60.20118030430248,
negative,neutral,1,j,l,0,0,0,0,0,0,0,0,,,,,,,,,2,11,47,3,,,,,,,,,,,,,,,,,,,,,,,,,,,,,,,,,,,,,,,main,1,1,1,neutral,negative,242.65638549999994,242.65638549999994,242.65638549999994,242.65638549999994,243.6410532,243.6748719999996,j,j,1,0.8225723000000471,244.47984169999972,244.47984169999972,244.47984169999972,244.47984169999972,244.47984169999972,244.47984169999972,,,,,,,,,,,,,,,,,,,,,,,,,,,,,,,,,,,,,,,,,,,,,,,322,2023-02-20_13h04.10.127,Main,2022.2.2,60.20118030430248,
negative,negative,1,j,l,0,0,0,0,0,0,0,0,,,,,,,,,2,12,48,0,,,,,,,,,,,,,,,,,,,,,,,,,,,,,,,,,,,,,,,main,2,2,1,negative,negative,244.47984169999972,244.47984169999972,244.47984169999972,244.47984169999972,245.45680809999976,245.5198330999997,j,j,1,0.7566603999998733,246.24040819999982,246.24040819999982,246.24040819999982,246.24040819999982,246.24040819999982,246.24040819999982,,,,,,,,,,,,,,,,,,,,,,,,,,,,,,,,,,,,,,,,,,,,,,,322,2023-02-20_13h04.10.127,Main,2022.2.2,60.20118030430248,
positive,negative,2,l,j,0,0,0,0,0,0,0,0,,,,,,,,,2,13,49,14,,,,,,,,,,,,,,,,,,,,,,,,,,,,,,,,,,,,,,,main,2,2,2,negative,positive,246.24040819999982,246.24040819999982,246.24040819999982,246.24040819999982,247.24021249999987,247.2730142999999,l,l,1,0.9707081000001381,248.21362629999976,248.21362629999976,248.21362629999976,248.21362629999976,248.21362629999976,248.21362629999976,,,,,,,,,,,,,,,,,,,,,,,,,,,,,,,,,,,,,,,,,,,,,,,322,2023-02-20_13h04.10.127,Main,2022.2.2,60.20118030430248,
positive,neutral,1,l,j,0,0,0,0,0,0,0,0,,,,,,,,,2,14,50,8,,,,,,,,,,,,,,,,,,,,,,,,,,,,,,,,,,,,,,,main,2,2,1,neutral,positive,248.21362629999976,248.21362629999976,248.21362629999976,248.21362629999976,249.20588159999988,249.2381876999998,l,l,1,0.9557104999998955,250.1790219999998,250.1790219999998,250.1790219999998,250.1790219999998,250.1790219999998,250.1790219999998,,,,,,,,,,,,,,,,,,,,,,,,,,,,,,,,,,,,,,,,,,,,,,,322,2023-02-20_13h04.10.127,Main,2022.2.2,60.20118030430248,
neutral,neutral,2,k,k,0,0,0,0,0,0,0,0,,,,,,,,,2,15,51,10,,,,,,,,,,,,,,,,,,,,,,,,,,,,,,,,,,,,,,,main,1,1,2,neutral,neutral,250.1790219999998,250.1790219999998,250.1790219999998,250.1790219999998,251.16054349999968,251.2314105999999,k,k,1,0.7760253000001285,251.95721289999983,251.95721289999983,251.95721289999983,251.95721289999983,251.95721289999983,251.95721289999983,,,,,,,,,,,,,,,,,,,,,,,,,,,,,,,,,,,,,,,,,,,,,,,322,2023-02-20_13h04.10.127,Main,2022.2.2,60.20118030430248,
negative,negative,2,j,l,0,0,0,0,0,0,0,0,,,,,,,,,2,16,52,9,,,,,,,,,,,,,,,,,,,,,,,,,,,,,,,,,,,,,,,main,1,1,2,negative,negative,251.95721289999983,251.95721289999983,251.95721289999983,251.95721289999983,,,j,k,0,-0.7801807000000736,252.1716403999999,252.1716403999999,252.1716403999999,255.2079230999998,255.2079230999998,255.2079230999998,,,,,,,,,,,,,,,,,,,,,,,,,,,,,,,,,,,,,,,,,,,,,,,322,2023-02-20_13h04.10.127,Main,2022.2.2,60.20118030430248,
negative,positive,1,j,l,0,0,0,0,0,0,0,0,,,,,,,,,2,17,53,6,,,,,,,,,,,,,,,,,,,,,,,,,,,,,,,,,,,,,,,main,1,1,1,positive,negative,255.2079230999998,255.2079230999998,255.2079230999998,255.2079230999998,256.19106469999997,256.22299599999997,j,j,1,0.9209636000000501,257.13183649999974,257.13183649999974,257.13183649999974,257.13183649999974,257.13183649999974,257.13183649999974,,,,,,,,,,,,,,,,,,,,,,,,,,,,,,,,,,,,,,,,,,,,,,,322,2023-02-20_13h04.10.127,Main,2022.2.2,60.20118030430248,
negative,neutral,2,j,l,0,0,0,0,0,0,0,0,,,,,,,,,3,0,54,12,,,,,,,,,,,,,,,,,,,,,,,,,,,,,,,,,,,,,,,main,1,1,2,neutral,negative,257.13183649999974,257.13183649999974,257.13183649999974,257.13183649999974,258.1099454,258.18276879999985,j,j,1,1.572825499999908,259.68949599999996,259.68949599999996,259.68949599999996,260.7208863999999,260.7208863999999,260.7208863999999,,,,,,,,,,,,,,,,,,,,,,,,,,,,,,,,,,,,,,,,,,,,,,,322,2023-02-20_13h04.10.127,Main,2022.2.2,60.20118030430248,
neutral,neutral,2,k,k,0,0,0,0,0,0,0,0,,,,,,,,,3,1,55,10,,,,,,,,,,,,,,,,,,,,,,,,,,,,,,,,,,,,,,,main,2,2,2,neutral,neutral,260.7208863999999,260.7208863999999,260.7208863999999,260.7208863999999,261.7002580999997,261.77048639999975,k,k,1,0.7489795999999842,262.4758442999996,262.4758442999996,262.4758442999996,262.4758442999996,262.4758442999996,262.4758442999996,,,,,,,,,,,,,,,,,,,,,,,,,,,,,,,,,,,,,,,,,,,,,,,322,2023-02-20_13h04.10.127,Main,2022.2.2,60.20118030430248,
negative,positive,1,j,l,0,0,0,0,0,0,0,0,,,,,,,,,3,2,56,6,,,,,,,,,,,,,,,,,,,,,,,,,,,,,,,,,,,,,,,main,2,2,1,positive,negative,262.4758442999996,262.4758442999996,262.4758442999996,262.4758442999996,263.46558319999986,263.4983327,j,j,1,0.7951898999999685,264.2785194999997,264.2785194999997,264.2785194999997,264.2785194999997,264.2785194999997,264.2785194999997,,,,,,,,,,,,,,,,,,,,,,,,,,,,,,,,,,,,,,,,,,,,,,,322,2023-02-20_13h04.10.127,Main,2022.2.2,60.20118030430248,
neutral,negative,1,k,k,0,0,0,0,0,0,0,0,,,,,,,,,3,3,57,7,,,,,,,,,,,,,,,,,,,,,,,,,,,,,,,,,,,,,,,main,1,1,1,negative,neutral,264.2785194999997,264.2785194999997,264.2785194999997,264.2785194999997,265.2743599999999,265.30608699999993,k,k,1,0.9092736000002333,266.1835481999997,266.1835481999997,266.1835481999997,266.1835481999997,266.1835481999997,266.1835481999997,,,,,,,,,,,,,,,,,,,,,,,,,,,,,,,,,,,,,,,,,,,,,,,322,2023-02-20_13h04.10.127,Main,2022.2.2,60.20118030430248,
positive,positive,2,l,j,0,0,0,0,0,0,0,0,,,,,,,,,3,4,58,11,,,,,,,,,,,,,,,,,,,,,,,,,,,,,,,,,,,,,,,main,2,2,2,positive,positive,266.1835481999997,266.1835481999997,266.1835481999997,266.1835481999997,267.16140369999994,267.2310101999997,l,l,1,1.3450369000001956,268.5345115,268.5345115,268.5345115,268.5345115,268.5345115,268.5345115,,,,,,,,,,,,,,,,,,,,,,,,,,,,,,,,,,,,,,,,,,,,,,,322,2023-02-20_13h04.10.127,Main,2022.2.2,60.20118030430248,
negative,negative,1,j,l,0,0,0,0,0,0,0,0,,,,,,,,,3,5,59,0,,,,,,,,,,,,,,,,,,,,,,,,,,,,,,,,,,,,,,,main,2,2,1,negative,negative,268.5345115,268.5345115,268.5345115,268.5345115,269.50306409999985,269.56913369999984,j,j,1,0.79572300000018,270.33170889999974,270.33170889999974,270.33170889999974,270.33170889999974,270.33170889999974,270.33170889999974,,,,,,,,,,,,,,,,,,,,,,,,,,,,,,,,,,,,,,,,,,,,,,,322,2023-02-20_13h04.10.127,Main,2022.2.2,60.20118030430248,
positive,positive,1,l,j,0,0,0,0,0,0,0,0,,,,,,,,,3,6,60,2,,,,,,,,,,,,,,,,,,,,,,,,,,,,,,,,,,,,,,,main,2,2,1,positive,positive,270.33170889999974,270.33170889999974,270.33170889999974,270.33170889999974,271.30171249999967,271.3679112,l,l,1,0.8136687999999594,272.1525306999997,272.1525306999997,272.1525306999997,272.1525306999997,272.1525306999997,272.1525306999997,,,,,,,,,,,,,,,,,,,,,,,,,,,,,,,,,,,,,,,,,,,,,,,322,2023-02-20_13h04.10.127,Main,2022.2.2,60.20118030430248,
positive,neutral,2,l,j,0,0,0,0,0,0,0,0,,,,,,,,,3,7,61,17,,,,,,,,,,,,,,,,,,,,,,,,,,,,,,,,,,,,,,,main,2,2,2,neutral,positive,272.1525306999997,272.1525306999997,272.1525306999997,272.1525306999997,273.140355,273.1770717999998,l,l,1,1.1064289999999346,274.2580444,274.2580444,274.2580444,274.2580444,274.2580444,274.2580444,,,,,,,,,,,,,,,,,,,,,,,,,,,,,,,,,,,,,,,,,,,,,,,322,2023-02-20_13h04.10.127,Main,2022.2.2,60.20118030430248,
negative,neutral,1,j,l,0,0,0,0,0,0,0,0,,,,,,,,,3,8,62,3,,,,,,,,,,,,,,,,,,,,,,,,,,,,,,,,,,,,,,,main,2,2,1,neutral,negative,274.2580444,274.2580444,274.2580444,274.2580444,275.23651659999996,275.3036648999996,j,j,1,1.1572590000000673,276.42139829999996,276.42139829999996,276.42139829999996,276.42139829999996,276.42139829999996,276.42139829999996,,,,,,,,,,,,,,,,,,,,,,,,,,,,,,,,,,,,,,,,,,,,,,,322,2023-02-20_13h04.10.127,Main,2022.2.2,60.20118030430248,
positive,neutral,1,l,j,0,0,0,0,0,0,0,0,,,,,,,,,3,9,63,8,,,,,,,,,,,,,,,,,,,,,,,,,,,,,,,,,,,,,,,main,2,2,1,neutral,positive,276.42139829999996,276.42139829999996,276.42139829999996,276.42139829999996,277.39020549999987,277.4560527999997,l,l,1,0.9538754999998673,278.3768106999996,278.3768106999996,278.3768106999996,278.3768106999996,278.3768106999996,278.3768106999996,,,,,,,,,,,,,,,,,,,,,,,,,,,,,,,,,,,,,,,,,,,,,,,322,2023-02-20_13h04.10.127,Main,2022.2.2,60.20118030430248,
negative,negative,2,j,l,0,0,0,0,0,0,0,0,,,,,,,,,3,10,64,9,,,,,,,,,,,,,,,,,,,,,,,,,,,,,,,,,,,,,,,main,2,2,2,negative,negative,278.3768106999996,278.3768106999996,278.3768106999996,278.3768106999996,279.3576269,279.4238292,j,j,1,0.7580920999998852,280.13538489999974,280.13538489999974,280.13538489999974,280.13538489999974,280.13538489999974,280.13538489999974,,,,,,,,,,,,,,,,,,,,,,,,,,,,,,,,,,,,,,,,,,,,,,,322,2023-02-20_13h04.10.127,Main,2022.2.2,60.20118030430248,
neutral,neutral,1,k,k,0,0,0,0,0,0,0,0,,,,,,,,,3,11,65,1,,,,,,,,,,,,,,,,,,,,,,,,,,,,,,,,,,,,,,,main,1,1,1,neutral,neutral,280.13538489999974,280.13538489999974,280.13538489999974,280.13538489999974,281.1468854999998,281.1799453999997,k,k,1,0.8041309000000183,281.9476669999999,281.9476669999999,281.9476669999999,281.9476669999999,281.9476669999999,281.9476669999999,,,,,,,,,,,,,,,,,,,,,,,,,,,,,,,,,,,,,,,,,,,,,,,322,2023-02-20_13h04.10.127,Main,2022.2.2,60.20118030430248,
neutral,positive,2,k,k,0,0,0,0,0,0,0,0,,,,,,,,,3,12,66,13,,,,,,,,,,,,,,,,,,,,,,,,,,,,,,,,,,,,,,,main,1,1,2,positive,neutral,281.9476669999999,281.9476669999999,281.9476669999999,281.9476669999999,282.94778389999965,282.98060269999996,k,k,1,0.7480249999998705,283.6926263999999,283.6926263999999,283.6926263999999,283.6926263999999,283.6926263999999,283.6926263999999,,,,,,,,,,,,,,,,,,,,,,,,,,,,,,,,,,,,,,,,,,,,,,,322,2023-02-20_13h04.10.127,Main,2022.2.2,60.20118030430248,
neutral,positive,1,k,k,0,0,0,0,0,0,0,0,,,,,,,,,3,13,67,4,,,,,,,,,,,,,,,,,,,,,,,,,,,,,,,,,,,,,,,main,1,1,1,positive,neutral,283.6926263999999,283.6926263999999,283.6926263999999,283.6926263999999,284.6997483,284.73807669999997,k,k,1,0.6700200000000223,285.3716158999996,285.3716158999996,285.3716158999996,285.3716158999996,285.3716158999996,285.3716158999996,,,,,,,,,,,,,,,,,,,,,,,,,,,,,,,,,,,,,,,,,,,,,,,322,2023-02-20_13h04.10.127,Main,2022.2.2,60.20118030430248,
neutral,negative,2,k,k,0,0,0,0,0,0,0,0,,,,,,,,,3,14,68,16,,,,,,,,,,,,,,,,,,,,,,,,,,,,,,,,,,,,,,,main,1,1,2,negative,neutral,285.3716158999996,285.3716158999996,285.3716158999996,285.3716158999996,286.3410206999997,286.4095517999999,k,k,1,0.7076219000000492,287.0795816,287.0795816,287.0795816,287.0795816,287.0795816,287.0795816,,,,,,,,,,,,,,,,,,,,,,,,,,,,,,,,,,,,,,,,,,,,,,,322,2023-02-20_13h04.10.127,Main,2022.2.2,60.20118030430248,
negative,positive,2,j,l,0,0,0,0,0,0,0,0,,,,,,,,,3,15,69,15,,,,,,,,,,,,,,,,,,,,,,,,,,,,,,,,,,,,,,,main,2,2,2,positive,negative,287.0795816,287.0795816,287.0795816,287.0795816,288.0736376,288.1081801999999,j,k,0,0.8569788999998309,288.9152603999996,288.9152603999996,288.9152603999996,289.9422393,289.9422393,289.9422393,,,,,,,,,,,,,,,,,,,,,,,,,,,,,,,,,,,,,,,,,,,,,,,322,2023-02-20_13h04.10.127,Main,2022.2.2,60.20118030430248,
positive,negative,2,l,j,0,0,0,0,0,0,0,0,,,,,,,,,3,16,70,14,,,,,,,,,,,,,,,,,,,,,,,,,,,,,,,,,,,,,,,main,2,2,2,negative,positive,289.9422393,289.9422393,289.9422393,289.9422393,290.9419485999997,290.97653760000003,l,l,1,1.1332072000000153,292.0907997999998,292.0907997999998,292.0907997999998,292.0907997999998,292.0907997999998,292.0907997999998,,,,,,,,,,,,,,,,,,,,,,,,,,,,,,,,,,,,,,,,,,,,,,,322,2023-02-20_13h04.10.127,Main,2022.2.2,60.20118030430248,
positive,negative,1,l,j,0,0,0,0,0,0,0,0,,,,,,,,,3,17,71,5,,,,,,,,,,,,,,,,,,,,,,,,,,,,,,,,,,,,,,,main,1,1,1,negative,positive,292.0907997999998,292.0907997999998,292.0907997999998,292.0907997999998,293.0667773,293.1285617999997,l,l,1,0.8856636999998955,293.9749482999996,293.9749482999996,293.9749482999996,293.9749482999996,293.9749482999996,293.9749482999996,,,,,,,,,,,,,,,,,,,,,,,,,,,,,,,,,,,,,,,,,,,,,,,322,2023-02-20_13h04.10.127,Main,2022.2.2,60.20118030430248,
positive,positive,1,l,j,0,0,0,0,0,0,0,0,,,,,,,,,4,0,72,2,,,,,,,,,,,,,,,,,,,,,,,,,,,,,,,,,,,,,,,main,1,1,1,positive,positive,293.9749482999996,293.9749482999996,293.9749482999996,293.9749482999996,294.94489889999977,295.0092055,l,l,1,0.7074812999999267,295.68686679999973,295.68686679999973,295.68686679999973,295.68686679999973,295.68686679999973,295.68686679999973,,,,,,,,,,,,,,,,,,,,,,,,,,,,,,,,,,,,,,,,,,,,,,,322,2023-02-20_13h04.10.127,Main,2022.2.2,60.20118030430248,
negative,positive,2,j,l,0,0,0,0,0,0,0,0,,,,,,,,,4,1,73,15,,,,,,,,,,,,,,,,,,,,,,,,,,,,,,,,,,,,,,,main,2,2,2,positive,negative,295.68686679999973,295.68686679999973,295.68686679999973,295.68686679999973,296.67139099999986,296.70374539999966,j,j,1,0.8897710000001098,297.58451319999995,297.58451319999995,297.58451319999995,297.58451319999995,297.58451319999995,297.58451319999995,,,,,,,,,,,,,,,,,,,,,,,,,,,,,,,,,,,,,,,,,,,,,,,322,2023-02-20_13h04.10.127,Main,2022.2.2,60.20118030430248,
positive,neutral,1,l,j,0,0,0,0,0,0,0,0,,,,,,,,,4,2,74,8,,,,,,,,,,,,,,,,,,,,,,,,,,,,,,,,,,,,,,,main,2,2,1,neutral,positive,297.58451319999995,297.58451319999995,297.58451319999995,297.58451319999995,298.5548566999996,298.6186539999999,l,l,1,0.931918400000086,299.51547919999985,299.51547919999985,299.51547919999985,299.51547919999985,299.51547919999985,299.51547919999985,,,,,,,,,,,,,,,,,,,,,,,,,,,,,,,,,,,,,,,,,,,,,,,322,2023-02-20_13h04.10.127,Main,2022.2.2,60.20118030430248,
neutral,neutral,1,k,k,0,0,0,0,0,0,0,0,,,,,,,,,4,3,75,1,,,,,,,,,,,,,,,,,,,,,,,,,,,,,,,,,,,,,,,main,2,2,1,neutral,neutral,299.51547919999985,299.51547919999985,299.51547919999985,299.51547919999985,300.5227689999997,300.5571768,k,k,1,0.8861495000001014,301.4092390999999,301.4092390999999,301.4092390999999,301.4092390999999,301.4092390999999,301.4092390999999,,,,,,,,,,,,,,,,,,,,,,,,,,,,,,,,,,,,,,,,,,,,,,,322,2023-02-20_13h04.10.127,Main,2022.2.2,60.20118030430248,
neutral,positive,1,k,k,0,0,0,0,0,0,0,0,,,,,,,,,4,4,76,4,,,,,,,,,,,,,,,,,,,,,,,,,,,,,,,,,,,,,,,main,1,1,1,positive,neutral,301.4092390999999,301.4092390999999,301.4092390999999,301.4092390999999,302.3827741,302.4479570999997,k,k,1,1.0403673000000708,303.44960649999985,303.44960649999985,303.44960649999985,303.44960649999985,303.44960649999985,303.44960649999985,,,,,,,,,,,,,,,,,,,,,,,,,,,,,,,,,,,,,,,,,,,,,,,322,2023-02-20_13h04.10.127,Main,2022.2.2,60.20118030430248,
neutral,negative,1,k,k,0,0,0,0,0,0,0,0,,,,,,,,,4,5,77,7,,,,,,,,,,,,,,,,,,,,,,,,,,,,,,,,,,,,,,,main,2,2,1,negative,neutral,303.44960649999985,303.44960649999985,303.44960649999985,303.44960649999985,304.4289197999997,304.49617999999964,k,k,1,0.7860549000001811,305.24244629999976,305.24244629999976,305.24244629999976,305.24244629999976,305.24244629999976,305.24244629999976,,,,,,,,,,,,,,,,,,,,,,,,,,,,,,,,,,,,,,,,,,,,,,,322,2023-02-20_13h04.10.127,Main,2022.2.2,60.20118030430248,
positive,negative,1,l,j,0,0,0,0,0,0,0,0,,,,,,,,,4,6,78,5,,,,,,,,,,,,,,,,,,,,,,,,,,,,,,,,,,,,,,,main,2,2,1,negative,positive,305.24244629999976,305.24244629999976,305.24244629999976,305.24244629999976,306.23971189999975,306.2719887999997,l,l,1,0.7410405000000537,306.9866573999998,306.9866573999998,306.9866573999998,306.9866573999998,306.9866573999998,306.9866573999998,,,,,,,,,,,,,,,,,,,,,,,,,,,,,,,,,,,,,,,,,,,,,,,322,2023-02-20_13h04.10.127,Main,2022.2.2,60.20118030430248,
positive,negative,2,l,j,0,0,0,0,0,0,0,0,,,,,,,,,4,7,79,14,,,,,,,,,,,,,,,,,,,,,,,,,,,,,,,,,,,,,,,main,1,1,2,negative,positive,306.9866573999998,306.9866573999998,306.9866573999998,306.9866573999998,307.9714933,308.0024427999997,l,l,1,0.7405853999998726,308.7307367999997,308.7307367999997,308.7307367999997,308.7307367999997,308.7307367999997,308.7307367999997,,,,,,,,,,,,,,,,,,,,,,,,,,,,,,,,,,,,,,,,,,,,,,,322,2023-02-20_13h04.10.127,Main,2022.2.2,60.20118030430248,
negative,positive,1,j,l,0,0,0,0,0,0,0,0,,,,,,,,,4,8,80,6,,,,,,,,,,,,,,,,,,,,,,,,,,,,,,,,,,,,,,,main,1,1,1,positive,negative,308.7307367999997,308.7307367999997,308.7307367999997,308.7307367999997,309.6978944999996,309.77048109999987,j,j,1,0.7139913999999408,310.44291169999997,310.44291169999997,310.44291169999997,310.44291169999997,310.44291169999997,310.44291169999997,,,,,,,,,,,,,,,,,,,,,,,,,,,,,,,,,,,,,,,,,,,,,,,322,2023-02-20_13h04.10.127,Main,2022.2.2,60.20118030430248,
negative,neutral,2,j,l,0,0,0,0,0,0,0,0,,,,,,,,,4,9,81,12,,,,,,,,,,,,,,,,,,,,,,,,,,,,,,,,,,,,,,,main,2,2,2,neutral,negative,310.44291169999997,310.44291169999997,310.44291169999997,310.44291169999997,311.4534940999997,311.48733619999985,j,j,1,1.00203829999964,312.4514820999998,312.4514820999998,312.4514820999998,312.4514820999998,312.4514820999998,312.4514820999998,,,,,,,,,,,,,,,,,,,,,,,,,,,,,,,,,,,,,,,,,,,,,,,322,2023-02-20_13h04.10.127,Main,2022.2.2,60.20118030430248,
positive,positive,2,l,j,0,0,0,0,0,0,0,0,,,,,,,,,4,10,82,11,,,,,,,,,,,,,,,,,,,,,,,,,,,,,,,,,,,,,,,main,1,1,2,positive,positive,312.4514820999998,312.4514820999998,312.4514820999998,312.4514820999998,313.4394987999999,313.47606019999967,l,l,1,1.2424541000000318,314.70212409999976,314.70212409999976,314.70212409999976,314.70212409999976,314.70212409999976,314.70212409999976,,,,,,,,,,,,,,,,,,,,,,,,,,,,,,,,,,,,,,,,,,,,,,,322,2023-02-20_13h04.10.127,Main,2022.2.2,60.20118030430248,
positive,neutral,2,l,j,0,0,0,0,0,0,0,0,,,,,,,,,4,11,83,17,,,,,,,,,,,,,,,,,,,,,,,,,,,,,,,,,,,,,,,main,2,2,2,neutral,positive,314.70212409999976,314.70212409999976,314.70212409999976,314.70212409999976,315.67276730000003,315.7467769,l,l,1,0.8585836000002018,316.56165409999994,316.56165409999994,316.56165409999994,316.56165409999994,316.56165409999994,316.56165409999994,,,,,,,,,,,,,,,,,,,,,,,,,,,,,,,,,,,,,,,,,,,,,,,322,2023-02-20_13h04.10.127,Main,2022.2.2,60.20118030430248,
neutral,neutral,2,k,k,0,0,0,0,0,0,0,0,,,,,,,,,4,12,84,10,,,,,,,,,,,,,,,,,,,,,,,,,,,,,,,,,,,,,,,main,1,1,2,neutral,neutral,316.56165409999994,316.56165409999994,316.56165409999994,316.56165409999994,317.5717219999997,317.6094963999999,k,k,1,0.8417457000000468,318.41560379999964,318.41560379999964,318.41560379999964,318.41560379999964,318.41560379999964,318.41560379999964,,,,,,,,,,,,,,,,,,,,,,,,,,,,,,,,,,,,,,,,,,,,,,,322,2023-02-20_13h04.10.127,Main,2022.2.2,60.20118030430248,
negative,neutral,1,j,l,0,0,0,0,0,0,0,0,,,,,,,,,4,13,85,3,,,,,,,,,,,,,,,,,,,,,,,,,,,,,,,,,,,,,,,main,2,2,1,neutral,negative,318.41560379999964,318.41560379999964,318.41560379999964,318.41560379999964,319.3867401999996,319.4512479,j,j,1,0.8737644000002547,320.28799279999976,320.28799279999976,320.28799279999976,320.28799279999976,320.28799279999976,320.28799279999976,,,,,,,,,,,,,,,,,,,,,,,,,,,,,,,,,,,,,,,,,,,,,,,322,2023-02-20_13h04.10.127,Main,2022.2.2,60.20118030430248,
negative,negative,2,j,l,0,0,0,0,0,0,0,0,,,,,,,,,4,14,86,9,,,,,,,,,,,,,,,,,,,,,,,,,,,,,,,,,,,,,,,main,2,2,2,negative,negative,320.28799279999976,320.28799279999976,320.28799279999976,320.28799279999976,321.2586630999999,321.3367186999999,j,j,1,0.8986864999997124,322.1884863,322.1884863,322.1884863,322.1884863,322.1884863,322.1884863,,,,,,,,,,,,,,,,,,,,,,,,,,,,,,,,,,,,,,,,,,,,,,,322,2023-02-20_13h04.10.127,Main,2022.2.2,60.20118030430248,
negative,negative,1,j,l,0,0,0,0,0,0,0,0,,,,,,,,,4,15,87,0,,,,,,,,,,,,,,,,,,,,,,,,,,,,,,,,,,,,,,,main,1,1,1,negative,negative,322.1884863,322.1884863,322.1884863,322.1884863,323.1898105999999,323.2230193999999,j,j,1,0.7937974999999824,323.9868790999999,323.9868790999999,323.9868790999999,323.9868790999999,323.9868790999999,323.9868790999999,,,,,,,,,,,,,,,,,,,,,,,,,,,,,,,,,,,,,,,,,,,,,,,322,2023-02-20_13h04.10.127,Main,2022.2.2,60.20118030430248,
neutral,negative,2,k,k,0,0,0,0,0,0,0,0,,,,,,,,,4,16,88,16,,,,,,,,,,,,,,,,,,,,,,,,,,,,,,,,,,,,,,,main,2,2,2,negative,neutral,323.9868790999999,323.9868790999999,323.9868790999999,323.9868790999999,324.9890501,325.0226547999996,k,k,1,1.0095415999999204,326.00154999999995,326.00154999999995,326.00154999999995,326.00154999999995,326.00154999999995,326.00154999999995,,,,,,,,,,,,,,,,,,,,,,,,,,,,,,,,,,,,,,,,,,,,,,,322,2023-02-20_13h04.10.127,Main,2022.2.2,60.20118030430248,
neutral,positive,2,k,k,0,0,0,0,0,0,0,0,,,,,,,,,4,17,89,13,,,,,,,,,,,,,,,,,,,,,,,,,,,,,,,,,,,,,,,main,1,1,2,positive,neutral,326.00154999999995,326.00154999999995,326.00154999999995,326.00154999999995,327.00285889999986,327.03420689999984,k,k,1,0.8509518999999273,327.8583378999997,327.8583378999997,327.8583378999997,327.8583378999997,327.8583378999997,327.8583378999997,,,,,,,,,,,,,,,,,,,,,,,,,,,,,,,,,,,,,,,,,,,,,,,322,2023-02-20_13h04.10.127,Main,2022.2.2,60.20118030430248,
neutral,positive,1,k,k,0,0,0,0,0,0,0,0,,,,,,,,,5,0,90,4,,,,,,,,,,,,,,,,,,,,,,,,,,,,,,,,,,,,,,,main,2,2,1,positive,neutral,327.8583378999997,327.8583378999997,327.8583378999997,327.8583378999997,328.85876069999995,328.8954225999996,k,k,1,0.7653646000003391,329.6311010999998,329.6311010999998,329.6311010999998,329.6311010999998,329.6311010999998,329.6311010999998,,,,,,,,,,,,,,,,,,,,,,,,,,,,,,,,,,,,,,,,,,,,,,,322,2023-02-20_13h04.10.127,Main,2022.2.2,60.20118030430248,
neutral,neutral,2,k,k,0,0,0,0,0,0,0,0,,,,,,,,,5,1,91,10,,,,,,,,,,,,,,,,,,,,,,,,,,,,,,,,,,,,,,,main,1,1,2,neutral,neutral,329.6311010999998,329.6311010999998,329.6311010999998,329.6311010999998,330.61872349999976,330.65072919999966,k,k,1,0.762240699999893,331.3890287999998,331.3890287999998,331.3890287999998,331.3890287999998,331.3890287999998,331.3890287999998,,,,,,,,,,,,,,,,,,,,,,,,,,,,,,,,,,,,,,,,,,,,,,,322,2023-02-20_13h04.10.127,Main,2022.2.2,60.20118030430248,
positive,neutral,2,l,j,0,0,0,0,0,0,0,0,,,,,,,,,5,2,92,17,,,,,,,,,,,,,,,,,,,,,,,,,,,,,,,,,,,,,,,main,1,1,2,neutral,positive,331.3890287999998,331.3890287999998,331.3890287999998,331.3890287999998,332.36804949999987,332.4357329999998,l,l,1,0.9539992999998503,333.34611529999984,333.34611529999984,333.34611529999984,333.34611529999984,333.34611529999984,333.34611529999984,,,,,,,,,,,,,,,,,,,,,,,,,,,,,,,,,,,,,,,,,,,,,,,322,2023-02-20_13h04.10.127,Main,2022.2.2,60.20118030430248,
negative,neutral,2,j,l,0,0,0,0,0,0,0,0,,,,,,,,,5,3,93,12,,,,,,,,,,,,,,,,,,,,,,,,,,,,,,,,,,,,,,,main,2,2,2,neutral,negative,333.34611529999984,333.34611529999984,333.34611529999984,333.34611529999984,334.3291648999998,334.3628056999996,j,j,1,0.7901331000002756,335.1417965999999,335.1417965999999,335.1417965999999,335.1417965999999,335.1417965999999,335.1417965999999,,,,,,,,,,,,,,,,,,,,,,,,,,,,,,,,,,,,,,,,,,,,,,,322,2023-02-20_13h04.10.127,Main,2022.2.2,60.20118030430248,
negative,negative,2,j,l,0,0,0,0,0,0,0,0,,,,,,,,,5,4,94,9,,,,,,,,,,,,,,,,,,,,,,,,,,,,,,,,,,,,,,,main,2,2,2,negative,negative,335.1417965999999,335.1417965999999,335.1417965999999,335.1417965999999,336.12465099999963,336.1673050999998,j,j,1,0.6921558999997615,336.83504079999966,336.83504079999966,336.83504079999966,336.83504079999966,336.83504079999966,336.83504079999966,,,,,,,,,,,,,,,,,,,,,,,,,,,,,,,,,,,,,,,,,,,,,,,322,2023-02-20_13h04.10.127,Main,2022.2.2,60.20118030430248,
neutral,neutral,1,k,k,0,0,0,0,0,0,0,0,,,,,,,,,5,5,95,1,,,,,,,,,,,,,,,,,,,,,,,,,,,,,,,,,,,,,,,main,2,2,1,neutral,neutral,336.83504079999966,336.83504079999966,336.83504079999966,336.83504079999966,337.8359406999998,337.86767729999974,k,k,1,0.775423900000078,338.61590449999994,338.61590449999994,338.61590449999994,338.61590449999994,338.61590449999994,338.61590449999994,,,,,,,,,,,,,,,,,,,,,,,,,,,,,,,,,,,,,,,,,,,,,,,322,2023-02-20_13h04.10.127,Main,2022.2.2,60.20118030430248,
neutral,positive,2,k,k,0,0,0,0,0,0,0,0,,,,,,,,,5,6,96,13,,,,,,,,,,,,,,,,,,,,,,,,,,,,,,,,,,,,,,,main,1,1,2,positive,neutral,338.61590449999994,338.61590449999994,338.61590449999994,338.61590449999994,339.5883893,339.65409839999984,k,k,1,0.7309667999998055,340.3471427999998,340.3471427999998,340.3471427999998,340.3471427999998,340.3471427999998,340.3471427999998,,,,,,,,,,,,,,,,,,,,,,,,,,,,,,,,,,,,,,,,,,,,,,,322,2023-02-20_13h04.10.127,Main,2022.2.2,60.20118030430248,
neutral,negative,1,k,k,0,0,0,0,0,0,0,0,,,,,,,,,5,7,97,7,,,,,,,,,,,,,,,,,,,,,,,,,,,,,,,,,,,,,,,main,1,1,1,negative,neutral,340.3471427999998,340.3471427999998,340.3471427999998,340.3471427999998,341.34895929999993,341.3818283999999,k,k,1,0.6342987000002722,341.98567319999984,341.98567319999984,341.98567319999984,341.98567319999984,341.98567319999984,341.98567319999984,,,,,,,,,,,,,,,,,,,,,,,,,,,,,,,,,,,,,,,,,,,,,,,322,2023-02-20_13h04.10.127,Main,2022.2.2,60.20118030430248,
neutral,negative,2,k,k,0,0,0,0,0,0,0,0,,,,,,,,,5,8,98,16,,,,,,,,,,,,,,,,,,,,,,,,,,,,,,,,,,,,,,,main,1,1,2,negative,neutral,341.98567319999984,341.98567319999984,341.98567319999984,341.98567319999984,342.97223540000005,343.0060632999998,k,k,1,0.7286033999998835,343.71423289999984,343.71423289999984,343.71423289999984,343.71423289999984,343.71423289999984,343.71423289999984,,,,,,,,,,,,,,,,,,,,,,,,,,,,,,,,,,,,,,,,,,,,,,,322,2023-02-20_13h04.10.127,Main,2022.2.2,60.20118030430248,
negative,negative,1,j,l,0,0,0,0,0,0,0,0,,,,,,,,,5,9,99,0,,,,,,,,,,,,,,,,,,,,,,,,,,,,,,,,,,,,,,,main,1,1,1,negative,negative,343.71423289999984,343.71423289999984,343.71423289999984,343.71423289999984,344.70827899999995,344.74298439999984,j,j,1,1.10663169999998,345.8268473999997,345.8268473999997,345.8268473999997,345.8268473999997,345.8268473999997,345.8268473999997,,,,,,,,,,,,,,,,,,,,,,,,,,,,,,,,,,,,,,,,,,,,,,,322,2023-02-20_13h04.10.127,Main,2022.2.2,60.20118030430248,
positive,positive,2,l,j,0,0,0,0,0,0,0,0,,,,,,,,,5,10,100,11,,,,,,,,,,,,,,,,,,,,,,,,,,,,,,,,,,,,,,,main,2,2,2,positive,positive,345.8268473999997,345.8268473999997,345.8268473999997,345.8268473999997,346.8032583999998,346.87089509999987,l,j,0,0.9961911000000327,347.79975399999967,347.79975399999967,347.79975399999967,348.8356911999999,348.8356911999999,348.8356911999999,,,,,,,,,,,,,,,,,,,,,,,,,,,,,,,,,,,,,,,,,,,,,,,322,2023-02-20_13h04.10.127,Main,2022.2.2,60.20118030430248,
positive,positive,1,l,j,0,0,0,0,0,0,0,0,,,,,,,,,5,11,101,2,,,,,,,,,,,,,,,,,,,,,,,,,,,,,,,,,,,,,,,main,1,1,1,positive,positive,348.8356911999999,348.8356911999999,348.8356911999999,348.8356911999999,349.81663409999965,349.8924715999997,l,l,1,1.193060599999626,351.03790739999977,351.03790739999977,351.03790739999977,351.03790739999977,351.03790739999977,351.03790739999977,,,,,,,,,,,,,,,,,,,,,,,,,,,,,,,,,,,,,,,,,,,,,,,322,2023-02-20_13h04.10.127,Main,2022.2.2,60.20118030430248,
negative,neutral,1,j,l,0,0,0,0,0,0,0,0,,,,,,,,,5,12,102,3,,,,,,,,,,,,,,,,,,,,,,,,,,,,,,,,,,,,,,,main,1,1,1,neutral,negative,351.03790739999977,351.03790739999977,351.03790739999977,351.03790739999977,352.0055250999999,352.07186729999967,j,j,1,1.1156222999998135,353.1557392999998,353.1557392999998,353.1557392999998,353.1557392999998,353.1557392999998,353.1557392999998,,,,,,,,,,,,,,,,,,,,,,,,,,,,,,,,,,,,,,,,,,,,,,,322,2023-02-20_13h04.10.127,Main,2022.2.2,60.20118030430248,
positive,negative,1,l,j,0,0,0,0,0,0,0,0,,,,,,,,,5,13,103,5,,,,,,,,,,,,,,,,,,,,,,,,,,,,,,,,,,,,,,,main,2,2,1,negative,positive,353.1557392999998,353.1557392999998,353.1557392999998,353.1557392999998,354.1460634,354.1853117999999,l,l,1,1.3260837000002539,355.4892341,355.4892341,355.4892341,355.4892341,355.4892341,355.4892341,,,,,,,,,,,,,,,,,,,,,,,,,,,,,,,,,,,,,,,,,,,,,,,322,2023-02-20_13h04.10.127,Main,2022.2.2,60.20118030430248,
negative,positive,2,j,l,0,0,0,0,0,0,0,0,,,,,,,,,5,14,104,15,,,,,,,,,,,,,,,,,,,,,,,,,,,,,,,,,,,,,,,main,2,2,2,positive,negative,355.4892341,355.4892341,355.4892341,355.4892341,356.4875788999998,356.5253352,j,j,1,0.9570036000000073,357.4461758999996,357.4461758999996,357.4461758999996,357.4461758999996,357.4461758999996,357.4461758999996,,,,,,,,,,,,,,,,,,,,,,,,,,,,,,,,,,,,,,,,,,,,,,,322,2023-02-20_13h04.10.127,Main,2022.2.2,60.20118030430248,
positive,neutral,1,l,j,0,0,0,0,0,0,0,0,,,,,,,,,5,15,105,8,,,,,,,,,,,,,,,,,,,,,,,,,,,,,,,,,,,,,,,main,2,2,1,neutral,positive,357.4461758999996,357.4461758999996,357.4461758999996,357.4461758999996,358.4500929999999,358.4839112999998,l,l,1,1.4945812999999362,359.9466266999998,359.9466266999998,359.9466266999998,359.9466266999998,359.9466266999998,359.9466266999998,,,,,,,,,,,,,,,,,,,,,,,,,,,,,,,,,,,,,,,,,,,,,,,322,2023-02-20_13h04.10.127,Main,2022.2.2,60.20118030430248,
positive,negative,2,l,j,0,0,0,0,0,0,0,0,,,,,,,,,5,16,106,14,,,,,,,,,,,,,,,,,,,,,,,,,,,,,,,,,,,,,,,main,1,1,2,negative,positive,359.9466266999998,359.9466266999998,359.9466266999998,359.9466266999998,360.93248919999996,360.96553079999967,l,l,1,0.8854565999999977,361.84025329999986,361.84025329999986,361.84025329999986,361.84025329999986,361.84025329999986,361.84025329999986,,,,,,,,,,,,,,,,,,,,,,,,,,,,,,,,,,,,,,,,,,,,,,,322,2023-02-20_13h04.10.127,Main,2022.2.2,60.20118030430248,
negative,positive,1,j,l,0,0,0,0,0,0,0,0,,,,,,,,,5,17,107,6,,,,,,,,,,,,,,,,,,,,,,,,,,,,,,,,,,,,,,,main,1,1,1,positive,negative,361.84025329999986,361.84025329999986,361.84025329999986,361.84025329999986,362.8083392999997,362.8809541999999,j,j,1,1.4937165999999706,364.33199590000004,364.33199590000004,364.33199590000004,364.33199590000004,364.33199590000004,364.33199590000004,,,,,,,,,,,,,,,,,,,,,,,,,,,,,,,,,,,,,,,,,,,,,,,322,2023-02-20_13h04.10.127,Main,2022.2.2,60.20118030430248,
negative,neutral,2,j,l,0,0,0,0,0,0,0,0,,,,,,,,,6,0,108,12,,,,,,,,,,,,,,,,,,,,,,,,,,,,,,,,,,,,,,,main,1,1,2,neutral,negative,364.33199590000004,364.33199590000004,364.33199590000004,364.33199590000004,365.3155012999996,365.34790239999984,j,j,1,0.9925462999999581,366.32434749999993,366.32434749999993,366.32434749999993,366.32434749999993,366.32434749999993,366.32434749999993,,,,,,,,,,,,,,,,,,,,,,,,,,,,,,,,,,,,,,,,,,,,,,,322,2023-02-20_13h04.10.127,Main,2022.2.2,60.20118030430248,
negative,positive,1,j,l,0,0,0,0,0,0,0,0,,,,,,,,,6,1,109,6,,,,,,,,,,,,,,,,,,,,,,,,,,,,,,,,,,,,,,,main,2,2,1,positive,negative,366.32434749999993,366.32434749999993,366.32434749999993,366.32434749999993,367.33325289999993,367.36946979999993,j,j,1,1.0762407999995958,368.4049437999997,368.4049437999997,368.4049437999997,368.4049437999997,368.4049437999997,368.4049437999997,,,,,,,,,,,,,,,,,,,,,,,,,,,,,,,,,,,,,,,,,,,,,,,322,2023-02-20_13h04.10.127,Main,2022.2.2,60.20118030430248,
negative,negative,1,j,l,0,0,0,0,0,0,0,0,,,,,,,,,6,2,110,0,,,,,,,,,,,,,,,,,,,,,,,,,,,,,,,,,,,,,,,main,2,2,1,negative,negative,368.4049437999997,368.4049437999997,368.4049437999997,368.4049437999997,369.3997032999996,369.43449429999964,j,j,1,0.7021655999997165,370.10829779999995,370.10829779999995,370.10829779999995,370.10829779999995,370.10829779999995,370.10829779999995,,,,,,,,,,,,,,,,,,,,,,,,,,,,,,,,,,,,,,,,,,,,,,,322,2023-02-20_13h04.10.127,Main,2022.2.2,60.20118030430248,
neutral,negative,1,k,k,0,0,0,0,0,0,0,0,,,,,,,,,6,3,111,7,,,,,,,,,,,,,,,,,,,,,,,,,,,,,,,,,,,,,,,main,1,1,1,negative,neutral,370.10829779999995,370.10829779999995,370.10829779999995,370.10829779999995,371.08296569999993,371.1491960999997,k,k,1,0.8438473000001068,371.9559786,371.9559786,371.9559786,371.9559786,371.9559786,371.9559786,,,,,,,,,,,,,,,,,,,,,,,,,,,,,,,,,,,,,,,,,,,,,,,322,2023-02-20_13h04.10.127,Main,2022.2.2,60.20118030430248,
positive,positive,2,l,j,0,0,0,0,0,0,0,0,,,,,,,,,6,4,112,11,,,,,,,,,,,,,,,,,,,,,,,,,,,,,,,,,,,,,,,main,1,1,2,positive,positive,371.9559786,371.9559786,371.9559786,371.9559786,372.9469661999997,372.9936249999996,l,l,1,0.6746414999997796,373.63277849999986,373.63277849999986,373.63277849999986,373.63277849999986,373.63277849999986,373.63277849999986,,,,,,,,,,,,,,,,,,,,,,,,,,,,,,,,,,,,,,,,,,,,,,,322,2023-02-20_13h04.10.127,Main,2022.2.2,60.20118030430248,
negative,negative,2,j,l,0,0,0,0,0,0,0,0,,,,,,,,,6,5,113,9,,,,,,,,,,,,,,,,,,,,,,,,,,,,,,,,,,,,,,,main,2,2,2,negative,negative,373.63277849999986,373.63277849999986,373.63277849999986,373.63277849999986,374.6065980999997,374.6710307999997,j,j,1,1.0413800999999694,375.6801518999996,375.6801518999996,375.6801518999996,375.6801518999996,375.6801518999996,375.6801518999996,,,,,,,,,,,,,,,,,,,,,,,,,,,,,,,,,,,,,,,,,,,,,,,322,2023-02-20_13h04.10.127,Main,2022.2.2,60.20118030430248,
neutral,neutral,1,k,k,0,0,0,0,0,0,0,0,,,,,,,,,6,6,114,1,,,,,,,,,,,,,,,,,,,,,,,,,,,,,,,,,,,,,,,main,2,2,1,neutral,neutral,375.6801518999996,375.6801518999996,375.6801518999996,375.6801518999996,376.64985709999974,376.7217985999996,k,k,1,1.6491203999999016,378.3111753999997,378.3111753999997,378.3111753999997,379.36843279999994,379.36843279999994,379.36843279999994,,,,,,,,,,,,,,,,,,,,,,,,,,,,,,,,,,,,,,,,,,,,,,,322,2023-02-20_13h04.10.127,Main,2022.2.2,60.20118030430248,
neutral,neutral,2,k,k,0,0,0,0,0,0,0,0,,,,,,,,,6,7,115,10,,,,,,,,,,,,,,,,,,,,,,,,,,,,,,,,,,,,,,,main,1,1,2,neutral,neutral,379.36843279999994,379.36843279999994,379.36843279999994,379.36843279999994,380.34882319999997,380.41180459999987,k,k,1,0.8955071000000316,381.26210139999966,381.26210139999966,381.26210139999966,381.26210139999966,381.26210139999966,381.26210139999966,,,,,,,,,,,,,,,,,,,,,,,,,,,,,,,,,,,,,,,,,,,,,,,322,2023-02-20_13h04.10.127,Main,2022.2.2,60.20118030430248,
negative,neutral,1,j,l,0,0,0,0,0,0,0,0,,,,,,,,,6,8,116,3,,,,,,,,,,,,,,,,,,,,,,,,,,,,,,,,,,,,,,,main,2,2,1,neutral,negative,381.26210139999966,381.26210139999966,381.26210139999966,381.26210139999966,382.2523299999998,382.28808349999963,j,j,1,1.0123920999999427,383.2813954999997,383.2813954999997,383.2813954999997,383.2813954999997,383.2813954999997,383.2813954999997,,,,,,,,,,,,,,,,,,,,,,,,,,,,,,,,,,,,,,,,,,,,,,,322,2023-02-20_13h04.10.127,Main,2022.2.2,60.20118030430248,
neutral,positive,1,k,k,0,0,0,0,0,0,0,0,,,,,,,,,6,9,117,4,,,,,,,,,,,,,,,,,,,,,,,,,,,,,,,,,,,,,,,main,1,1,1,positive,neutral,383.2813954999997,383.2813954999997,383.2813954999997,383.2813954999997,384.24788969999963,384.3139139,k,k,1,0.764469199999894,385.0429089999998,385.0429089999998,385.0429089999998,385.0429089999998,385.0429089999998,385.0429089999998,,,,,,,,,,,,,,,,,,,,,,,,,,,,,,,,,,,,,,,,,,,,,,,322,2023-02-20_13h04.10.127,Main,2022.2.2,60.20118030430248,
positive,negative,2,l,j,0,0,0,0,0,0,0,0,,,,,,,,,6,10,118,14,,,,,,,,,,,,,,,,,,,,,,,,,,,,,,,,,,,,,,,main,1,1,2,negative,positive,385.0429089999998,385.0429089999998,385.0429089999998,385.0429089999998,386.0172926,386.0824874,l,l,1,0.8940099000001283,386.9393879999998,386.9393879999998,386.9393879999998,386.9393879999998,386.9393879999998,386.9393879999998,,,,,,,,,,,,,,,,,,,,,,,,,,,,,,,,,,,,,,,,,,,,,,,322,2023-02-20_13h04.10.127,Main,2022.2.2,60.20118030430248,
positive,positive,1,l,j,0,0,0,0,0,0,0,0,,,,,,,,,6,11,119,2,,,,,,,,,,,,,,,,,,,,,,,,,,,,,,,,,,,,,,,main,2,2,1,positive,positive,386.9393879999998,386.9393879999998,386.9393879999998,386.9393879999998,387.9121768,387.98188630000004,l,j,0,0.9931013999998868,388.9096848999998,388.9096848999998,388.9096848999998,389.93878529999984,389.93878529999984,389.93878529999984,,,,,,,,,,,,,,,,,,,,,,,,,,,,,,,,,,,,,,,,,,,,,,,322,2023-02-20_13h04.10.127,Main,2022.2.2,60.20118030430248,
positive,negative,1,l,j,0,0,0,0,0,0,0,0,,,,,,,,,6,12,120,5,,,,,,,,,,,,,,,,,,,,,,,,,,,,,,,,,,,,,,,main,1,1,1,negative,positive,389.93878529999984,389.93878529999984,389.93878529999984,389.93878529999984,390.9352087999996,390.96752049999986,l,j,0,1.3338123999997151,392.25442729999986,392.25442729999986,392.25442729999986,393.30165899999974,393.30165899999974,393.30165899999974,,,,,,,,,,,,,,,,,,,,,,,,,,,,,,,,,,,,,,,,,,,,,,,322,2023-02-20_13h04.10.127,Main,2022.2.2,60.20118030430248,
neutral,positive,2,k,k,0,0,0,0,0,0,0,0,,,,,,,,,6,13,121,13,,,,,,,,,,,,,,,,,,,,,,,,,,,,,,,,,,,,,,,main,1,1,2,positive,neutral,393.30165899999974,393.30165899999974,393.30165899999974,393.30165899999974,394.2810095,394.34518039999966,k,k,1,0.9425929999997607,395.2528904999999,395.2528904999999,395.2528904999999,395.2528904999999,395.2528904999999,395.2528904999999,,,,,,,,,,,,,,,,,,,,,,,,,,,,,,,,,,,,,,,,,,,,,,,322,2023-02-20_13h04.10.127,Main,2022.2.2,60.20118030430248,
negative,positive,2,j,l,0,0,0,0,0,0,0,0,,,,,,,,,6,14,122,15,,,,,,,,,,,,,,,,,,,,,,,,,,,,,,,,,,,,,,,main,2,2,2,positive,negative,395.2528904999999,395.2528904999999,395.2528904999999,395.2528904999999,396.2421698999997,396.2765537,j,j,1,0.9329938000000766,397.1972707,397.1972707,397.1972707,397.1972707,397.1972707,397.1972707,,,,,,,,,,,,,,,,,,,,,,,,,,,,,,,,,,,,,,,,,,,,,,,322,2023-02-20_13h04.10.127,Main,2022.2.2,60.20118030430248,
positive,neutral,2,l,j,0,0,0,0,0,0,0,0,,,,,,,,,6,15,123,17,,,,,,,,,,,,,,,,,,,,,,,,,,,,,,,,,,,,,,,main,2,2,2,neutral,positive,397.1972707,397.1972707,397.1972707,397.1972707,398.19112909999967,398.2237743999999,l,l,1,1.492153899999721,399.68514430000005,399.68514430000005,399.68514430000005,399.68514430000005,399.68514430000005,399.68514430000005,,,,,,,,,,,,,,,,,,,,,,,,,,,,,,,,,,,,,,,,,,,,,,,322,2023-02-20_13h04.10.127,Main,2022.2.2,60.20118030430248,
positive,neutral,1,l,j,0,0,0,0,0,0,0,0,,,,,,,,,6,16,124,8,,,,,,,,,,,,,,,,,,,,,,,,,,,,,,,,,,,,,,,main,2,2,1,neutral,positive,399.68514430000005,399.68514430000005,399.68514430000005,399.68514430000005,400.6561511,400.7225089999997,l,l,1,1.3493032000001222,402.0416710999998,402.0416710999998,402.0416710999998,402.0416710999998,402.0416710999998,402.0416710999998,,,,,,,,,,,,,,,,,,,,,,,,,,,,,,,,,,,,,,,,,,,,,,,322,2023-02-20_13h04.10.127,Main,2022.2.2,60.20118030430248,
neutral,negative,2,k,k,0,0,0,0,0,0,0,0,,,,,,,,,6,17,125,16,,,,,,,,,,,,,,,,,,,,,,,,,,,,,,,,,,,,,,,main,2,2,2,negative,neutral,402.0416710999998,402.0416710999998,402.0416710999998,402.0416710999998,403.02253059999975,403.0857299999998,k,k,1,1.0492036000000553,404.09727269999985,404.09727269999985,404.09727269999985,404.09727269999985,404.09727269999985,404.09727269999985,,,,,,,,,,,,,,,,,,,,,,,,,,,,,,,,,,,,,,,,,,,,,,,322,2023-02-20_13h04.10.127,Main,2022.2.2,60.20118030430248,
negative,neutral,1,j,l,0,0,0,0,0,0,0,0,,,,,,,,,7,0,126,3,,,,,,,,,,,,,,,,,,,,,,,,,,,,,,,,,,,,,,,main,1,1,1,neutral,negative,404.09727269999985,404.09727269999985,404.09727269999985,404.09727269999985,405.0645532999997,405.13236389999975,j,j,1,1.5795149000000492,406.6539850999998,406.6539850999998,406.6539850999998,407.7182441,407.7182441,407.7182441,,,,,,,,,,,,,,,,,,,,,,,,,,,,,,,,,,,,,,,,,,,,,,,322,2023-02-20_13h04.10.127,Main,2022.2.2,60.20118030430248,
negative,negative,2,j,l,0,0,0,0,0,0,0,0,,,,,,,,,7,1,127,9,,,,,,,,,,,,,,,,,,,,,,,,,,,,,,,,,,,,,,,main,1,1,2,negative,negative,407.7182441,407.7182441,407.7182441,407.7182441,408.6814486999997,408.74916559999974,j,j,1,1.0748168000000078,409.78545989999975,409.78545989999975,409.78545989999975,409.78545989999975,409.78545989999975,409.78545989999975,,,,,,,,,,,,,,,,,,,,,,,,,,,,,,,,,,,,,,,,,,,,,,,322,2023-02-20_13h04.10.127,Main,2022.2.2,60.20118030430248,
negative,neutral,2,j,l,0,0,0,0,0,0,0,0,,,,,,,,,7,2,128,12,,,,,,,,,,,,,,,,,,,,,,,,,,,,,,,,,,,,,,,main,2,2,2,neutral,negative,409.78545989999975,409.78545989999975,409.78545989999975,409.78545989999975,410.7606341999999,410.8292019999999,j,j,1,0.9348270000000412,411.72712209999963,411.72712209999963,411.72712209999963,411.72712209999963,411.72712209999963,411.72712209999963,,,,,,,,,,,,,,,,,,,,,,,,,,,,,,,,,,,,,,,,,,,,,,,322,2023-02-20_13h04.10.127,Main,2022.2.2,60.20118030430248,
neutral,positive,1,k,k,0,0,0,0,0,0,0,0,,,,,,,,,7,3,129,4,,,,,,,,,,,,,,,,,,,,,,,,,,,,,,,,,,,,,,,main,2,2,1,positive,neutral,411.72712209999963,411.72712209999963,411.72712209999963,411.72712209999963,412.7114969999998,412.7447377999997,k,k,1,0.7512241999997968,413.4805416999998,413.4805416999998,413.4805416999998,413.4805416999998,413.4805416999998,413.4805416999998,,,,,,,,,,,,,,,,,,,,,,,,,,,,,,,,,,,,,,,,,,,,,,,322,2023-02-20_13h04.10.127,Main,2022.2.2,60.20118030430248,
positive,neutral,1,l,j,0,0,0,0,0,0,0,0,,,,,,,,,7,4,130,8,,,,,,,,,,,,,,,,,,,,,,,,,,,,,,,,,,,,,,,main,2,2,1,neutral,positive,413.4805416999998,413.4805416999998,413.4805416999998,413.4805416999998,414.48655489999965,414.5221604999997,l,l,1,0.883901700000024,415.36828239999977,415.36828239999977,415.36828239999977,415.36828239999977,415.36828239999977,415.36828239999977,,,,,,,,,,,,,,,,,,,,,,,,,,,,,,,,,,,,,,,,,,,,,,,322,2023-02-20_13h04.10.127,Main,2022.2.2,60.20118030430248,
positive,negative,2,l,j,0,0,0,0,0,0,0,0,,,,,,,,,7,5,131,14,,,,,,,,,,,,,,,,,,,,,,,,,,,,,,,,,,,,,,,main,1,1,2,negative,positive,415.36828239999977,415.36828239999977,415.36828239999977,415.36828239999977,416.3489591999996,416.4156988999998,l,l,1,0.7693360999996912,417.14013129999967,417.14013129999967,417.14013129999967,417.14013129999967,417.14013129999967,417.14013129999967,,,,,,,,,,,,,,,,,,,,,,,,,,,,,,,,,,,,,,,,,,,,,,,322,2023-02-20_13h04.10.127,Main,2022.2.2,60.20118030430248,
negative,positive,2,j,l,0,0,0,0,0,0,0,0,,,,,,,,,7,6,132,15,,,,,,,,,,,,,,,,,,,,,,,,,,,,,,,,,,,,,,,main,2,2,2,positive,negative,417.14013129999967,417.14013129999967,417.14013129999967,417.14013129999967,418.14436769999975,418.17945089999967,j,j,1,1.1305621999999858,419.27054759999965,419.27054759999965,419.27054759999965,419.27054759999965,419.27054759999965,419.27054759999965,,,,,,,,,,,,,,,,,,,,,,,,,,,,,,,,,,,,,,,,,,,,,,,322,2023-02-20_13h04.10.127,Main,2022.2.2,60.20118030430248,
neutral,negative,2,k,k,0,0,0,0,0,0,0,0,,,,,,,,,7,7,133,16,,,,,,,,,,,,,,,,,,,,,,,,,,,,,,,,,,,,,,,main,1,1,2,negative,neutral,419.27054759999965,419.27054759999965,419.27054759999965,419.27054759999965,420.26977959999977,420.30135870000004,k,k,1,0.836949900000036,421.1148833999996,421.1148833999996,421.1148833999996,421.1148833999996,421.1148833999996,421.1148833999996,,,,,,,,,,,,,,,,,,,,,,,,,,,,,,,,,,,,,,,,,,,,,,,322,2023-02-20_13h04.10.127,Main,2022.2.2,60.20118030430248,
neutral,neutral,1,k,k,0,0,0,0,0,0,0,0,,,,,,,,,7,8,134,1,,,,,,,,,,,,,,,,,,,,,,,,,,,,,,,,,,,,,,,main,2,2,1,neutral,neutral,421.1148833999996,421.1148833999996,421.1148833999996,421.1148833999996,422.0954606999999,422.1742344999998,k,k,1,1.9369249000001219,424.0284609,424.0284609,424.0284609,425.06999799999994,425.06999799999994,425.06999799999994,,,,,,,,,,,,,,,,,,,,,,,,,,,,,,,,,,,,,,,,,,,,,,,322,2023-02-20_13h04.10.127,Main,2022.2.2,60.20118030430248,
neutral,negative,1,k,k,0,0,0,0,0,0,0,0,,,,,,,,,7,9,135,7,0,0,0,0,,,,,,,,,,,,,,,,,,,,,,,,,,,,,,,,,,,main,2,2,1,negative,neutral,425.06999799999994,425.06999799999994,425.06999799999994,425.06999799999994,426.06651429999965,426.10828539999966,k,k,1,0.7591459000000214,426.8169681999998,426.8169681999998,426.8169681999998,426.8169681999998,426.8169681999998,426.8169681999998,,,,,,,,,426.8169681999998,426.8169681999998,426.8169681999998,426.8169681999998,None,,,,,,,,,,,,,,,,,,,,,,,,,,,,,,,,,,322,2023-02-20_13h04.10.127,Main,2022.2.2,60.20118030430248,
neutral,negative,1,k,k,0,0,0,0,0,0,0,0,,,,,,,,,7,9,135,7,,,,,,,,,,,,,,,,,,,,,,,,,,,,,,,,,,,,,,,,,,,,,,,,,,,,,,,,,,,,,,,,,,,,,,,,,,,,,,,,,,,,,,,,,,,,,,,,,,,,,,,,,,,322,2023-02-20_13h04.10.127,Main,2022.2.2,60.20118030430248,
neutral,neutral,2,k,k,0,0,0,0,0,0,0,0,,,,,,,,,7,10,136,10,,,,,,,,,,,,,,,,,,,,,,,,,,,,,,,,,,,,,,,main,1,1,2,neutral,neutral,486.83753849999994,486.83753849999994,486.83753849999994,486.83753849999994,487.84240550000004,487.8761695999997,k,k,1,1.5275062999999136,489.3361055999999,489.3361055999999,489.3361055999999,490.3732385999997,490.3732385999997,490.3732385999997,,,,,,,,,,,,,,,,,,,,,,,,,,,,,,,,,,,,,,,,,,,,,,,322,2023-02-20_13h04.10.127,Main,2022.2.2,60.20118030430248,
positive,neutral,2,l,j,0,0,0,0,0,0,0,0,,,,,,,,,7,11,137,17,,,,,,,,,,,,,,,,,,,,,,,,,,,,,,,,,,,,,,,main,1,1,2,neutral,positive,490.3732385999997,490.3732385999997,490.3732385999997,490.3732385999997,491.3531367999999,491.42094799999995,l,l,1,0.8677486999999928,492.2525813999996,492.2525813999996,492.2525813999996,492.2525813999996,492.2525813999996,492.2525813999996,,,,,,,,,,,,,,,,,,,,,,,,,,,,,,,,,,,,,,,,,,,,,,,322,2023-02-20_13h04.10.127,Main,2022.2.2,60.20118030430248,
negative,positive,1,j,l,0,0,0,0,0,0,0,0,,,,,,,,,7,12,138,6,,,,,,,,,,,,,,,,,,,,,,,,,,,,,,,,,,,,,,,main,2,2,1,positive,negative,492.2525813999996,492.2525813999996,492.2525813999996,492.2525813999996,493.2488930999998,493.2822839999999,j,j,1,1.0948417999998128,494.34235209999997,494.34235209999997,494.34235209999997,494.34235209999997,494.34235209999997,494.34235209999997,,,,,,,,,,,,,,,,,,,,,,,,,,,,,,,,,,,,,,,,,,,,,,,322,2023-02-20_13h04.10.127,Main,2022.2.2,60.20118030430248,
positive,positive,2,l,j,0,0,0,0,0,0,0,0,,,,,,,,,7,13,139,11,,,,,,,,,,,,,,,,,,,,,,,,,,,,,,,,,,,,,,,main,2,2,2,positive,positive,494.34235209999997,494.34235209999997,494.34235209999997,494.34235209999997,495.338291,495.3772627999997,l,j,0,0.7537357000001066,496.0744030999999,496.0744030999999,496.0744030999999,497.1068888,497.1068888,497.1068888,,,,,,,,,,,,,,,,,,,,,,,,,,,,,,,,,,,,,,,,,,,,,,,322,2023-02-20_13h04.10.127,Main,2022.2.2,60.20118030430248,
neutral,positive,2,k,k,0,0,0,0,0,0,0,0,,,,,,,,,7,14,140,13,,,,,,,,,,,,,,,,,,,,,,,,,,,,,,,,,,,,,,,main,2,2,2,positive,neutral,497.1068888,497.1068888,497.1068888,497.1068888,498.09725979999985,498.1303015999997,k,k,1,0.8710263000002669,498.98296619999974,498.98296619999974,498.98296619999974,498.98296619999974,498.98296619999974,498.98296619999974,,,,,,,,,,,,,,,,,,,,,,,,,,,,,,,,,,,,,,,,,,,,,,,322,2023-02-20_13h04.10.127,Main,2022.2.2,60.20118030430248,
negative,negative,1,j,l,0,0,0,0,0,0,0,0,,,,,,,,,7,15,141,0,,,,,,,,,,,,,,,,,,,,,,,,,,,,,,,,,,,,,,,main,2,2,1,negative,negative,498.98296619999974,498.98296619999974,498.98296619999974,498.98296619999974,499.9762255999999,500.00879829999985,j,j,1,1.258260699999937,501.2449124,501.2449124,501.2449124,501.2449124,501.2449124,501.2449124,,,,,,,,,,,,,,,,,,,,,,,,,,,,,,,,,,,,,,,,,,,,,,,322,2023-02-20_13h04.10.127,Main,2022.2.2,60.20118030430248,
positive,positive,1,l,j,0,0,0,0,0,0,0,0,,,,,,,,,7,16,142,2,,,,,,,,,,,,,,,,,,,,,,,,,,,,,,,,,,,,,,,main,2,2,1,positive,positive,501.2449124,501.2449124,501.2449124,501.2449124,502.2245048,502.29225559999986,l,l,1,1.0944822999999815,503.3431974,503.3431974,503.3431974,503.3431974,503.3431974,503.3431974,,,,,,,,,,,,,,,,,,,,,,,,,,,,,,,,,,,,,,,,,,,,,,,322,2023-02-20_13h04.10.127,Main,2022.2.2,60.20118030430248,
positive,negative,1,l,j,0,0,0,0,0,0,0,0,,,,,,,,,7,17,143,5,,,,,,,,,,,,,,,,,,,,,,,,,,,,,,,,,,,,,,,main,2,2,1,negative,positive,503.3431974,503.3431974,503.3431974,503.3431974,504.34284449999996,504.3767915999997,l,l,1,1.1326985999999124,505.4806570999999,505.4806570999999,505.4806570999999,505.4806570999999,505.4806570999999,505.4806570999999,,,,,,,,,,,,,,,,,,,,,,,,,,,,,,,,,,,,,,,,,,,,,,,322,2023-02-20_13h04.10.127,Main,2022.2.2,60.20118030430248,
negative,negative,1,j,l,0,0,0,0,0,0,0,0,,,,,,,,,8,0,144,0,,,,,,,,,,,,,,,,,,,,,,,,,,,,,,,,,,,,,,,main,1,1,1,negative,negative,505.4806570999999,505.4806570999999,505.4806570999999,505.4806570999999,506.4492375,506.51243609999983,j,j,1,0.9971998000000895,507.47985709999966,507.47985709999966,507.47985709999966,507.47985709999966,507.47985709999966,507.47985709999966,,,,,,,,,,,,,,,,,,,,,,,,,,,,,,,,,,,,,,,,,,,,,,,322,2023-02-20_13h04.10.127,Main,2022.2.2,60.20118030430248,
positive,negative,2,l,j,0,0,0,0,0,0,0,0,,,,,,,,,8,1,145,14,,,,,,,,,,,,,,,,,,,,,,,,,,,,,,,,,,,,,,,main,2,2,2,negative,positive,507.47985709999966,507.47985709999966,507.47985709999966,507.47985709999966,508.45466689999967,508.5237860999996,l,l,1,1.3294385999997758,509.8139336999998,509.8139336999998,509.8139336999998,509.8139336999998,509.8139336999998,509.8139336999998,,,,,,,,,,,,,,,,,,,,,,,,,,,,,,,,,,,,,,,,,,,,,,,322,2023-02-20_13h04.10.127,Main,2022.2.2,60.20118030430248,
negative,neutral,1,j,l,0,0,0,0,0,0,0,0,,,,,,,,,8,2,146,3,,,,,,,,,,,,,,,,,,,,,,,,,,,,,,,,,,,,,,,main,1,1,1,neutral,negative,509.8139336999998,509.8139336999998,509.8139336999998,509.8139336999998,510.7939865999997,510.86474789999966,j,j,1,1.1867614000002504,511.99830029999976,511.99830029999976,511.99830029999976,511.99830029999976,511.99830029999976,511.99830029999976,,,,,,,,,,,,,,,,,,,,,,,,,,,,,,,,,,,,,,,,,,,,,,,322,2023-02-20_13h04.10.127,Main,2022.2.2,60.20118030430248,
neutral,neutral,1,k,k,0,0,0,0,0,0,0,0,,,,,,,,,8,3,147,1,,,,,,,,,,,,,,,,,,,,,,,,,,,,,,,,,,,,,,,main,1,1,1,neutral,neutral,511.99830029999976,511.99830029999976,511.99830029999976,511.99830029999976,512.9832665999998,513.0165330999998,k,k,1,0.6641732000002776,513.6685082999998,513.6685082999998,513.6685082999998,513.6685082999998,513.6685082999998,513.6685082999998,,,,,,,,,,,,,,,,,,,,,,,,,,,,,,,,,,,,,,,,,,,,,,,322,2023-02-20_13h04.10.127,Main,2022.2.2,60.20118030430248,
negative,positive,2,j,l,0,0,0,0,0,0,0,0,,,,,,,,,8,4,148,15,,,,,,,,,,,,,,,,,,,,,,,,,,,,,,,,,,,,,,,main,2,2,2,positive,negative,513.6685082999998,513.6685082999998,513.6685082999998,513.6685082999998,514.6570127999998,514.6899448999998,j,j,1,0.9220548999996936,515.5933458,515.5933458,515.5933458,515.5933458,515.5933458,515.5933458,,,,,,,,,,,,,,,,,,,,,,,,,,,,,,,,,,,,,,,,,,,,,,,322,2023-02-20_13h04.10.127,Main,2022.2.2,60.20118030430248,
positive,positive,1,l,j,0,0,0,0,0,0,0,0,,,,,,,,,8,5,149,2,,,,,,,,,,,,,,,,,,,,,,,,,,,,,,,,,,,,,,,main,2,2,1,positive,positive,515.5933458,515.5933458,515.5933458,515.5933458,516.5864858999998,516.6185023999997,l,l,1,1.019519500000115,517.6185888999998,517.6185888999998,517.6185888999998,517.6185888999998,517.6185888999998,517.6185888999998,,,,,,,,,,,,,,,,,,,,,,,,,,,,,,,,,,,,,,,,,,,,,,,322,2023-02-20_13h04.10.127,Main,2022.2.2,60.20118030430248,
neutral,positive,2,k,k,0,0,0,0,0,0,0,0,,,,,,,,,8,6,150,13,,,,,,,,,,,,,,,,,,,,,,,,,,,,,,,,,,,,,,,main,1,1,2,positive,neutral,517.6185888999998,517.6185888999998,517.6185888999998,517.6185888999998,518.6081571999998,518.6492713999996,k,k,1,0.9129620999997314,519.5378489,519.5378489,519.5378489,519.5378489,519.5378489,519.5378489,,,,,,,,,,,,,,,,,,,,,,,,,,,,,,,,,,,,,,,,,,,,,,,322,2023-02-20_13h04.10.127,Main,2022.2.2,60.20118030430248,
positive,neutral,2,l,j,0,0,0,0,0,0,0,0,,,,,,,,,8,7,151,17,,,,,,,,,,,,,,,,,,,,,,,,,,,,,,,,,,,,,,,main,2,2,2,neutral,positive,519.5378489,519.5378489,519.5378489,519.5378489,520.5249999999996,520.5574407999998,l,l,1,0.8800486000000092,521.4178331999997,521.4178331999997,521.4178331999997,521.4178331999997,521.4178331999997,521.4178331999997,,,,,,,,,,,,,,,,,,,,,,,,,,,,,,,,,,,,,,,,,,,,,,,322,2023-02-20_13h04.10.127,Main,2022.2.2,60.20118030430248,
positive,negative,1,l,j,0,0,0,0,0,0,0,0,,,,,,,,,8,8,152,5,,,,,,,,,,,,,,,,,,,,,,,,,,,,,,,,,,,,,,,main,2,2,1,negative,positive,521.4178331999997,521.4178331999997,521.4178331999997,521.4178331999997,522.4181306,522.4531309999998,l,l,1,0.8922065000001567,523.3221537,523.3221537,523.3221537,523.3221537,523.3221537,523.3221537,,,,,,,,,,,,,,,,,,,,,,,,,,,,,,,,,,,,,,,,,,,,,,,322,2023-02-20_13h04.10.127,Main,2022.2.2,60.20118030430248,
positive,neutral,1,l,j,0,0,0,0,0,0,0,0,,,,,,,,,8,9,153,8,,,,,,,,,,,,,,,,,,,,,,,,,,,,,,,,,,,,,,,main,1,1,1,neutral,positive,523.3221537,523.3221537,523.3221537,523.3221537,524.3123935999997,524.3457451999998,l,l,1,0.8231832999999824,525.1420205999998,525.1420205999998,525.1420205999998,525.1420205999998,525.1420205999998,525.1420205999998,,,,,,,,,,,,,,,,,,,,,,,,,,,,,,,,,,,,,,,,,,,,,,,322,2023-02-20_13h04.10.127,Main,2022.2.2,60.20118030430248,
positive,positive,2,l,j,0,0,0,0,0,0,0,0,,,,,,,,,8,10,154,11,,,,,,,,,,,,,,,,,,,,,,,,,,,,,,,,,,,,,,,main,1,1,2,positive,positive,525.1420205999998,525.1420205999998,525.1420205999998,525.1420205999998,526.1142602999998,526.183978,l,l,1,0.7631823000001532,526.9066125999998,526.9066125999998,526.9066125999998,526.9066125999998,526.9066125999998,526.9066125999998,,,,,,,,,,,,,,,,,,,,,,,,,,,,,,,,,,,,,,,,,,,,,,,322,2023-02-20_13h04.10.127,Main,2022.2.2,60.20118030430248,
negative,negative,2,j,l,0,0,0,0,0,0,0,0,,,,,,,,,8,11,155,9,,,,,,,,,,,,,,,,,,,,,,,,,,,,,,,,,,,,,,,main,1,1,2,negative,negative,526.9066125999998,526.9066125999998,526.9066125999998,526.9066125999998,527.9001143999999,527.9366003,j,j,1,0.8166764000002331,528.7294911999998,528.7294911999998,528.7294911999998,528.7294911999998,528.7294911999998,528.7294911999998,,,,,,,,,,,,,,,,,,,,,,,,,,,,,,,,,,,,,,,,,,,,,,,322,2023-02-20_13h04.10.127,Main,2022.2.2,60.20118030430248,
neutral,negative,1,k,k,0,0,0,0,0,0,0,0,,,,,,,,,8,12,156,7,,,,,,,,,,,,,,,,,,,,,,,,,,,,,,,,,,,,,,,main,2,2,1,negative,neutral,528.7294911999998,528.7294911999998,528.7294911999998,528.7294911999998,529.7281760999999,529.7627620999997,k,k,1,0.6571149999999761,530.3871907999996,530.3871907999996,530.3871907999996,530.3871907999996,530.3871907999996,530.3871907999996,,,,,,,,,,,,,,,,,,,,,,,,,,,,,,,,,,,,,,,,,,,,,,,322,2023-02-20_13h04.10.127,Main,2022.2.2,60.20118030430248,
neutral,positive,1,k,k,0,0,0,0,0,0,0,0,,,,,,,,,8,13,157,4,,,,,,,,,,,,,,,,,,,,,,,,,,,,,,,,,,,,,,,main,2,2,1,positive,neutral,530.3871907999996,530.3871907999996,530.3871907999996,530.3871907999996,531.3634256,531.4316765999997,k,k,1,0.8675477000001592,532.2587073999998,532.2587073999998,532.2587073999998,532.2587073999998,532.2587073999998,532.2587073999998,,,,,,,,,,,,,,,,,,,,,,,,,,,,,,,,,,,,,,,,,,,,,,,322,2023-02-20_13h04.10.127,Main,2022.2.2,60.20118030430248,
negative,neutral,2,j,l,0,0,0,0,0,0,0,0,,,,,,,,,8,14,158,12,,,,,,,,,,,,,,,,,,,,,,,,,,,,,,,,,,,,,,,main,1,1,2,neutral,negative,532.2587073999998,532.2587073999998,532.2587073999998,532.2587073999998,533.2467305999999,533.2798291999998,j,j,1,0.8629108000000087,534.1284899999996,534.1284899999996,534.1284899999996,534.1284899999996,534.1284899999996,534.1284899999996,,,,,,,,,,,,,,,,,,,,,,,,,,,,,,,,,,,,,,,,,,,,,,,322,2023-02-20_13h04.10.127,Main,2022.2.2,60.20118030430248,
neutral,neutral,2,k,k,0,0,0,0,0,0,0,0,,,,,,,,,8,15,159,10,,,,,,,,,,,,,,,,,,,,,,,,,,,,,,,,,,,,,,,main,1,1,2,neutral,neutral,534.1284899999996,534.1284899999996,534.1284899999996,534.1284899999996,535.1132159999997,535.1506568,k,k,1,0.8329420000000027,535.9617917,535.9617917,535.9617917,535.9617917,535.9617917,535.9617917,,,,,,,,,,,,,,,,,,,,,,,,,,,,,,,,,,,,,,,,,,,,,,,322,2023-02-20_13h04.10.127,Main,2022.2.2,60.20118030430248,
negative,positive,1,j,l,0,0,0,0,0,0,0,0,,,,,,,,,8,16,160,6,,,,,,,,,,,,,,,,,,,,,,,,,,,,,,,,,,,,,,,main,1,1,1,positive,negative,535.9617917,535.9617917,535.9617917,535.9617917,536.9347513999996,537.0009665999996,j,j,1,0.846092299999782,537.8142786999997,537.8142786999997,537.8142786999997,537.8142786999997,537.8142786999997,537.8142786999997,,,,,,,,,,,,,,,,,,,,,,,,,,,,,,,,,,,,,,,,,,,,,,,322,2023-02-20_13h04.10.127,Main,2022.2.2,60.20118030430248,
neutral,negative,2,k,k,0,0,0,0,0,0,0,0,,,,,,,,,8,17,161,16,,,,,,,,,,,,,,,,,,,,,,,,,,,,,,,,,,,,,,,main,2,2,2,negative,neutral,537.8142786999997,537.8142786999997,537.8142786999997,537.8142786999997,538.7925922999998,538.8567740999997,k,k,1,0.7793449999999211,539.5936053,539.5936053,539.5936053,539.5936053,539.5936053,539.5936053,,,,,,,,,,,,,,,,,,,,,,,,,,,,,,,,,,,,,,,,,,,,,,,322,2023-02-20_13h04.10.127,Main,2022.2.2,60.20118030430248,
neutral,negative,1,k,k,0,0,0,0,0,0,0,0,,,,,,,,,9,0,162,7,,,,,,,,,,,,,,,,,,,,,,,,,,,,,,,,,,,,,,,main,2,2,1,negative,neutral,539.5936053,539.5936053,539.5936053,539.5936053,540.5939140999999,540.6260813999997,k,k,1,0.8127316999998584,541.4083063999997,541.4083063999997,541.4083063999997,541.4083063999997,541.4083063999997,541.4083063999997,,,,,,,,,,,,,,,,,,,,,,,,,,,,,,,,,,,,,,,,,,,,,,,322,2023-02-20_13h04.10.127,Main,2022.2.2,60.20118030430248,
negative,neutral,2,j,l,0,0,0,0,0,0,0,0,,,,,,,,,9,1,163,12,,,,,,,,,,,,,,,,,,,,,,,,,,,,,,,,,,,,,,,main,2,2,2,neutral,negative,541.4083063999997,541.4083063999997,541.4083063999997,541.4083063999997,542.3846657999998,542.4531555999997,j,j,1,0.8673258999997415,543.2807189999999,543.2807189999999,543.2807189999999,543.2807189999999,543.2807189999999,543.2807189999999,,,,,,,,,,,,,,,,,,,,,,,,,,,,,,,,,,,,,,,,,,,,,,,322,2023-02-20_13h04.10.127,Main,2022.2.2,60.20118030430248,
negative,neutral,1,j,l,0,0,0,0,0,0,0,0,,,,,,,,,9,2,164,3,,,,,,,,,,,,,,,,,,,,,,,,,,,,,,,,,,,,,,,main,2,2,1,neutral,negative,543.2807189999999,543.2807189999999,543.2807189999999,543.2807189999999,544.2783804999999,544.3128662999998,j,j,1,0.8145833000003222,545.1008957999998,545.1008957999998,545.1008957999998,545.1008957999998,545.1008957999998,545.1008957999998,,,,,,,,,,,,,,,,,,,,,,,,,,,,,,,,,,,,,,,,,,,,,,,322,2023-02-20_13h04.10.127,Main,2022.2.2,60.20118030430248,
neutral,neutral,2,k,k,0,0,0,0,0,0,0,0,,,,,,,,,9,3,165,10,,,,,,,,,,,,,,,,,,,,,,,,,,,,,,,,,,,,,,,main,2,2,2,neutral,neutral,545.1008957999998,545.1008957999998,545.1008957999998,545.1008957999998,546.0911664,546.1230934999999,k,k,1,0.786861499999759,546.8887498999998,546.8887498999998,546.8887498999998,546.8887498999998,546.8887498999998,546.8887498999998,,,,,,,,,,,,,,,,,,,,,,,,,,,,,,,,,,,,,,,,,,,,,,,322,2023-02-20_13h04.10.127,Main,2022.2.2,60.20118030430248,
positive,negative,2,l,j,0,0,0,0,0,0,0,0,,,,,,,,,9,4,166,14,,,,,,,,,,,,,,,,,,,,,,,,,,,,,,,,,,,,,,,main,2,2,2,negative,positive,546.8887498999998,546.8887498999998,546.8887498999998,546.8887498999998,547.8668773999998,547.9333293,l,l,1,1.1479780999998184,549.0383914999998,549.0383914999998,549.0383914999998,549.0383914999998,549.0383914999998,549.0383914999998,,,,,,,,,,,,,,,,,,,,,,,,,,,,,,,,,,,,,,,,,,,,,,,322,2023-02-20_13h04.10.127,Main,2022.2.2,60.20118030430248,
neutral,positive,1,k,k,0,0,0,0,0,0,0,0,,,,,,,,,9,5,167,4,,,,,,,,,,,,,,,,,,,,,,,,,,,,,,,,,,,,,,,main,1,1,1,positive,neutral,549.0383914999998,549.0383914999998,549.0383914999998,549.0383914999998,550.0189093999998,550.0877538,k,k,1,0.7815792999999758,550.8249041999998,550.8249041999998,550.8249041999998,550.8249041999998,550.8249041999998,550.8249041999998,,,,,,,,,,,,,,,,,,,,,,,,,,,,,,,,,,,,,,,,,,,,,,,322,2023-02-20_13h04.10.127,Main,2022.2.2,60.20118030430248,
positive,negative,1,l,j,0,0,0,0,0,0,0,0,,,,,,,,,9,6,168,5,,,,,,,,,,,,,,,,,,,,,,,,,,,,,,,,,,,,,,,main,1,1,1,negative,positive,550.8249041999998,550.8249041999998,550.8249041999998,550.8249041999998,551.7982346999997,551.8620759,l,l,1,1.1646426000002066,552.9877953999999,552.9877953999999,552.9877953999999,552.9877953999999,552.9877953999999,552.9877953999999,,,,,,,,,,,,,,,,,,,,,,,,,,,,,,,,,,,,,,,,,,,,,,,322,2023-02-20_13h04.10.127,Main,2022.2.2,60.20118030430248,
negative,positive,2,j,l,0,0,0,0,0,0,0,0,,,,,,,,,9,7,169,15,,,,,,,,,,,,,,,,,,,,,,,,,,,,,,,,,,,,,,,main,2,2,2,positive,negative,552.9877953999999,552.9877953999999,552.9877953999999,552.9877953999999,553.9757460999999,554.0083949999998,j,j,1,0.9367754999998397,554.9331493,554.9331493,554.9331493,554.9331493,554.9331493,554.9331493,,,,,,,,,,,,,,,,,,,,,,,,,,,,,,,,,,,,,,,,,,,,,,,322,2023-02-20_13h04.10.127,Main,2022.2.2,60.20118030430248,
