distractor,target,set,ans1,ans2,total_experiment.thisRepN,total_experiment.thisTrialN,total_experiment.thisN,total_experiment.thisIndex,boat.thisRepN,boat.thisTrialN,boat.thisN,boat.thisIndex,para.thisRepN,para.thisTrialN,para.thisN,para.thisIndex,para_rep_loop.thisRepN,para_rep_loop.thisTrialN,para_rep_loop.thisN,para_rep_loop.thisIndex,para_prac_loop.thisRepN,para_prac_loop.thisTrialN,para_prac_loop.thisN,para_prac_loop.thisIndex,para_main_loop.thisRepN,para_main_loop.thisTrialN,para_main_loop.thisN,para_main_loop.thisIndex,para_rest.thisRepN,para_rest.thisTrialN,para_rest.thisN,para_rest.thisIndex,fl_rep_loop2.thisRepN,fl_rep_loop2.thisTrialN,fl_rep_loop2.thisN,fl_rep_loop2.thisIndex,flanker_prac_loop.thisRepN,flanker_prac_loop.thisTrialN,flanker_prac_loop.thisN,flanker_prac_loop.thisIndex,flanker_main_loop.thisRepN,flanker_main_loop.thisTrialN,flanker_main_loop.thisN,flanker_main_loop.thisIndex,flanker_rest.thisRepN,flanker_rest.thisTrialN,flanker_rest.thisN,flanker_rest.thisIndex,para_starter.started,para_starter_key.started,para_starter_key.keys,para_starter_key.rt,para_inst_sound.started,para_inst_key.keys,para_inst_key.rt,para_inst_image.started,para_prac_back.started,para_prac_text.started,para_fix_back.started,para_fix_2.started,main_prac,para_back.started,st_ans,st_res,st_corr,st_rt,st2_resp.keys,st2_resp.corr,para_main_back.started,para_main_text.started,para_mouse.started,para_mouse.x,para_mouse.y,para_mouse.leftButton,para_mouse.midButton,para_mouse.rightButton,rest_text.started,rest_key.started,rest_inst_text.started,rest_time.started,rest_key.keys,exp_end_key.started,exp_end_back.started,exp_end_text.started,exp_end_key.keys,exp_end_key.rt,fl_starter_back.started,fl_starter.started,fl_starter_text.started,fl_starter.keys,fl_starter.rt,fl_inst_resp.keys,fl_inst_resp.rt,fl_back.started,fl_mouse_prac.started,fl_mouse_prac.x,fl_mouse_prac.y,fl_mouse_prac.leftButton,fl_mouse_prac.midButton,fl_mouse_prac.rightButton,back_2.started,fl_cold,fl_colt,fl_set,fl_dcond,fl_tcond,fl_fix.started,j_button.started,k_button.started,l_button.started,targ.started,fl_fix.stopped,fl_ans,fl_res,fl_corr,fl_rt,j_button2.started,k_button2.started,l_button2.started,j_button2.stopped,k_button2.stopped,l_button2.stopped,fl_mainback.started,fl_mouse_m.started,fl_key_resp.keys,fl_mouse_m.x,fl_mouse_m.y,fl_mouse_m.leftButton,fl_mouse_m.midButton,fl_mouse_m.rightButton,total_end_text.started,id*,date,expName,psychopyVersion,frameRate,
,,,,,0,0,0,0,,,,,0,0,0,0,0,0,0,0,,,,,,,,,,,,,,,,,,,,,,,,,,,,,117.02842780000003,117.02842780000003,space,3.485342600000081,121.61457735999997,space,56.213954100000024,177.93625659999998,,,,,,,,,,,,,,,,,,,,,,,,,,,,,,,,,,,,,,,,,,,,,,,,,,,,,,,,,,,,,,,,,,,,,,,,,,,,323,2023-03-13_14h29.45.586,Main,2022.2.2,60.171874943611954,
negative,blue,1,None,k,0,0,0,0,,,,,0,0,0,0,,,,,0,0,0,16,,,,,,,,,,,,,,,,,,,,,,,,,,,,,,,,,185.47059739999997,185.47059739999997,187.45718110000007,187.45718110000007,prac,189.619236,k,k,1,10.341168899999957,None,0,,,,,,,,,,,,,,,,,,,,,,,,,,,,,,,,,,,,,,,,,,,,,,,,,,,,,,,,,,,,,,,,323,2023-03-13_14h29.45.586,Main,2022.2.2,60.171874943611954,
negative,blue,1,None,k,0,0,0,0,,,,,0,0,0,0,,,,,0,1,1,5,,,,,,,,,,,,,,,,,,,,,,,,,,,,,,,,,,,,,prac,202.0287866,k,k,1,1.6802022000000534,None,0,,,,,,,,,,,,,,,,,,,,,,,,,,,,,,,,,,,,,,,,,,,,,,,,,,,,,,,,,,,,,,,,323,2023-03-13_14h29.45.586,Main,2022.2.2,60.171874943611954,
positive,yellow,1,None,k,0,0,0,0,,,,,0,0,0,0,,,,,0,2,2,19,,,,,,,,,,,,,,,,,,,,,,,,,,,,,,,,,,,,,prac,205.73133889999997,k,k,1,1.2479895999999826,None,0,,,,,,,,,,,,,,,,,,,,,,,,,,,,,,,,,,,,,,,,,,,,,,,,,,,,,,,,,,,,,,,,323,2023-03-13_14h29.45.586,Main,2022.2.2,60.171874943611954,
positive,blue,1,k,None,0,0,0,0,,,,,0,0,0,0,,,,,0,3,3,15,,,,,,,,,,,,,,,,,,,,,,,,,,,,,,,,,,,,,prac,207.98397680000005,None,k,0,0.9367498999999953,None,1,,,,,,,,,,,,,,,,,,,,,,,,,,,,,,,,,,,,,,,,,,,,,,,,,,,,,,,,,,,,,,,,323,2023-03-13_14h29.45.586,Main,2022.2.2,60.171874943611954,
positive,yellow,2,None,k,0,0,0,0,,,,,0,0,0,0,,,,,0,4,4,8,,,,,,,,,,,,,,,,,,,,,,,,,,,,,,,,,,,,,prac,210.96053210000002,k,k,1,2.579262999999969,None,0,,,,,,,,,,,,,,,,,,,,,,,,,,,,,,,,,,,,,,,,,,,,,,,,,,,,,,,,,,,,,,,,323,2023-03-13_14h29.45.586,Main,2022.2.2,60.171874943611954,
negative,yellow,2,k,None,0,0,0,0,,,,,0,0,0,0,,,,,0,5,5,11,,,,,,,,,,,,,,,,,,,,,,,,,,,,,,,,,,,,,prac,215.5565001,None,None,1,1.516279200000099,None,1,,,,,,,,,,,,,,,,,,,,,,,,,,,,,,,,,,,,,,,,,,,,,,,,,,,,,,,,,,,,,,,,323,2023-03-13_14h29.45.586,Main,2022.2.2,60.171874943611954,
positive,red,2,None,None,0,0,0,0,,,,,0,0,0,0,,,,,0,6,6,1,,,,,,,,,,,,,,,,,,,,,,,,,,,,,,,,,,,,,prac,218.07279870000002,None,None,1,1.5258472000000438,None,1,,,,,,,,,,,,,,,,,,,,,,,,,,,,,,,,,,,,,,,,,,,,,,,,,,,,,,,,,,,,,,,,323,2023-03-13_14h29.45.586,Main,2022.2.2,60.171874943611954,
negative,yellow,2,k,None,0,0,0,0,,,,,0,0,0,0,,,,,0,7,7,6,,,,,,,,,,,,,,,,,,,,,,,,,,,,,,,,,,,,,prac,220.59991350000007,None,None,1,1.5198184000000765,None,1,,,,,,,,,,,,,,,,,,,,,,,,,,,,,,,,,,,,,,,,,,,,,,,,,,,,,,,,,,,,,,,,323,2023-03-13_14h29.45.586,Main,2022.2.2,60.171874943611954,
positive,blue,1,k,None,0,0,0,0,,,,,0,0,0,0,,,,,0,8,8,18,,,,,,,,,,,,,,,,,,,,,,,,,,,,,,,,,,,,,prac,223.12508860000003,None,None,1,1.5350896999999577,None,1,,,,,,,,,,,,,,,,,,,,,,,,,,,,,,,,,,,,,,,,,,,,,,,,,,,,,,,,,,,,,,,,323,2023-03-13_14h29.45.586,Main,2022.2.2,60.171874943611954,
negative,red,2,None,None,0,0,0,0,,,,,0,0,0,0,,,,,0,9,9,12,,,,,,,,,,,,,,,,,,,,,,,,,,,,,,,,,,,,,prac,225.65690080000002,None,None,1,1.5295168000000103,None,1,,,,,,,,,,,,,,,,,,,,,,,,,,,,,,,,,,,,,,,,,,,,,,,,,,,,,,,,,,,,,,,,323,2023-03-13_14h29.45.586,Main,2022.2.2,60.171874943611954,
negative,blue,2,None,k,0,0,0,0,,,,,0,0,0,0,,,,,0,10,10,4,,,,,,,,,,,,,,,,,,,,,,,,,,,,,,,,,,,,,prac,228.189618,k,k,1,1.5818848999999773,None,0,,,,,,,,,,,,,,,,,,,,,,,,,,,,,,,,,,,,,,,,,,,,,,,,,,,,,,,,,,,,,,,,323,2023-03-13_14h29.45.586,Main,2022.2.2,60.171874943611954,
positive,yellow,1,None,k,0,0,0,0,,,,,0,0,0,0,,,,,0,11,11,3,,,,,,,,,,,,,,,,,,,,,,,,,,,,,,,,,,,,,prac,231.80439339999998,k,k,1,1.113864700000022,None,0,,,,,,,,,,,,,,,,,,,,,,,,,,,,,,,,,,,,,,,,,,,,,,,,,,,,,,,,,,,,,,,,323,2023-03-13_14h29.45.586,Main,2022.2.2,60.171874943611954,
negative,yellow,1,k,None,0,0,0,0,,,,,0,0,0,0,,,,,0,12,12,9,,,,,,,,,,,,,,,,,,,,,,,,,,,,,,,,,,,,,prac,233.92701899999997,None,None,1,1.5196351000000732,None,1,,,,,,,,,,,,,,,,,,,,,,,,,,,,,,,,,,,,,,,,,,,,,,,,,,,,,,,,,,,,,,,,323,2023-03-13_14h29.45.586,Main,2022.2.2,60.171874943611954,
positive,blue,2,k,None,0,0,0,0,,,,,0,0,0,0,,,,,0,13,13,14,,,,,,,,,,,,,,,,,,,,,,,,,,,,,,,,,,,,,prac,236.44026040000006,None,None,1,1.5148650999999518,None,1,,,,,,,,,,,,,,,,,,,,,,,,,,,,,,,,,,,,,,,,,,,,,,,,,,,,,,,,,,,,,,,,323,2023-03-13_14h29.45.586,Main,2022.2.2,60.171874943611954,
positive,red,1,None,None,0,0,0,0,,,,,0,0,0,0,,,,,0,14,14,13,,,,,,,,,,,,,,,,,,,,,,,,,,,,,,,,,,,,,prac,238.9580628,None,None,1,1.5320047999999815,None,1,,,,,,,,,,,,,,,,,,,,,,,,,,,,,,,,,,,,,,,,,,,,,,,,,,,,,,,,,,,,,,,,323,2023-03-13_14h29.45.586,Main,2022.2.2,60.171874943611954,
negative,yellow,1,k,None,0,0,0,0,,,,,0,0,0,0,,,,,0,15,15,0,,,,,,,,,,,,,,,,,,,,,,,,,,,,,,,,,,,,,prac,241.49762780000003,None,None,1,1.5197223000000122,None,1,,,,,,,,,,,,,,,,,,,,,,,,,,,,,,,,,,,,,,,,,,,,,,,,,,,,,,,,,,,,,,,,323,2023-03-13_14h29.45.586,Main,2022.2.2,60.171874943611954,
negative,red,1,None,None,0,0,0,0,,,,,0,0,0,0,,,,,0,16,16,7,,,,,,,,,,,,,,,,,,,,,,,,,,,,,,,,,,,,,prac,244.01766340000006,None,None,1,1.5207242999999835,None,1,,,,,,,,,,,,,,,,,,,,,,,,,,,,,,,,,,,,,,,,,,,,,,,,,,,,,,,,,,,,,,,,323,2023-03-13_14h29.45.586,Main,2022.2.2,60.171874943611954,
positive,yellow,2,None,k,0,0,0,0,,,,,0,0,0,0,,,,,0,17,17,10,,,,,,,,,,,,,,,,,,,,,,,,,,,,,,,,,,,,,prac,246.53869580000003,k,k,1,0.9483705999999756,None,0,,,,,,,,,,,,,,,,,,,,,,,,,,,,,,,,,,,,,,,,,,,,,,,,,,,,,,,,,,,,,,,,323,2023-03-13_14h29.45.586,Main,2022.2.2,60.171874943611954,
positive,blue,2,k,None,0,0,0,0,,,,,0,0,0,0,,,,,0,18,18,17,,,,,,,,,,,,,,,,,,,,,,,,,,,,,,,,,,,,,prac,248.50017709999997,None,None,1,1.5280778999999711,None,1,,,,,,,,,,,,,,,,,,,,,,,,,,,,,,,,,,,,,,,,,,,,,,,,,,,,,,,,,,,,,,,,323,2023-03-13_14h29.45.586,Main,2022.2.2,60.171874943611954,
negative,blue,2,None,k,0,0,0,0,,,,,0,0,0,0,,,,,0,19,19,2,,,,,,,,,,,,,,,,,,,,,,,,,,,,,,,,,,,,,prac,251.02060360000007,k,k,1,1.2964810999999372,None,0,,,,,,,,,,,,,,,,,,,,,,,,,,,,,,,,,,,,,,,,,,,,,,,,,,,,,,,,,,,,,,,,323,2023-03-13_14h29.45.586,Main,2022.2.2,60.171874943611954,
negative,yellow,2,k,None,0,0,0,0,,,,,0,0,0,0,,,,,1,0,20,6,,,,,,,,,,,,,,,,,,,,,,,,,,,,,,,,,,,,,prac,253.32765200000006,None,None,1,1.5222794999999678,None,1,,,,,,,,,,,,,,,,,,,,,,,,,,,,,,,,,,,,,,,,,,,,,,,,,,,,,,,,,,,,,,,,323,2023-03-13_14h29.45.586,Main,2022.2.2,60.171874943611954,
positive,blue,1,k,None,0,0,0,0,,,,,0,0,0,0,,,,,1,1,21,15,,,,,,,,,,,,,,,,,,,,,,,,,,,,,,,,,,,,,prac,255.84454749999998,None,None,1,1.5171447999999828,None,1,,,,,,,,,,,,,,,,,,,,,,,,,,,,,,,,,,,,,,,,,,,,,,,,,,,,,,,,,,,,,,,,323,2023-03-13_14h29.45.586,Main,2022.2.2,60.171874943611954,
positive,red,2,None,None,0,0,0,0,,,,,0,0,0,0,,,,,1,2,22,1,,,,,,,,,,,,,,,,,,,,,,,,,,,,,,,,,,,,,prac,258.3661713,None,None,1,1.5309068999999909,None,1,,,,,,,,,,,,,,,,,,,,,,,,,,,,,,,,,,,,,,,,,,,,,,,,,,,,,,,,,,,,,,,,323,2023-03-13_14h29.45.586,Main,2022.2.2,60.171874943611954,
positive,red,1,None,None,0,0,0,0,,,,,0,0,0,0,,,,,1,3,23,13,,,,,,,,,,,,,,,,,,,,,,,,,,,,,,,,,,,,,prac,260.9034468,None,None,1,1.5092306999999892,None,1,,,,,,,,,,,,,,,,,,,,,,,,,,,,,,,,,,,,,,,,,,,,,,,,,,,,,,,,,,,,,,,,323,2023-03-13_14h29.45.586,Main,2022.2.2,60.171874943611954,
negative,yellow,2,k,None,0,0,0,0,,,,,0,0,0,0,,,,,1,4,24,11,,,,,,,,,,,,,,,,,,,,,,,,,,,,,,,,,,,,,prac,263.411439,None,None,1,1.5096121999999923,None,1,,,,,,,,,,,,,,,,,,,,,,,,,,,,,,,,,,,,,,,,,,,,,,,,,,,,,,,,,,,,,,,,323,2023-03-13_14h29.45.586,Main,2022.2.2,60.171874943611954,
positive,yellow,1,None,k,0,0,0,0,,,,,0,0,0,0,,,,,1,5,25,3,,,,,,,,,,,,,,,,,,,,,,,,,,,,,,,,,,,,,prac,265.92610620000005,k,k,1,0.835189000000014,None,0,,,,,,,,,,,,,,,,,,,,,,,,,,,,,,,,,,,,,,,,,,,,,,,,,,,,,,,,,,,,,,,,323,2023-03-13_14h29.45.586,Main,2022.2.2,60.171874943611954,
positive,blue,2,k,None,0,0,0,0,,,,,0,0,0,0,,,,,1,6,26,14,,,,,,,,,,,,,,,,,,,,,,,,,,,,,,,,,,,,,prac,267.76454220000005,None,None,1,1.522635799999989,None,1,,,,,,,,,,,,,,,,,,,,,,,,,,,,,,,,,,,,,,,,,,,,,,,,,,,,,,,,,,,,,,,,323,2023-03-13_14h29.45.586,Main,2022.2.2,60.171874943611954,
negative,blue,1,None,k,0,0,0,0,,,,,0,0,0,0,,,,,1,7,27,5,,,,,,,,,,,,,,,,,,,,,,,,,,,,,,,,,,,,,prac,270.28295720000006,k,k,1,1.013807799999995,None,0,,,,,,,,,,,,,,,,,,,,,,,,,,,,,,,,,,,,,,,,,,,,,,,,,,,,,,,,,,,,,,,,323,2023-03-13_14h29.45.586,Main,2022.2.2,60.171874943611954,
positive,blue,2,k,None,0,0,0,0,,,,,0,0,0,0,,,,,1,8,28,17,,,,,,,,,,,,,,,,,,,,,,,,,,,,,,,,,,,,,prac,272.2985761,None,None,1,1.4705728999999792,None,1,,,,,,,,,,,,,,,,,,,,,,,,,,,,,,,,,,,,,,,,,,,,,,,,,,,,,,,,,,,,,,,,323,2023-03-13_14h29.45.586,Main,2022.2.2,60.171874943611954,
positive,yellow,2,None,k,0,0,0,0,,,,,0,0,0,0,,,,,1,9,29,8,,,,,,,,,,,,,,,,,,,,,,,,,,,,,,,,,,,,,prac,274.7760511,k,k,1,0.8981615999999804,None,0,,,,,,,,,,,,,,,,,,,,,,,,,,,,,,,,,,,,,,,,,,,,,,,,,,,,,,,,,,,,,,,,323,2023-03-13_14h29.45.586,Main,2022.2.2,60.171874943611954,
negative,blue,2,None,k,0,0,0,0,,,,,0,0,0,0,,,,,1,10,30,4,,,,,,,,,,,,,,,,,,,,,,,,,,,,,,,,,,,,,prac,276.67774270000007,k,k,1,1.1876455999999962,None,0,,,,,,,,,,,,,,,,,,,,,,,,,,,,,,,,,,,,,,,,,,,,,,,,,,,,,,,,,,,,,,,,323,2023-03-13_14h29.45.586,Main,2022.2.2,60.171874943611954,
negative,red,1,None,None,0,0,0,0,,,,,0,0,0,0,,,,,1,11,31,7,,,,,,,,,,,,,,,,,,,,,,,,,,,,,,,,,,,,,prac,278.87488759999997,None,None,1,1.5214773999999807,None,1,,,,,,,,,,,,,,,,,,,,,,,,,,,,,,,,,,,,,,,,,,,,,,,,,,,,,,,,,,,,,,,,323,2023-03-13_14h29.45.586,Main,2022.2.2,60.171874943611954,
positive,blue,1,k,None,0,0,0,0,,,,,0,0,0,0,,,,,1,12,32,18,,,,,,,,,,,,,,,,,,,,,,,,,,,,,,,,,,,,,prac,281.39473010000006,None,None,1,1.5290237000000388,None,1,,,,,,,,,,,,,,,,,,,,,,,,,,,,,,,,,,,,,,,,,,,,,,,,,,,,,,,,,,,,,,,,323,2023-03-13_14h29.45.586,Main,2022.2.2,60.171874943611954,
negative,yellow,1,k,None,0,0,0,0,,,,,0,0,0,0,,,,,1,13,33,9,,,,,,,,,,,,,,,,,,,,,,,,,,,,,,,,,,,,,prac,283.9258182,None,None,1,1.5166737000000694,None,1,,,,,,,,,,,,,,,,,,,,,,,,,,,,,,,,,,,,,,,,,,,,,,,,,,,,,,,,,,,,,,,,323,2023-03-13_14h29.45.586,Main,2022.2.2,60.171874943611954,
positive,yellow,2,None,k,0,0,0,0,,,,,0,0,0,0,,,,,1,14,34,10,,,,,,,,,,,,,,,,,,,,,,,,,,,,,,,,,,,,,prac,286.44232580000005,k,k,1,0.8772477999999637,None,0,,,,,,,,,,,,,,,,,,,,,,,,,,,,,,,,,,,,,,,,,,,,,,,,,,,,,,,,,,,,,,,,323,2023-03-13_14h29.45.586,Main,2022.2.2,60.171874943611954,
negative,yellow,1,k,None,0,0,0,0,,,,,0,0,0,0,,,,,1,15,35,0,,,,,,,,,,,,,,,,,,,,,,,,,,,,,,,,,,,,,prac,288.3226085,None,None,1,1.5165074999999888,None,1,,,,,,,,,,,,,,,,,,,,,,,,,,,,,,,,,,,,,,,,,,,,,,,,,,,,,,,,,,,,,,,,323,2023-03-13_14h29.45.586,Main,2022.2.2,60.171874943611954,
negative,red,2,None,None,0,0,0,0,,,,,0,0,0,0,,,,,1,16,36,12,,,,,,,,,,,,,,,,,,,,,,,,,,,,,,,,,,,,,prac,290.8453405,None,None,1,1.5206675000000587,None,1,,,,,,,,,,,,,,,,,,,,,,,,,,,,,,,,,,,,,,,,,,,,,,,,,,,,,,,,,,,,,,,,323,2023-03-13_14h29.45.586,Main,2022.2.2,60.171874943611954,
negative,blue,1,None,k,0,0,0,0,,,,,0,0,0,0,,,,,1,17,37,16,,,,,,,,,,,,,,,,,,,,,,,,,,,,,,,,,,,,,prac,293.3629783,k,k,1,1.4313274000001002,None,0,,,,,,,,,,,,,,,,,,,,,,,,,,,,,,,,,,,,,,,,,,,,,,,,,,,,,,,,,,,,,,,,323,2023-03-13_14h29.45.586,Main,2022.2.2,60.171874943611954,
negative,blue,2,None,k,0,0,0,0,,,,,0,0,0,0,,,,,1,18,38,2,,,,,,,,,,,,,,,,,,,,,,,,,,,,,,,,,,,,,prac,295.8011077,k,k,1,1.894463099999939,None,0,,,,,,,,,,,,,,,,,,,,,,,,,,,,,,,,,,,,,,,,,,,,,,,,,,,,,,,,,,,,,,,,323,2023-03-13_14h29.45.586,Main,2022.2.2,60.171874943611954,
positive,yellow,1,None,k,0,0,0,0,,,,,0,0,0,0,,,,,1,19,39,19,,,,,,,,,,,,,,,,,,,,,,,,,,,,,,,,,,,,,prac,299.7268123,k,k,1,1.2991555000000972,None,0,,,,,,,,,,,,,,,,,,,,,,,,,,,,,,,,,,,,,,,,,,,,,,,,,,,,,,,,,,,,,,,,323,2023-03-13_14h29.45.586,Main,2022.2.2,60.171874943611954,
positive,red,1,None,None,0,0,0,0,,,,,0,0,0,0,,,,,,,,,0,0,0,157,,,,,,,,,,,,,,,,,,,,,,,,,,,,,,,303.32852579999997,303.32852579999997,main,305.42964100000006,None,None,1,1.5333387999999104,None,1,302.05495800000006,302.05495800000006,0.00018720000002758752,-0.000925925925925926,-0.09351851851851851,0,0,0,,,,,,,,,,,,,,,,,,,,,,,,,,,,,,,,,,,,,,,,,,,,,,,,,,,,,,,,323,2023-03-13_14h29.45.586,Main,2022.2.2,60.171874943611954,
positive,yellow,2,None,k,0,0,0,0,,,,,0,0,0,0,,,,,,,,,0,1,1,217,,,,,,,,,,,,,,,,,,,,,,,,,,,,,,,,,main,307.9660591999999,k,k,1,0.8596304000000146,None,0,,,,,,,,,,,,,,,,,,,,,,,,,,,,,,,,,,,,,,,,,,,,,,,,,,,,,,,,,,,,,,,,323,2023-03-13_14h29.45.586,Main,2022.2.2,60.171874943611954,
negative,blue,2,None,k,0,0,0,0,,,,,0,0,0,0,,,,,,,,,0,2,2,132,,,,,,,,,,,,,,,,,,,,,,,,,,,,,,,,,main,309.82666830000005,k,k,1,1.0113675999998577,None,0,,,,,,,,,,,,,,,,,,,,,,,,,,,,,,,,,,,,,,,,,,,,,,,,,,,,,,,,,,,,,,,,323,2023-03-13_14h29.45.586,Main,2022.2.2,60.171874943611954,
negative,blue,1,None,k,0,0,0,0,,,,,0,0,0,0,,,,,,,,,0,3,3,131,,,,,,,,,,,,,,,,,,,,,,,,,,,,,,,,,main,311.8424501999999,k,k,1,0.9481312999998863,None,0,,,,,,,,,,,,,,,,,,,,,,,,,,,,,,,,,,,,,,,,,,,,,,,,,,,,,,,,,,,,,,,,323,2023-03-13_14h29.45.586,Main,2022.2.2,60.171874943611954,
negative,red,1,None,None,0,0,0,0,,,,,0,0,0,0,,,,,,,,,0,4,4,9,,,,,,,,,,,,,,,,,,,,,,,,,,,,,,,,,main,313.7929627,None,None,1,1.5103992000001654,None,1,,,,,,,,,,,,,,,,,,,,,,,,,,,,,,,,,,,,,,,,,,,,,,,,,,,,,,,,,,,,,,,,323,2023-03-13_14h29.45.586,Main,2022.2.2,60.171874943611954,
positive,blue,2,k,None,0,0,0,0,,,,,0,0,0,0,,,,,,,,,0,5,5,74,,,,,,,,,,,,,,,,,,,,,,,,,,,,,,,,,main,316.31029810000007,None,None,1,1.5324840000000677,None,1,,,,,,,,,,,,,,,,,,,,,,,,,,,,,,,,,,,,,,,,,,,,,,,,,,,,,,,,,,,,,,,,323,2023-03-13_14h29.45.586,Main,2022.2.2,60.171874943611954,
negative,yellow,2,k,None,0,0,0,0,,,,,0,0,0,0,,,,,,,,,0,6,6,83,,,,,,,,,,,,,,,,,,,,,,,,,,,,,,,,,main,318.84683499999994,None,None,1,1.5125577000001158,None,1,,,,,,,,,,,,,,,,,,,,,,,,,,,,,,,,,,,,,,,,,,,,,,,,,,,,,,,,,,,,,,,,323,2023-03-13_14h29.45.586,Main,2022.2.2,60.171874943611954,
positive,blue,1,k,None,0,0,0,0,,,,,0,0,0,0,,,,,,,,,0,7,7,214,,,,,,,,,,,,,,,,,,,,,,,,,,,,,,,,,main,321.3587311,None,None,1,1.5107031000000006,None,1,,,,,,,,,,,,,,,,,,,,,,,,,,,,,,,,,,,,,,,,,,,,,,,,,,,,,,,,,,,,,,,,323,2023-03-13_14h29.45.586,Main,2022.2.2,60.171874943611954,
positive,red,2,None,None,0,0,0,0,,,,,0,0,0,0,,,,,,,,,0,8,8,7,,,,,,,,,,,,,,,,,,,,,,,,,,,,,,,,,main,323.8756489000001,None,None,1,1.5086723999997957,None,1,,,,,,,,,,,,,,,,,,,,,,,,,,,,,,,,,,,,,,,,,,,,,,,,,,,,,,,,,,,,,,,,323,2023-03-13_14h29.45.586,Main,2022.2.2,60.171874943611954,
negative,yellow,2,k,None,0,0,0,0,,,,,0,0,0,0,,,,,,,,,0,9,9,40,,,,,,,,,,,,,,,,,,,,,,,,,,,,,,,,,main,326.38458660000003,None,None,1,1.5304798000001938,None,1,,,,,,,,,,,,,,,,,,,,,,,,,,,,,,,,,,,,,,,,,,,,,,,,,,,,,,,,,,,,,,,,323,2023-03-13_14h29.45.586,Main,2022.2.2,60.171874943611954,
positive,blue,1,k,None,0,0,0,0,,,,,0,0,0,0,,,,,,,,,0,10,10,141,,,,,,,,,,,,,,,,,,,,,,,,,,,,,,,,,main,328.91586240000004,None,None,1,1.5279946999999083,None,1,,,,,,,,,,,,,,,,,,,,,,,,,,,,,,,,,,,,,,,,,,,,,,,,,,,,,,,,,,,,,,,,323,2023-03-13_14h29.45.586,Main,2022.2.2,60.171874943611954,
positive,yellow,2,None,k,0,0,0,0,,,,,0,0,0,0,,,,,,,,,0,11,11,90,,,,,,,,,,,,,,,,,,,,,,,,,,,,,,,,,main,331.44859469999994,k,k,1,0.7565684000001056,None,0,,,,,,,,,,,,,,,,,,,,,,,,,,,,,,,,,,,,,,,,,,,,,,,,,,,,,,,,,,,,,,,,323,2023-03-13_14h29.45.586,Main,2022.2.2,60.171874943611954,
positive,yellow,2,None,k,0,0,0,0,,,,,0,0,0,0,,,,,,,,,0,12,12,208,,,,,,,,,,,,,,,,,,,,,,,,,,,,,,,,,main,333.20901130000004,k,k,1,0.7822430999999597,None,0,,,,,,,,,,,,,,,,,,,,,,,,,,,,,,,,,,,,,,,,,,,,,,,,,,,,,,,,,,,,,,,,323,2023-03-13_14h29.45.586,Main,2022.2.2,60.171874943611954,
negative,blue,1,None,k,0,0,0,0,,,,,0,0,0,0,,,,,,,,,0,13,13,161,,,,,,,,,,,,,,,,,,,,,,,,,,,,,,,,,main,334.99415110000007,k,k,1,0.9107856000000538,None,0,,,,,,,,,,,,,,,,,,,,,,,,,,,,,,,,,,,,,,,,,,,,,,,,,,,,,,,,,,,,,,,,323,2023-03-13_14h29.45.586,Main,2022.2.2,60.171874943611954,
negative,yellow,1,k,None,0,0,0,0,,,,,0,0,0,0,,,,,,,,,0,14,14,109,,,,,,,,,,,,,,,,,,,,,,,,,,,,,,,,,main,336.90669450000007,None,None,1,1.5161697999999433,None,1,,,,,,,,,,,,,,,,,,,,,,,,,,,,,,,,,,,,,,,,,,,,,,,,,,,,,,,,,,,,,,,,323,2023-03-13_14h29.45.586,Main,2022.2.2,60.171874943611954,
positive,red,1,None,None,0,0,0,0,,,,,0,0,0,0,,,,,,,,,0,15,15,29,,,,,,,,,,,,,,,,,,,,,,,,,,,,,,,,,main,339.4268347000001,None,None,1,1.5124203999998826,None,1,,,,,,,,,,,,,,,,,,,,,,,,,,,,,,,,,,,,,,,,,,,,,,,,,,,,,,,,,,,,,,,,323,2023-03-13_14h29.45.586,Main,2022.2.2,60.171874943611954,
positive,red,1,None,None,0,0,0,0,,,,,0,0,0,0,,,,,,,,,0,16,16,125,,,,,,,,,,,,,,,,,,,,,,,,,,,,,,,,,main,341.9449161000001,None,None,1,1.5180539000000408,None,1,,,,,,,,,,,,,,,,,,,,,,,,,,,,,,,,,,,,,,,,,,,,,,,,,,,,,,,,,,,,,,,,323,2023-03-13_14h29.45.586,Main,2022.2.2,60.171874943611954,
positive,blue,1,k,None,0,0,0,0,,,,,0,0,0,0,,,,,,,,,0,17,17,15,,,,,,,,,,,,,,,,,,,,,,,,,,,,,,,,,main,344.4679491999999,None,None,1,1.5093636000001425,None,1,,,,,,,,,,,,,,,,,,,,,,,,,,,,,,,,,,,,,,,,,,,,,,,,,,,,,,,,,,,,,,,,323,2023-03-13_14h29.45.586,Main,2022.2.2,60.171874943611954,
positive,blue,2,k,None,0,0,0,0,,,,,0,0,0,0,,,,,,,,,0,18,18,197,,,,,,,,,,,,,,,,,,,,,,,,,,,,,,,,,main,346.97388420000004,None,None,1,1.5336743000000297,None,1,,,,,,,,,,,,,,,,,,,,,,,,,,,,,,,,,,,,,,,,,,,,,,,,,,,,,,,,,,,,,,,,323,2023-03-13_14h29.45.586,Main,2022.2.2,60.171874943611954,
positive,blue,2,k,None,0,0,0,0,,,,,0,0,0,0,,,,,,,,,0,19,19,120,,,,,,,,,,,,,,,,,,,,,,,,,,,,,,,,,main,349.5204001999999,None,None,1,1.5296233999999913,None,1,,,,,,,,,,,,,,,,,,,,,,,,,,,,,,,,,,,,,,,,,,,,,,,,,,,,,,,,,,,,,,,,323,2023-03-13_14h29.45.586,Main,2022.2.2,60.171874943611954,
negative,yellow,1,k,None,0,0,0,0,,,,,0,0,0,0,,,,,,,,,0,20,20,209,,,,,,,,,,,,,,,,,,,,,,,,,,,,,,,,,main,352.04705090000004,None,None,1,1.5220903000001726,None,1,,,,,,,,,,,,,,,,,,,,,,,,,,,,,,,,,,,,,,,,,,,,,,,,,,,,,,,,,,,,,,,,323,2023-03-13_14h29.45.586,Main,2022.2.2,60.171874943611954,
negative,red,2,None,None,0,0,0,0,,,,,0,0,0,0,,,,,,,,,0,21,21,160,,,,,,,,,,,,,,,,,,,,,,,,,,,,,,,,,main,354.5705028000001,None,None,1,1.5271438000002036,None,1,,,,,,,,,,,,,,,,,,,,,,,,,,,,,,,,,,,,,,,,,,,,,,,,,,,,,,,,,,,,,,,,323,2023-03-13_14h29.45.586,Main,2022.2.2,60.171874943611954,
negative,red,2,None,None,0,0,0,0,,,,,0,0,0,0,,,,,,,,,0,22,22,237,,,,,,,,,,,,,,,,,,,,,,,,,,,,,,,,,main,357.0994019000001,None,None,1,1.5323730999998588,None,1,,,,,,,,,,,,,,,,,,,,,,,,,,,,,,,,,,,,,,,,,,,,,,,,,,,,,,,,,,,,,,,,323,2023-03-13_14h29.45.586,Main,2022.2.2,60.171874943611954,
positive,blue,1,k,None,0,0,0,0,,,,,0,0,0,0,,,,,,,,,0,23,23,100,,,,,,,,,,,,,,,,,,,,,,,,,,,,,,,,,main,359.6336958999999,None,None,1,1.5093027999998867,None,1,,,,,,,,,,,,,,,,,,,,,,,,,,,,,,,,,,,,,,,,,,,,,,,,,,,,,,,,,,,,,,,,323,2023-03-13_14h29.45.586,Main,2022.2.2,60.171874943611954,
negative,yellow,1,k,None,0,0,0,0,,,,,0,0,0,0,,,,,,,,,0,24,24,212,,,,,,,,,,,,,,,,,,,,,,,,,,,,,,,,,main,362.1501297000001,None,k,0,1.245615799999996,None,1,,,,,,,,,,,,,,,,,,,,,,,,,,,,,,,,,,,,,,,,,,,,,,,,,,,,,,,,,,,,,,,,323,2023-03-13_14h29.45.586,Main,2022.2.2,60.171874943611954,
negative,blue,2,None,k,0,0,0,0,,,,,0,0,0,0,,,,,,,,,0,25,25,43,,,,,,,,,,,,,,,,,,,,,,,,,,,,,,,,,main,365.4251825,k,k,1,1.9151888999999755,None,0,,,,,,,,,,,,,,,,,,,,,,,,,,,,,,,,,,,,,,,,,,,,,,,,,,,,,,,,,,,,,,,,323,2023-03-13_14h29.45.586,Main,2022.2.2,60.171874943611954,
negative,red,1,None,None,0,0,0,0,,,,,0,0,0,0,,,,,,,,,0,26,26,205,,,,,,,,,,,,,,,,,,,,,,,,,,,,,,,,,main,369.3471456000001,None,None,1,1.5147486999999273,None,1,,,,,,,,,,,,,,,,,,,,,,,,,,,,,,,,,,,,,,,,,,,,,,,,,,,,,,,,,,,,,,,,323,2023-03-13_14h29.45.586,Main,2022.2.2,60.171874943611954,
positive,yellow,2,None,k,0,0,0,0,,,,,0,0,0,0,,,,,,,,,0,27,27,108,,,,,,,,,,,,,,,,,,,,,,,,,,,,,,,,,main,371.86572450000006,k,k,1,1.0378955000001042,None,0,,,,,,,,,,,,,,,,,,,,,,,,,,,,,,,,,,,,,,,,,,,,,,,,,,,,,,,,,,,,,,,,323,2023-03-13_14h29.45.586,Main,2022.2.2,60.171874943611954,
negative,yellow,2,k,None,0,0,0,0,,,,,0,0,0,0,,,,,,,,,0,28,28,117,,,,,,,,,,,,,,,,,,,,,,,,,,,,,,,,,main,373.91335760000004,None,None,1,1.5261657999999443,None,1,,,,,,,,,,,,,,,,,,,,,,,,,,,,,,,,,,,,,,,,,,,,,,,,,,,,,,,,,,,,,,,,323,2023-03-13_14h29.45.586,Main,2022.2.2,60.171874943611954,
negative,blue,2,None,k,0,0,0,0,,,,,0,0,0,0,,,,,,,,,0,29,29,56,,,,,,,,,,,,,,,,,,,,,,,,,,,,,,,,,main,376.4376254,k,k,1,0.8763530999999602,None,0,,,,,,,,,,,,,,,,,,,,,,,,,,,,,,,,,,,,,,,,,,,,,,,,,,,,,,,,,,,,,,,,323,2023-03-13_14h29.45.586,Main,2022.2.2,60.171874943611954,
negative,yellow,1,k,None,0,0,0,0,,,,,0,0,0,0,,,,,,,,,0,30,30,223,,,,,,,,,,,,,,,,,,,,,,,,,,,,,,,,,main,378.3151593000001,None,None,1,1.5187111999998706,None,1,,,,,,,,,,,,,,,,,,,,,,,,,,,,,,,,,,,,,,,,,,,,,,,,,,,,,,,,,,,,,,,,323,2023-03-13_14h29.45.586,Main,2022.2.2,60.171874943611954,
positive,yellow,2,None,k,0,0,0,0,,,,,0,0,0,0,,,,,,,,,0,31,31,104,,,,,,,,,,,,,,,,,,,,,,,,,,,,,,,,,main,380.83821610000007,k,k,1,0.8519197000000531,None,0,,,,,,,,,,,,,,,,,,,,,,,,,,,,,,,,,,,,,,,,,,,,,,,,,,,,,,,,,,,,,,,,323,2023-03-13_14h29.45.586,Main,2022.2.2,60.171874943611954,
positive,yellow,2,None,k,0,0,0,0,,,,,0,0,0,0,,,,,,,,,0,32,32,5,,,,,,,,,,,,,,,,,,,,,,,,,,,,,,,,,main,382.69511739999996,k,k,1,0.7262015999999676,None,0,,,,,,,,,,,,,,,,,,,,,,,,,,,,,,,,,,,,,,,,,,,,,,,,,,,,,,,,,,,,,,,,323,2023-03-13_14h29.45.586,Main,2022.2.2,60.171874943611954,
negative,yellow,2,k,None,0,0,0,0,,,,,0,0,0,0,,,,,,,,,0,33,33,207,,,,,,,,,,,,,,,,,,,,,,,,,,,,,,,,,main,384.42232079999997,None,None,1,1.5058813999999074,None,1,,,,,,,,,,,,,,,,,,,,,,,,,,,,,,,,,,,,,,,,,,,,,,,,,,,,,,,,,,,,,,,,323,2023-03-13_14h29.45.586,Main,2022.2.2,60.171874943611954,
negative,red,1,None,None,0,0,0,0,,,,,0,0,0,0,,,,,,,,,0,34,34,44,,,,,,,,,,,,,,,,,,,,,,,,,,,,,,,,,main,386.9361064000001,None,None,1,1.5311274000000594,None,1,,,,,,,,,,,,,,,,,,,,,,,,,,,,,,,,,,,,,,,,,,,,,,,,,,,,,,,,,,,,,,,,323,2023-03-13_14h29.45.586,Main,2022.2.2,60.171874943611954,
positive,yellow,2,None,k,0,0,0,0,,,,,0,0,0,0,,,,,,,,,0,35,35,222,,,,,,,,,,,,,,,,,,,,,,,,,,,,,,,,,main,389.47260960000006,k,k,1,0.8120359000001827,None,0,,,,,,,,,,,,,,,,,,,,,,,,,,,,,,,,,,,,,,,,,,,,,,,,,,,,,,,,,,,,,,,,323,2023-03-13_14h29.45.586,Main,2022.2.2,60.171874943611954,
negative,yellow,2,k,None,0,0,0,0,,,,,0,0,0,0,,,,,,,,,0,36,36,70,,,,,,,,,,,,,,,,,,,,,,,,,,,,,,,,,main,391.28329640000004,None,None,1,1.5133528999999726,None,1,,,,,,,,,,,,,,,,,,,,,,,,,,,,,,,,,,,,,,,,,,,,,,,,,,,,,,,,,,,,,,,,323,2023-03-13_14h29.45.586,Main,2022.2.2,60.171874943611954,
positive,yellow,1,None,k,0,0,0,0,,,,,0,0,0,0,,,,,,,,,0,37,37,165,,,,,,,,,,,,,,,,,,,,,,,,,,,,,,,,,main,393.7984084000001,k,k,1,0.754367000000002,None,0,,,,,,,,,,,,,,,,,,,,,,,,,,,,,,,,,,,,,,,,,,,,,,,,,,,,,,,,,,,,,,,,323,2023-03-13_14h29.45.586,Main,2022.2.2,60.171874943611954,
positive,blue,2,k,None,0,0,0,0,,,,,0,0,0,0,,,,,,,,,0,38,38,86,,,,,,,,,,,,,,,,,,,,,,,,,,,,,,,,,main,395.5631429000001,None,None,1,1.5162436999999045,None,1,,,,,,,,,,,,,,,,,,,,,,,,,,,,,,,,,,,,,,,,,,,,,,,,,,,,,,,,,,,,,,,,323,2023-03-13_14h29.45.586,Main,2022.2.2,60.171874943611954,
positive,red,2,None,None,0,0,0,0,,,,,0,0,0,0,,,,,,,,,0,39,39,119,,,,,,,,,,,,,,,,,,,,,,,,,,,,,,,,,main,398.08260669999993,None,None,1,1.5102896999999302,None,1,,,,,,,,,,,,,,,,,,,,,,,,,,,,,,,,,,,,,,,,,,,,,,,,,,,,,,,,,,,,,,,,323,2023-03-13_14h29.45.586,Main,2022.2.2,60.171874943611954,
positive,yellow,2,None,k,0,0,0,0,,,,,0,0,0,0,,,,,,,,,0,40,40,14,,,,,,,,,,,,,,,,,,,,,,,,,,,,,,,,,main,400.59070710000003,k,k,1,1.0885149999999157,None,0,,,,,,,,,,,,,,,,,,,,,,,,,,,,,,,,,,,,,,,,,,,,,,,,,,,,,,,,,,,,,,,,323,2023-03-13_14h29.45.586,Main,2022.2.2,60.171874943611954,
positive,red,1,None,None,0,0,0,0,,,,,0,0,0,0,,,,,,,,,0,41,41,203,,,,,,,,,,,,,,,,,,,,,,,,,,,,,,,,,main,402.68549470000005,None,None,1,1.5303493999999773,None,1,,,,,,,,,,,,,,,,,,,,,,,,,,,,,,,,,,,,,,,,,,,,,,,,,,,,,,,,,,,,,,,,323,2023-03-13_14h29.45.586,Main,2022.2.2,60.171874943611954,
negative,blue,1,None,k,0,0,0,0,,,,,0,0,0,0,,,,,,,,,0,42,42,150,,,,,,,,,,,,,,,,,,,,,,,,,,,,,,,,,main,405.2185621,k,k,1,0.8212447999999313,None,0,,,,,,,,,,,,,,,,,,,,,,,,,,,,,,,,,,,,,,,,,,,,,,,,,,,,,,,,,,,,,,,,323,2023-03-13_14h29.45.586,Main,2022.2.2,60.171874943611954,
negative,yellow,1,k,None,0,0,0,0,,,,,0,0,0,0,,,,,,,,,0,43,43,101,,,,,,,,,,,,,,,,,,,,,,,,,,,,,,,,,main,407.0491326,None,None,1,1.5234877000000324,None,1,,,,,,,,,,,,,,,,,,,,,,,,,,,,,,,,,,,,,,,,,,,,,,,,,,,,,,,,,,,,,,,,323,2023-03-13_14h29.45.586,Main,2022.2.2,60.171874943611954,
positive,yellow,2,None,k,0,0,0,0,,,,,0,0,0,0,,,,,,,,,0,44,44,50,,,,,,,,,,,,,,,,,,,,,,,,,,,,,,,,,main,409.5694479,k,k,1,0.8642783999998755,None,0,,,,,,,,,,,,,,,,,,,,,,,,,,,,,,,,,,,,,,,,,,,,,,,,,,,,,,,,,,,,,,,,323,2023-03-13_14h29.45.586,Main,2022.2.2,60.171874943611954,
positive,yellow,1,None,k,0,0,0,0,,,,,0,0,0,0,,,,,,,,,0,45,45,85,,,,,,,,,,,,,,,,,,,,,,,,,,,,,,,,,main,411.44578190000004,k,k,1,1.1221643000001222,None,0,,,,,,,,,,,,,,,,,,,,,,,,,,,,,,,,,,,,,,,,,,,,,,,,,,,,,,,,,,,,,,,,323,2023-03-13_14h29.45.586,Main,2022.2.2,60.171874943611954,
negative,blue,2,None,k,0,0,0,0,,,,,0,0,0,0,,,,,,,,,0,46,46,76,,,,,,,,,,,,,,,,,,,,,,,,,,,,,,,,,main,413.5669105999999,k,k,1,0.8134191999999985,None,0,,,,,,,,,,,,,,,,,,,,,,,,,,,,,,,,,,,,,,,,,,,,,,,,,,,,,,,,,,,,,,,,323,2023-03-13_14h29.45.586,Main,2022.2.2,60.171874943611954,
negative,blue,1,None,k,0,0,0,0,,,,,0,0,0,0,,,,,,,,,0,47,47,229,,,,,,,,,,,,,,,,,,,,,,,,,,,,,,,,,main,415.3892764000001,k,k,1,0.9100660999999945,None,0,,,,,,,,,,,,,,,,,,,,,,,,,,,,,,,,,,,,,,,,,,,,,,,,,,,,,,,,,,,,,,,,323,2023-03-13_14h29.45.586,Main,2022.2.2,60.171874943611954,
positive,yellow,1,None,k,0,0,0,0,,,,,0,0,0,0,,,,,,,,,0,48,48,10,,,,,,,,,,,,,,,,,,,,,,,,,,,,,,,,,main,417.2961815,k,k,1,1.1168016999999963,None,0,,,,,,,,,,,,,,,,,,,,,,,,,,,,,,,,,,,,,,,,,,,,,,,,,,,,,,,,,,,,,,,,323,2023-03-13_14h29.45.586,Main,2022.2.2,60.171874943611954,
positive,blue,2,k,None,0,0,0,0,,,,,0,0,0,0,,,,,,,,,0,49,49,27,,,,,,,,,,,,,,,,,,,,,,,,,,,,,,,,,main,419.4185782999999,None,None,1,1.5127869000000373,None,1,,,,,,,,,,,,,,,,,,,,,,,,,,,,,,,,,,,,,,,,,,,,,,,,,,,,,,,,,,,,,,,,323,2023-03-13_14h29.45.586,Main,2022.2.2,60.171874943611954,
positive,yellow,2,None,k,0,0,0,0,,,,,0,0,0,0,,,,,,,,,0,50,50,36,,,,,,,,,,,,,,,,,,,,,,,,,,,,,,,,,main,421.9308099000001,k,k,1,1.0097891999998865,None,0,,,,,,,,,,,,,,,,,,,,,,,,,,,,,,,,,,,,,,,,,,,,,,,,,,,,,,,,,,,,,,,,323,2023-03-13_14h29.45.586,Main,2022.2.2,60.171874943611954,
positive,blue,1,k,None,0,0,0,0,,,,,0,0,0,0,,,,,,,,,0,51,51,176,,,,,,,,,,,,,,,,,,,,,,,,,,,,,,,,,main,423.9524613,None,None,1,1.5119256999998925,None,1,,,,,,,,,,,,,,,,,,,,,,,,,,,,,,,,,,,,,,,,,,,,,,,,,,,,,,,,,,,,,,,,323,2023-03-13_14h29.45.586,Main,2022.2.2,60.171874943611954,
negative,blue,2,None,k,0,0,0,0,,,,,0,0,0,0,,,,,,,,,0,52,52,126,,,,,,,,,,,,,,,,,,,,,,,,,,,,,,,,,main,426.45982259999994,k,k,1,1.1404958999999053,None,0,,,,,,,,,,,,,,,,,,,,,,,,,,,,,,,,,,,,,,,,,,,,,,,,,,,,,,,,,,,,,,,,323,2023-03-13_14h29.45.586,Main,2022.2.2,60.171874943611954,
positive,yellow,1,None,k,0,0,0,0,,,,,0,0,0,0,,,,,,,,,0,53,53,216,,,,,,,,,,,,,,,,,,,,,,,,,,,,,,,,,main,428.5988424000001,k,k,1,1.0326215000000047,None,0,,,,,,,,,,,,,,,,,,,,,,,,,,,,,,,,,,,,,,,,,,,,,,,,,,,,,,,,,,,,,,,,323,2023-03-13_14h29.45.586,Main,2022.2.2,60.171874943611954,
positive,blue,2,k,None,0,0,0,0,,,,,0,0,0,0,,,,,,,,,0,54,54,158,,,,,,,,,,,,,,,,,,,,,,,,,,,,,,,,,main,430.64316429999997,None,None,1,1.5067384000001312,None,1,,,,,,,,,,,,,,,,,,,,,,,,,,,,,,,,,,,,,,,,,,,,,,,,,,,,,,,,,,,,,,,,323,2023-03-13_14h29.45.586,Main,2022.2.2,60.171874943611954,
negative,blue,1,None,k,0,0,0,0,,,,,0,0,0,0,,,,,,,,,0,55,55,154,,,,,,,,,,,,,,,,,,,,,,,,,,,,,,,,,main,433.14495339999996,k,k,1,0.9349976999999399,None,0,,,,,,,,,,,,,,,,,,,,,,,,,,,,,,,,,,,,,,,,,,,,,,,,,,,,,,,,,,,,,,,,323,2023-03-13_14h29.45.586,Main,2022.2.2,60.171874943611954,
positive,yellow,1,None,k,0,0,0,0,,,,,0,0,0,0,,,,,,,,,0,56,56,148,,,,,,,,,,,,,,,,,,,,,,,,,,,,,,,,,main,435.0905707999999,k,k,1,0.7265820000000076,None,0,,,,,,,,,,,,,,,,,,,,,,,,,,,,,,,,,,,,,,,,,,,,,,,,,,,,,,,,,,,,,,,,323,2023-03-13_14h29.45.586,Main,2022.2.2,60.171874943611954,
positive,blue,1,k,None,0,0,0,0,,,,,0,0,0,0,,,,,,,,,0,57,57,57,,,,,,,,,,,,,,,,,,,,,,,,,,,,,,,,,main,436.8192451000001,None,None,1,1.509662599999956,None,1,,,,,,,,,,,,,,,,,,,,,,,,,,,,,,,,,,,,,,,,,,,,,,,,,,,,,,,,,,,,,,,,323,2023-03-13_14h29.45.586,Main,2022.2.2,60.171874943611954,
negative,red,1,None,None,0,0,0,0,,,,,0,0,0,0,,,,,,,,,0,58,58,121,,,,,,,,,,,,,,,,,,,,,,,,,,,,,,,,,main,439.3294938,None,None,1,1.5152553000000353,None,1,,,,,,,,,,,,,,,,,,,,,,,,,,,,,,,,,,,,,,,,,,,,,,,,,,,,,,,,,,,,,,,,323,2023-03-13_14h29.45.586,Main,2022.2.2,60.171874943611954,
positive,yellow,1,None,k,0,0,0,0,,,,,0,0,0,0,,,,,,,,,0,59,59,113,,,,,,,,,,,,,,,,,,,,,,,,,,,,,,,,,main,441.84501149999994,k,k,1,0.7893926000001557,None,0,,,,,,,,,,,,,,,,,,,,,,,,,,,,,,,,,,,,,,,,,,,,,,,,,,,,,,,,,,,,,,,,323,2023-03-13_14h29.45.586,Main,2022.2.2,60.171874943611954,
positive,blue,1,k,None,0,0,0,0,,,,,0,0,0,0,,,,,,,,,0,60,60,105,,,,,,,,,,,,,,,,,,,,,,,,,,,,,,,,,main,443.6401434999999,None,None,1,1.528852299999926,None,1,,,,,,,,,,,,,,,,,,,,,,,,,,,,,,,,,,,,,,,,,,,,,,,,,,,,,,,,,,,,,,,,323,2023-03-13_14h29.45.586,Main,2022.2.2,60.171874943611954,
negative,blue,1,None,k,0,0,0,0,,,,,0,0,0,0,,,,,,,,,0,61,61,162,,,,,,,,,,,,,,,,,,,,,,,,,,,,,,,,,main,446.1675498999999,k,k,1,1.2632451000001765,None,0,,,,,,,,,,,,,,,,,,,,,,,,,,,,,,,,,,,,,,,,,,,,,,,,,,,,,,,,,,,,,,,,323,2023-03-13_14h29.45.586,Main,2022.2.2,60.171874943611954,
negative,red,1,None,None,0,0,0,0,,,,,0,0,0,0,,,,,,,,,0,62,62,232,,,,,,,,,,,,,,,,,,,,,,,,,,,,,,,,,main,448.43193959999996,None,None,1,1.5110857000001943,None,1,,,,,,,,,,,,,,,,,,,,,,,,,,,,,,,,,,,,,,,,,,,,,,,,,,,,,,,,,,,,,,,,323,2023-03-13_14h29.45.586,Main,2022.2.2,60.171874943611954,
negative,red,2,None,None,0,0,0,0,,,,,0,0,0,0,,,,,,,,,0,63,63,210,,,,,,,,,,,,,,,,,,,,,,,,,,,,,,,,,main,450.9451669000001,None,None,1,1.5135783999999148,None,1,,,,,,,,,,,,,,,,,,,,,,,,,,,,,,,,,,,,,,,,,,,,,,,,,,,,,,,,,,,,,,,,323,2023-03-13_14h29.45.586,Main,2022.2.2,60.171874943611954,
positive,yellow,2,None,k,0,0,0,0,,,,,0,0,0,0,,,,,,,,,0,64,64,53,,,,,,,,,,,,,,,,,,,,,,,,,,,,,,,,,main,453.4681205999999,k,k,1,1.095287399999961,None,0,,,,,,,,,,,,,,,,,,,,,,,,,,,,,,,,,,,,,,,,,,,,,,,,,,,,,,,,,,,,,,,,323,2023-03-13_14h29.45.586,Main,2022.2.2,60.171874943611954,
positive,yellow,2,None,k,0,0,0,0,,,,,0,0,0,0,,,,,,,,,0,65,65,67,,,,,,,,,,,,,,,,,,,,,,,,,,,,,,,,,main,455.56614350000007,k,k,1,0.7625940999998875,None,0,,,,,,,,,,,,,,,,,,,,,,,,,,,,,,,,,,,,,,,,,,,,,,,,,,,,,,,,,,,,,,,,323,2023-03-13_14h29.45.586,Main,2022.2.2,60.171874943611954,
negative,blue,1,None,k,0,0,0,0,,,,,0,0,0,0,,,,,,,,,0,66,66,95,,,,,,,,,,,,,,,,,,,,,,,,,,,,,,,,,main,457.3325747,k,k,1,0.9469340999999076,None,0,,,,,,,,,,,,,,,,,,,,,,,,,,,,,,,,,,,,,,,,,,,,,,,,,,,,,,,,,,,,,,,,323,2023-03-13_14h29.45.586,Main,2022.2.2,60.171874943611954,
negative,blue,2,None,k,0,0,0,0,,,,,0,0,0,0,,,,,,,,,0,67,67,145,,,,,,,,,,,,,,,,,,,,,,,,,,,,,,,,,main,459.2811542999999,k,k,1,0.7807998999999199,None,0,,,,,,,,,,,,,,,,,,,,,,,,,,,,,,,,,,,,,,,,,,,,,,,,,,,,,,,,,,,,,,,,323,2023-03-13_14h29.45.586,Main,2022.2.2,60.171874943611954,
negative,yellow,1,k,None,0,0,0,0,,,,,0,0,0,0,,,,,,,,,0,68,68,159,,,,,,,,,,,,,,,,,,,,,,,,,,,,,,,,,main,461.0694360000001,None,None,1,1.5109718000001067,None,1,,,,,,,,,,,,,,,,,,,,,,,,,,,,,,,,,,,,,,,,,,,,,,,,,,,,,,,,,,,,,,,,323,2023-03-13_14h29.45.586,Main,2022.2.2,60.171874943611954,
positive,red,2,None,None,0,0,0,0,,,,,0,0,0,0,,,,,,,,,0,69,69,80,,,,,,,,,,,,,,,,,,,,,,,,,,,,,,,,,main,463.57575699999995,None,None,1,1.5220009000001937,None,1,,,,,,,,,,,,,,,,,,,,,,,,,,,,,,,,,,,,,,,,,,,,,,,,,,,,,,,,,,,,,,,,323,2023-03-13_14h29.45.586,Main,2022.2.2,60.171874943611954,
positive,yellow,1,None,k,0,0,0,0,,,,,0,0,0,0,,,,,,,,,0,70,70,8,,,,,,,,,,,,,,,,,,,,,,,,,,,,,,,,,main,466.10318659999996,k,k,1,0.671080899999879,None,0,,,,,,,,,,,,,,,,,,,,,,,,,,,,,,,,,,,,,,,,,,,,,,,,,,,,,,,,,,,,,,,,323,2023-03-13_14h29.45.586,Main,2022.2.2,60.171874943611954,
negative,blue,1,None,k,0,0,0,0,,,,,0,0,0,0,,,,,,,,,0,71,71,94,,,,,,,,,,,,,,,,,,,,,,,,,,,,,,,,,main,467.77420100000006,k,k,1,0.8946935999999823,None,0,,,,,,,,,,,,,,,,,,,,,,,,,,,,,,,,,,,,,,,,,,,,,,,,,,,,,,,,,,,,,,,,323,2023-03-13_14h29.45.586,Main,2022.2.2,60.171874943611954,
positive,blue,2,k,None,0,0,0,0,,,,,0,0,0,0,,,,,,,,,0,72,72,84,,,,,,,,,,,,,,,,,,,,,,,,,,,,,,,,,main,469.6737197000001,None,None,1,1.5056444000001648,None,1,,,,,,,,,,,,,,,,,,,,,,,,,,,,,,,,,,,,,,,,,,,,,,,,,,,,,,,,,,,,,,,,323,2023-03-13_14h29.45.586,Main,2022.2.2,60.171874943611954,
negative,yellow,2,k,None,0,0,0,0,,,,,0,0,0,0,,,,,,,,,0,73,73,65,,,,,,,,,,,,,,,,,,,,,,,,,,,,,,,,,main,472.18449670000007,None,None,1,1.5127462000000378,None,1,,,,,,,,,,,,,,,,,,,,,,,,,,,,,,,,,,,,,,,,,,,,,,,,,,,,,,,,,,,,,,,,323,2023-03-13_14h29.45.586,Main,2022.2.2,60.171874943611954,
positive,yellow,1,None,k,0,0,0,0,,,,,0,0,0,0,,,,,,,,,0,74,74,230,,,,,,,,,,,,,,,,,,,,,,,,,,,,,,,,,main,474.7007500000001,k,k,1,0.7212801999999101,None,0,,,,,,,,,,,,,,,,,,,,,,,,,,,,,,,,,,,,,,,,,,,,,,,,,,,,,,,,,,,,,,,,323,2023-03-13_14h29.45.586,Main,2022.2.2,60.171874943611954,
positive,red,2,None,None,0,0,0,0,,,,,0,0,0,0,,,,,,,,,0,75,75,227,,,,,,,,,,,,,,,,,,,,,,,,,,,,,,,,,main,476.42983130000005,None,None,1,1.5176446000000396,None,1,,,,,,,,,,,,,,,,,,,,,,,,,,,,,,,,,,,,,,,,,,,,,,,,,,,,,,,,,,,,,,,,323,2023-03-13_14h29.45.586,Main,2022.2.2,60.171874943611954,
positive,blue,1,k,None,0,0,0,0,,,,,0,0,0,0,,,,,,,,,0,76,76,3,,,,,,,,,,,,,,,,,,,,,,,,,,,,,,,,,main,478.94476180000004,None,None,1,1.5220746999998482,None,1,,,,,,,,,,,,,,,,,,,,,,,,,,,,,,,,,,,,,,,,,,,,,,,,,,,,,,,,,,,,,,,,323,2023-03-13_14h29.45.586,Main,2022.2.2,60.171874943611954,
negative,yellow,1,k,None,0,0,0,0,,,,,0,0,0,0,,,,,,,,,0,77,77,234,,,,,,,,,,,,,,,,,,,,,,,,,,,,,,,,,main,481.4712743000001,None,None,1,1.5136509999999817,None,1,,,,,,,,,,,,,,,,,,,,,,,,,,,,,,,,,,,,,,,,,,,,,,,,,,,,,,,,,,,,,,,,323,2023-03-13_14h29.45.586,Main,2022.2.2,60.171874943611954,
positive,blue,1,k,None,0,0,0,0,,,,,0,0,0,0,,,,,,,,,0,78,78,87,,,,,,,,,,,,,,,,,,,,,,,,,,,,,,,,,main,483.9870429000001,None,None,1,1.5279469000001882,None,1,,,,,,,,,,,,,,,,,,,,,,,,,,,,,,,,,,,,,,,,,,,,,,,,,,,,,,,,,,,,,,,,323,2023-03-13_14h29.45.586,Main,2022.2.2,60.171874943611954,
positive,yellow,1,None,k,0,0,0,0,,,,,0,0,0,0,,,,,,,,,0,79,79,185,,,,,,,,,,,,,,,,,,,,,,,,,,,,,,,,,main,486.51612979999993,k,k,1,0.9533247000001666,None,0,,,,,,,,,,,,,,,,,,,,,,,,,,,,,,,,,,,,,,,,,,,,,,,,,,,,,,,,,,,,,,,,323,2023-03-13_14h29.45.586,Main,2022.2.2,60.171874943611954,
negative,blue,2,None,k,0,0,0,0,,,,,0,0,0,0,,,,,,,,,0,80,80,175,,,,,,,,,,,,,,,,,,,,,,,,,,,,,,,,,main,488.47559609999996,k,k,1,0.8829309999998713,None,0,,,,,,,,,,,,,,,,,,,,,,,,,,,,,,,,,,,,,,,,,,,,,,,,,,,,,,,,,,,,,,,,323,2023-03-13_14h29.45.586,Main,2022.2.2,60.171874943611954,
negative,red,2,None,None,0,0,0,0,,,,,0,0,0,0,,,,,,,,,0,81,81,92,,,,,,,,,,,,,,,,,,,,,,,,,,,,,,,,,main,490.3580665999999,None,None,1,1.5067189999999755,None,1,,,,,,,,,,,,,,,,,,,,,,,,,,,,,,,,,,,,,,,,,,,,,,,,,,,,,,,,,,,,,,,,323,2023-03-13_14h29.45.586,Main,2022.2.2,60.171874943611954,
positive,yellow,1,None,k,0,0,0,0,,,,,0,0,0,0,,,,,,,,,0,82,82,118,,,,,,,,,,,,,,,,,,,,,,,,,,,,,,,,,main,492.86975429999995,k,k,1,0.7350087000002077,None,0,,,,,,,,,,,,,,,,,,,,,,,,,,,,,,,,,,,,,,,,,,,,,,,,,,,,,,,,,,,,,,,,323,2023-03-13_14h29.45.586,Main,2022.2.2,60.171874943611954,
positive,blue,2,k,None,0,0,0,0,,,,,0,0,0,0,,,,,,,,,0,83,83,192,,,,,,,,,,,,,,,,,,,,,,,,,,,,,,,,,main,494.6136501,None,k,0,0.7916414999999688,None,1,,,,,,,,,,,,,,,,,,,,,,,,,,,,,,,,,,,,,,,,,,,,,,,,,,,,,,,,,,,,,,,,323,2023-03-13_14h29.45.586,Main,2022.2.2,60.171874943611954,
positive,yellow,1,None,k,0,0,0,0,,,,,0,0,0,0,,,,,,,,,0,84,84,48,,,,,,,,,,,,,,,,,,,,,,,,,,,,,,,,,main,497.4246744000001,k,k,1,1.5761443999999756,None,0,,,,,,,,,,,,,,,,,,,,,,,,,,,,,,,,,,,,,,,,,,,,,,,,,,,,,,,,,,,,,,,,323,2023-03-13_14h29.45.586,Main,2022.2.2,60.171874943611954,
negative,blue,2,None,k,0,0,0,0,,,,,0,0,0,0,,,,,,,,,0,85,85,199,,,,,,,,,,,,,,,,,,,,,,,,,,,,,,,,,main,501.0282848999999,k,k,1,0.8714365000000726,None,0,,,,,,,,,,,,,,,,,,,,,,,,,,,,,,,,,,,,,,,,,,,,,,,,,,,,,,,,,,,,,,,,323,2023-03-13_14h29.45.586,Main,2022.2.2,60.171874943611954,
negative,blue,2,None,k,0,0,0,0,,,,,0,0,0,0,,,,,,,,,0,86,86,110,,,,,,,,,,,,,,,,,,,,,,,,,,,,,,,,,main,502.9135440000001,k,k,1,1.1932903000001716,None,0,,,,,,,,,,,,,,,,,,,,,,,,,,,,,,,,,,,,,,,,,,,,,,,,,,,,,,,,,,,,,,,,323,2023-03-13_14h29.45.586,Main,2022.2.2,60.171874943611954,
negative,blue,1,None,k,0,0,0,0,,,,,0,0,0,0,,,,,,,,,0,87,87,196,,,,,,,,,,,,,,,,,,,,,,,,,,,,,,,,,main,505.10254999999995,k,k,1,0.9599536000000626,None,0,,,,,,,,,,,,,,,,,,,,,,,,,,,,,,,,,,,,,,,,,,,,,,,,,,,,,,,,,,,,,,,,323,2023-03-13_14h29.45.586,Main,2022.2.2,60.171874943611954,
negative,blue,1,None,k,0,0,0,0,,,,,0,0,0,0,,,,,,,,,0,88,88,211,,,,,,,,,,,,,,,,,,,,,,,,,,,,,,,,,main,507.06996689999994,k,k,1,0.7664475000001403,None,0,,,,,,,,,,,,,,,,,,,,,,,,,,,,,,,,,,,,,,,,,,,,,,,,,,,,,,,,,,,,,,,,323,2023-03-13_14h29.45.586,Main,2022.2.2,60.171874943611954,
negative,blue,2,None,k,0,0,0,0,,,,,0,0,0,0,,,,,,,,,0,89,89,198,,,,,,,,,,,,,,,,,,,,,,,,,,,,,,,,,main,508.8386756000001,k,k,1,0.9286733000001277,None,0,,,,,,,,,,,,,,,,,,,,,,,,,,,,,,,,,,,,,,,,,,,,,,,,,,,,,,,,,,,,,,,,323,2023-03-13_14h29.45.586,Main,2022.2.2,60.171874943611954,
negative,blue,2,None,k,0,0,0,0,,,,,0,0,0,0,,,,,,,,,0,90,90,204,,,,,,,,,,,,,,,,,,,,,,,,,,,,,,,,,main,510.769455,k,k,1,0.6740380000001096,None,0,,,,,,,,,,,,,,,,,,,,,,,,,,,,,,,,,,,,,,,,,,,,,,,,,,,,,,,,,,,,,,,,323,2023-03-13_14h29.45.586,Main,2022.2.2,60.171874943611954,
negative,red,2,None,None,0,0,0,0,,,,,0,0,0,0,,,,,,,,,0,91,91,24,,,,,,,,,,,,,,,,,,,,,,,,,,,,,,,,,main,512.4401904,None,None,1,1.5213077000000794,None,1,,,,,,,,,,,,,,,,,,,,,,,,,,,,,,,,,,,,,,,,,,,,,,,,,,,,,,,,,,,,,,,,323,2023-03-13_14h29.45.586,Main,2022.2.2,60.171874943611954,
negative,yellow,1,k,None,0,0,0,0,,,,,0,0,0,0,,,,,,,,,0,92,92,188,,,,,,,,,,,,,,,,,,,,,,,,,,,,,,,,,main,514.9652731,None,None,1,1.5163660999999138,None,1,,,,,,,,,,,,,,,,,,,,,,,,,,,,,,,,,,,,,,,,,,,,,,,,,,,,,,,,,,,,,,,,323,2023-03-13_14h29.45.586,Main,2022.2.2,60.171874943611954,
negative,red,2,None,None,0,0,0,0,,,,,0,0,0,0,,,,,,,,,0,93,93,73,,,,,,,,,,,,,,,,,,,,,,,,,,,,,,,,,main,517.4876578,None,None,1,1.5169641999998476,None,1,,,,,,,,,,,,,,,,,,,,,,,,,,,,,,,,,,,,,,,,,,,,,,,,,,,,,,,,,,,,,,,,323,2023-03-13_14h29.45.586,Main,2022.2.2,60.171874943611954,
positive,yellow,1,None,k,0,0,0,0,,,,,0,0,0,0,,,,,,,,,0,94,94,193,,,,,,,,,,,,,,,,,,,,,,,,,,,,,,,,,main,520.0099415000001,k,k,1,0.8667138000000705,None,0,,,,,,,,,,,,,,,,,,,,,,,,,,,,,,,,,,,,,,,,,,,,,,,,,,,,,,,,,,,,,,,,323,2023-03-13_14h29.45.586,Main,2022.2.2,60.171874943611954,
positive,yellow,2,None,k,0,0,0,0,,,,,0,0,0,0,,,,,,,,,0,95,95,174,,,,,,,,,,,,,,,,,,,,,,,,,,,,,,,,,main,521.8828032,k,k,1,0.746268099999952,None,0,,,,,,,,,,,,,,,,,,,,,,,,,,,,,,,,,,,,,,,,,,,,,,,,,,,,,,,,,,,,,,,,323,2023-03-13_14h29.45.586,Main,2022.2.2,60.171874943611954,
positive,blue,2,k,None,0,0,0,0,,,,,0,0,0,0,,,,,,,,,0,96,96,172,,,,,,,,,,,,,,,,,,,,,,,,,,,,,,,,,main,523.6431249000001,None,None,1,1.5314875999999913,None,1,,,,,,,,,,,,,,,,,,,,,,,,,,,,,,,,,,,,,,,,,,,,,,,,,,,,,,,,,,,,,,,,323,2023-03-13_14h29.45.586,Main,2022.2.2,60.171874943611954,
positive,blue,1,k,None,0,0,0,0,,,,,0,0,0,0,,,,,,,,,0,97,97,79,,,,,,,,,,,,,,,,,,,,,,,,,,,,,,,,,main,526.1707150999999,None,None,1,1.5306202000001576,None,1,,,,,,,,,,,,,,,,,,,,,,,,,,,,,,,,,,,,,,,,,,,,,,,,,,,,,,,,,,,,,,,,323,2023-03-13_14h29.45.586,Main,2022.2.2,60.171874943611954,
positive,yellow,1,None,k,0,0,0,0,,,,,0,0,0,0,,,,,,,,,0,98,98,69,,,,,,,,,,,,,,,,,,,,,,,,,,,,,,,,,main,528.7025967000001,k,k,1,1.0099496000000272,None,0,,,,,,,,,,,,,,,,,,,,,,,,,,,,,,,,,,,,,,,,,,,,,,,,,,,,,,,,,,,,,,,,323,2023-03-13_14h29.45.586,Main,2022.2.2,60.171874943611954,
positive,yellow,1,None,k,0,0,0,0,,,,,0,0,0,0,,,,,,,,,0,99,99,55,,,,,,,,,,,,,,,,,,,,,,,,,,,,,,,,,main,530.7333196999999,k,k,1,0.6970013000000108,None,0,,,,,,,,,,,,,,,,,,,,,,,,,,,,,,,,,,,,,,,,,,,,,,,,,,,,,,,,,,,,,,,,323,2023-03-13_14h29.45.586,Main,2022.2.2,60.171874943611954,
negative,red,2,None,None,0,0,0,0,,,,,0,0,0,0,,,,,,,,,0,100,100,149,,,,,,,,,,,,,,,,,,,,,,,,,,,,,,,,,main,532.4192529999999,None,None,1,1.5194001999998363,None,1,,,,,,,,,,,,,,,,,,,,,,,,,,,,,,,,,,,,,,,,,,,,,,,,,,,,,,,,,,,,,,,,323,2023-03-13_14h29.45.586,Main,2022.2.2,60.171874943611954,
negative,blue,2,None,k,0,0,0,0,,,,,0,0,0,0,,,,,,,,,0,101,101,152,,,,,,,,,,,,,,,,,,,,,,,,,,,,,,,,,main,534.9445151000001,k,k,1,0.8049398000000565,None,0,,,,,,,,,,,,,,,,,,,,,,,,,,,,,,,,,,,,,,,,,,,,,,,,,,,,,,,,,,,,,,,,323,2023-03-13_14h29.45.586,Main,2022.2.2,60.171874943611954,
negative,yellow,1,k,None,0,0,0,0,,,,,0,0,0,0,,,,,,,,,0,102,102,77,,,,,,,,,,,,,,,,,,,,,,,,,,,,,,,,,main,536.7481243999999,None,None,1,1.531686900000068,None,1,,,,,,,,,,,,,,,,,,,,,,,,,,,,,,,,,,,,,,,,,,,,,,,,,,,,,,,,,,,,,,,,323,2023-03-13_14h29.45.586,Main,2022.2.2,60.171874943611954,
negative,yellow,2,k,None,0,0,0,0,,,,,0,0,0,0,,,,,,,,,0,103,103,167,,,,,,,,,,,,,,,,,,,,,,,,,,,,,,,,,main,539.2855159,None,None,1,1.5123983999999382,None,1,,,,,,,,,,,,,,,,,,,,,,,,,,,,,,,,,,,,,,,,,,,,,,,,,,,,,,,,,,,,,,,,323,2023-03-13_14h29.45.586,Main,2022.2.2,60.171874943611954,
negative,yellow,2,k,None,0,0,0,0,,,,,0,0,0,0,,,,,,,,,0,104,104,4,,,,,,,,,,,,,,,,,,,,,,,,,,,,,,,,,main,541.8013112,None,None,1,1.525168399999984,None,1,,,,,,,,,,,,,,,,,,,,,,,,,,,,,,,,,,,,,,,,,,,,,,,,,,,,,,,,,,,,,,,,323,2023-03-13_14h29.45.586,Main,2022.2.2,60.171874943611954,
negative,yellow,2,k,None,0,0,0,0,,,,,0,0,0,0,,,,,,,,,0,105,105,202,,,,,,,,,,,,,,,,,,,,,,,,,,,,,,,,,main,544.329404,None,None,1,1.5319752000000335,None,1,,,,,,,,,,,,,,,,,,,,,,,,,,,,,,,,,,,,,,,,,,,,,,,,,,,,,,,,,,,,,,,,323,2023-03-13_14h29.45.586,Main,2022.2.2,60.171874943611954,
positive,blue,2,k,None,0,0,0,0,,,,,0,0,0,0,,,,,,,,,0,106,106,133,,,,,,,,,,,,,,,,,,,,,,,,,,,,,,,,,main,546.8629755999999,None,None,1,1.5108490999998594,None,1,,,,,,,,,,,,,,,,,,,,,,,,,,,,,,,,,,,,,,,,,,,,,,,,,,,,,,,,,,,,,,,,323,2023-03-13_14h29.45.586,Main,2022.2.2,60.171874943611954,
positive,blue,2,k,None,0,0,0,0,,,,,0,0,0,0,,,,,,,,,0,107,107,228,,,,,,,,,,,,,,,,,,,,,,,,,,,,,,,,,main,549.3791374000001,None,None,1,1.5244608000000426,None,1,,,,,,,,,,,,,,,,,,,,,,,,,,,,,,,,,,,,,,,,,,,,,,,,,,,,,,,,,,,,,,,,323,2023-03-13_14h29.45.586,Main,2022.2.2,60.171874943611954,
negative,yellow,2,k,None,0,0,0,0,,,,,0,0,0,0,,,,,,,,,0,108,108,88,,,,,,,,,,,,,,,,,,,,,,,,,,,,,,,,,main,551.8998525999999,None,None,1,1.2799603000000843,None,1,,,,,,,,,,,,,,,,,,,,,,,,,,,,,,,,,,,,,,,,,,,,,,,,,,,,,,,,,,,,,,,,323,2023-03-13_14h29.45.586,Main,2022.2.2,60.171874943611954,
negative,yellow,2,k,None,0,0,0,0,,,,,0,0,0,0,,,,,,,,,0,109,109,225,,,,,,,,,,,,,,,,,,,,,,,,,,,,,,,,,main,554.1927905000001,None,k,0,1.5224843000000874,None,1,,,,,,,,,,,,,,,,,,,,,,,,,,,,,,,,,,,,,,,,,,,,,,,,,,,,,,,,,,,,,,,,323,2023-03-13_14h29.45.586,Main,2022.2.2,60.171874943611954,
negative,blue,2,None,k,0,0,0,0,,,,,0,0,0,0,,,,,,,,,0,110,110,75,,,,,,,,,,,,,,,,,,,,,,,,,,,,,,,,,main,557.7290041,k,k,1,1.5921648000000914,None,0,,,,,,,,,,,,,,,,,,,,,,,,,,,,,,,,,,,,,,,,,,,,,,,,,,,,,,,,,,,,,,,,323,2023-03-13_14h29.45.586,Main,2022.2.2,60.171874943611954,
negative,blue,2,None,k,0,0,0,0,,,,,0,0,0,0,,,,,,,,,0,111,111,226,,,,,,,,,,,,,,,,,,,,,,,,,,,,,,,,,main,561.3473189,k,k,1,0.9611353999998755,None,0,,,,,,,,,,,,,,,,,,,,,,,,,,,,,,,,,,,,,,,,,,,,,,,,,,,,,,,,,,,,,,,,323,2023-03-13_14h29.45.586,Main,2022.2.2,60.171874943611954,
negative,blue,2,None,k,0,0,0,0,,,,,0,0,0,0,,,,,,,,,0,112,112,102,,,,,,,,,,,,,,,,,,,,,,,,,,,,,,,,,main,563.3131041,k,k,1,0.6121652000001632,None,0,,,,,,,,,,,,,,,,,,,,,,,,,,,,,,,,,,,,,,,,,,,,,,,,,,,,,,,,,,,,,,,,323,2023-03-13_14h29.45.586,Main,2022.2.2,60.171874943611954,
negative,red,1,None,None,0,0,0,0,,,,,0,0,0,0,,,,,,,,,0,113,113,181,,,,,,,,,,,,,,,,,,,,,,,,,,,,,,,,,main,564.9238185,None,None,1,1.5116536000000451,None,1,,,,,,,,,,,,,,,,,,,,,,,,,,,,,,,,,,,,,,,,,,,,,,,,,,,,,,,,,,,,,,,,323,2023-03-13_14h29.45.586,Main,2022.2.2,60.171874943611954,
positive,blue,2,k,None,0,0,0,0,,,,,0,0,0,0,,,,,,,,,0,114,114,42,,,,,,,,,,,,,,,,,,,,,,,,,,,,,,,,,main,567.4412682000001,None,None,1,1.515218300000015,None,1,,,,,,,,,,,,,,,,,,,,,,,,,,,,,,,,,,,,,,,,,,,,,,,,,,,,,,,,,,,,,,,,323,2023-03-13_14h29.45.586,Main,2022.2.2,60.171874943611954,
negative,yellow,2,k,None,0,0,0,0,,,,,0,0,0,0,,,,,,,,,0,115,115,124,,,,,,,,,,,,,,,,,,,,,,,,,,,,,,,,,main,569.9594866000001,None,None,1,1.5220063000001574,None,1,,,,,,,,,,,,,,,,,,,,,,,,,,,,,,,,,,,,,,,,,,,,,,,,,,,,,,,,,,,,,,,,323,2023-03-13_14h29.45.586,Main,2022.2.2,60.171874943611954,
negative,yellow,1,k,None,0,0,0,0,,,,,0,0,0,0,,,,,,,,,0,116,116,61,,,,,,,,,,,,,,,,,,,,,,,,,,,,,,,,,main,572.4806572000001,None,None,1,1.5127171999999973,None,1,,,,,,,,,,,,,,,,,,,,,,,,,,,,,,,,,,,,,,,,,,,,,,,,,,,,,,,,,,,,,,,,323,2023-03-13_14h29.45.586,Main,2022.2.2,60.171874943611954,
positive,red,2,None,None,0,0,0,0,,,,,0,0,0,0,,,,,,,,,0,117,117,60,,,,,,,,,,,,,,,,,,,,,,,,,,,,,,,,,main,575.0007750999999,None,None,1,1.5264176999999108,None,1,,,,,,,,,,,,,,,,,,,,,,,,,,,,,,,,,,,,,,,,,,,,,,,,,,,,,,,,,,,,,,,,323,2023-03-13_14h29.45.586,Main,2022.2.2,60.171874943611954,
negative,yellow,2,k,None,0,0,0,0,,,,,0,0,0,0,,,,,,,,,0,118,118,32,,,,,,,,,,,,,,,,,,,,,,,,,,,,,,,,,main,577.5263362,None,None,1,1.5066322000000127,None,1,,,,,,,,,,,,,,,,,,,,,,,,,,,,,,,,,,,,,,,,,,,,,,,,,,,,,,,,,,,,,,,,323,2023-03-13_14h29.45.586,Main,2022.2.2,60.171874943611954,
positive,blue,1,k,None,0,0,0,0,,,,,0,0,0,0,,,,,,,,,0,119,119,213,,,,,,,,,,,,,,,,,,,,,,,,,,,,,,,,,main,580.037553,None,None,1,1.5307811000000129,None,1,,,,,,,,,,,,,,,,,,,,,,,,,,,,,,,,,,,,,,,,,,,,,,,,,,,,,,,,,,,,,,,,323,2023-03-13_14h29.45.586,Main,2022.2.2,60.171874943611954,
positive,blue,1,k,None,0,0,0,0,,,,,0,0,0,0,,,,,,,,,0,120,120,187,0,0,0,0,,,,,,,,,,,,,,,,,,,,,,,,,,,,,main,582.5705093,None,None,1,1.511542899999995,None,1,,,,,,,,,585.0939528,585.0939528,585.0939528,585.0939528,None,,,,,,,,,,,,,,,,,,,,,,,,,,,,,,,,,,,,,,,,,,,,,,,,,,,323,2023-03-13_14h29.45.586,Main,2022.2.2,60.171874943611954,
positive,blue,1,k,None,0,0,0,0,,,,,0,0,0,0,,,,,,,,,0,120,120,187,,,,,,,,,,,,,,,,,,,,,,,,,,,,,,,,,,,,,,,,,,,,,,,,,,,,,,,,,,,,,,,,,,,,,,,,,,,,,,,,,,,,,,,,,,,,,,,,,,,,,,,,323,2023-03-13_14h29.45.586,Main,2022.2.2,60.171874943611954,
positive,blue,2,k,None,0,0,0,0,,,,,0,0,0,0,,,,,,,,,0,121,121,111,,,,,,,,,,,,,,,,,,,,,,,,,,,,,,,,,main,645.1047216000001,None,None,1,1.527791200000138,None,1,,,,,,,,,,,,,,,,,,,,,,,,,,,,,,,,,,,,,,,,,,,,,,,,,,,,,,,,,,,,,,,,323,2023-03-13_14h29.45.586,Main,2022.2.2,60.171874943611954,
positive,yellow,1,None,k,0,0,0,0,,,,,0,0,0,0,,,,,,,,,0,122,122,97,,,,,,,,,,,,,,,,,,,,,,,,,,,,,,,,,main,647.6319520999999,k,k,1,0.8014140000000225,None,0,,,,,,,,,,,,,,,,,,,,,,,,,,,,,,,,,,,,,,,,,,,,,,,,,,,,,,,,,,,,,,,,323,2023-03-13_14h29.45.586,Main,2022.2.2,60.171874943611954,
positive,yellow,2,None,k,0,0,0,0,,,,,0,0,0,0,,,,,,,,,0,123,123,224,,,,,,,,,,,,,,,,,,,,,,,,,,,,,,,,,main,649.4354995,k,k,1,0.8755613999999241,None,0,,,,,,,,,,,,,,,,,,,,,,,,,,,,,,,,,,,,,,,,,,,,,,,,,,,,,,,,,,,,,,,,323,2023-03-13_14h29.45.586,Main,2022.2.2,60.171874943611954,
positive,blue,2,k,None,0,0,0,0,,,,,0,0,0,0,,,,,,,,,0,124,124,17,,,,,,,,,,,,,,,,,,,,,,,,,,,,,,,,,main,651.3118184000001,None,None,1,1.5256764000000658,None,1,,,,,,,,,,,,,,,,,,,,,,,,,,,,,,,,,,,,,,,,,,,,,,,,,,,,,,,,,,,,,,,,323,2023-03-13_14h29.45.586,Main,2022.2.2,60.171874943611954,
negative,blue,1,None,k,0,0,0,0,,,,,0,0,0,0,,,,,,,,,0,125,125,49,,,,,,,,,,,,,,,,,,,,,,,,,,,,,,,,,main,653.8397976,k,k,1,0.9030245999999806,None,0,,,,,,,,,,,,,,,,,,,,,,,,,,,,,,,,,,,,,,,,,,,,,,,,,,,,,,,,,,,,,,,,323,2023-03-13_14h29.45.586,Main,2022.2.2,60.171874943611954,
positive,red,1,None,None,0,0,0,0,,,,,0,0,0,0,,,,,,,,,0,126,126,236,,,,,,,,,,,,,,,,,,,,,,,,,,,,,,,,,main,655.7556065,None,None,1,1.5108138999999028,None,1,,,,,,,,,,,,,,,,,,,,,,,,,,,,,,,,,,,,,,,,,,,,,,,,,,,,,,,,,,,,,,,,323,2023-03-13_14h29.45.586,Main,2022.2.2,60.171874943611954,
negative,yellow,2,k,None,0,0,0,0,,,,,0,0,0,0,,,,,,,,,0,127,127,151,,,,,,,,,,,,,,,,,,,,,,,,,,,,,,,,,main,658.2639992999999,None,None,1,1.5319719999999961,None,1,,,,,,,,,,,,,,,,,,,,,,,,,,,,,,,,,,,,,,,,,,,,,,,,,,,,,,,,,,,,,,,,323,2023-03-13_14h29.45.586,Main,2022.2.2,60.171874943611954,
negative,blue,2,None,k,0,0,0,0,,,,,0,0,0,0,,,,,,,,,0,128,128,89,,,,,,,,,,,,,,,,,,,,,,,,,,,,,,,,,main,660.7982245,k,k,1,0.8336890000000494,None,0,,,,,,,,,,,,,,,,,,,,,,,,,,,,,,,,,,,,,,,,,,,,,,,,,,,,,,,,,,,,,,,,323,2023-03-13_14h29.45.586,Main,2022.2.2,60.171874943611954,
negative,red,1,None,None,0,0,0,0,,,,,0,0,0,0,,,,,,,,,0,129,129,114,,,,,,,,,,,,,,,,,,,,,,,,,,,,,,,,,main,662.6416671000001,None,None,1,1.5261329999998452,None,1,,,,,,,,,,,,,,,,,,,,,,,,,,,,,,,,,,,,,,,,,,,,,,,,,,,,,,,,,,,,,,,,323,2023-03-13_14h29.45.586,Main,2022.2.2,60.171874943611954,
negative,yellow,1,k,None,0,0,0,0,,,,,0,0,0,0,,,,,,,,,0,130,130,129,,,,,,,,,,,,,,,,,,,,,,,,,,,,,,,,,main,665.1630025999999,None,None,1,1.5116453000000547,None,1,,,,,,,,,,,,,,,,,,,,,,,,,,,,,,,,,,,,,,,,,,,,,,,,,,,,,,,,,,,,,,,,323,2023-03-13_14h29.45.586,Main,2022.2.2,60.171874943611954,
positive,red,2,None,None,0,0,0,0,,,,,0,0,0,0,,,,,,,,,0,131,131,219,,,,,,,,,,,,,,,,,,,,,,,,,,,,,,,,,main,667.6773734,None,None,1,1.5268595000000005,None,1,,,,,,,,,,,,,,,,,,,,,,,,,,,,,,,,,,,,,,,,,,,,,,,,,,,,,,,,,,,,,,,,323,2023-03-13_14h29.45.586,Main,2022.2.2,60.171874943611954,
positive,red,1,None,None,0,0,0,0,,,,,0,0,0,0,,,,,,,,,0,132,132,99,,,,,,,,,,,,,,,,,,,,,,,,,,,,,,,,,main,670.2084817000001,None,None,1,1.5198437999999896,None,1,,,,,,,,,,,,,,,,,,,,,,,,,,,,,,,,,,,,,,,,,,,,,,,,,,,,,,,,,,,,,,,,323,2023-03-13_14h29.45.586,Main,2022.2.2,60.171874943611954,
positive,blue,1,k,None,0,0,0,0,,,,,0,0,0,0,,,,,,,,,0,133,133,58,,,,,,,,,,,,,,,,,,,,,,,,,,,,,,,,,main,672.7339745,None,None,1,1.5191935000000285,None,1,,,,,,,,,,,,,,,,,,,,,,,,,,,,,,,,,,,,,,,,,,,,,,,,,,,,,,,,,,,,,,,,323,2023-03-13_14h29.45.586,Main,2022.2.2,60.171874943611954,
negative,red,2,None,None,0,0,0,0,,,,,0,0,0,0,,,,,,,,,0,134,134,54,,,,,,,,,,,,,,,,,,,,,,,,,,,,,,,,,main,675.2578373,None,None,1,1.5121742000001177,None,1,,,,,,,,,,,,,,,,,,,,,,,,,,,,,,,,,,,,,,,,,,,,,,,,,,,,,,,,,,,,,,,,323,2023-03-13_14h29.45.586,Main,2022.2.2,60.171874943611954,
positive,yellow,2,None,k,0,0,0,0,,,,,0,0,0,0,,,,,,,,,0,135,135,179,,,,,,,,,,,,,,,,,,,,,,,,,,,,,,,,,main,677.7677824000001,k,k,1,1.012988899999982,None,0,,,,,,,,,,,,,,,,,,,,,,,,,,,,,,,,,,,,,,,,,,,,,,,,,,,,,,,,,,,,,,,,323,2023-03-13_14h29.45.586,Main,2022.2.2,60.171874943611954,
negative,blue,1,None,k,0,0,0,0,,,,,0,0,0,0,,,,,,,,,0,136,136,112,,,,,,,,,,,,,,,,,,,,,,,,,,,,,,,,,main,679.7934291,k,k,1,1.3608351000000312,None,0,,,,,,,,,,,,,,,,,,,,,,,,,,,,,,,,,,,,,,,,,,,,,,,,,,,,,,,,,,,,,,,,323,2023-03-13_14h29.45.586,Main,2022.2.2,60.171874943611954,
positive,yellow,1,None,k,0,0,0,0,,,,,0,0,0,0,,,,,,,,,0,137,137,31,,,,,,,,,,,,,,,,,,,,,,,,,,,,,,,,,main,682.1551816,k,k,1,0.8364814999999908,None,0,,,,,,,,,,,,,,,,,,,,,,,,,,,,,,,,,,,,,,,,,,,,,,,,,,,,,,,,,,,,,,,,323,2023-03-13_14h29.45.586,Main,2022.2.2,60.171874943611954,
negative,yellow,2,k,None,0,0,0,0,,,,,0,0,0,0,,,,,,,,,0,138,138,190,,,,,,,,,,,,,,,,,,,,,,,,,,,,,,,,,main,683.9918546,None,None,1,1.5210821000000578,None,1,,,,,,,,,,,,,,,,,,,,,,,,,,,,,,,,,,,,,,,,,,,,,,,,,,,,,,,,,,,,,,,,323,2023-03-13_14h29.45.586,Main,2022.2.2,60.171874943611954,
positive,red,1,None,None,0,0,0,0,,,,,0,0,0,0,,,,,,,,,0,139,139,115,,,,,,,,,,,,,,,,,,,,,,,,,,,,,,,,,main,686.5156068,None,None,1,1.5201426999999512,None,1,,,,,,,,,,,,,,,,,,,,,,,,,,,,,,,,,,,,,,,,,,,,,,,,,,,,,,,,,,,,,,,,323,2023-03-13_14h29.45.586,Main,2022.2.2,60.171874943611954,
positive,blue,2,k,None,0,0,0,0,,,,,0,0,0,0,,,,,,,,,0,140,140,233,,,,,,,,,,,,,,,,,,,,,,,,,,,,,,,,,main,689.0372659000001,None,None,1,1.5311406000000716,None,1,,,,,,,,,,,,,,,,,,,,,,,,,,,,,,,,,,,,,,,,,,,,,,,,,,,,,,,,,,,,,,,,323,2023-03-13_14h29.45.586,Main,2022.2.2,60.171874943611954,
negative,yellow,1,k,None,0,0,0,0,,,,,0,0,0,0,,,,,,,,,0,141,141,98,,,,,,,,,,,,,,,,,,,,,,,,,,,,,,,,,main,691.5718654000001,None,None,1,1.5055423999999675,None,1,,,,,,,,,,,,,,,,,,,,,,,,,,,,,,,,,,,,,,,,,,,,,,,,,,,,,,,,,,,,,,,,323,2023-03-13_14h29.45.586,Main,2022.2.2,60.171874943611954,
negative,yellow,2,k,None,0,0,0,0,,,,,0,0,0,0,,,,,,,,,0,142,142,173,,,,,,,,,,,,,,,,,,,,,,,,,,,,,,,,,main,694.0829311000001,None,None,1,1.5307642000000214,None,1,,,,,,,,,,,,,,,,,,,,,,,,,,,,,,,,,,,,,,,,,,,,,,,,,,,,,,,,,,,,,,,,323,2023-03-13_14h29.45.586,Main,2022.2.2,60.171874943611954,
positive,blue,1,k,None,0,0,0,0,,,,,0,0,0,0,,,,,,,,,0,143,143,130,,,,,,,,,,,,,,,,,,,,,,,,,,,,,,,,,main,696.6200975,None,None,1,1.5302002000000812,None,1,,,,,,,,,,,,,,,,,,,,,,,,,,,,,,,,,,,,,,,,,,,,,,,,,,,,,,,,,,,,,,,,323,2023-03-13_14h29.45.586,Main,2022.2.2,60.171874943611954,
positive,blue,1,k,None,0,0,0,0,,,,,0,0,0,0,,,,,,,,,0,144,144,239,,,,,,,,,,,,,,,,,,,,,,,,,,,,,,,,,main,699.148632,None,None,1,1.5090130999999474,None,1,,,,,,,,,,,,,,,,,,,,,,,,,,,,,,,,,,,,,,,,,,,,,,,,,,,,,,,,,,,,,,,,323,2023-03-13_14h29.45.586,Main,2022.2.2,60.171874943611954,
positive,blue,2,k,None,0,0,0,0,,,,,0,0,0,0,,,,,,,,,0,145,145,106,,,,,,,,,,,,,,,,,,,,,,,,,,,,,,,,,main,701.6597298,None,None,1,1.5185914999999568,None,1,,,,,,,,,,,,,,,,,,,,,,,,,,,,,,,,,,,,,,,,,,,,,,,,,,,,,,,,,,,,,,,,323,2023-03-13_14h29.45.586,Main,2022.2.2,60.171874943611954,
negative,yellow,1,k,None,0,0,0,0,,,,,0,0,0,0,,,,,,,,,0,146,146,45,,,,,,,,,,,,,,,,,,,,,,,,,,,,,,,,,main,704.183159,None,None,1,1.5241697000001295,None,1,,,,,,,,,,,,,,,,,,,,,,,,,,,,,,,,,,,,,,,,,,,,,,,,,,,,,,,,,,,,,,,,323,2023-03-13_14h29.45.586,Main,2022.2.2,60.171874943611954,
positive,red,2,None,None,0,0,0,0,,,,,0,0,0,0,,,,,,,,,0,147,147,52,,,,,,,,,,,,,,,,,,,,,,,,,,,,,,,,,main,706.7131633,None,None,1,1.5104604000000563,None,1,,,,,,,,,,,,,,,,,,,,,,,,,,,,,,,,,,,,,,,,,,,,,,,,,,,,,,,,,,,,,,,,323,2023-03-13_14h29.45.586,Main,2022.2.2,60.171874943611954,
positive,blue,2,k,None,0,0,0,0,,,,,0,0,0,0,,,,,,,,,0,148,148,64,,,,,,,,,,,,,,,,,,,,,,,,,,,,,,,,,main,709.2206850000001,None,None,1,1.5167477999998482,None,1,,,,,,,,,,,,,,,,,,,,,,,,,,,,,,,,,,,,,,,,,,,,,,,,,,,,,,,,,,,,,,,,323,2023-03-13_14h29.45.586,Main,2022.2.2,60.171874943611954,
positive,blue,2,k,None,0,0,0,0,,,,,0,0,0,0,,,,,,,,,0,149,149,201,,,,,,,,,,,,,,,,,,,,,,,,,,,,,,,,,main,711.7430751999999,None,None,1,1.5149483000000146,None,1,,,,,,,,,,,,,,,,,,,,,,,,,,,,,,,,,,,,,,,,,,,,,,,,,,,,,,,,,,,,,,,,323,2023-03-13_14h29.45.586,Main,2022.2.2,60.171874943611954,
positive,blue,2,k,None,0,0,0,0,,,,,0,0,0,0,,,,,,,,,0,150,150,41,,,,,,,,,,,,,,,,,,,,,,,,,,,,,,,,,main,714.2591884,None,None,1,1.5126315999998496,None,1,,,,,,,,,,,,,,,,,,,,,,,,,,,,,,,,,,,,,,,,,,,,,,,,,,,,,,,,,,,,,,,,323,2023-03-13_14h29.45.586,Main,2022.2.2,60.171874943611954,
positive,red,1,None,None,0,0,0,0,,,,,0,0,0,0,,,,,,,,,0,151,151,170,,,,,,,,,,,,,,,,,,,,,,,,,,,,,,,,,main,716.7753878,None,None,1,1.5226076999999805,None,1,,,,,,,,,,,,,,,,,,,,,,,,,,,,,,,,,,,,,,,,,,,,,,,,,,,,,,,,,,,,,,,,323,2023-03-13_14h29.45.586,Main,2022.2.2,60.171874943611954,
positive,yellow,2,None,k,0,0,0,0,,,,,0,0,0,0,,,,,,,,,0,152,152,184,,,,,,,,,,,,,,,,,,,,,,,,,,,,,,,,,main,719.3045399000001,k,k,1,1.4457653000001756,None,0,,,,,,,,,,,,,,,,,,,,,,,,,,,,,,,,,,,,,,,,,,,,,,,,,,,,,,,,,,,,,,,,323,2023-03-13_14h29.45.586,Main,2022.2.2,60.171874943611954,
positive,blue,1,k,None,0,0,0,0,,,,,0,0,0,0,,,,,,,,,0,153,153,178,,,,,,,,,,,,,,,,,,,,,,,,,,,,,,,,,main,721.7561426999999,None,None,1,1.5106223000000227,None,1,,,,,,,,,,,,,,,,,,,,,,,,,,,,,,,,,,,,,,,,,,,,,,,,,,,,,,,,,,,,,,,,323,2023-03-13_14h29.45.586,Main,2022.2.2,60.171874943611954,
negative,yellow,1,k,None,0,0,0,0,,,,,0,0,0,0,,,,,,,,,0,154,154,164,,,,,,,,,,,,,,,,,,,,,,,,,,,,,,,,,main,724.2663074000001,None,None,1,1.5227233000000524,None,1,,,,,,,,,,,,,,,,,,,,,,,,,,,,,,,,,,,,,,,,,,,,,,,,,,,,,,,,,,,,,,,,323,2023-03-13_14h29.45.586,Main,2022.2.2,60.171874943611954,
negative,yellow,2,k,None,0,0,0,0,,,,,0,0,0,0,,,,,,,,,0,155,155,183,,,,,,,,,,,,,,,,,,,,,,,,,,,,,,,,,main,726.7945842,None,None,1,1.5276243000000704,None,1,,,,,,,,,,,,,,,,,,,,,,,,,,,,,,,,,,,,,,,,,,,,,,,,,,,,,,,,,,,,,,,,323,2023-03-13_14h29.45.586,Main,2022.2.2,60.171874943611954,
negative,yellow,2,k,None,0,0,0,0,,,,,0,0,0,0,,,,,,,,,0,156,156,59,,,,,,,,,,,,,,,,,,,,,,,,,,,,,,,,,main,729.3238745,None,None,1,1.5097573000000466,None,1,,,,,,,,,,,,,,,,,,,,,,,,,,,,,,,,,,,,,,,,,,,,,,,,,,,,,,,,,,,,,,,,323,2023-03-13_14h29.45.586,Main,2022.2.2,60.171874943611954,
negative,blue,1,None,k,0,0,0,0,,,,,0,0,0,0,,,,,,,,,0,157,157,19,,,,,,,,,,,,,,,,,,,,,,,,,,,,,,,,,main,731.8327335,k,k,1,0.9034573999999793,None,0,,,,,,,,,,,,,,,,,,,,,,,,,,,,,,,,,,,,,,,,,,,,,,,,,,,,,,,,,,,,,,,,323,2023-03-13_14h29.45.586,Main,2022.2.2,60.171874943611954,
positive,yellow,2,None,k,0,0,0,0,,,,,0,0,0,0,,,,,,,,,0,158,158,122,,,,,,,,,,,,,,,,,,,,,,,,,,,,,,,,,main,733.747714,k,k,1,1.1105821000001015,None,0,,,,,,,,,,,,,,,,,,,,,,,,,,,,,,,,,,,,,,,,,,,,,,,,,,,,,,,,,,,,,,,,323,2023-03-13_14h29.45.586,Main,2022.2.2,60.171874943611954,
negative,red,1,None,None,0,0,0,0,,,,,0,0,0,0,,,,,,,,,0,159,159,96,,,,,,,,,,,,,,,,,,,,,,,,,,,,,,,,,main,735.8606014000001,None,None,1,1.5087939999998525,None,1,,,,,,,,,,,,,,,,,,,,,,,,,,,,,,,,,,,,,,,,,,,,,,,,,,,,,,,,,,,,,,,,323,2023-03-13_14h29.45.586,Main,2022.2.2,60.171874943611954,
positive,blue,2,k,None,0,0,0,0,,,,,0,0,0,0,,,,,,,,,0,160,160,142,,,,,,,,,,,,,,,,,,,,,,,,,,,,,,,,,main,738.366494,None,None,1,1.5141782999999123,None,1,,,,,,,,,,,,,,,,,,,,,,,,,,,,,,,,,,,,,,,,,,,,,,,,,,,,,,,,,,,,,,,,323,2023-03-13_14h29.45.586,Main,2022.2.2,60.171874943611954,
positive,blue,2,k,None,0,0,0,0,,,,,0,0,0,0,,,,,,,,,0,161,161,168,,,,,,,,,,,,,,,,,,,,,,,,,,,,,,,,,main,740.8843708999999,None,None,1,1.5229405999998562,None,1,,,,,,,,,,,,,,,,,,,,,,,,,,,,,,,,,,,,,,,,,,,,,,,,,,,,,,,,,,,,,,,,323,2023-03-13_14h29.45.586,Main,2022.2.2,60.171874943611954,
negative,yellow,1,k,None,0,0,0,0,,,,,0,0,0,0,,,,,,,,,0,162,162,91,,,,,,,,,,,,,,,,,,,,,,,,,,,,,,,,,main,743.4118101,None,None,1,1.5217446999999993,None,1,,,,,,,,,,,,,,,,,,,,,,,,,,,,,,,,,,,,,,,,,,,,,,,,,,,,,,,,,,,,,,,,323,2023-03-13_14h29.45.586,Main,2022.2.2,60.171874943611954,
positive,yellow,1,None,k,0,0,0,0,,,,,0,0,0,0,,,,,,,,,0,163,163,138,,,,,,,,,,,,,,,,,,,,,,,,,,,,,,,,,main,745.9339582000001,k,k,1,0.8657040999999026,None,0,,,,,,,,,,,,,,,,,,,,,,,,,,,,,,,,,,,,,,,,,,,,,,,,,,,,,,,,,,,,,,,,323,2023-03-13_14h29.45.586,Main,2022.2.2,60.171874943611954,
negative,red,2,None,None,0,0,0,0,,,,,0,0,0,0,,,,,,,,,0,164,164,123,,,,,,,,,,,,,,,,,,,,,,,,,,,,,,,,,main,747.8094699,None,None,1,1.5306080000000293,None,1,,,,,,,,,,,,,,,,,,,,,,,,,,,,,,,,,,,,,,,,,,,,,,,,,,,,,,,,,,,,,,,,323,2023-03-13_14h29.45.586,Main,2022.2.2,60.171874943611954,
positive,yellow,2,None,k,0,0,0,0,,,,,0,0,0,0,,,,,,,,,0,165,165,143,,,,,,,,,,,,,,,,,,,,,,,,,,,,,,,,,main,750.3393262000001,k,k,1,1.0116986000000452,None,0,,,,,,,,,,,,,,,,,,,,,,,,,,,,,,,,,,,,,,,,,,,,,,,,,,,,,,,,,,,,,,,,323,2023-03-13_14h29.45.586,Main,2022.2.2,60.171874943611954,
negative,blue,1,None,k,0,0,0,0,,,,,0,0,0,0,,,,,,,,,0,166,166,72,,,,,,,,,,,,,,,,,,,,,,,,,,,,,,,,,main,752.3584004999999,k,k,1,0.9371484000000692,None,0,,,,,,,,,,,,,,,,,,,,,,,,,,,,,,,,,,,,,,,,,,,,,,,,,,,,,,,,,,,,,,,,323,2023-03-13_14h29.45.586,Main,2022.2.2,60.171874943611954,
positive,blue,2,k,None,0,0,0,0,,,,,0,0,0,0,,,,,,,,,0,167,167,25,,,,,,,,,,,,,,,,,,,,,,,,,,,,,,,,,main,754.2939718000001,None,None,1,1.5132800000001225,None,1,,,,,,,,,,,,,,,,,,,,,,,,,,,,,,,,,,,,,,,,,,,,,,,,,,,,,,,,,,,,,,,,323,2023-03-13_14h29.45.586,Main,2022.2.2,60.171874943611954,
negative,red,1,None,None,0,0,0,0,,,,,0,0,0,0,,,,,,,,,0,168,168,166,,,,,,,,,,,,,,,,,,,,,,,,,,,,,,,,,main,756.8104862000001,None,None,1,1.516527399999859,None,1,,,,,,,,,,,,,,,,,,,,,,,,,,,,,,,,,,,,,,,,,,,,,,,,,,,,,,,,,,,,,,,,323,2023-03-13_14h29.45.586,Main,2022.2.2,60.171874943611954,
negative,yellow,1,k,None,0,0,0,0,,,,,0,0,0,0,,,,,,,,,0,169,169,153,,,,,,,,,,,,,,,,,,,,,,,,,,,,,,,,,main,759.3299986000001,None,None,1,1.5261305000001357,None,1,,,,,,,,,,,,,,,,,,,,,,,,,,,,,,,,,,,,,,,,,,,,,,,,,,,,,,,,,,,,,,,,323,2023-03-13_14h29.45.586,Main,2022.2.2,60.171874943611954,
positive,blue,1,k,None,0,0,0,0,,,,,0,0,0,0,,,,,,,,,0,170,170,78,,,,,,,,,,,,,,,,,,,,,,,,,,,,,,,,,main,761.8600844000001,None,None,1,1.5262265000001207,None,1,,,,,,,,,,,,,,,,,,,,,,,,,,,,,,,,,,,,,,,,,,,,,,,,,,,,,,,,,,,,,,,,323,2023-03-13_14h29.45.586,Main,2022.2.2,60.171874943611954,
positive,red,1,None,None,0,0,0,0,,,,,0,0,0,0,,,,,,,,,0,171,171,1,,,,,,,,,,,,,,,,,,,,,,,,,,,,,,,,,main,764.3862862,None,None,1,1.5305963999999221,None,1,,,,,,,,,,,,,,,,,,,,,,,,,,,,,,,,,,,,,,,,,,,,,,,,,,,,,,,,,,,,,,,,323,2023-03-13_14h29.45.586,Main,2022.2.2,60.171874943611954,
positive,red,2,None,None,0,0,0,0,,,,,0,0,0,0,,,,,,,,,0,172,172,134,,,,,,,,,,,,,,,,,,,,,,,,,,,,,,,,,main,766.9194152000001,None,None,1,1.5114300000000185,None,1,,,,,,,,,,,,,,,,,,,,,,,,,,,,,,,,,,,,,,,,,,,,,,,,,,,,,,,,,,,,,,,,323,2023-03-13_14h29.45.586,Main,2022.2.2,60.171874943611954,
negative,yellow,1,k,None,0,0,0,0,,,,,0,0,0,0,,,,,,,,,0,173,173,191,,,,,,,,,,,,,,,,,,,,,,,,,,,,,,,,,main,769.4363236,None,None,1,1.5191611000000194,None,1,,,,,,,,,,,,,,,,,,,,,,,,,,,,,,,,,,,,,,,,,,,,,,,,,,,,,,,,,,,,,,,,323,2023-03-13_14h29.45.586,Main,2022.2.2,60.171874943611954,
positive,blue,1,k,None,0,0,0,0,,,,,0,0,0,0,,,,,,,,,0,174,174,137,,,,,,,,,,,,,,,,,,,,,,,,,,,,,,,,,main,771.9571761999999,None,None,1,1.521071099999972,None,1,,,,,,,,,,,,,,,,,,,,,,,,,,,,,,,,,,,,,,,,,,,,,,,,,,,,,,,,,,,,,,,,323,2023-03-13_14h29.45.586,Main,2022.2.2,60.171874943611954,
negative,red,2,None,None,0,0,0,0,,,,,0,0,0,0,,,,,,,,,0,175,175,116,,,,,,,,,,,,,,,,,,,,,,,,,,,,,,,,,main,774.4771683,None,None,1,1.514833899999985,None,1,,,,,,,,,,,,,,,,,,,,,,,,,,,,,,,,,,,,,,,,,,,,,,,,,,,,,,,,,,,,,,,,323,2023-03-13_14h29.45.586,Main,2022.2.2,60.171874943611954,
negative,yellow,2,k,None,0,0,0,0,,,,,0,0,0,0,,,,,,,,,0,176,176,135,,,,,,,,,,,,,,,,,,,,,,,,,,,,,,,,,main,776.9981979,None,None,1,1.5255703000000267,None,1,,,,,,,,,,,,,,,,,,,,,,,,,,,,,,,,,,,,,,,,,,,,,,,,,,,,,,,,,,,,,,,,323,2023-03-13_14h29.45.586,Main,2022.2.2,60.171874943611954,
positive,yellow,1,None,k,0,0,0,0,,,,,0,0,0,0,,,,,,,,,0,177,177,215,,,,,,,,,,,,,,,,,,,,,,,,,,,,,,,,,main,779.5284101999999,k,k,1,0.8977248000001055,None,0,,,,,,,,,,,,,,,,,,,,,,,,,,,,,,,,,,,,,,,,,,,,,,,,,,,,,,,,,,,,,,,,323,2023-03-13_14h29.45.586,Main,2022.2.2,60.171874943611954,
positive,yellow,1,None,k,0,0,0,0,,,,,0,0,0,0,,,,,,,,,0,178,178,71,,,,,,,,,,,,,,,,,,,,,,,,,,,,,,,,,main,781.4294117000001,k,k,1,1.2949514000001727,None,0,,,,,,,,,,,,,,,,,,,,,,,,,,,,,,,,,,,,,,,,,,,,,,,,,,,,,,,,,,,,,,,,323,2023-03-13_14h29.45.586,Main,2022.2.2,60.171874943611954,
positive,blue,1,k,None,0,0,0,0,,,,,0,0,0,0,,,,,,,,,0,179,179,34,,,,,,,,,,,,,,,,,,,,,,,,,,,,,,,,,main,783.7271374999999,None,None,1,1.5116668000000573,None,1,,,,,,,,,,,,,,,,,,,,,,,,,,,,,,,,,,,,,,,,,,,,,,,,,,,,,,,,,,,,,,,,323,2023-03-13_14h29.45.586,Main,2022.2.2,60.171874943611954,
positive,blue,2,k,None,0,0,0,0,,,,,0,0,0,0,,,,,,,,,0,180,180,2,,,,,,,,,,,,,,,,,,,,,,,,,,,,,,,,,main,786.2383358000001,None,None,1,1.5101533000001837,None,1,,,,,,,,,,,,,,,,,,,,,,,,,,,,,,,,,,,,,,,,,,,,,,,,,,,,,,,,,,,,,,,,323,2023-03-13_14h29.45.586,Main,2022.2.2,60.171874943611954,
negative,blue,1,None,k,0,0,0,0,,,,,0,0,0,0,,,,,,,,,0,181,181,33,,,,,,,,,,,,,,,,,,,,,,,,,,,,,,,,,main,788.7466204000001,k,k,1,0.894332600000098,None,0,,,,,,,,,,,,,,,,,,,,,,,,,,,,,,,,,,,,,,,,,,,,,,,,,,,,,,,,,,,,,,,,323,2023-03-13_14h29.45.586,Main,2022.2.2,60.171874943611954,
negative,blue,2,None,k,0,0,0,0,,,,,0,0,0,0,,,,,,,,,0,182,182,231,,,,,,,,,,,,,,,,,,,,,,,,,,,,,,,,,main,790.6434664,k,k,1,0.8034096999999747,None,0,,,,,,,,,,,,,,,,,,,,,,,,,,,,,,,,,,,,,,,,,,,,,,,,,,,,,,,,,,,,,,,,323,2023-03-13_14h29.45.586,Main,2022.2.2,60.171874943611954,
negative,blue,1,None,k,0,0,0,0,,,,,0,0,0,0,,,,,,,,,0,183,183,51,,,,,,,,,,,,,,,,,,,,,,,,,,,,,,,,,main,792.4530317,k,k,1,1.0046767000001182,None,0,,,,,,,,,,,,,,,,,,,,,,,,,,,,,,,,,,,,,,,,,,,,,,,,,,,,,,,,,,,,,,,,323,2023-03-13_14h29.45.586,Main,2022.2.2,60.171874943611954,
negative,yellow,2,k,None,0,0,0,0,,,,,0,0,0,0,,,,,,,,,0,184,184,38,,,,,,,,,,,,,,,,,,,,,,,,,,,,,,,,,main,794.464783,None,None,1,1.5129177000001164,None,1,,,,,,,,,,,,,,,,,,,,,,,,,,,,,,,,,,,,,,,,,,,,,,,,,,,,,,,,,,,,,,,,323,2023-03-13_14h29.45.586,Main,2022.2.2,60.171874943611954,
positive,blue,1,k,None,0,0,0,0,,,,,0,0,0,0,,,,,,,,,0,185,185,30,,,,,,,,,,,,,,,,,,,,,,,,,,,,,,,,,main,796.9769718000001,None,None,1,1.5290608999998767,None,1,,,,,,,,,,,,,,,,,,,,,,,,,,,,,,,,,,,,,,,,,,,,,,,,,,,,,,,,,,,,,,,,323,2023-03-13_14h29.45.586,Main,2022.2.2,60.171874943611954,
positive,blue,2,k,None,0,0,0,0,,,,,0,0,0,0,,,,,,,,,0,186,186,200,,,,,,,,,,,,,,,,,,,,,,,,,,,,,,,,,main,799.5035071000001,None,None,1,1.5119638999999552,None,1,,,,,,,,,,,,,,,,,,,,,,,,,,,,,,,,,,,,,,,,,,,,,,,,,,,,,,,,,,,,,,,,323,2023-03-13_14h29.45.586,Main,2022.2.2,60.171874943611954,
positive,blue,1,k,None,0,0,0,0,,,,,0,0,0,0,,,,,,,,,0,187,187,180,,,,,,,,,,,,,,,,,,,,,,,,,,,,,,,,,main,802.0206965000001,None,None,1,1.5100942999999916,None,1,,,,,,,,,,,,,,,,,,,,,,,,,,,,,,,,,,,,,,,,,,,,,,,,,,,,,,,,,,,,,,,,323,2023-03-13_14h29.45.586,Main,2022.2.2,60.171874943611954,
negative,yellow,1,k,None,0,0,0,0,,,,,0,0,0,0,,,,,,,,,0,188,188,35,,,,,,,,,,,,,,,,,,,,,,,,,,,,,,,,,main,804.5374379000001,None,None,1,1.52797610000016,None,1,,,,,,,,,,,,,,,,,,,,,,,,,,,,,,,,,,,,,,,,,,,,,,,,,,,,,,,,,,,,,,,,323,2023-03-13_14h29.45.586,Main,2022.2.2,60.171874943611954,
positive,red,2,None,None,0,0,0,0,,,,,0,0,0,0,,,,,,,,,0,189,189,156,,,,,,,,,,,,,,,,,,,,,,,,,,,,,,,,,main,807.0702970000001,None,None,1,1.5102048999999624,None,1,,,,,,,,,,,,,,,,,,,,,,,,,,,,,,,,,,,,,,,,,,,,,,,,,,,,,,,,,,,,,,,,323,2023-03-13_14h29.45.586,Main,2022.2.2,60.171874943611954,
positive,blue,1,k,None,0,0,0,0,,,,,0,0,0,0,,,,,,,,,0,190,190,221,,,,,,,,,,,,,,,,,,,,,,,,,,,,,,,,,main,809.58019,None,None,1,1.5150206999999227,None,1,,,,,,,,,,,,,,,,,,,,,,,,,,,,,,,,,,,,,,,,,,,,,,,,,,,,,,,,,,,,,,,,323,2023-03-13_14h29.45.586,Main,2022.2.2,60.171874943611954,
negative,blue,1,None,k,0,0,0,0,,,,,0,0,0,0,,,,,,,,,0,191,191,182,,,,,,,,,,,,,,,,,,,,,,,,,,,,,,,,,main,812.0950985999999,k,k,1,0.9170793000000685,None,0,,,,,,,,,,,,,,,,,,,,,,,,,,,,,,,,,,,,,,,,,,,,,,,,,,,,,,,,,,,,,,,,323,2023-03-13_14h29.45.586,Main,2022.2.2,60.171874943611954,
negative,yellow,1,k,None,0,0,0,0,,,,,0,0,0,0,,,,,,,,,0,192,192,11,,,,,,,,,,,,,,,,,,,,,,,,,,,,,,,,,main,814.0167647,None,None,1,1.5277607999998963,None,1,,,,,,,,,,,,,,,,,,,,,,,,,,,,,,,,,,,,,,,,,,,,,,,,,,,,,,,,,,,,,,,,323,2023-03-13_14h29.45.586,Main,2022.2.2,60.171874943611954,
negative,yellow,2,k,None,0,0,0,0,,,,,0,0,0,0,,,,,,,,,0,193,193,0,,,,,,,,,,,,,,,,,,,,,,,,,,,,,,,,,main,816.5486236,None,None,1,1.5147133000000395,None,1,,,,,,,,,,,,,,,,,,,,,,,,,,,,,,,,,,,,,,,,,,,,,,,,,,,,,,,,,,,,,,,,323,2023-03-13_14h29.45.586,Main,2022.2.2,60.171874943611954,
negative,blue,2,None,k,0,0,0,0,,,,,0,0,0,0,,,,,,,,,0,194,194,171,,,,,,,,,,,,,,,,,,,,,,,,,,,,,,,,,main,819.0640305999999,k,k,1,0.9237055000000964,None,0,,,,,,,,,,,,,,,,,,,,,,,,,,,,,,,,,,,,,,,,,,,,,,,,,,,,,,,,,,,,,,,,323,2023-03-13_14h29.45.586,Main,2022.2.2,60.171874943611954,
positive,yellow,2,None,k,0,0,0,0,,,,,0,0,0,0,,,,,,,,,0,195,195,66,,,,,,,,,,,,,,,,,,,,,,,,,,,,,,,,,main,821.0033440999999,k,k,1,0.9861367000000882,None,0,,,,,,,,,,,,,,,,,,,,,,,,,,,,,,,,,,,,,,,,,,,,,,,,,,,,,,,,,,,,,,,,323,2023-03-13_14h29.45.586,Main,2022.2.2,60.171874943611954,
negative,yellow,1,k,None,0,0,0,0,,,,,0,0,0,0,,,,,,,,,0,196,196,26,,,,,,,,,,,,,,,,,,,,,,,,,,,,,,,,,main,822.9814103,None,None,1,1.512112800000068,None,1,,,,,,,,,,,,,,,,,,,,,,,,,,,,,,,,,,,,,,,,,,,,,,,,,,,,,,,,,,,,,,,,323,2023-03-13_14h29.45.586,Main,2022.2.2,60.171874943611954,
negative,blue,2,None,k,0,0,0,0,,,,,0,0,0,0,,,,,,,,,0,197,197,18,,,,,,,,,,,,,,,,,,,,,,,,,,,,,,,,,main,825.5016333,k,k,1,0.9148941999999352,None,0,,,,,,,,,,,,,,,,,,,,,,,,,,,,,,,,,,,,,,,,,,,,,,,,,,,,,,,,,,,,,,,,323,2023-03-13_14h29.45.586,Main,2022.2.2,60.171874943611954,
positive,blue,1,k,None,0,0,0,0,,,,,0,0,0,0,,,,,,,,,0,198,198,147,,,,,,,,,,,,,,,,,,,,,,,,,,,,,,,,,main,827.4211466,None,None,1,1.5108560000001034,None,1,,,,,,,,,,,,,,,,,,,,,,,,,,,,,,,,,,,,,,,,,,,,,,,,,,,,,,,,,,,,,,,,323,2023-03-13_14h29.45.586,Main,2022.2.2,60.171874943611954,
negative,yellow,1,k,None,0,0,0,0,,,,,0,0,0,0,,,,,,,,,0,199,199,128,,,,,,,,,,,,,,,,,,,,,,,,,,,,,,,,,main,829.9307279999999,None,None,1,1.5319015000000036,None,1,,,,,,,,,,,,,,,,,,,,,,,,,,,,,,,,,,,,,,,,,,,,,,,,,,,,,,,,,,,,,,,,323,2023-03-13_14h29.45.586,Main,2022.2.2,60.171874943611954,
negative,blue,1,None,k,0,0,0,0,,,,,0,0,0,0,,,,,,,,,0,200,200,238,,,,,,,,,,,,,,,,,,,,,,,,,,,,,,,,,main,832.4670964000001,k,k,1,1.0613074000000324,None,0,,,,,,,,,,,,,,,,,,,,,,,,,,,,,,,,,,,,,,,,,,,,,,,,,,,,,,,,,,,,,,,,323,2023-03-13_14h29.45.586,Main,2022.2.2,60.171874943611954,
negative,blue,2,None,k,0,0,0,0,,,,,0,0,0,0,,,,,,,,,0,201,201,93,,,,,,,,,,,,,,,,,,,,,,,,,,,,,,,,,main,834.5342489000001,k,k,1,0.9899341000000277,None,0,,,,,,,,,,,,,,,,,,,,,,,,,,,,,,,,,,,,,,,,,,,,,,,,,,,,,,,,,,,,,,,,323,2023-03-13_14h29.45.586,Main,2022.2.2,60.171874943611954,
negative,yellow,1,k,None,0,0,0,0,,,,,0,0,0,0,,,,,,,,,0,202,202,163,,,,,,,,,,,,,,,,,,,,,,,,,,,,,,,,,main,836.5269522,None,None,1,1.5320990999998685,None,1,,,,,,,,,,,,,,,,,,,,,,,,,,,,,,,,,,,,,,,,,,,,,,,,,,,,,,,,,,,,,,,,323,2023-03-13_14h29.45.586,Main,2022.2.2,60.171874943611954,
negative,blue,2,None,k,0,0,0,0,,,,,0,0,0,0,,,,,,,,,0,203,203,206,,,,,,,,,,,,,,,,,,,,,,,,,,,,,,,,,main,839.0561527000001,k,k,1,1.1273312999999234,None,0,,,,,,,,,,,,,,,,,,,,,,,,,,,,,,,,,,,,,,,,,,,,,,,,,,,,,,,,,,,,,,,,323,2023-03-13_14h29.45.586,Main,2022.2.2,60.171874943611954,
negative,red,1,None,None,0,0,0,0,,,,,0,0,0,0,,,,,,,,,0,204,204,146,,,,,,,,,,,,,,,,,,,,,,,,,,,,,,,,,main,841.1914525000001,None,None,1,1.5284439999998085,None,1,,,,,,,,,,,,,,,,,,,,,,,,,,,,,,,,,,,,,,,,,,,,,,,,,,,,,,,,,,,,,,,,323,2023-03-13_14h29.45.586,Main,2022.2.2,60.171874943611954,
positive,yellow,1,None,k,0,0,0,0,,,,,0,0,0,0,,,,,,,,,0,205,205,140,,,,,,,,,,,,,,,,,,,,,,,,,,,,,,,,,main,843.7182985000001,k,k,1,0.897177099999908,None,0,,,,,,,,,,,,,,,,,,,,,,,,,,,,,,,,,,,,,,,,,,,,,,,,,,,,,,,,,,,,,,,,323,2023-03-13_14h29.45.586,Main,2022.2.2,60.171874943611954,
negative,yellow,1,k,None,0,0,0,0,,,,,0,0,0,0,,,,,,,,,0,206,206,46,,,,,,,,,,,,,,,,,,,,,,,,,,,,,,,,,main,845.6223532,None,None,1,1.5133663000001434,None,1,,,,,,,,,,,,,,,,,,,,,,,,,,,,,,,,,,,,,,,,,,,,,,,,,,,,,,,,,,,,,,,,323,2023-03-13_14h29.45.586,Main,2022.2.2,60.171874943611954,
negative,yellow,2,k,None,0,0,0,0,,,,,0,0,0,0,,,,,,,,,0,207,207,103,,,,,,,,,,,,,,,,,,,,,,,,,,,,,,,,,main,848.1349093,None,None,1,1.5130028999999467,None,1,,,,,,,,,,,,,,,,,,,,,,,,,,,,,,,,,,,,,,,,,,,,,,,,,,,,,,,,,,,,,,,,323,2023-03-13_14h29.45.586,Main,2022.2.2,60.171874943611954,
positive,red,1,None,None,0,0,0,0,,,,,0,0,0,0,,,,,,,,,0,208,208,68,,,,,,,,,,,,,,,,,,,,,,,,,,,,,,,,,main,850.6489895000001,None,None,1,1.5104208000000199,None,1,,,,,,,,,,,,,,,,,,,,,,,,,,,,,,,,,,,,,,,,,,,,,,,,,,,,,,,,,,,,,,,,323,2023-03-13_14h29.45.586,Main,2022.2.2,60.171874943611954,
negative,blue,2,None,k,0,0,0,0,,,,,0,0,0,0,,,,,,,,,0,209,209,6,,,,,,,,,,,,,,,,,,,,,,,,,,,,,,,,,main,853.161518,k,k,1,0.7910153999998784,None,0,,,,,,,,,,,,,,,,,,,,,,,,,,,,,,,,,,,,,,,,,,,,,,,,,,,,,,,,,,,,,,,,323,2023-03-13_14h29.45.586,Main,2022.2.2,60.171874943611954,
negative,red,1,None,None,0,0,0,0,,,,,0,0,0,0,,,,,,,,,0,210,210,22,,,,,,,,,,,,,,,,,,,,,,,,,,,,,,,,,main,854.9602546,None,None,1,1.5255984000000353,None,1,,,,,,,,,,,,,,,,,,,,,,,,,,,,,,,,,,,,,,,,,,,,,,,,,,,,,,,,,,,,,,,,323,2023-03-13_14h29.45.586,Main,2022.2.2,60.171874943611954,
negative,blue,2,None,k,0,0,0,0,,,,,0,0,0,0,,,,,,,,,0,211,211,28,,,,,,,,,,,,,,,,,,,,,,,,,,,,,,,,,main,857.4863403999999,k,k,1,0.7558471999998346,None,0,,,,,,,,,,,,,,,,,,,,,,,,,,,,,,,,,,,,,,,,,,,,,,,,,,,,,,,,,,,,,,,,323,2023-03-13_14h29.45.586,Main,2022.2.2,60.171874943611954,
negative,blue,1,None,k,0,0,0,0,,,,,0,0,0,0,,,,,,,,,0,212,212,20,,,,,,,,,,,,,,,,,,,,,,,,,,,,,,,,,main,859.2423319999999,k,k,1,0.787980300000072,None,0,,,,,,,,,,,,,,,,,,,,,,,,,,,,,,,,,,,,,,,,,,,,,,,,,,,,,,,,,,,,,,,,323,2023-03-13_14h29.45.586,Main,2022.2.2,60.171874943611954,
positive,yellow,1,None,k,0,0,0,0,,,,,0,0,0,0,,,,,,,,,0,213,213,177,,,,,,,,,,,,,,,,,,,,,,,,,,,,,,,,,main,861.0411619,k,k,1,1.051017199999933,None,0,,,,,,,,,,,,,,,,,,,,,,,,,,,,,,,,,,,,,,,,,,,,,,,,,,,,,,,,,,,,,,,,323,2023-03-13_14h29.45.586,Main,2022.2.2,60.171874943611954,
positive,yellow,2,None,k,0,0,0,0,,,,,0,0,0,0,,,,,,,,,0,214,214,155,,,,,,,,,,,,,,,,,,,,,,,,,,,,,,,,,main,863.0928305000001,k,k,1,0.6092587000000549,None,0,,,,,,,,,,,,,,,,,,,,,,,,,,,,,,,,,,,,,,,,,,,,,,,,,,,,,,,,,,,,,,,,323,2023-03-13_14h29.45.586,Main,2022.2.2,60.171874943611954,
negative,red,2,None,None,0,0,0,0,,,,,0,0,0,0,,,,,,,,,0,215,215,13,,,,,,,,,,,,,,,,,,,,,,,,,,,,,,,,,main,864.7033030000001,None,None,1,1.520578099999966,None,1,,,,,,,,,,,,,,,,,,,,,,,,,,,,,,,,,,,,,,,,,,,,,,,,,,,,,,,,,,,,,,,,323,2023-03-13_14h29.45.586,Main,2022.2.2,60.171874943611954,
positive,yellow,2,None,k,0,0,0,0,,,,,0,0,0,0,,,,,,,,,0,216,216,81,,,,,,,,,,,,,,,,,,,,,,,,,,,,,,,,,main,867.2307950000001,k,k,1,0.783929100000023,None,0,,,,,,,,,,,,,,,,,,,,,,,,,,,,,,,,,,,,,,,,,,,,,,,,,,,,,,,,,,,,,,,,323,2023-03-13_14h29.45.586,Main,2022.2.2,60.171874943611954,
negative,blue,2,None,k,0,0,0,0,,,,,0,0,0,0,,,,,,,,,0,217,217,21,,,,,,,,,,,,,,,,,,,,,,,,,,,,,,,,,main,869.0237433000001,k,k,1,0.819298099999969,None,0,,,,,,,,,,,,,,,,,,,,,,,,,,,,,,,,,,,,,,,,,,,,,,,,,,,,,,,,,,,,,,,,323,2023-03-13_14h29.45.586,Main,2022.2.2,60.171874943611954,
positive,yellow,1,None,k,0,0,0,0,,,,,0,0,0,0,,,,,,,,,0,218,218,139,,,,,,,,,,,,,,,,,,,,,,,,,,,,,,,,,main,870.8465266,k,k,1,0.7313360999999077,None,0,,,,,,,,,,,,,,,,,,,,,,,,,,,,,,,,,,,,,,,,,,,,,,,,,,,,,,,,,,,,,,,,323,2023-03-13_14h29.45.586,Main,2022.2.2,60.171874943611954,
negative,blue,1,None,k,0,0,0,0,,,,,0,0,0,0,,,,,,,,,0,219,219,63,,,,,,,,,,,,,,,,,,,,,,,,,,,,,,,,,main,872.58154,k,k,1,0.7913599999999406,None,0,,,,,,,,,,,,,,,,,,,,,,,,,,,,,,,,,,,,,,,,,,,,,,,,,,,,,,,,,,,,,,,,323,2023-03-13_14h29.45.586,Main,2022.2.2,60.171874943611954,
positive,red,1,None,None,0,0,0,0,,,,,0,0,0,0,,,,,,,,,0,220,220,47,,,,,,,,,,,,,,,,,,,,,,,,,,,,,,,,,main,874.3674439,None,None,1,1.5103672000000188,None,1,,,,,,,,,,,,,,,,,,,,,,,,,,,,,,,,,,,,,,,,,,,,,,,,,,,,,,,,,,,,,,,,323,2023-03-13_14h29.45.586,Main,2022.2.2,60.171874943611954,
negative,yellow,1,k,None,0,0,0,0,,,,,0,0,0,0,,,,,,,,,0,221,221,12,,,,,,,,,,,,,,,,,,,,,,,,,,,,,,,,,main,876.8816803000001,None,None,1,1.5116410000000542,None,1,,,,,,,,,,,,,,,,,,,,,,,,,,,,,,,,,,,,,,,,,,,,,,,,,,,,,,,,,,,,,,,,323,2023-03-13_14h29.45.586,Main,2022.2.2,60.171874943611954,
positive,yellow,1,None,k,0,0,0,0,,,,,0,0,0,0,,,,,,,,,0,222,222,220,,,,,,,,,,,,,,,,,,,,,,,,,,,,,,,,,main,879.3998385000001,k,k,1,0.8127151999999569,None,0,,,,,,,,,,,,,,,,,,,,,,,,,,,,,,,,,,,,,,,,,,,,,,,,,,,,,,,,,,,,,,,,323,2023-03-13_14h29.45.586,Main,2022.2.2,60.171874943611954,
positive,red,2,None,None,0,0,0,0,,,,,0,0,0,0,,,,,,,,,0,223,223,186,,,,,,,,,,,,,,,,,,,,,,,,,,,,,,,,,main,881.2137816999999,None,None,1,1.530221499999925,None,1,,,,,,,,,,,,,,,,,,,,,,,,,,,,,,,,,,,,,,,,,,,,,,,,,,,,,,,,,,,,,,,,323,2023-03-13_14h29.45.586,Main,2022.2.2,60.171874943611954,
negative,red,2,None,None,0,0,0,0,,,,,0,0,0,0,,,,,,,,,0,224,224,194,,,,,,,,,,,,,,,,,,,,,,,,,,,,,,,,,main,883.7436377,None,None,1,1.531595500000094,None,1,,,,,,,,,,,,,,,,,,,,,,,,,,,,,,,,,,,,,,,,,,,,,,,,,,,,,,,,,,,,,,,,323,2023-03-13_14h29.45.586,Main,2022.2.2,60.171874943611954,
positive,yellow,2,None,k,0,0,0,0,,,,,0,0,0,0,,,,,,,,,0,225,225,189,,,,,,,,,,,,,,,,,,,,,,,,,,,,,,,,,main,886.2821859,k,k,1,0.8609430999999859,None,0,,,,,,,,,,,,,,,,,,,,,,,,,,,,,,,,,,,,,,,,,,,,,,,,,,,,,,,,,,,,,,,,323,2023-03-13_14h29.45.586,Main,2022.2.2,60.171874943611954,
positive,red,1,None,None,0,0,0,0,,,,,0,0,0,0,,,,,,,,,0,226,226,195,,,,,,,,,,,,,,,,,,,,,,,,,,,,,,,,,main,888.1478255000001,None,None,1,1.512595200000078,None,1,,,,,,,,,,,,,,,,,,,,,,,,,,,,,,,,,,,,,,,,,,,,,,,,,,,,,,,,,,,,,,,,323,2023-03-13_14h29.45.586,Main,2022.2.2,60.171874943611954,
positive,yellow,2,None,k,0,0,0,0,,,,,0,0,0,0,,,,,,,,,0,227,227,37,,,,,,,,,,,,,,,,,,,,,,,,,,,,,,,,,main,890.6670974,k,k,1,0.8566427999999178,None,0,,,,,,,,,,,,,,,,,,,,,,,,,,,,,,,,,,,,,,,,,,,,,,,,,,,,,,,,,,,,,,,,323,2023-03-13_14h29.45.586,Main,2022.2.2,60.171874943611954,
negative,blue,1,None,k,0,0,0,0,,,,,0,0,0,0,,,,,,,,,0,228,228,127,,,,,,,,,,,,,,,,,,,,,,,,,,,,,,,,,main,892.5230974,k,k,1,0.7599820000000364,None,0,,,,,,,,,,,,,,,,,,,,,,,,,,,,,,,,,,,,,,,,,,,,,,,,,,,,,,,,,,,,,,,,323,2023-03-13_14h29.45.586,Main,2022.2.2,60.171874943611954,
positive,red,2,None,None,0,0,0,0,,,,,0,0,0,0,,,,,,,,,0,229,229,23,,,,,,,,,,,,,,,,,,,,,,,,,,,,,,,,,main,894.2821018000001,None,None,1,1.513026200000013,None,1,,,,,,,,,,,,,,,,,,,,,,,,,,,,,,,,,,,,,,,,,,,,,,,,,,,,,,,,,,,,,,,,323,2023-03-13_14h29.45.586,Main,2022.2.2,60.171874943611954,
positive,yellow,2,None,k,0,0,0,0,,,,,0,0,0,0,,,,,,,,,0,230,230,136,,,,,,,,,,,,,,,,,,,,,,,,,,,,,,,,,main,896.8079544000001,k,k,1,1.0487293000001046,None,0,,,,,,,,,,,,,,,,,,,,,,,,,,,,,,,,,,,,,,,,,,,,,,,,,,,,,,,,,,,,,,,,323,2023-03-13_14h29.45.586,Main,2022.2.2,60.171874943611954,
negative,blue,1,None,k,0,0,0,0,,,,,0,0,0,0,,,,,,,,,0,231,231,107,,,,,,,,,,,,,,,,,,,,,,,,,,,,,,,,,main,898.8574520000001,k,k,1,0.8902115000000776,None,0,,,,,,,,,,,,,,,,,,,,,,,,,,,,,,,,,,,,,,,,,,,,,,,,,,,,,,,,,,,,,,,,323,2023-03-13_14h29.45.586,Main,2022.2.2,60.171874943611954,
positive,red,2,None,None,0,0,0,0,,,,,0,0,0,0,,,,,,,,,0,232,232,169,,,,,,,,,,,,,,,,,,,,,,,,,,,,,,,,,main,900.7435912,None,None,1,1.5124281000000792,None,1,,,,,,,,,,,,,,,,,,,,,,,,,,,,,,,,,,,,,,,,,,,,,,,,,,,,,,,,,,,,,,,,323,2023-03-13_14h29.45.586,Main,2022.2.2,60.171874943611954,
negative,yellow,2,k,None,0,0,0,0,,,,,0,0,0,0,,,,,,,,,0,233,233,235,,,,,,,,,,,,,,,,,,,,,,,,,,,,,,,,,main,903.2613697,None,None,1,1.5293120000001181,None,1,,,,,,,,,,,,,,,,,,,,,,,,,,,,,,,,,,,,,,,,,,,,,,,,,,,,,,,,,,,,,,,,323,2023-03-13_14h29.45.586,Main,2022.2.2,60.171874943611954,
negative,blue,1,None,k,0,0,0,0,,,,,0,0,0,0,,,,,,,,,0,234,234,16,,,,,,,,,,,,,,,,,,,,,,,,,,,,,,,,,main,905.7960443000001,k,k,1,0.8625331999999162,None,0,,,,,,,,,,,,,,,,,,,,,,,,,,,,,,,,,,,,,,,,,,,,,,,,,,,,,,,,,,,,,,,,323,2023-03-13_14h29.45.586,Main,2022.2.2,60.171874943611954,
negative,blue,1,None,k,0,0,0,0,,,,,0,0,0,0,,,,,,,,,0,235,235,218,,,,,,,,,,,,,,,,,,,,,,,,,,,,,,,,,main,907.6635196999999,k,k,1,1.01636910000002,None,0,,,,,,,,,,,,,,,,,,,,,,,,,,,,,,,,,,,,,,,,,,,,,,,,,,,,,,,,,,,,,,,,323,2023-03-13_14h29.45.586,Main,2022.2.2,60.171874943611954,
positive,yellow,1,None,k,0,0,0,0,,,,,0,0,0,0,,,,,,,,,0,236,236,39,,,,,,,,,,,,,,,,,,,,,,,,,,,,,,,,,main,909.6812579000001,k,k,1,0.7037145000001601,None,0,,,,,,,,,,,,,,,,,,,,,,,,,,,,,,,,,,,,,,,,,,,,,,,,,,,,,,,,,,,,,,,,323,2023-03-13_14h29.45.586,Main,2022.2.2,60.171874943611954,
negative,yellow,2,k,None,0,0,0,0,,,,,0,0,0,0,,,,,,,,,0,237,237,144,,,,,,,,,,,,,,,,,,,,,,,,,,,,,,,,,main,911.3803358000001,None,None,1,1.5319776999999704,None,1,,,,,,,,,,,,,,,,,,,,,,,,,,,,,,,,,,,,,,,,,,,,,,,,,,,,,,,,,,,,,,,,323,2023-03-13_14h29.45.586,Main,2022.2.2,60.171874943611954,
positive,blue,1,k,None,0,0,0,0,,,,,0,0,0,0,,,,,,,,,0,238,238,82,,,,,,,,,,,,,,,,,,,,,,,,,,,,,,,,,main,913.9141161000001,None,None,1,1.5101534999998876,None,1,,,,,,,,,,,,,,,,,,,,,,,,,,,,,,,,,,,,,,,,,,,,,,,,,,,,,,,,,,,,,,,,323,2023-03-13_14h29.45.586,Main,2022.2.2,60.171874943611954,
negative,red,1,None,None,0,0,0,0,,,,,0,0,0,0,,,,,,,,,0,239,239,62,,,,,,,,,,,,,,,,,,,,,,,,,,,,,,,,,main,916.4322407000001,None,None,1,1.526944100000037,None,1,,,,,,,,,,,,,,,,,,,,,,,,,,,,,,,,,,,,,,,,,,,,,,,,,,,,,,,,,,,,,,,,323,2023-03-13_14h29.45.586,Main,2022.2.2,60.171874943611954,
,,,,,0,0,0,0,,,,,0,0,0,0,,,,,,,,,,,,,,,,,,,,,,,,,,,,,,,,,,,,,,,,,,,,,,,,,,,,,,,,,,,,,,,,,,918.9469608999999,918.9469608999999,918.9469608999999,space,10.513794499999904,,,,,,,,,,,,,,,,,,,,,,,,,,,,,,,,,,,,,,,,,,,,,,323,2023-03-13_14h29.45.586,Main,2022.2.2,60.171874943611954,
,,,,,0,0,0,0,,,,,,,,,,,,,,,,,,,,,,,,,,,,,,,,,,,,,,,,,,,,,,,,,,,,,,,,,,,,,,,,,,,,,,,,,,,,,,,,,,,,,,,,,,,,,,,,,,,,,,,,,,,,,,,,,,,,,,,,,,,,323,2023-03-13_14h29.45.586,Main,2022.2.2,60.171874943611954,
,,,,,1,0,1,0,0,0,0,0,,,,,,,,,,,,,,,,,,,,,0,0,0,0,,,,,,,,,,,,,,,,,,,,,,,,,,,,,,,,,,,,,,,,,,,,,,,,,,,929.5108117999999,929.5108117999999,931.4798606,space,3.588598300000058,space,55.48912700000005,989.6661396000001,,,,,,,,,,,,,,,,,,,,,,,,,,,,,,,,,,,,,,323,2023-03-13_14h29.45.586,Main,2022.2.2,60.171874943611954,
positive,neutral,1,k,k,1,0,1,0,0,0,0,0,,,,,,,,,,,,,,,,,,,,,,,,,0,0,0,4,,,,,,,,,,,,,,,,,,,,,prac,,,,,,,,,,,,,,,,,,,,,,,,,,,,,,,,,,0.00016649999997753184,0.31296296296296294,-0.13518518518518519,0,0,0,993.1717436,2,2,1,positive,neutral,995.2256507999999,995.2256507999999,995.2256507999999,995.2256507999999,996.1718209,996.2659342999999,k,k,1,2.6296612000001005,998.8341825000001,998.8341825000001,998.8341825000001,999.8775751,999.8775751,999.8775751,,,,,,,,,,323,2023-03-13_14h29.45.586,Main,2022.2.2,60.171874943611954,
negative,positive,2,l,j,1,0,1,0,0,0,0,0,,,,,,,,,,,,,,,,,,,,,,,,,0,1,1,14,,,,,,,,,,,,,,,,,,,,,prac,,,,,,,,,,,,,,,,,,,,,,,,,,,,,,,,,,,,,,,,,1,1,2,negative,positive,999.8775751,999.8775751,999.8775751,999.8775751,1000.8729208000001,1000.9036339,j,l,0,0.9680505000001176,1001.8239109,1001.8239109,1001.8239109,1002.8509023,1002.8509023,1002.8509023,,,,,,,,,,323,2023-03-13_14h29.45.586,Main,2022.2.2,60.171874943611954,
negative,negative,2,j,l,1,0,1,0,0,0,0,0,,,,,,,,,,,,,,,,,,,,,,,,,0,2,2,9,,,,,,,,,,,,,,,,,,,,,prac,,,,,,,,,,,,,,,,,,,,,,,,,,,,,,,,,,,,,,,,,2,2,2,negative,negative,1002.8509023,1002.8509023,1002.8509023,1002.8509023,1003.8468796000001,1003.8791540999999,l,l,1,1.0429186999999729,1004.8974127,1004.8974127,1004.8974127,1004.8974127,1004.8974127,1004.8974127,,,,,,,,,,323,2023-03-13_14h29.45.586,Main,2022.2.2,60.171874943611954,
positive,negative,2,j,l,1,0,1,0,0,0,0,0,,,,,,,,,,,,,,,,,,,,,,,,,0,3,3,15,,,,,,,,,,,,,,,,,,,,,prac,,,,,,,,,,,,,,,,,,,,,,,,,,,,,,,,,,,,,,,,,2,2,2,positive,negative,1004.8974127,1004.8974127,1004.8974127,1004.8974127,1005.8897269,1005.9215218999999,l,l,1,0.87162770000009,1006.7770968000001,1006.7770968000001,1006.7770968000001,1006.7770968000001,1006.7770968000001,1006.7770968000001,,,,,,,,,,323,2023-03-13_14h29.45.586,Main,2022.2.2,60.171874943611954,
positive,positive,1,l,j,1,0,1,0,0,0,0,0,,,,,,,,,,,,,,,,,,,,,,,,,0,4,4,2,,,,,,,,,,,,,,,,,,,,,prac,,,,,,,,,,,,,,,,,,,,,,,,,,,,,,,,,,,,,,,,,1,1,1,positive,positive,1006.7770968000001,1006.7770968000001,1006.7770968000001,1006.7770968000001,1007.7661429000001,1007.7969219,j,j,1,0.9691949999998997,1008.7516016000001,1008.7516016000001,1008.7516016000001,1008.7516016000001,1008.7516016000001,1008.7516016000001,,,,,,,,,,323,2023-03-13_14h29.45.586,Main,2022.2.2,60.171874943611954,
negative,neutral,1,k,k,1,0,1,0,0,0,0,0,,,,,,,,,,,,,,,,,,,,,,,,,0,5,5,7,,,,,,,,,,,,,,,,,,,,,prac,,,,,,,,,,,,,,,,,,,,,,,,,,,,,,,,,,,,,,,,,2,2,1,negative,neutral,1008.7516016000001,1008.7516016000001,1008.7516016000001,1008.7516016000001,1009.7272704999999,1009.7876440000001,k,k,1,0.7612497000000076,1010.5050302000001,1010.5050302000001,1010.5050302000001,1010.5050302000001,1010.5050302000001,1010.5050302000001,,,,,,,,,,323,2023-03-13_14h29.45.586,Main,2022.2.2,60.171874943611954,
positive,negative,1,j,l,1,0,1,0,0,0,0,0,,,,,,,,,,,,,,,,,,,,,,,,,0,6,6,6,,,,,,,,,,,,,,,,,,,,,prac,,,,,,,,,,,,,,,,,,,,,,,,,,,,,,,,,,,,,,,,,2,2,1,positive,negative,1010.5050302000001,1010.5050302000001,1010.5050302000001,1010.5050302000001,1011.4913074,1011.5228244000001,l,l,1,1.6991001000001233,1013.1869192,1013.1869192,1013.1869192,1014.2301332000001,1014.2301332000001,1014.2301332000001,,,,,,,,,,323,2023-03-13_14h29.45.586,Main,2022.2.2,60.171874943611954,
negative,neutral,2,k,k,1,0,1,0,0,0,0,0,,,,,,,,,,,,,,,,,,,,,,,,,0,7,7,16,,,,,,,,,,,,,,,,,,,,,prac,,,,,,,,,,,,,,,,,,,,,,,,,,,,,,,,,,,,,,,,,1,1,2,negative,neutral,1014.2301332000001,1014.2301332000001,1014.2301332000001,1014.2301332000001,1015.2123485999999,1015.2731377000001,k,k,1,0.8946389000000181,1016.1306329,1016.1306329,1016.1306329,1016.1306329,1016.1306329,1016.1306329,,,,,,,,,,323,2023-03-13_14h29.45.586,Main,2022.2.2,60.171874943611954,
negative,positive,1,l,j,1,0,1,0,0,0,0,0,,,,,,,,,,,,,,,,,,,,,,,,,0,8,8,5,,,,,,,,,,,,,,,,,,,,,prac,,,,,,,,,,,,,,,,,,,,,,,,,,,,,,,,,,,,,,,,,1,1,1,negative,positive,1016.1306329,1016.1306329,1016.1306329,1016.1306329,1017.1193112,1017.1517427,j,j,1,1.0163052000000334,1018.1525829000001,1018.1525829000001,1018.1525829000001,1018.1525829000001,1018.1525829000001,1018.1525829000001,,,,,,,,,,323,2023-03-13_14h29.45.586,Main,2022.2.2,60.171874943611954,
neutral,negative,2,j,l,1,0,1,0,0,0,0,0,,,,,,,,,,,,,,,,,,,,,,,,,0,9,9,12,,,,,,,,,,,,,,,,,,,,,prac,,,,,,,,,,,,,,,,,,,,,,,,,,,,,,,,,,,,,,,,,1,1,2,neutral,negative,1018.1525829000001,1018.1525829000001,1018.1525829000001,1018.1525829000001,1019.1215599000001,1019.1866172000001,l,l,1,0.8769022999999834,1020.0317128,1020.0317128,1020.0317128,1020.0317128,1020.0317128,1020.0317128,,,,,,,,,,323,2023-03-13_14h29.45.586,Main,2022.2.2,60.171874943611954,
positive,positive,2,l,j,1,0,1,0,0,0,0,0,,,,,,,,,,,,,,,,,,,,,,,,,0,10,10,11,,,,,,,,,,,,,,,,,,,,,prac,,,,,,,,,,,,,,,,,,,,,,,,,,,,,,,,,,,,,,,,,1,1,2,positive,positive,1020.0317128,1020.0317128,1020.0317128,1020.0317128,1021.0063323999999,1021.0787525,j,j,1,0.843633299999965,1021.8971157,1021.8971157,1021.8971157,1021.8971157,1021.8971157,1021.8971157,,,,,,,,,,323,2023-03-13_14h29.45.586,Main,2022.2.2,60.171874943611954,
neutral,neutral,1,k,k,1,0,1,0,0,0,0,0,,,,,,,,,,,,,,,,,,,,,,,,,0,11,11,1,,,,,,,,,,,,,,,,,,,,,prac,,,,,,,,,,,,,,,,,,,,,,,,,,,,,,,,,,,,,,,,,2,2,1,neutral,neutral,1021.8971157,1021.8971157,1021.8971157,1021.8971157,1022.8666374000001,1022.9276056,k,k,1,0.7998368999999457,1023.6767029000001,1023.6767029000001,1023.6767029000001,1023.6767029000001,1023.6767029000001,1023.6767029000001,,,,,,,,,,323,2023-03-13_14h29.45.586,Main,2022.2.2,60.171874943611954,
neutral,negative,1,j,l,1,0,1,0,0,0,0,0,,,,,,,,,,,,,,,,,,,,,,,,,0,12,12,3,,,,,,,,,,,,,,,,,,,,,prac,,,,,,,,,,,,,,,,,,,,,,,,,,,,,,,,,,,,,,,,,2,2,1,neutral,negative,1023.6767029000001,1023.6767029000001,1023.6767029000001,1023.6767029000001,1024.6483472999998,1024.7115583999998,l,l,1,0.9234217000000626,1025.6056560000002,1025.6056560000002,1025.6056560000002,1025.6056560000002,1025.6056560000002,1025.6056560000002,,,,,,,,,,323,2023-03-13_14h29.45.586,Main,2022.2.2,60.171874943611954,
neutral,positive,2,l,j,1,0,1,0,0,0,0,0,,,,,,,,,,,,,,,,,,,,,,,,,0,13,13,17,,,,,,,,,,,,,,,,,,,,,prac,,,,,,,,,,,,,,,,,,,,,,,,,,,,,,,,,,,,,,,,,2,2,2,neutral,positive,1025.6056560000002,1025.6056560000002,1025.6056560000002,1025.6056560000002,1026.5892136000002,1026.6190061000002,j,j,1,0.7492240999999922,1027.3513254999998,1027.3513254999998,1027.3513254999998,1027.3513254999998,1027.3513254999998,1027.3513254999998,,,,,,,,,,323,2023-03-13_14h29.45.586,Main,2022.2.2,60.171874943611954,
positive,neutral,2,k,k,1,0,1,0,0,0,0,0,,,,,,,,,,,,,,,,,,,,,,,,,0,14,14,13,,,,,,,,,,,,,,,,,,,,,prac,,,,,,,,,,,,,,,,,,,,,,,,,,,,,,,,,,,,,,,,,1,1,2,positive,neutral,1027.3513254999998,1027.3513254999998,1027.3513254999998,1027.3513254999998,1028.3328603999998,1028.3970248,k,k,1,0.6597477000000254,1029.0155208,1029.0155208,1029.0155208,1029.0155208,1029.0155208,1029.0155208,,,,,,,,,,323,2023-03-13_14h29.45.586,Main,2022.2.2,60.171874943611954,
neutral,positive,1,l,j,1,0,1,0,0,0,0,0,,,,,,,,,,,,,,,,,,,,,,,,,0,15,15,8,,,,,,,,,,,,,,,,,,,,,prac,,,,,,,,,,,,,,,,,,,,,,,,,,,,,,,,,,,,,,,,,2,2,1,neutral,positive,1029.0155208,1029.0155208,1029.0155208,1029.0155208,1029.9971903,1030.0597738000001,j,j,1,0.9586745999999948,1030.9721966000002,1030.9721966000002,1030.9721966000002,1030.9721966000002,1030.9721966000002,1030.9721966000002,,,,,,,,,,323,2023-03-13_14h29.45.586,Main,2022.2.2,60.171874943611954,
neutral,neutral,2,k,k,1,0,1,0,0,0,0,0,,,,,,,,,,,,,,,,,,,,,,,,,0,16,16,10,,,,,,,,,,,,,,,,,,,,,prac,,,,,,,,,,,,,,,,,,,,,,,,,,,,,,,,,,,,,,,,,1,1,2,neutral,neutral,1030.9721966000002,1030.9721966000002,1030.9721966000002,1030.9721966000002,1031.9655016000002,1031.9974820000002,k,k,1,0.7481987000001027,1032.7289982000002,1032.7289982000002,1032.7289982000002,1032.7289982000002,1032.7289982000002,1032.7289982000002,,,,,,,,,,323,2023-03-13_14h29.45.586,Main,2022.2.2,60.171874943611954,
negative,negative,1,j,l,1,0,1,0,0,0,0,0,,,,,,,,,,,,,,,,,,,,,,,,,0,17,17,0,,,,,,,,,,,,,,,,,,,,,prac,,,,,,,,,,,,,,,,,,,,,,,,,,,,,,,,,,,,,,,,,1,1,1,negative,negative,1032.7289982000002,1032.7289982000002,1032.7289982000002,1032.7289982000002,1033.7112642000002,1033.7757741,l,l,1,0.8334514000000581,1034.567246,1034.567246,1034.567246,1034.567246,1034.567246,1034.567246,,,,,,,,,,323,2023-03-13_14h29.45.586,Main,2022.2.2,60.171874943611954,
negative,negative,1,j,l,1,0,1,0,0,0,0,0,,,,,,,,,,,,,,,,,,,,,,,,,1,0,18,0,,,,,,,,,,,,,,,,,,,,,prac,,,,,,,,,,,,,,,,,,,,,,,,,,,,,,,,,,,,,,,,,2,2,1,negative,negative,1034.567246,1034.567246,1034.567246,1034.567246,1035.5383997,1035.6013957999999,l,l,1,0.6734493000001294,1036.2591447,1036.2591447,1036.2591447,1036.2591447,1036.2591447,1036.2591447,,,,,,,,,,323,2023-03-13_14h29.45.586,Main,2022.2.2,60.171874943611954,
neutral,positive,1,l,j,1,0,1,0,0,0,0,0,,,,,,,,,,,,,,,,,,,,,,,,,1,1,19,8,,,,,,,,,,,,,,,,,,,,,prac,,,,,,,,,,,,,,,,,,,,,,,,,,,,,,,,,,,,,,,,,1,1,1,neutral,positive,1036.2591447,1036.2591447,1036.2591447,1036.2591447,1037.2252414,1037.2860325000001,j,j,1,0.7789479999999003,1038.0164042000001,1038.0164042000001,1038.0164042000001,1038.0164042000001,1038.0164042000001,1038.0164042000001,,,,,,,,,,323,2023-03-13_14h29.45.586,Main,2022.2.2,60.171874943611954,
negative,negative,2,j,l,1,0,1,0,0,0,0,0,,,,,,,,,,,,,,,,,,,,,,,,,1,2,20,9,,,,,,,,,,,,,,,,,,,,,prac,,,,,,,,,,,,,,,,,,,,,,,,,,,,,,,,,,,,,,,,,2,2,2,negative,negative,1038.0164042000001,1038.0164042000001,1038.0164042000001,1038.0164042000001,1039.0107567999999,1039.0417339,l,,0,1.0766908000000512,1040.0731743000001,1040.0731743000001,1040.0731743000001,1041.0991883000002,1041.0991883000002,1041.0991883000002,,,,,,,,,,323,2023-03-13_14h29.45.586,Main,2022.2.2,60.171874943611954,
neutral,negative,2,j,l,1,0,1,0,0,0,0,0,,,,,,,,,,,,,,,,,,,,,,,,,1,3,21,12,,,,,,,,,,,,,,,,,,,,,prac,,,,,,,,,,,,,,,,,,,,,,,,,,,,,,,,,,,,,,,,,1,1,2,neutral,negative,1041.0991883000002,1041.0991883000002,1041.0991883000002,1041.0991883000002,1042.0865293000002,1042.1209672,l,l,1,0.9092482000000928,1043.020132,1043.020132,1043.020132,1043.020132,1043.020132,1043.020132,,,,,,,,,,323,2023-03-13_14h29.45.586,Main,2022.2.2,60.171874943611954,
negative,positive,1,l,j,1,0,1,0,0,0,0,0,,,,,,,,,,,,,,,,,,,,,,,,,1,4,22,5,,,,,,,,,,,,,,,,,,,,,prac,,,,,,,,,,,,,,,,,,,,,,,,,,,,,,,,,,,,,,,,,2,2,1,negative,positive,1043.020132,1043.020132,1043.020132,1043.020132,1044.0016254000002,1044.0630145999999,j,j,1,0.916958200000181,1044.9274074,1044.9274074,1044.9274074,1044.9274074,1044.9274074,1044.9274074,,,,,,,,,,323,2023-03-13_14h29.45.586,Main,2022.2.2,60.171874943611954,
negative,positive,2,l,j,1,0,1,0,0,0,0,0,,,,,,,,,,,,,,,,,,,,,,,,,1,5,23,14,,,,,,,,,,,,,,,,,,,,,prac,,,,,,,,,,,,,,,,,,,,,,,,,,,,,,,,,,,,,,,,,2,2,2,negative,positive,1044.9274074,1044.9274074,1044.9274074,1044.9274074,1045.9078184999998,1045.9717524000002,j,j,1,1.7806322999999793,1047.6891905000002,1047.6891905000002,1047.6891905000002,1048.7290045,1048.7290045,1048.7290045,,,,,,,,,,323,2023-03-13_14h29.45.586,Main,2022.2.2,60.171874943611954,
positive,negative,1,j,l,1,0,1,0,0,0,0,0,,,,,,,,,,,,,,,,,,,,,,,,,1,6,24,6,,,,,,,,,,,,,,,,,,,,,prac,,,,,,,,,,,,,,,,,,,,,,,,,,,,,,,,,,,,,,,,,2,2,1,positive,negative,1048.7290045,1048.7290045,1048.7290045,1048.7290045,1049.7234208,1049.754195,l,l,1,0.9595684999999321,1050.6873946,1050.6873946,1050.6873946,1050.6873946,1050.6873946,1050.6873946,,,,,,,,,,323,2023-03-13_14h29.45.586,Main,2022.2.2,60.171874943611954,
negative,neutral,1,k,k,1,0,1,0,0,0,0,0,,,,,,,,,,,,,,,,,,,,,,,,,1,7,25,7,,,,,,,,,,,,,,,,,,,,,prac,,,,,,,,,,,,,,,,,,,,,,,,,,,,,,,,,,,,,,,,,2,2,1,negative,neutral,1050.6873946,1050.6873946,1050.6873946,1050.6873946,1051.6714668999998,1051.7043979999999,k,k,1,0.8072972999998456,1052.4936751,1052.4936751,1052.4936751,1052.4936751,1052.4936751,1052.4936751,,,,,,,,,,323,2023-03-13_14h29.45.586,Main,2022.2.2,60.171874943611954,
neutral,neutral,2,k,k,1,0,1,0,0,0,0,0,,,,,,,,,,,,,,,,,,,,,,,,,1,8,26,10,,,,,,,,,,,,,,,,,,,,,prac,,,,,,,,,,,,,,,,,,,,,,,,,,,,,,,,,,,,,,,,,2,2,2,neutral,neutral,1052.4936751,1052.4936751,1052.4936751,1052.4936751,1053.4839711,1053.5152853999998,k,k,1,0.913156299999855,1054.4153876,1054.4153876,1054.4153876,1054.4153876,1054.4153876,1054.4153876,,,,,,,,,,323,2023-03-13_14h29.45.586,Main,2022.2.2,60.171874943611954,
neutral,neutral,1,k,k,1,0,1,0,0,0,0,0,,,,,,,,,,,,,,,,,,,,,,,,,1,9,27,1,,,,,,,,,,,,,,,,,,,,,prac,,,,,,,,,,,,,,,,,,,,,,,,,,,,,,,,,,,,,,,,,2,2,1,neutral,neutral,1054.4153876,1054.4153876,1054.4153876,1054.4153876,1055.4035859,1055.4341512,k,k,1,0.7408465000000888,1056.1595350000002,1056.1595350000002,1056.1595350000002,1056.1595350000002,1056.1595350000002,1056.1595350000002,,,,,,,,,,323,2023-03-13_14h29.45.586,Main,2022.2.2,60.171874943611954,
positive,neutral,2,k,k,1,0,1,0,0,0,0,0,,,,,,,,,,,,,,,,,,,,,,,,,1,10,28,13,,,,,,,,,,,,,,,,,,,,,prac,,,,,,,,,,,,,,,,,,,,,,,,,,,,,,,,,,,,,,,,,1,1,2,positive,neutral,1056.1595350000002,1056.1595350000002,1056.1595350000002,1056.1595350000002,1057.1429191000002,1057.1728822,k,k,1,0.706788700000061,1057.8760942,1057.8760942,1057.8760942,1057.8760942,1057.8760942,1057.8760942,,,,,,,,,,323,2023-03-13_14h29.45.586,Main,2022.2.2,60.171874943611954,
positive,negative,2,j,l,1,0,1,0,0,0,0,0,,,,,,,,,,,,,,,,,,,,,,,,,1,11,29,15,,,,,,,,,,,,,,,,,,,,,prac,,,,,,,,,,,,,,,,,,,,,,,,,,,,,,,,,,,,,,,,,1,1,2,positive,negative,1057.8760942,1057.8760942,1057.8760942,1057.8760942,1058.8452277000001,1058.9053305000002,l,l,1,0.7910091000001103,1059.6622043000002,1059.6622043000002,1059.6622043000002,1059.6622043000002,1059.6622043000002,1059.6622043000002,,,,,,,,,,323,2023-03-13_14h29.45.586,Main,2022.2.2,60.171874943611954,
positive,neutral,1,k,k,1,0,1,0,0,0,0,0,,,,,,,,,,,,,,,,,,,,,,,,,1,12,30,4,,,,,,,,,,,,,,,,,,,,,prac,,,,,,,,,,,,,,,,,,,,,,,,,,,,,,,,,,,,,,,,,1,1,1,positive,neutral,1059.6622043000002,1059.6622043000002,1059.6622043000002,1059.6622043000002,1060.6469246000001,1060.6771506999999,k,k,1,0.7555139000000963,1061.4219165999998,1061.4219165999998,1061.4219165999998,1061.4219165999998,1061.4219165999998,1061.4219165999998,,,,,,,,,,323,2023-03-13_14h29.45.586,Main,2022.2.2,60.171874943611954,
positive,positive,1,l,j,1,0,1,0,0,0,0,0,,,,,,,,,,,,,,,,,,,,,,,,,1,13,31,2,,,,,,,,,,,,,,,,,,,,,prac,,,,,,,,,,,,,,,,,,,,,,,,,,,,,,,,,,,,,,,,,2,2,1,positive,positive,1061.4219165999998,1061.4219165999998,1061.4219165999998,1061.4219165999998,1062.4110062,1062.4416213,j,j,1,1.0642586000001302,1063.4875501000001,1063.4875501000001,1063.4875501000001,1063.4875501000001,1063.4875501000001,1063.4875501000001,,,,,,,,,,323,2023-03-13_14h29.45.586,Main,2022.2.2,60.171874943611954,
neutral,negative,1,j,l,1,0,1,0,0,0,0,0,,,,,,,,,,,,,,,,,,,,,,,,,1,14,32,3,,,,,,,,,,,,,,,,,,,,,prac,,,,,,,,,,,,,,,,,,,,,,,,,,,,,,,,,,,,,,,,,1,1,1,neutral,negative,1063.4875501000001,1063.4875501000001,1063.4875501000001,1063.4875501000001,1064.4736367,1064.5047531999999,l,l,1,0.9643793000000187,1065.4526423000002,1065.4526423000002,1065.4526423000002,1065.4526423000002,1065.4526423000002,1065.4526423000002,,,,,,,,,,323,2023-03-13_14h29.45.586,Main,2022.2.2,60.171874943611954,
positive,positive,2,l,j,1,0,1,0,0,0,0,0,,,,,,,,,,,,,,,,,,,,,,,,,1,15,33,11,,,,,,,,,,,,,,,,,,,,,prac,,,,,,,,,,,,,,,,,,,,,,,,,,,,,,,,,,,,,,,,,1,1,2,positive,positive,1065.4526423000002,1065.4526423000002,1065.4526423000002,1065.4526423000002,1066.4525911,1066.4823278,j,j,1,0.9764052000000447,1067.4333788,1067.4333788,1067.4333788,1067.4333788,1067.4333788,1067.4333788,,,,,,,,,,323,2023-03-13_14h29.45.586,Main,2022.2.2,60.171874943611954,
neutral,positive,2,l,j,1,0,1,0,0,0,0,0,,,,,,,,,,,,,,,,,,,,,,,,,1,16,34,17,,,,,,,,,,,,,,,,,,,,,prac,,,,,,,,,,,,,,,,,,,,,,,,,,,,,,,,,,,,,,,,,2,2,2,neutral,positive,1067.4333788,1067.4333788,1067.4333788,1067.4333788,1068.4315769,1068.4617346,j,j,1,0.7784553999999844,1069.2168798000002,1069.2168798000002,1069.2168798000002,1069.2168798000002,1069.2168798000002,1069.2168798000002,,,,,,,,,,323,2023-03-13_14h29.45.586,Main,2022.2.2,60.171874943611954,
negative,neutral,2,k,k,1,0,1,0,0,0,0,0,,,,,,,,,,,,,,,,,,,,,,,,,1,17,35,16,,,,,,,,,,,,,,,,,,,,,prac,,,,,,,,,,,,,,,,,,,,,,,,,,,,,,,,,,,,,,,,,2,2,2,negative,neutral,1069.2168798000002,1069.2168798000002,1069.2168798000002,1069.2168798000002,1070.2075052999999,1070.2365650000002,k,k,1,0.8112631000001329,1071.0304227000001,1071.0304227000001,1071.0304227000001,1071.0304227000001,1071.0304227000001,1071.0304227000001,,,,,,,,,,323,2023-03-13_14h29.45.586,Main,2022.2.2,60.171874943611954,
negative,positive,1,l,j,1,0,1,0,0,0,0,0,,,,,,,,,,,,,,,,,,,,,,,,,,,,,0,0,0,5,,,,,,,,,,,,,,,,,main,,,,,,,,,,,,,,,,,,,,,,,,,,,,,,,,,,,,,,,,1072.0284760999998,1,1,1,negative,positive,1074.0766411999998,1074.0766411999998,1074.0766411999998,1074.0766411999998,1075.0653822,1075.0968203000002,j,j,1,1.154127100000096,1076.2452839000002,1076.2452839000002,1076.2452839000002,1076.2452839000002,1076.2452839000002,1076.2452839000002,1071.0304227000001,0.00016529999993508682,None,0.5972222222222222,-0.3527777777777778,0,0,0,,323,2023-03-13_14h29.45.586,Main,2022.2.2,60.171874943611954,
neutral,positive,2,l,j,1,0,1,0,0,0,0,0,,,,,,,,,,,,,,,,,,,,,,,,,,,,,0,1,1,17,,,,,,,,,,,,,,,,,main,,,,,,,,,,,,,,,,,,,,,,,,,,,,,,,,,,,,,,,,,1,1,2,neutral,positive,1076.2452839000002,1076.2452839000002,1076.2452839000002,1076.2452839000002,1077.2155621000002,1077.2788768,j,j,1,0.6894733000001452,1077.9276060000002,1077.9276060000002,1077.9276060000002,1077.9276060000002,1077.9276060000002,1077.9276060000002,,,,,,,,,,323,2023-03-13_14h29.45.586,Main,2022.2.2,60.171874943611954,
negative,positive,2,l,j,1,0,1,0,0,0,0,0,,,,,,,,,,,,,,,,,,,,,,,,,,,,,0,2,2,14,,,,,,,,,,,,,,,,,main,,,,,,,,,,,,,,,,,,,,,,,,,,,,,,,,,,,,,,,,,2,2,2,negative,positive,1077.9276060000002,1077.9276060000002,1077.9276060000002,1077.9276060000002,1078.929129,1078.9606729000002,j,j,1,0.692297999999937,1079.6327652999998,1079.6327652999998,1079.6327652999998,1079.6327652999998,1079.6327652999998,1079.6327652999998,,,,,,,,,,323,2023-03-13_14h29.45.586,Main,2022.2.2,60.171874943611954,
