target,distractor,set,ans1,ans2,total_experiment.thisRepN,total_experiment.thisTrialN,total_experiment.thisN,total_experiment.thisIndex,boat.thisRepN,boat.thisTrialN,boat.thisN,boat.thisIndex,fl_rep_loop2.thisRepN,fl_rep_loop2.thisTrialN,fl_rep_loop2.thisN,fl_rep_loop2.thisIndex,flanker_prac_loop.thisRepN,flanker_prac_loop.thisTrialN,flanker_prac_loop.thisN,flanker_prac_loop.thisIndex,flanker_main_loop.thisRepN,flanker_main_loop.thisTrialN,flanker_main_loop.thisN,flanker_main_loop.thisIndex,flanker_rest.thisRepN,flanker_rest.thisTrialN,flanker_rest.thisN,flanker_rest.thisIndex,para.thisRepN,para.thisTrialN,para.thisN,para.thisIndex,para_rep_loop.thisRepN,para_rep_loop.thisTrialN,para_rep_loop.thisN,para_rep_loop.thisIndex,para_prac_loop.thisRepN,para_prac_loop.thisTrialN,para_prac_loop.thisN,para_prac_loop.thisIndex,para_main_loop.thisRepN,para_main_loop.thisTrialN,para_main_loop.thisN,para_main_loop.thisIndex,para_rest.thisRepN,para_rest.thisTrialN,para_rest.thisN,para_rest.thisIndex,fl_starter_back.started,fl_starter.started,fl_starter_text.started,fl_starter.keys,fl_starter.rt,fl_inst_resp.keys,fl_inst_resp.rt,fl_back.started,fl_mouse_prac.started,fl_mouse_prac.x,fl_mouse_prac.y,fl_mouse_prac.leftButton,fl_mouse_prac.midButton,fl_mouse_prac.rightButton,back_2.started,main_prac,fl_cold,fl_colt,fl_set,fl_dcond,fl_tcond,fl_fix.started,j_button.started,k_button.started,l_button.started,targ.started,fl_fix.stopped,fl_ans,fl_res,fl_corr,fl_rt,j_button2.started,k_button2.started,l_button2.started,j_button2.stopped,k_button2.stopped,l_button2.stopped,fl_mainback.started,fl_mouse_m.started,fl_key_resp.keys,fl_key_resp.rt,fl_mouse_m.x,fl_mouse_m.y,fl_mouse_m.leftButton,fl_mouse_m.midButton,fl_mouse_m.rightButton,rest_text.started,rest_key.started,rest_inst_text.started,rest_time.started,rest_key.keys,exp_end_key.started,exp_end_back.started,exp_end_text.started,exp_end_key.keys,para_starter.started,para_starter_key.started,para_starter_key.keys,para_starter_key.rt,para_inst_sound.started,para_inst_key.keys,para_inst_key.rt,para_inst_image.started,para_prac_back.started,para_prac_text.started,para_fix_back.started,para_fix_2.started,para_back.started,st_ans,st_res,st_corr,st_rt,st2_resp.keys,st2_resp.corr,para_main_back.started,para_main_text.started,para_mouse.started,para_mouse.x,para_mouse.y,para_mouse.leftButton,para_mouse.midButton,para_mouse.rightButton,total_end_text.started,id*,date,expName,psychopyVersion,frameRate,
,,,,,0,0,0,0,0,0,0,0,0,0,0,0,,,,,,,,,,,,,,,,,,,,,,,,,,,,,,,,,57.37977950000004,57.37977950000004,59.36846949999995,space,9.337986699999874,space,55.07920339999987,122.85867630000007,,,,,,,,,,,,,,,,,,,,,,,,,,,,,,,,,,,,,,,,,,,,,,,,,,,,,,,,,,,,,,,,,,,,,,,,,,,,324,2023-03-15_15h09.51.237,Main,2022.2.2,59.58523906787591,
positive,positive,2,l,j,0,0,0,0,0,0,0,0,,,,,0,0,0,11,,,,,,,,,,,,,,,,,,,,,,,,,,,,,,,,,,,,,0.007982299999866882,0.32314814814814813,-0.4064814814814815,0,0,0,126.76204630000007,prac,1,1,2,positive,positive,128.9485271000001,128.9485271000001,128.9485271000001,128.9485271000001,129.92289019999998,129.98406079999995,l,l,1,2.4938969999998335,132.42052260000014,132.42052260000014,132.42052260000014,133.4654574000001,133.4654574000001,133.4654574000001,,,,,,,,,,,,,,,,,,,,,,,,,,,,,,,,,,,,,,,,,,,,,,,324,2023-03-15_15h09.51.237,Main,2022.2.2,59.58523906787591,
positive,negative,2,l,j,0,0,0,0,0,0,0,0,,,,,0,1,1,14,,,,,,,,,,,,,,,,,,,,,,,,,,,,,,,,,,,,,,,,,,,,prac,2,2,2,negative,positive,133.4654574000001,133.4654574000001,133.4654574000001,133.4654574000001,134.46381110000016,134.49284820000003,l,l,1,1.3835850000000391,135.85393820000013,135.85393820000013,135.85393820000013,135.85393820000013,135.85393820000013,135.85393820000013,,,,,,,,,,,,,,,,,,,,,,,,,,,,,,,,,,,,,,,,,,,,,,,324,2023-03-15_15h09.51.237,Main,2022.2.2,59.58523906787591,
positive,positive,1,l,j,0,0,0,0,0,0,0,0,,,,,0,2,2,2,,,,,,,,,,,,,,,,,,,,,,,,,,,,,,,,,,,,,,,,,,,,prac,1,1,1,positive,positive,135.85393820000013,135.85393820000013,135.85393820000013,135.85393820000013,136.82082949999995,136.89416170000004,l,k,0,3.1937941999999566,140.04270640000004,140.04270640000004,140.04270640000004,141.09173699999997,141.09173699999997,141.09173699999997,,,,,,,,,,,,,,,,,,,,,,,,,,,,,,,,,,,,,,,,,,,,,,,324,2023-03-15_15h09.51.237,Main,2022.2.2,59.58523906787591,
negative,neutral,2,j,l,0,0,0,0,0,0,0,0,,,,,0,3,3,12,,,,,,,,,,,,,,,,,,,,,,,,,,,,,,,,,,,,,,,,,,,,prac,1,1,2,neutral,negative,141.09173699999997,141.09173699999997,141.09173699999997,141.09173699999997,142.08214270000008,142.11340680000012,j,j,1,1.1116219000000456,143.20482349999997,143.20482349999997,143.20482349999997,143.20482349999997,143.20482349999997,143.20482349999997,,,,,,,,,,,,,,,,,,,,,,,,,,,,,,,,,,,,,,,,,,,,,,,324,2023-03-15_15h09.51.237,Main,2022.2.2,59.58523906787591,
neutral,neutral,1,k,k,0,0,0,0,0,0,0,0,,,,,0,4,4,1,,,,,,,,,,,,,,,,,,,,,,,,,,,,,,,,,,,,,,,,,,,,prac,2,2,1,neutral,neutral,143.20482349999997,143.20482349999997,143.20482349999997,143.20482349999997,144.18502740000008,144.25178430000005,k,k,1,1.1553558000000521,145.360856,145.360856,145.360856,145.360856,145.360856,145.360856,,,,,,,,,,,,,,,,,,,,,,,,,,,,,,,,,,,,,,,,,,,,,,,324,2023-03-15_15h09.51.237,Main,2022.2.2,59.58523906787591,
neutral,neutral,2,k,k,0,0,0,0,0,0,0,0,,,,,0,5,5,10,,,,,,,,,,,,,,,,,,,,,,,,,,,,,,,,,,,,,,,,,,,,prac,1,1,2,neutral,neutral,145.360856,145.360856,145.360856,145.360856,146.33926210000004,146.40425849999997,k,k,1,1.0668915000001107,147.4332127,147.4332127,147.4332127,147.4332127,147.4332127,147.4332127,,,,,,,,,,,,,,,,,,,,,,,,,,,,,,,,,,,,,,,,,,,,,,,324,2023-03-15_15h09.51.237,Main,2022.2.2,59.58523906787591,
positive,neutral,2,l,j,0,0,0,0,0,0,0,0,,,,,0,6,6,17,,,,,,,,,,,,,,,,,,,,,,,,,,,,,,,,,,,,,,,,,,,,prac,1,1,2,neutral,positive,147.4332127,147.4332127,147.4332127,147.4332127,148.4202017,148.44946389999996,l,l,1,1.0462317999999868,149.48138160000008,149.48138160000008,149.48138160000008,149.48138160000008,149.48138160000008,149.48138160000008,,,,,,,,,,,,,,,,,,,,,,,,,,,,,,,,,,,,,,,,,,,,,,,324,2023-03-15_15h09.51.237,Main,2022.2.2,59.58523906787591,
positive,negative,1,l,j,0,0,0,0,0,0,0,0,,,,,0,7,7,5,,,,,,,,,,,,,,,,,,,,,,,,,,,,,,,,,,,,,,,,,,,,prac,1,1,1,negative,positive,149.48138160000008,149.48138160000008,149.48138160000008,149.48138160000008,150.47273960000007,150.51038330000006,l,l,1,1.9246212000000469,152.37958430000003,152.37958430000003,152.37958430000003,153.42256910000015,153.42256910000015,153.42256910000015,,,,,,,,,,,,,,,,,,,,,,,,,,,,,,,,,,,,,,,,,,,,,,,324,2023-03-15_15h09.51.237,Main,2022.2.2,59.58523906787591,
negative,neutral,1,j,l,0,0,0,0,0,0,0,0,,,,,0,8,8,3,,,,,,,,,,,,,,,,,,,,,,,,,,,,,,,,,,,,,,,,,,,,prac,1,1,1,neutral,negative,153.42256910000015,153.42256910000015,153.42256910000015,153.42256910000015,154.42651769999998,154.456948,j,j,1,1.0028313000000253,155.4337574000001,155.4337574000001,155.4337574000001,155.4337574000001,155.4337574000001,155.4337574000001,,,,,,,,,,,,,,,,,,,,,,,,,,,,,,,,,,,,,,,,,,,,,,,324,2023-03-15_15h09.51.237,Main,2022.2.2,59.58523906787591,
positive,neutral,1,l,j,0,0,0,0,0,0,0,0,,,,,0,9,9,8,,,,,,,,,,,,,,,,,,,,,,,,,,,,,,,,,,,,,,,,,,,,prac,1,1,1,neutral,positive,155.4337574000001,155.4337574000001,155.4337574000001,155.4337574000001,156.41775529999995,156.46094770000013,l,l,1,1.1141313999999056,157.5522622000001,157.5522622000001,157.5522622000001,157.5522622000001,157.5522622000001,157.5522622000001,,,,,,,,,,,,,,,,,,,,,,,,,,,,,,,,,,,,,,,,,,,,,,,324,2023-03-15_15h09.51.237,Main,2022.2.2,59.58523906787591,
negative,negative,2,j,l,0,0,0,0,0,0,0,0,,,,,0,10,10,9,,,,,,,,,,,,,,,,,,,,,,,,,,,,,,,,,,,,,,,,,,,,prac,2,2,2,negative,negative,157.5522622000001,157.5522622000001,157.5522622000001,157.5522622000001,158.52649760000008,158.58890569999994,j,j,1,1.0995700000000852,159.65399960000013,159.65399960000013,159.65399960000013,159.65399960000013,159.65399960000013,159.65399960000013,,,,,,,,,,,,,,,,,,,,,,,,,,,,,,,,,,,,,,,,,,,,,,,324,2023-03-15_15h09.51.237,Main,2022.2.2,59.58523906787591,
negative,positive,2,j,l,0,0,0,0,0,0,0,0,,,,,0,11,11,15,,,,,,,,,,,,,,,,,,,,,,,,,,,,,,,,,,,,,,,,,,,,prac,2,2,2,positive,negative,159.65399960000013,159.65399960000013,159.65399960000013,159.65399960000013,160.62416030000009,160.68614750000006,j,j,1,0.8808056000000306,161.54259060000004,161.54259060000004,161.54259060000004,161.54259060000004,161.54259060000004,161.54259060000004,,,,,,,,,,,,,,,,,,,,,,,,,,,,,,,,,,,,,,,,,,,,,,,324,2023-03-15_15h09.51.237,Main,2022.2.2,59.58523906787591,
neutral,positive,1,k,k,0,0,0,0,0,0,0,0,,,,,0,12,12,4,,,,,,,,,,,,,,,,,,,,,,,,,,,,,,,,,,,,,,,,,,,,prac,2,2,1,positive,neutral,161.54259060000004,161.54259060000004,161.54259060000004,161.54259060000004,162.53517379999994,162.56924320000007,k,k,1,0.8704027999999653,163.40896250000014,163.40896250000014,163.40896250000014,163.40896250000014,163.40896250000014,163.40896250000014,,,,,,,,,,,,,,,,,,,,,,,,,,,,,,,,,,,,,,,,,,,,,,,324,2023-03-15_15h09.51.237,Main,2022.2.2,59.58523906787591,
neutral,positive,2,k,k,0,0,0,0,0,0,0,0,,,,,0,13,13,13,,,,,,,,,,,,,,,,,,,,,,,,,,,,,,,,,,,,,,,,,,,,prac,1,1,2,positive,neutral,163.40896250000014,163.40896250000014,163.40896250000014,163.40896250000014,164.41180980000013,164.44228840000005,k,k,1,0.7458709999998518,165.15559210000015,165.15559210000015,165.15559210000015,165.15559210000015,165.15559210000015,165.15559210000015,,,,,,,,,,,,,,,,,,,,,,,,,,,,,,,,,,,,,,,,,,,,,,,324,2023-03-15_15h09.51.237,Main,2022.2.2,59.58523906787591,
negative,positive,1,j,l,0,0,0,0,0,0,0,0,,,,,0,14,14,6,,,,,,,,,,,,,,,,,,,,,,,,,,,,,,,,,,,,,,,,,,,,prac,1,1,1,positive,negative,165.15559210000015,165.15559210000015,165.15559210000015,165.15559210000015,166.1557401,166.1858373,j,j,1,0.9155863999999383,167.0748191,167.0748191,167.0748191,167.0748191,167.0748191,167.0748191,,,,,,,,,,,,,,,,,,,,,,,,,,,,,,,,,,,,,,,,,,,,,,,324,2023-03-15_15h09.51.237,Main,2022.2.2,59.58523906787591,
neutral,negative,2,k,k,0,0,0,0,0,0,0,0,,,,,0,15,15,16,,,,,,,,,,,,,,,,,,,,,,,,,,,,,,,,,,,,,,,,,,,,prac,1,1,2,negative,neutral,167.0748191,167.0748191,167.0748191,167.0748191,168.06556999999998,168.09442160000003,k,k,1,0.856909000000087,168.9387630000001,168.9387630000001,168.9387630000001,168.9387630000001,168.9387630000001,168.9387630000001,,,,,,,,,,,,,,,,,,,,,,,,,,,,,,,,,,,,,,,,,,,,,,,324,2023-03-15_15h09.51.237,Main,2022.2.2,59.58523906787591,
negative,negative,1,j,l,0,0,0,0,0,0,0,0,,,,,0,16,16,0,,,,,,,,,,,,,,,,,,,,,,,,,,,,,,,,,,,,,,,,,,,,prac,1,1,1,negative,negative,168.9387630000001,168.9387630000001,168.9387630000001,168.9387630000001,169.92563169999994,169.95631980000007,j,j,1,0.9154172999999446,170.85188570000014,170.85188570000014,170.85188570000014,170.85188570000014,170.85188570000014,170.85188570000014,,,,,,,,,,,,,,,,,,,,,,,,,,,,,,,,,,,,,,,,,,,,,,,324,2023-03-15_15h09.51.237,Main,2022.2.2,59.58523906787591,
neutral,negative,1,k,k,0,0,0,0,0,0,0,0,,,,,0,17,17,7,,,,,,,,,,,,,,,,,,,,,,,,,,,,,,,,,,,,,,,,,,,,prac,2,2,1,negative,neutral,170.85188570000014,170.85188570000014,170.85188570000014,170.85188570000014,171.84357490000002,171.88008390000005,k,k,1,1.0019257999999809,172.85497520000013,172.85497520000013,172.85497520000013,172.85497520000013,172.85497520000013,172.85497520000013,,,,,,,,,,,,,,,,,,,,,,,,,,,,,,,,,,,,,,,,,,,,,,,324,2023-03-15_15h09.51.237,Main,2022.2.2,59.58523906787591,
neutral,negative,1,k,k,0,0,0,0,0,0,0,0,,,,,1,0,18,7,,,,,,,,,,,,,,,,,,,,,,,,,,,,,,,,,,,,,,,,,,,,prac,1,1,1,negative,neutral,172.85497520000013,172.85497520000013,172.85497520000013,172.85497520000013,173.85030580000011,173.8811409,k,k,1,0.7581832999999278,174.62310430000002,174.62310430000002,174.62310430000002,174.62310430000002,174.62310430000002,174.62310430000002,,,,,,,,,,,,,,,,,,,,,,,,,,,,,,,,,,,,,,,,,,,,,,,324,2023-03-15_15h09.51.237,Main,2022.2.2,59.58523906787591,
neutral,neutral,2,k,k,0,0,0,0,0,0,0,0,,,,,1,1,19,10,,,,,,,,,,,,,,,,,,,,,,,,,,,,,,,,,,,,,,,,,,,,prac,2,2,2,neutral,neutral,174.62310430000002,174.62310430000002,174.62310430000002,174.62310430000002,175.61238279999998,175.64270729999998,k,k,1,0.782194600000139,176.40185530000008,176.40185530000008,176.40185530000008,176.40185530000008,176.40185530000008,176.40185530000008,,,,,,,,,,,,,,,,,,,,,,,,,,,,,,,,,,,,,,,,,,,,,,,324,2023-03-15_15h09.51.237,Main,2022.2.2,59.58523906787591,
neutral,negative,2,k,k,0,0,0,0,0,0,0,0,,,,,1,2,20,16,,,,,,,,,,,,,,,,,,,,,,,,,,,,,,,,,,,,,,,,,,,,prac,1,1,2,negative,neutral,176.40185530000008,176.40185530000008,176.40185530000008,176.40185530000008,177.39705430000004,177.43270610000013,k,k,1,0.7081944999999905,178.1256704,178.1256704,178.1256704,178.1256704,178.1256704,178.1256704,,,,,,,,,,,,,,,,,,,,,,,,,,,,,,,,,,,,,,,,,,,,,,,324,2023-03-15_15h09.51.237,Main,2022.2.2,59.58523906787591,
positive,negative,2,l,j,0,0,0,0,0,0,0,0,,,,,1,3,21,14,,,,,,,,,,,,,,,,,,,,,,,,,,,,,,,,,,,,,,,,,,,,prac,2,2,2,negative,positive,178.1256704,178.1256704,178.1256704,178.1256704,179.08789509999997,179.15331230000015,l,l,1,0.6931131999999707,179.81496100000004,179.81496100000004,179.81496100000004,179.81496100000004,179.81496100000004,179.81496100000004,,,,,,,,,,,,,,,,,,,,,,,,,,,,,,,,,,,,,,,,,,,,,,,324,2023-03-15_15h09.51.237,Main,2022.2.2,59.58523906787591,
negative,positive,2,j,l,0,0,0,0,0,0,0,0,,,,,1,4,22,15,,,,,,,,,,,,,,,,,,,,,,,,,,,,,,,,,,,,,,,,,,,,prac,1,1,2,positive,negative,179.81496100000004,179.81496100000004,179.81496100000004,179.81496100000004,180.79653080000003,180.85748910000007,j,j,1,1.466856400000097,182.2793372000001,182.2793372000001,182.2793372000001,182.2793372000001,182.2793372000001,182.2793372000001,,,,,,,,,,,,,,,,,,,,,,,,,,,,,,,,,,,,,,,,,,,,,,,324,2023-03-15_15h09.51.237,Main,2022.2.2,59.58523906787591,
negative,neutral,1,j,l,0,0,0,0,0,0,0,0,,,,,1,5,23,3,,,,,,,,,,,,,,,,,,,,,,,,,,,,,,,,,,,,,,,,,,,,prac,2,2,1,neutral,negative,182.2793372000001,182.2793372000001,182.2793372000001,182.2793372000001,183.2705261000001,183.30049069999995,j,j,1,0.8334930000000895,184.1154345,184.1154345,184.1154345,184.1154345,184.1154345,184.1154345,,,,,,,,,,,,,,,,,,,,,,,,,,,,,,,,,,,,,,,,,,,,,,,324,2023-03-15_15h09.51.237,Main,2022.2.2,59.58523906787591,
neutral,positive,2,k,k,0,0,0,0,0,0,0,0,,,,,1,6,24,13,,,,,,,,,,,,,,,,,,,,,,,,,,,,,,,,,,,,,,,,,,,,prac,2,2,2,positive,neutral,184.1154345,184.1154345,184.1154345,184.1154345,185.1096758000001,185.13852250000014,k,k,1,0.8150499999999283,185.92810639999993,185.92810639999993,185.92810639999993,185.92810639999993,185.92810639999993,185.92810639999993,,,,,,,,,,,,,,,,,,,,,,,,,,,,,,,,,,,,,,,,,,,,,,,324,2023-03-15_15h09.51.237,Main,2022.2.2,59.58523906787591,
negative,negative,2,j,l,0,0,0,0,0,0,0,0,,,,,1,7,25,9,,,,,,,,,,,,,,,,,,,,,,,,,,,,,,,,,,,,,,,,,,,,prac,2,2,2,negative,negative,185.92810639999993,185.92810639999993,185.92810639999993,185.92810639999993,186.92160149999995,186.95146249999993,j,j,1,0.8664710000000468,187.80370820000007,187.80370820000007,187.80370820000007,187.80370820000007,187.80370820000007,187.80370820000007,,,,,,,,,,,,,,,,,,,,,,,,,,,,,,,,,,,,,,,,,,,,,,,324,2023-03-15_15h09.51.237,Main,2022.2.2,59.58523906787591,
negative,positive,1,j,l,0,0,0,0,0,0,0,0,,,,,1,8,26,6,,,,,,,,,,,,,,,,,,,,,,,,,,,,,,,,,,,,,,,,,,,,prac,1,1,1,positive,negative,187.80370820000007,187.80370820000007,187.80370820000007,187.80370820000007,188.78323890000001,188.85064320000015,j,j,1,0.6736108000000058,189.48754050000002,189.48754050000002,189.48754050000002,189.48754050000002,189.48754050000002,189.48754050000002,,,,,,,,,,,,,,,,,,,,,,,,,,,,,,,,,,,,,,,,,,,,,,,324,2023-03-15_15h09.51.237,Main,2022.2.2,59.58523906787591,
negative,neutral,2,j,l,0,0,0,0,0,0,0,0,,,,,1,9,27,12,,,,,,,,,,,,,,,,,,,,,,,,,,,,,,,,,,,,,,,,,,,,prac,1,1,2,neutral,negative,189.48754050000002,189.48754050000002,189.48754050000002,189.48754050000002,190.4853376000001,190.52420830000005,j,j,1,0.7426087999999709,191.21617100000003,191.21617100000003,191.21617100000003,191.21617100000003,191.21617100000003,191.21617100000003,,,,,,,,,,,,,,,,,,,,,,,,,,,,,,,,,,,,,,,,,,,,,,,324,2023-03-15_15h09.51.237,Main,2022.2.2,59.58523906787591,
neutral,positive,1,k,k,0,0,0,0,0,0,0,0,,,,,1,10,28,4,,,,,,,,,,,,,,,,,,,,,,,,,,,,,,,,,,,,,,,,,,,,prac,1,1,1,positive,neutral,191.21617100000003,191.21617100000003,191.21617100000003,191.21617100000003,192.2047159000001,192.23547910000002,k,k,1,0.81319469999994,193.0390328000001,193.0390328000001,193.0390328000001,193.0390328000001,193.0390328000001,193.0390328000001,,,,,,,,,,,,,,,,,,,,,,,,,,,,,,,,,,,,,,,,,,,,,,,324,2023-03-15_15h09.51.237,Main,2022.2.2,59.58523906787591,
neutral,neutral,1,k,k,0,0,0,0,0,0,0,0,,,,,1,11,29,1,,,,,,,,,,,,,,,,,,,,,,,,,,,,,,,,,,,,,,,,,,,,prac,1,1,1,neutral,neutral,193.0390328000001,193.0390328000001,193.0390328000001,193.0390328000001,194.02943930000015,194.05964330000006,k,k,1,0.7547494999998889,194.80026120000002,194.80026120000002,194.80026120000002,194.80026120000002,194.80026120000002,194.80026120000002,,,,,,,,,,,,,,,,,,,,,,,,,,,,,,,,,,,,,,,,,,,,,,,324,2023-03-15_15h09.51.237,Main,2022.2.2,59.58523906787591,
negative,negative,1,j,l,0,0,0,0,0,0,0,0,,,,,1,12,30,0,,,,,,,,,,,,,,,,,,,,,,,,,,,,,,,,,,,,,,,,,,,,prac,1,1,1,negative,negative,194.80026120000002,194.80026120000002,194.80026120000002,194.80026120000002,195.76491039999996,195.8256159,j,j,1,1.1258677000000716,196.9279308,196.9279308,196.9279308,196.9279308,196.9279308,196.9279308,,,,,,,,,,,,,,,,,,,,,,,,,,,,,,,,,,,,,,,,,,,,,,,324,2023-03-15_15h09.51.237,Main,2022.2.2,59.58523906787591,
positive,neutral,2,l,j,0,0,0,0,0,0,0,0,,,,,1,13,31,17,,,,,,,,,,,,,,,,,,,,,,,,,,,,,,,,,,,,,,,,,,,,prac,2,2,2,neutral,positive,196.9279308,196.9279308,196.9279308,196.9279308,197.9154936,197.94695769999998,l,l,1,0.9493603999999323,198.87538700000005,198.87538700000005,198.87538700000005,198.87538700000005,198.87538700000005,198.87538700000005,,,,,,,,,,,,,,,,,,,,,,,,,,,,,,,,,,,,,,,,,,,,,,,324,2023-03-15_15h09.51.237,Main,2022.2.2,59.58523906787591,
positive,positive,1,l,j,0,0,0,0,0,0,0,0,,,,,1,14,32,2,,,,,,,,,,,,,,,,,,,,,,,,,,,,,,,,,,,,,,,,,,,,prac,1,1,1,positive,positive,198.87538700000005,198.87538700000005,198.87538700000005,198.87538700000005,199.8504266,199.9272410000001,l,l,1,1.6250637999999071,201.4736487,201.4736487,201.4736487,202.52046670000004,202.52046670000004,202.52046670000004,,,,,,,,,,,,,,,,,,,,,,,,,,,,,,,,,,,,,,,,,,,,,,,324,2023-03-15_15h09.51.237,Main,2022.2.2,59.58523906787591,
positive,negative,1,l,j,0,0,0,0,0,0,0,0,,,,,1,15,33,5,,,,,,,,,,,,,,,,,,,,,,,,,,,,,,,,,,,,,,,,,,,,prac,1,1,1,negative,positive,202.52046670000004,202.52046670000004,202.52046670000004,202.52046670000004,203.50067920000015,203.56174250000004,l,l,1,0.9587639000001218,204.4880138000001,204.4880138000001,204.4880138000001,204.4880138000001,204.4880138000001,204.4880138000001,,,,,,,,,,,,,,,,,,,,,,,,,,,,,,,,,,,,,,,,,,,,,,,324,2023-03-15_15h09.51.237,Main,2022.2.2,59.58523906787591,
positive,neutral,1,l,j,0,0,0,0,0,0,0,0,,,,,1,16,34,8,,,,,,,,,,,,,,,,,,,,,,,,,,,,,,,,,,,,,,,,,,,,prac,1,1,1,neutral,positive,204.4880138000001,204.4880138000001,204.4880138000001,204.4880138000001,205.46031459999995,205.52605429999994,l,l,1,0.6890330000001086,206.18207710000001,206.18207710000001,206.18207710000001,206.18207710000001,206.18207710000001,206.18207710000001,,,,,,,,,,,,,,,,,,,,,,,,,,,,,,,,,,,,,,,,,,,,,,,324,2023-03-15_15h09.51.237,Main,2022.2.2,59.58523906787591,
positive,positive,2,l,j,0,0,0,0,0,0,0,0,,,,,1,17,35,11,,,,,,,,,,,,,,,,,,,,,,,,,,,,,,,,,,,,,,,,,,,,prac,1,1,2,positive,positive,206.18207710000001,206.18207710000001,206.18207710000001,206.18207710000001,207.15356900000006,207.2125771000001,l,l,1,1.085660000000189,208.25242350000008,208.25242350000008,208.25242350000008,208.25242350000008,208.25242350000008,208.25242350000008,,,,,,,,,,,,,,,,,,,,,,,,,,,,,,,,,,,,,,,,,,,,,,,324,2023-03-15_15h09.51.237,Main,2022.2.2,59.58523906787591,
positive,neutral,2,l,j,0,0,0,0,0,0,0,0,,,,,,,,,0,0,0,17,,,,,,,,,,,,,,,,,,,,,,,,,,,,,,,,,,,,,,,213.79263330000003,main,2,2,2,neutral,positive,215.84666270000002,215.84666270000002,215.84666270000002,215.84666270000002,216.8358922,216.86601250000012,l,l,1,0.9366141999998945,217.79569259999994,217.79569259999994,217.79569259999994,217.79569259999994,217.79569259999994,217.79569259999994,208.25242350000008,0.001375300000063362,space,5.506349199999931,0.7925925925925926,-0.225,0,0,0,,,,,,,,,,,,,,,,,,,,,,,,,,,,,,,,,,,,,,324,2023-03-15_15h09.51.237,Main,2022.2.2,59.58523906787591,
negative,neutral,1,j,l,0,0,0,0,0,0,0,0,,,,,,,,,0,1,1,3,,,,,,,,,,,,,,,,,,,,,,,,,,,,,,,,,,,,,,,,main,2,2,1,neutral,negative,217.79569259999994,217.79569259999994,217.79569259999994,217.79569259999994,218.78038370000013,218.81588579999993,j,j,1,1.0404289000000517,219.84320960000014,219.84320960000014,219.84320960000014,219.84320960000014,219.84320960000014,219.84320960000014,,,,,,,,,,,,,,,,,,,,,,,,,,,,,,,,,,,,,,,,,,,,,,,324,2023-03-15_15h09.51.237,Main,2022.2.2,59.58523906787591,
neutral,positive,2,k,k,0,0,0,0,0,0,0,0,,,,,,,,,0,2,2,13,,,,,,,,,,,,,,,,,,,,,,,,,,,,,,,,,,,,,,,,main,2,2,2,positive,neutral,219.84320960000014,219.84320960000014,219.84320960000014,219.84320960000014,220.83117059999995,220.8615777,k,k,1,0.8143797000000177,221.66106020000007,221.66106020000007,221.66106020000007,221.66106020000007,221.66106020000007,221.66106020000007,,,,,,,,,,,,,,,,,,,,,,,,,,,,,,,,,,,,,,,,,,,,,,,324,2023-03-15_15h09.51.237,Main,2022.2.2,59.58523906787591,
positive,positive,1,l,j,0,0,0,0,0,0,0,0,,,,,,,,,0,3,3,2,,,,,,,,,,,,,,,,,,,,,,,,,,,,,,,,,,,,,,,,main,2,2,1,positive,positive,221.66106020000007,221.66106020000007,221.66106020000007,221.66106020000007,222.65138610000008,222.68220029999998,l,l,1,1.3254554999998618,223.98822530000007,223.98822530000007,223.98822530000007,223.98822530000007,223.98822530000007,223.98822530000007,,,,,,,,,,,,,,,,,,,,,,,,,,,,,,,,,,,,,,,,,,,,,,,324,2023-03-15_15h09.51.237,Main,2022.2.2,59.58523906787591,
negative,negative,2,j,l,0,0,0,0,0,0,0,0,,,,,,,,,0,4,4,9,,,,,,,,,,,,,,,,,,,,,,,,,,,,,,,,,,,,,,,,main,2,2,2,negative,negative,223.98822530000007,223.98822530000007,223.98822530000007,223.98822530000007,224.97168239999996,225.0076626,j,j,1,0.9842326999998932,225.96711759999994,225.96711759999994,225.96711759999994,225.96711759999994,225.96711759999994,225.96711759999994,,,,,,,,,,,,,,,,,,,,,,,,,,,,,,,,,,,,,,,,,,,,,,,324,2023-03-15_15h09.51.237,Main,2022.2.2,59.58523906787591,
positive,positive,2,l,j,0,0,0,0,0,0,0,0,,,,,,,,,0,5,5,11,,,,,,,,,,,,,,,,,,,,,,,,,,,,,,,,,,,,,,,,main,2,2,2,positive,positive,225.96711759999994,225.96711759999994,225.96711759999994,225.96711759999994,226.96243060000006,226.99411750000013,l,l,1,1.0036514999999326,227.98453050000012,227.98453050000012,227.98453050000012,227.98453050000012,227.98453050000012,227.98453050000012,,,,,,,,,,,,,,,,,,,,,,,,,,,,,,,,,,,,,,,,,,,,,,,324,2023-03-15_15h09.51.237,Main,2022.2.2,59.58523906787591,
neutral,neutral,1,k,k,0,0,0,0,0,0,0,0,,,,,,,,,0,6,6,1,,,,,,,,,,,,,,,,,,,,,,,,,,,,,,,,,,,,,,,,main,2,2,1,neutral,neutral,227.98453050000012,227.98453050000012,227.98453050000012,227.98453050000012,228.9797470000001,229.01090309999995,k,k,1,0.8284793999998783,229.81136379999998,229.81136379999998,229.81136379999998,229.81136379999998,229.81136379999998,229.81136379999998,,,,,,,,,,,,,,,,,,,,,,,,,,,,,,,,,,,,,,,,,,,,,,,324,2023-03-15_15h09.51.237,Main,2022.2.2,59.58523906787591,
negative,negative,1,j,l,0,0,0,0,0,0,0,0,,,,,,,,,0,7,7,0,,,,,,,,,,,,,,,,,,,,,,,,,,,,,,,,,,,,,,,,main,1,1,1,negative,negative,229.81136379999998,229.81136379999998,229.81136379999998,229.81136379999998,230.7895264000001,230.85008270000003,j,j,1,1.030260200000157,231.8475042,231.8475042,231.8475042,231.8475042,231.8475042,231.8475042,,,,,,,,,,,,,,,,,,,,,,,,,,,,,,,,,,,,,,,,,,,,,,,324,2023-03-15_15h09.51.237,Main,2022.2.2,59.58523906787591,
negative,neutral,2,j,l,0,0,0,0,0,0,0,0,,,,,,,,,0,8,8,12,,,,,,,,,,,,,,,,,,,,,,,,,,,,,,,,,,,,,,,,main,2,2,2,neutral,negative,231.8475042,231.8475042,231.8475042,231.8475042,232.82842520000008,232.89341390000004,j,j,1,0.957954700000073,233.80718860000002,233.80718860000002,233.80718860000002,233.80718860000002,233.80718860000002,233.80718860000002,,,,,,,,,,,,,,,,,,,,,,,,,,,,,,,,,,,,,,,,,,,,,,,324,2023-03-15_15h09.51.237,Main,2022.2.2,59.58523906787591,
positive,negative,1,l,j,0,0,0,0,0,0,0,0,,,,,,,,,0,9,9,5,,,,,,,,,,,,,,,,,,,,,,,,,,,,,,,,,,,,,,,,main,2,2,1,negative,positive,233.80718860000002,233.80718860000002,233.80718860000002,233.80718860000002,234.784623,234.85438939999995,l,l,1,0.9227528999999777,235.74125780000008,235.74125780000008,235.74125780000008,235.74125780000008,235.74125780000008,235.74125780000008,,,,,,,,,,,,,,,,,,,,,,,,,,,,,,,,,,,,,,,,,,,,,,,324,2023-03-15_15h09.51.237,Main,2022.2.2,59.58523906787591,
neutral,negative,1,k,k,0,0,0,0,0,0,0,0,,,,,,,,,0,10,10,7,,,,,,,,,,,,,,,,,,,,,,,,,,,,,,,,,,,,,,,,main,2,2,1,negative,neutral,235.74125780000008,235.74125780000008,235.74125780000008,235.74125780000008,236.7232851000001,236.794128,k,k,1,0.8193913999998585,237.5624196000001,237.5624196000001,237.5624196000001,237.5624196000001,237.5624196000001,237.5624196000001,,,,,,,,,,,,,,,,,,,,,,,,,,,,,,,,,,,,,,,,,,,,,,,324,2023-03-15_15h09.51.237,Main,2022.2.2,59.58523906787591,
negative,positive,1,j,l,0,0,0,0,0,0,0,0,,,,,,,,,0,11,11,6,,,,,,,,,,,,,,,,,,,,,,,,,,,,,,,,,,,,,,,,main,1,1,1,positive,negative,237.5624196000001,237.5624196000001,237.5624196000001,237.5624196000001,238.53880870000012,238.61033139999995,j,j,1,0.7903603000002022,239.3497436,239.3497436,239.3497436,239.3497436,239.3497436,239.3497436,,,,,,,,,,,,,,,,,,,,,,,,,,,,,,,,,,,,,,,,,,,,,,,324,2023-03-15_15h09.51.237,Main,2022.2.2,59.58523906787591,
negative,positive,2,j,l,0,0,0,0,0,0,0,0,,,,,,,,,0,12,12,15,,,,,,,,,,,,,,,,,,,,,,,,,,,,,,,,,,,,,,,,main,2,2,2,positive,negative,239.3497436,239.3497436,239.3497436,239.3497436,240.3441660000001,240.37815760000012,j,j,1,0.8161086000000068,241.1785843,241.1785843,241.1785843,241.1785843,241.1785843,241.1785843,,,,,,,,,,,,,,,,,,,,,,,,,,,,,,,,,,,,,,,,,,,,,,,324,2023-03-15_15h09.51.237,Main,2022.2.2,59.58523906787591,
neutral,negative,2,k,k,0,0,0,0,0,0,0,0,,,,,,,,,0,13,13,16,,,,,,,,,,,,,,,,,,,,,,,,,,,,,,,,,,,,,,,,main,2,2,2,negative,neutral,241.1785843,241.1785843,241.1785843,241.1785843,242.17290120000007,242.20859599999994,k,k,1,0.8068115999999463,242.98611370000003,242.98611370000003,242.98611370000003,242.98611370000003,242.98611370000003,242.98611370000003,,,,,,,,,,,,,,,,,,,,,,,,,,,,,,,,,,,,,,,,,,,,,,,324,2023-03-15_15h09.51.237,Main,2022.2.2,59.58523906787591,
positive,negative,2,l,j,0,0,0,0,0,0,0,0,,,,,,,,,0,14,14,14,,,,,,,,,,,,,,,,,,,,,,,,,,,,,,,,,,,,,,,,main,1,1,2,negative,positive,242.98611370000003,242.98611370000003,242.98611370000003,242.98611370000003,243.97838969999998,244.01009020000015,l,l,1,0.8272145999999339,244.82225859999994,244.82225859999994,244.82225859999994,244.82225859999994,244.82225859999994,244.82225859999994,,,,,,,,,,,,,,,,,,,,,,,,,,,,,,,,,,,,,,,,,,,,,,,324,2023-03-15_15h09.51.237,Main,2022.2.2,59.58523906787591,
neutral,positive,1,k,k,0,0,0,0,0,0,0,0,,,,,,,,,0,15,15,4,,,,,,,,,,,,,,,,,,,,,,,,,,,,,,,,,,,,,,,,main,1,1,1,positive,neutral,244.82225859999994,244.82225859999994,244.82225859999994,244.82225859999994,245.82299039999998,245.85976950000008,k,k,1,0.8276620999999977,246.65028200000006,246.65028200000006,246.65028200000006,246.65028200000006,246.65028200000006,246.65028200000006,,,,,,,,,,,,,,,,,,,,,,,,,,,,,,,,,,,,,,,,,,,,,,,324,2023-03-15_15h09.51.237,Main,2022.2.2,59.58523906787591,
positive,neutral,1,l,j,0,0,0,0,0,0,0,0,,,,,,,,,0,16,16,8,,,,,,,,,,,,,,,,,,,,,,,,,,,,,,,,,,,,,,,,main,2,2,1,neutral,positive,246.65028200000006,246.65028200000006,246.65028200000006,246.65028200000006,247.64814410000008,247.68108589999997,l,l,1,0.8980278000001363,248.54758259999994,248.54758259999994,248.54758259999994,248.54758259999994,248.54758259999994,248.54758259999994,,,,,,,,,,,,,,,,,,,,,,,,,,,,,,,,,,,,,,,,,,,,,,,324,2023-03-15_15h09.51.237,Main,2022.2.2,59.58523906787591,
neutral,neutral,2,k,k,0,0,0,0,0,0,0,0,,,,,,,,,0,17,17,10,,,,,,,,,,,,,,,,,,,,,,,,,,,,,,,,,,,,,,,,main,2,2,2,neutral,neutral,248.54758259999994,248.54758259999994,248.54758259999994,248.54758259999994,249.5545959000001,249.58766300000002,k,k,1,0.8559843000000456,250.41491760000008,250.41491760000008,250.41491760000008,250.41491760000008,250.41491760000008,250.41491760000008,,,,,,,,,,,,,,,,,,,,,,,,,,,,,,,,,,,,,,,,,,,,,,,324,2023-03-15_15h09.51.237,Main,2022.2.2,59.58523906787591,
negative,positive,1,j,l,0,0,0,0,0,0,0,0,,,,,,,,,1,0,18,6,,,,,,,,,,,,,,,,,,,,,,,,,,,,,,,,,,,,,,,,main,2,2,1,positive,negative,250.41491760000008,250.41491760000008,250.41491760000008,250.41491760000008,251.40030309999997,251.43161450000002,j,j,1,0.6462500000000091,252.07449410000004,252.07449410000004,252.07449410000004,252.07449410000004,252.07449410000004,252.07449410000004,,,,,,,,,,,,,,,,,,,,,,,,,,,,,,,,,,,,,,,,,,,,,,,324,2023-03-15_15h09.51.237,Main,2022.2.2,59.58523906787591,
positive,positive,2,l,j,0,0,0,0,0,0,0,0,,,,,,,,,1,1,19,11,,,,,,,,,,,,,,,,,,,,,,,,,,,,,,,,,,,,,,,,main,2,2,2,positive,positive,252.07449410000004,252.07449410000004,252.07449410000004,252.07449410000004,253.06697770000005,253.10386940000012,l,l,1,1.2739707999999155,254.34691629999998,254.34691629999998,254.34691629999998,254.34691629999998,254.34691629999998,254.34691629999998,,,,,,,,,,,,,,,,,,,,,,,,,,,,,,,,,,,,,,,,,,,,,,,324,2023-03-15_15h09.51.237,Main,2022.2.2,59.58523906787591,
neutral,neutral,2,k,k,0,0,0,0,0,0,0,0,,,,,,,,,1,2,20,10,,,,,,,,,,,,,,,,,,,,,,,,,,,,,,,,,,,,,,,,main,2,2,2,neutral,neutral,254.34691629999998,254.34691629999998,254.34691629999998,254.34691629999998,255.3353204,255.368563,k,k,1,0.8228296999998292,256.1772846000001,256.1772846000001,256.1772846000001,256.1772846000001,256.1772846000001,256.1772846000001,,,,,,,,,,,,,,,,,,,,,,,,,,,,,,,,,,,,,,,,,,,,,,,324,2023-03-15_15h09.51.237,Main,2022.2.2,59.58523906787591,
negative,neutral,1,j,l,0,0,0,0,0,0,0,0,,,,,,,,,1,3,21,3,,,,,,,,,,,,,,,,,,,,,,,,,,,,,,,,,,,,,,,,main,1,1,1,neutral,negative,256.1772846000001,256.1772846000001,256.1772846000001,256.1772846000001,257.1634991000001,257.1966565,j,j,1,0.8307258999998339,258.00640709999993,258.00640709999993,258.00640709999993,258.00640709999993,258.00640709999993,258.00640709999993,,,,,,,,,,,,,,,,,,,,,,,,,,,,,,,,,,,,,,,,,,,,,,,324,2023-03-15_15h09.51.237,Main,2022.2.2,59.58523906787591,
positive,negative,1,l,j,0,0,0,0,0,0,0,0,,,,,,,,,1,4,22,5,,,,,,,,,,,,,,,,,,,,,,,,,,,,,,,,,,,,,,,,main,1,1,1,negative,positive,258.00640709999993,258.00640709999993,258.00640709999993,258.00640709999993,259.01156960000003,259.04451100000006,l,l,1,0.9204577999998946,259.93612129999997,259.93612129999997,259.93612129999997,259.93612129999997,259.93612129999997,259.93612129999997,,,,,,,,,,,,,,,,,,,,,,,,,,,,,,,,,,,,,,,,,,,,,,,324,2023-03-15_15h09.51.237,Main,2022.2.2,59.58523906787591,
negative,negative,2,j,l,0,0,0,0,0,0,0,0,,,,,,,,,1,5,23,9,,,,,,,,,,,,,,,,,,,,,,,,,,,,,,,,,,,,,,,,main,1,1,2,negative,negative,259.93612129999997,259.93612129999997,259.93612129999997,259.93612129999997,260.93248170000015,260.9670705000001,j,j,1,0.9129813999998078,261.8519374,261.8519374,261.8519374,261.8519374,261.8519374,261.8519374,,,,,,,,,,,,,,,,,,,,,,,,,,,,,,,,,,,,,,,,,,,,,,,324,2023-03-15_15h09.51.237,Main,2022.2.2,59.58523906787591,
neutral,positive,2,k,k,0,0,0,0,0,0,0,0,,,,,,,,,1,6,24,13,,,,,,,,,,,,,,,,,,,,,,,,,,,,,,,,,,,,,,,,main,1,1,2,positive,neutral,261.8519374,261.8519374,261.8519374,261.8519374,262.8273358000001,262.8970137000001,k,k,1,0.7142747000000327,263.5668395,263.5668395,263.5668395,263.5668395,263.5668395,263.5668395,,,,,,,,,,,,,,,,,,,,,,,,,,,,,,,,,,,,,,,,,,,,,,,324,2023-03-15_15h09.51.237,Main,2022.2.2,59.58523906787591,
negative,positive,2,j,l,0,0,0,0,0,0,0,0,,,,,,,,,1,7,25,15,,,,,,,,,,,,,,,,,,,,,,,,,,,,,,,,,,,,,,,,main,1,1,2,positive,negative,263.5668395,263.5668395,263.5668395,263.5668395,264.5498113000001,264.58193129999995,j,j,1,0.7267073000000437,265.3000647000001,265.3000647000001,265.3000647000001,265.3000647000001,265.3000647000001,265.3000647000001,,,,,,,,,,,,,,,,,,,,,,,,,,,,,,,,,,,,,,,,,,,,,,,324,2023-03-15_15h09.51.237,Main,2022.2.2,59.58523906787591,
negative,negative,1,j,l,0,0,0,0,0,0,0,0,,,,,,,,,1,8,26,0,,,,,,,,,,,,,,,,,,,,,,,,,,,,,,,,,,,,,,,,main,2,2,1,negative,negative,265.3000647000001,265.3000647000001,265.3000647000001,265.3000647000001,266.29929000000016,266.3330369,j,j,1,0.7802934999999707,267.0831472,267.0831472,267.0831472,267.0831472,267.0831472,267.0831472,,,,,,,,,,,,,,,,,,,,,,,,,,,,,,,,,,,,,,,,,,,,,,,324,2023-03-15_15h09.51.237,Main,2022.2.2,59.58523906787591,
neutral,neutral,1,k,k,0,0,0,0,0,0,0,0,,,,,,,,,1,9,27,1,,,,,,,,,,,,,,,,,,,,,,,,,,,,,,,,,,,,,,,,main,2,2,1,neutral,neutral,267.0831472,267.0831472,267.0831472,267.0831472,268.05636830000003,268.12268800000015,k,k,1,0.7025295999999344,268.79132890000005,268.79132890000005,268.79132890000005,268.79132890000005,268.79132890000005,268.79132890000005,,,,,,,,,,,,,,,,,,,,,,,,,,,,,,,,,,,,,,,,,,,,,,,324,2023-03-15_15h09.51.237,Main,2022.2.2,59.58523906787591,
neutral,positive,1,k,k,0,0,0,0,0,0,0,0,,,,,,,,,1,10,28,4,,,,,,,,,,,,,,,,,,,,,,,,,,,,,,,,,,,,,,,,main,2,2,1,positive,neutral,268.79132890000005,268.79132890000005,268.79132890000005,268.79132890000005,269.77341939999997,269.8336683,k,k,1,0.8891223000000537,270.68306840000014,270.68306840000014,270.68306840000014,270.68306840000014,270.68306840000014,270.68306840000014,,,,,,,,,,,,,,,,,,,,,,,,,,,,,,,,,,,,,,,,,,,,,,,324,2023-03-15_15h09.51.237,Main,2022.2.2,59.58523906787591,
positive,negative,2,l,j,0,0,0,0,0,0,0,0,,,,,,,,,1,11,29,14,,,,,,,,,,,,,,,,,,,,,,,,,,,,,,,,,,,,,,,,main,2,2,2,negative,positive,270.68306840000014,270.68306840000014,270.68306840000014,270.68306840000014,271.67773839999995,271.7080162,l,l,1,0.6609293999999863,272.3450362000001,272.3450362000001,272.3450362000001,272.3450362000001,272.3450362000001,272.3450362000001,,,,,,,,,,,,,,,,,,,,,,,,,,,,,,,,,,,,,,,,,,,,,,,324,2023-03-15_15h09.51.237,Main,2022.2.2,59.58523906787591,
neutral,negative,1,k,k,0,0,0,0,0,0,0,0,,,,,,,,,1,12,30,7,,,,,,,,,,,,,,,,,,,,,,,,,,,,,,,,,,,,,,,,main,1,1,1,negative,neutral,272.3450362000001,272.3450362000001,272.3450362000001,272.3450362000001,273.33094460000007,273.36241659999996,k,k,1,0.787326000000121,274.13695929999994,274.13695929999994,274.13695929999994,274.13695929999994,274.13695929999994,274.13695929999994,,,,,,,,,,,,,,,,,,,,,,,,,,,,,,,,,,,,,,,,,,,,,,,324,2023-03-15_15h09.51.237,Main,2022.2.2,59.58523906787591,
neutral,negative,2,k,k,0,0,0,0,0,0,0,0,,,,,,,,,1,13,31,16,,,,,,,,,,,,,,,,,,,,,,,,,,,,,,,,,,,,,,,,main,2,2,2,negative,neutral,274.13695929999994,274.13695929999994,274.13695929999994,274.13695929999994,275.12513149999995,275.1547914,k,k,1,0.6332280999999966,275.7713503,275.7713503,275.7713503,275.7713503,275.7713503,275.7713503,,,,,,,,,,,,,,,,,,,,,,,,,,,,,,,,,,,,,,,,,,,,,,,324,2023-03-15_15h09.51.237,Main,2022.2.2,59.58523906787591,
positive,positive,1,l,j,0,0,0,0,0,0,0,0,,,,,,,,,1,14,32,2,,,,,,,,,,,,,,,,,,,,,,,,,,,,,,,,,,,,,,,,main,2,2,1,positive,positive,275.7713503,275.7713503,275.7713503,275.7713503,276.7443296000001,276.8047553000001,l,l,1,0.831525000000056,277.60752100000013,277.60752100000013,277.60752100000013,277.60752100000013,277.60752100000013,277.60752100000013,,,,,,,,,,,,,,,,,,,,,,,,,,,,,,,,,,,,,,,,,,,,,,,324,2023-03-15_15h09.51.237,Main,2022.2.2,59.58523906787591,
positive,neutral,2,l,j,0,0,0,0,0,0,0,0,,,,,,,,,1,15,33,17,,,,,,,,,,,,,,,,,,,,,,,,,,,,,,,,,,,,,,,,main,2,2,2,neutral,positive,277.60752100000013,277.60752100000013,277.60752100000013,277.60752100000013,278.5882495000001,278.65883170000006,l,l,1,0.7467927000000145,279.35251029999995,279.35251029999995,279.35251029999995,279.35251029999995,279.35251029999995,279.35251029999995,,,,,,,,,,,,,,,,,,,,,,,,,,,,,,,,,,,,,,,,,,,,,,,324,2023-03-15_15h09.51.237,Main,2022.2.2,59.58523906787591,
negative,neutral,2,j,l,0,0,0,0,0,0,0,0,,,,,,,,,1,16,34,12,,,,,,,,,,,,,,,,,,,,,,,,,,,,,,,,,,,,,,,,main,1,1,2,neutral,negative,279.35251029999995,279.35251029999995,279.35251029999995,279.35251029999995,280.3401678,280.3707736000001,j,j,1,0.8206603999999516,281.18486170000006,281.18486170000006,281.18486170000006,281.18486170000006,281.18486170000006,281.18486170000006,,,,,,,,,,,,,,,,,,,,,,,,,,,,,,,,,,,,,,,,,,,,,,,324,2023-03-15_15h09.51.237,Main,2022.2.2,59.58523906787591,
positive,neutral,1,l,j,0,0,0,0,0,0,0,0,,,,,,,,,1,17,35,8,,,,,,,,,,,,,,,,,,,,,,,,,,,,,,,,,,,,,,,,main,1,1,1,neutral,positive,281.18486170000006,281.18486170000006,281.18486170000006,281.18486170000006,282.1688398000001,282.19874720000007,l,l,1,0.8935096999998677,283.0724496,283.0724496,283.0724496,283.0724496,283.0724496,283.0724496,,,,,,,,,,,,,,,,,,,,,,,,,,,,,,,,,,,,,,,,,,,,,,,324,2023-03-15_15h09.51.237,Main,2022.2.2,59.58523906787591,
negative,neutral,1,j,l,0,0,0,0,0,0,0,0,,,,,,,,,2,0,36,3,,,,,,,,,,,,,,,,,,,,,,,,,,,,,,,,,,,,,,,,main,2,2,1,neutral,negative,283.0724496,283.0724496,283.0724496,283.0724496,284.06636030000004,284.10050019999994,j,j,1,0.8976250999999138,284.97651740000015,284.97651740000015,284.97651740000015,284.97651740000015,284.97651740000015,284.97651740000015,,,,,,,,,,,,,,,,,,,,,,,,,,,,,,,,,,,,,,,,,,,,,,,324,2023-03-15_15h09.51.237,Main,2022.2.2,59.58523906787591,
negative,negative,2,j,l,0,0,0,0,0,0,0,0,,,,,,,,,2,1,37,9,,,,,,,,,,,,,,,,,,,,,,,,,,,,,,,,,,,,,,,,main,1,1,2,negative,negative,284.97651740000015,284.97651740000015,284.97651740000015,284.97651740000015,285.94938189999993,286.01060180000013,j,j,1,0.8084621000000425,286.7842459000001,286.7842459000001,286.7842459000001,286.7842459000001,286.7842459000001,286.7842459000001,,,,,,,,,,,,,,,,,,,,,,,,,,,,,,,,,,,,,,,,,,,,,,,324,2023-03-15_15h09.51.237,Main,2022.2.2,59.58523906787591,
negative,neutral,2,j,l,0,0,0,0,0,0,0,0,,,,,,,,,2,2,38,12,,,,,,,,,,,,,,,,,,,,,,,,,,,,,,,,,,,,,,,,main,1,1,2,neutral,negative,286.7842459000001,286.7842459000001,286.7842459000001,286.7842459000001,287.77493270000014,287.80454439999994,j,j,1,0.7313546999998835,288.5301353,288.5301353,288.5301353,288.5301353,288.5301353,288.5301353,,,,,,,,,,,,,,,,,,,,,,,,,,,,,,,,,,,,,,,,,,,,,,,324,2023-03-15_15h09.51.237,Main,2022.2.2,59.58523906787591,
negative,negative,1,j,l,0,0,0,0,0,0,0,0,,,,,,,,,2,3,39,0,,,,,,,,,,,,,,,,,,,,,,,,,,,,,,,,,,,,,,,,main,1,1,1,negative,negative,288.5301353,288.5301353,288.5301353,288.5301353,289.5148583,289.5454288000001,j,j,1,0.8177026000000751,290.3449836,290.3449836,290.3449836,290.3449836,290.3449836,290.3449836,,,,,,,,,,,,,,,,,,,,,,,,,,,,,,,,,,,,,,,,,,,,,,,324,2023-03-15_15h09.51.237,Main,2022.2.2,59.58523906787591,
positive,positive,2,l,j,0,0,0,0,0,0,0,0,,,,,,,,,2,4,40,11,,,,,,,,,,,,,,,,,,,,,,,,,,,,,,,,,,,,,,,,main,1,1,2,positive,positive,290.3449836,290.3449836,290.3449836,290.3449836,291.3183801,291.37910490000013,l,l,1,0.8886712999999418,292.24114080000004,292.24114080000004,292.24114080000004,292.24114080000004,292.24114080000004,292.24114080000004,,,,,,,,,,,,,,,,,,,,,,,,,,,,,,,,,,,,,,,,,,,,,,,324,2023-03-15_15h09.51.237,Main,2022.2.2,59.58523906787591,
negative,positive,1,j,l,0,0,0,0,0,0,0,0,,,,,,,,,2,5,41,6,,,,,,,,,,,,,,,,,,,,,,,,,,,,,,,,,,,,,,,,main,2,2,1,positive,negative,292.24114080000004,292.24114080000004,292.24114080000004,292.24114080000004,293.2159973,293.2919101,j,j,1,0.9615933000000041,294.2000739,294.2000739,294.2000739,294.2000739,294.2000739,294.2000739,,,,,,,,,,,,,,,,,,,,,,,,,,,,,,,,,,,,,,,,,,,,,,,324,2023-03-15_15h09.51.237,Main,2022.2.2,59.58523906787591,
neutral,neutral,1,k,k,0,0,0,0,0,0,0,0,,,,,,,,,2,6,42,1,,,,,,,,,,,,,,,,,,,,,,,,,,,,,,,,,,,,,,,,main,2,2,1,neutral,neutral,294.2000739,294.2000739,294.2000739,294.2000739,295.1845846000001,295.2137923,k,k,1,0.7635060000000067,295.96754740000006,295.96754740000006,295.96754740000006,295.96754740000006,295.96754740000006,295.96754740000006,,,,,,,,,,,,,,,,,,,,,,,,,,,,,,,,,,,,,,,,,,,,,,,324,2023-03-15_15h09.51.237,Main,2022.2.2,59.58523906787591,
positive,positive,1,l,j,0,0,0,0,0,0,0,0,,,,,,,,,2,7,43,2,,,,,,,,,,,,,,,,,,,,,,,,,,,,,,,,,,,,,,,,main,1,1,1,positive,positive,295.96754740000006,295.96754740000006,295.96754740000006,295.96754740000006,296.9473945,297.00875169999995,l,l,1,1.0950596999998652,298.06760699999995,298.06760699999995,298.06760699999995,298.06760699999995,298.06760699999995,298.06760699999995,,,,,,,,,,,,,,,,,,,,,,,,,,,,,,,,,,,,,,,,,,,,,,,324,2023-03-15_15h09.51.237,Main,2022.2.2,59.58523906787591,
negative,positive,2,j,l,0,0,0,0,0,0,0,0,,,,,,,,,2,8,44,15,,,,,,,,,,,,,,,,,,,,,,,,,,,,,,,,,,,,,,,,main,2,2,2,positive,negative,298.06760699999995,298.06760699999995,298.06760699999995,298.06760699999995,299.0582342,299.0887166,j,j,1,0.8115485999999237,299.87967060000005,299.87967060000005,299.87967060000005,299.87967060000005,299.87967060000005,299.87967060000005,,,,,,,,,,,,,,,,,,,,,,,,,,,,,,,,,,,,,,,,,,,,,,,324,2023-03-15_15h09.51.237,Main,2022.2.2,59.58523906787591,
positive,negative,2,l,j,0,0,0,0,0,0,0,0,,,,,,,,,2,9,45,14,,,,,,,,,,,,,,,,,,,,,,,,,,,,,,,,,,,,,,,,main,1,1,2,negative,positive,299.87967060000005,299.87967060000005,299.87967060000005,299.87967060000005,300.86829409999996,300.8986033000001,l,l,1,0.9318227999999635,301.8161668,301.8161668,301.8161668,301.8161668,301.8161668,301.8161668,,,,,,,,,,,,,,,,,,,,,,,,,,,,,,,,,,,,,,,,,,,,,,,324,2023-03-15_15h09.51.237,Main,2022.2.2,59.58523906787591,
positive,negative,1,l,j,0,0,0,0,0,0,0,0,,,,,,,,,2,10,46,5,,,,,,,,,,,,,,,,,,,,,,,,,,,,,,,,,,,,,,,,main,2,2,1,negative,positive,301.8161668,301.8161668,301.8161668,301.8161668,302.82046890000015,302.85253550000016,l,l,1,0.9265232000000196,303.74630279999997,303.74630279999997,303.74630279999997,303.74630279999997,303.74630279999997,303.74630279999997,,,,,,,,,,,,,,,,,,,,,,,,,,,,,,,,,,,,,,,,,,,,,,,324,2023-03-15_15h09.51.237,Main,2022.2.2,59.58523906787591,
neutral,negative,1,k,k,0,0,0,0,0,0,0,0,,,,,,,,,2,11,47,7,,,,,,,,,,,,,,,,,,,,,,,,,,,,,,,,,,,,,,,,main,2,2,1,negative,neutral,303.74630279999997,303.74630279999997,303.74630279999997,303.74630279999997,304.7429621000001,304.77906370000005,k,k,1,0.824597600000061,305.57975280000005,305.57975280000005,305.57975280000005,305.57975280000005,305.57975280000005,305.57975280000005,,,,,,,,,,,,,,,,,,,,,,,,,,,,,,,,,,,,,,,,,,,,,,,324,2023-03-15_15h09.51.237,Main,2022.2.2,59.58523906787591,
positive,neutral,2,l,j,0,0,0,0,0,0,0,0,,,,,,,,,2,12,48,17,,,,,,,,,,,,,,,,,,,,,,,,,,,,,,,,,,,,,,,,main,2,2,2,neutral,positive,305.57975280000005,305.57975280000005,305.57975280000005,305.57975280000005,306.55448590000015,306.61639660000014,l,l,1,0.7578125,307.33783100000005,307.33783100000005,307.33783100000005,307.33783100000005,307.33783100000005,307.33783100000005,,,,,,,,,,,,,,,,,,,,,,,,,,,,,,,,,,,,,,,,,,,,,,,324,2023-03-15_15h09.51.237,Main,2022.2.2,59.58523906787591,
neutral,positive,2,k,k,0,0,0,0,0,0,0,0,,,,,,,,,2,13,49,13,,,,,,,,,,,,,,,,,,,,,,,,,,,,,,,,,,,,,,,,main,2,2,2,positive,neutral,307.33783100000005,307.33783100000005,307.33783100000005,307.33783100000005,308.3344429000001,308.36657949999994,k,k,1,0.9062676999999439,309.2440616000001,309.2440616000001,309.2440616000001,309.2440616000001,309.2440616000001,309.2440616000001,,,,,,,,,,,,,,,,,,,,,,,,,,,,,,,,,,,,,,,,,,,,,,,324,2023-03-15_15h09.51.237,Main,2022.2.2,59.58523906787591,
positive,neutral,1,l,j,0,0,0,0,0,0,0,0,,,,,,,,,2,14,50,8,,,,,,,,,,,,,,,,,,,,,,,,,,,,,,,,,,,,,,,,main,1,1,1,neutral,positive,309.2440616000001,309.2440616000001,309.2440616000001,309.2440616000001,310.22913330000006,310.26002040000003,l,l,1,0.9549380999999357,311.2081416000001,311.2081416000001,311.2081416000001,311.2081416000001,311.2081416000001,311.2081416000001,,,,,,,,,,,,,,,,,,,,,,,,,,,,,,,,,,,,,,,,,,,,,,,324,2023-03-15_15h09.51.237,Main,2022.2.2,59.58523906787591,
neutral,positive,1,k,k,0,0,0,0,0,0,0,0,,,,,,,,,2,15,51,4,,,,,,,,,,,,,,,,,,,,,,,,,,,,,,,,,,,,,,,,main,2,2,1,positive,neutral,311.2081416000001,311.2081416000001,311.2081416000001,311.2081416000001,312.1741919000001,312.24750130000007,k,k,1,0.7905155999999351,312.9989425000001,312.9989425000001,312.9989425000001,312.9989425000001,312.9989425000001,312.9989425000001,,,,,,,,,,,,,,,,,,,,,,,,,,,,,,,,,,,,,,,,,,,,,,,324,2023-03-15_15h09.51.237,Main,2022.2.2,59.58523906787591,
neutral,negative,2,k,k,0,0,0,0,0,0,0,0,,,,,,,,,2,16,52,16,,,,,,,,,,,,,,,,,,,,,,,,,,,,,,,,,,,,,,,,main,2,2,2,negative,neutral,312.9989425000001,312.9989425000001,312.9989425000001,312.9989425000001,313.96957210000005,314.03003520000016,k,k,1,0.8024700999999368,314.80264239999997,314.80264239999997,314.80264239999997,314.80264239999997,314.80264239999997,314.80264239999997,,,,,,,,,,,,,,,,,,,,,,,,,,,,,,,,,,,,,,,,,,,,,,,324,2023-03-15_15h09.51.237,Main,2022.2.2,59.58523906787591,
neutral,neutral,2,k,k,0,0,0,0,0,0,0,0,,,,,,,,,2,17,53,10,,,,,,,,,,,,,,,,,,,,,,,,,,,,,,,,,,,,,,,,main,1,1,2,neutral,neutral,314.80264239999997,314.80264239999997,314.80264239999997,314.80264239999997,315.7746585,315.84807,k,k,1,0.677352400000018,316.48687889999997,316.48687889999997,316.48687889999997,316.48687889999997,316.48687889999997,316.48687889999997,,,,,,,,,,,,,,,,,,,,,,,,,,,,,,,,,,,,,,,,,,,,,,,324,2023-03-15_15h09.51.237,Main,2022.2.2,59.58523906787591,
neutral,negative,1,k,k,0,0,0,0,0,0,0,0,,,,,,,,,3,0,54,7,,,,,,,,,,,,,,,,,,,,,,,,,,,,,,,,,,,,,,,,main,2,2,1,negative,neutral,316.48687889999997,316.48687889999997,316.48687889999997,316.48687889999997,317.4724043000001,317.50371640000003,k,k,1,0.7018127000001186,318.19136730000014,318.19136730000014,318.19136730000014,318.19136730000014,318.19136730000014,318.19136730000014,,,,,,,,,,,,,,,,,,,,,,,,,,,,,,,,,,,,,,,,,,,,,,,324,2023-03-15_15h09.51.237,Main,2022.2.2,59.58523906787591,
neutral,positive,2,k,k,0,0,0,0,0,0,0,0,,,,,,,,,3,1,55,13,,,,,,,,,,,,,,,,,,,,,,,,,,,,,,,,,,,,,,,,main,2,2,2,positive,neutral,318.19136730000014,318.19136730000014,318.19136730000014,318.19136730000014,319.1708718,319.23268959999996,k,k,1,0.6680266999999276,319.86434410000015,319.86434410000015,319.86434410000015,319.86434410000015,319.86434410000015,319.86434410000015,,,,,,,,,,,,,,,,,,,,,,,,,,,,,,,,,,,,,,,,,,,,,,,324,2023-03-15_15h09.51.237,Main,2022.2.2,59.58523906787591,
neutral,negative,2,k,k,0,0,0,0,0,0,0,0,,,,,,,,,3,2,56,16,,,,,,,,,,,,,,,,,,,,,,,,,,,,,,,,,,,,,,,,main,1,1,2,negative,neutral,319.86434410000015,319.86434410000015,319.86434410000015,319.86434410000015,320.8412165,320.9028435,k,k,1,0.679349000000002,321.54542360000005,321.54542360000005,321.54542360000005,321.54542360000005,321.54542360000005,321.54542360000005,,,,,,,,,,,,,,,,,,,,,,,,,,,,,,,,,,,,,,,,,,,,,,,324,2023-03-15_15h09.51.237,Main,2022.2.2,59.58523906787591,
positive,neutral,2,l,j,0,0,0,0,0,0,0,0,,,,,,,,,3,3,57,17,,,,,,,,,,,,,,,,,,,,,,,,,,,,,,,,,,,,,,,,main,1,1,2,neutral,positive,321.54542360000005,321.54542360000005,321.54542360000005,321.54542360000005,322.5340977000001,322.56691920000003,l,l,1,1.1179876000001059,323.66300879999994,323.66300879999994,323.66300879999994,323.66300879999994,323.66300879999994,323.66300879999994,,,,,,,,,,,,,,,,,,,,,,,,,,,,,,,,,,,,,,,,,,,,,,,324,2023-03-15_15h09.51.237,Main,2022.2.2,59.58523906787591,
neutral,neutral,2,k,k,0,0,0,0,0,0,0,0,,,,,,,,,3,4,58,10,,,,,,,,,,,,,,,,,,,,,,,,,,,,,,,,,,,,,,,,main,1,1,2,neutral,neutral,323.66300879999994,323.66300879999994,323.66300879999994,323.66300879999994,324.656107,324.68488950000005,k,k,1,0.794764399999849,325.45904459999997,325.45904459999997,325.45904459999997,325.45904459999997,325.45904459999997,325.45904459999997,,,,,,,,,,,,,,,,,,,,,,,,,,,,,,,,,,,,,,,,,,,,,,,324,2023-03-15_15h09.51.237,Main,2022.2.2,59.58523906787591,
negative,negative,1,j,l,0,0,0,0,0,0,0,0,,,,,,,,,3,5,59,0,,,,,,,,,,,,,,,,,,,,,,,,,,,,,,,,,,,,,,,,main,2,2,1,negative,negative,325.45904459999997,325.45904459999997,325.45904459999997,325.45904459999997,326.43598810000003,326.50197649999996,j,j,1,0.920122499999934,327.39198250000004,327.39198250000004,327.39198250000004,327.39198250000004,327.39198250000004,327.39198250000004,,,,,,,,,,,,,,,,,,,,,,,,,,,,,,,,,,,,,,,,,,,,,,,324,2023-03-15_15h09.51.237,Main,2022.2.2,59.58523906787591,
negative,positive,2,j,l,0,0,0,0,0,0,0,0,,,,,,,,,3,6,60,15,,,,,,,,,,,,,,,,,,,,,,,,,,,,,,,,,,,,,,,,main,2,2,2,positive,negative,327.39198250000004,327.39198250000004,327.39198250000004,327.39198250000004,328.36901379999995,328.42918239999995,j,j,1,0.7898244999998951,329.17718979999995,329.17718979999995,329.17718979999995,329.17718979999995,329.17718979999995,329.17718979999995,,,,,,,,,,,,,,,,,,,,,,,,,,,,,,,,,,,,,,,,,,,,,,,324,2023-03-15_15h09.51.237,Main,2022.2.2,59.58523906787591,
positive,positive,2,l,j,0,0,0,0,0,0,0,0,,,,,,,,,3,7,61,11,,,,,,,,,,,,,,,,,,,,,,,,,,,,,,,,,,,,,,,,main,2,2,2,positive,positive,329.17718979999995,329.17718979999995,329.17718979999995,329.17718979999995,330.1542396,330.22160410000015,l,l,1,0.8383977000000868,331.0222368,331.0222368,331.0222368,331.0222368,331.0222368,331.0222368,,,,,,,,,,,,,,,,,,,,,,,,,,,,,,,,,,,,,,,,,,,,,,,324,2023-03-15_15h09.51.237,Main,2022.2.2,59.58523906787591,
negative,neutral,1,j,l,0,0,0,0,0,0,0,0,,,,,,,,,3,8,62,3,,,,,,,,,,,,,,,,,,,,,,,,,,,,,,,,,,,,,,,,main,1,1,1,neutral,negative,331.0222368,331.0222368,331.0222368,331.0222368,332.0144705,332.04425949999995,j,j,1,1.0388262999999824,333.06954659999997,333.06954659999997,333.06954659999997,333.06954659999997,333.06954659999997,333.06954659999997,,,,,,,,,,,,,,,,,,,,,,,,,,,,,,,,,,,,,,,,,,,,,,,324,2023-03-15_15h09.51.237,Main,2022.2.2,59.58523906787591,
negative,positive,1,j,l,0,0,0,0,0,0,0,0,,,,,,,,,3,9,63,6,,,,,,,,,,,,,,,,,,,,,,,,,,,,,,,,,,,,,,,,main,2,2,1,positive,negative,333.06954659999997,333.06954659999997,333.06954659999997,333.06954659999997,334.0606970000001,334.0905206,j,j,1,0.7074388000000909,334.77880930000015,334.77880930000015,334.77880930000015,334.77880930000015,334.77880930000015,334.77880930000015,,,,,,,,,,,,,,,,,,,,,,,,,,,,,,,,,,,,,,,,,,,,,,,324,2023-03-15_15h09.51.237,Main,2022.2.2,59.58523906787591,
negative,negative,2,j,l,0,0,0,0,0,0,0,0,,,,,,,,,3,10,64,9,,,,,,,,,,,,,,,,,,,,,,,,,,,,,,,,,,,,,,,,main,1,1,2,negative,negative,334.77880930000015,334.77880930000015,334.77880930000015,334.77880930000015,335.7512941,335.82175630000006,j,j,1,0.6305376999998771,336.40898319999997,336.40898319999997,336.40898319999997,336.40898319999997,336.40898319999997,336.40898319999997,,,,,,,,,,,,,,,,,,,,,,,,,,,,,,,,,,,,,,,,,,,,,,,324,2023-03-15_15h09.51.237,Main,2022.2.2,59.58523906787591,
positive,negative,1,l,j,0,0,0,0,0,0,0,0,,,,,,,,,3,11,65,5,,,,,,,,,,,,,,,,,,,,,,,,,,,,,,,,,,,,,,,,main,2,2,1,negative,positive,336.40898319999997,336.40898319999997,336.40898319999997,336.40898319999997,337.3913443000001,337.4261169000001,l,l,1,0.9472521000000143,338.3589733000001,338.3589733000001,338.3589733000001,338.3589733000001,338.3589733000001,338.3589733000001,,,,,,,,,,,,,,,,,,,,,,,,,,,,,,,,,,,,,,,,,,,,,,,324,2023-03-15_15h09.51.237,Main,2022.2.2,59.58523906787591,
positive,positive,1,l,j,0,0,0,0,0,0,0,0,,,,,,,,,3,12,66,2,,,,,,,,,,,,,,,,,,,,,,,,,,,,,,,,,,,,,,,,main,2,2,1,positive,positive,338.3589733000001,338.3589733000001,338.3589733000001,338.3589733000001,339.33322420000013,339.39347399999997,l,l,1,0.7152968999998848,340.08288140000013,340.08288140000013,340.08288140000013,340.08288140000013,340.08288140000013,340.08288140000013,,,,,,,,,,,,,,,,,,,,,,,,,,,,,,,,,,,,,,,,,,,,,,,324,2023-03-15_15h09.51.237,Main,2022.2.2,59.58523906787591,
neutral,neutral,1,k,k,0,0,0,0,0,0,0,0,,,,,,,,,3,13,67,1,,,,,,,,,,,,,,,,,,,,,,,,,,,,,,,,,,,,,,,,main,2,2,1,neutral,neutral,340.08288140000013,340.08288140000013,340.08288140000013,340.08288140000013,341.0575255000001,341.1238622000001,k,k,1,0.7351475999998911,341.81964360000006,341.81964360000006,341.81964360000006,341.81964360000006,341.81964360000006,341.81964360000006,,,,,,,,,,,,,,,,,,,,,,,,,,,,,,,,,,,,,,,,,,,,,,,324,2023-03-15_15h09.51.237,Main,2022.2.2,59.58523906787591,
positive,negative,2,l,j,0,0,0,0,0,0,0,0,,,,,,,,,3,14,68,14,,,,,,,,,,,,,,,,,,,,,,,,,,,,,,,,,,,,,,,,main,1,1,2,negative,positive,341.81964360000006,341.81964360000006,341.81964360000006,341.81964360000006,342.8203231,342.8534542,l,l,1,0.8496600000000853,343.67540210000016,343.67540210000016,343.67540210000016,343.67540210000016,343.67540210000016,343.67540210000016,,,,,,,,,,,,,,,,,,,,,,,,,,,,,,,,,,,,,,,,,,,,,,,324,2023-03-15_15h09.51.237,Main,2022.2.2,59.58523906787591,
neutral,positive,1,k,k,0,0,0,0,0,0,0,0,,,,,,,,,3,15,69,4,,,,,,,,,,,,,,,,,,,,,,,,,,,,,,,,,,,,,,,,main,1,1,1,positive,neutral,343.67540210000016,343.67540210000016,343.67540210000016,343.67540210000016,344.67000340000004,344.70042609999996,k,k,1,0.8490699999999833,345.52653639999994,345.52653639999994,345.52653639999994,345.52653639999994,345.52653639999994,345.52653639999994,,,,,,,,,,,,,,,,,,,,,,,,,,,,,,,,,,,,,,,,,,,,,,,324,2023-03-15_15h09.51.237,Main,2022.2.2,59.58523906787591,
positive,neutral,1,l,j,0,0,0,0,0,0,0,0,,,,,,,,,3,16,70,8,,,,,,,,,,,,,,,,,,,,,,,,,,,,,,,,,,,,,,,,main,2,2,1,neutral,positive,345.52653639999994,345.52653639999994,345.52653639999994,345.52653639999994,346.52185310000004,346.5519309000001,l,l,1,0.8862094999999499,347.4123198,347.4123198,347.4123198,347.4123198,347.4123198,347.4123198,,,,,,,,,,,,,,,,,,,,,,,,,,,,,,,,,,,,,,,,,,,,,,,324,2023-03-15_15h09.51.237,Main,2022.2.2,59.58523906787591,
negative,neutral,2,j,l,0,0,0,0,0,0,0,0,,,,,,,,,3,17,71,12,,,,,,,,,,,,,,,,,,,,,,,,,,,,,,,,,,,,,,,,main,1,1,2,neutral,negative,347.4123198,347.4123198,347.4123198,347.4123198,348.3853650000001,348.4505391,j,j,1,0.8847835999999916,349.30792399999996,349.30792399999996,349.30792399999996,349.30792399999996,349.30792399999996,349.30792399999996,,,,,,,,,,,,,,,,,,,,,,,,,,,,,,,,,,,,,,,,,,,,,,,324,2023-03-15_15h09.51.237,Main,2022.2.2,59.58523906787591,
positive,neutral,2,l,j,0,0,0,0,0,0,0,0,,,,,,,,,4,0,72,17,,,,,,,,,,,,,,,,,,,,,,,,,,,,,,,,,,,,,,,,main,2,2,2,neutral,positive,349.30792399999996,349.30792399999996,349.30792399999996,349.30792399999996,350.2950697000001,350.3252933000001,l,l,1,0.8637971999999081,351.1723412000001,351.1723412000001,351.1723412000001,351.1723412000001,351.1723412000001,351.1723412000001,,,,,,,,,,,,,,,,,,,,,,,,,,,,,,,,,,,,,,,,,,,,,,,324,2023-03-15_15h09.51.237,Main,2022.2.2,59.58523906787591,
positive,positive,1,l,j,0,0,0,0,0,0,0,0,,,,,,,,,4,1,73,2,,,,,,,,,,,,,,,,,,,,,,,,,,,,,,,,,,,,,,,,main,1,1,1,positive,positive,351.1723412000001,351.1723412000001,351.1723412000001,351.1723412000001,352.1743193,352.2049690000001,l,l,1,0.8345390999998017,353.01732749999996,353.01732749999996,353.01732749999996,353.01732749999996,353.01732749999996,353.01732749999996,,,,,,,,,,,,,,,,,,,,,,,,,,,,,,,,,,,,,,,,,,,,,,,324,2023-03-15_15h09.51.237,Main,2022.2.2,59.58523906787591,
positive,negative,2,l,j,0,0,0,0,0,0,0,0,,,,,,,,,4,2,74,14,,,,,,,,,,,,,,,,,,,,,,,,,,,,,,,,,,,,,,,,main,2,2,2,negative,positive,353.01732749999996,353.01732749999996,353.01732749999996,353.01732749999996,354.0139455000001,354.0426092,l,l,1,1.0621186000000762,355.07633110000006,355.07633110000006,355.07633110000006,355.07633110000006,355.07633110000006,355.07633110000006,,,,,,,,,,,,,,,,,,,,,,,,,,,,,,,,,,,,,,,,,,,,,,,324,2023-03-15_15h09.51.237,Main,2022.2.2,59.58523906787591,
neutral,neutral,2,k,k,0,0,0,0,0,0,0,0,,,,,,,,,4,3,75,10,,,,,,,,,,,,,,,,,,,,,,,,,,,,,,,,,,,,,,,,main,2,2,2,neutral,neutral,355.07633110000006,355.07633110000006,355.07633110000006,355.07633110000006,356.0723147000001,356.10679200000004,k,k,1,0.8506549999999606,356.9315448,356.9315448,356.9315448,356.9315448,356.9315448,356.9315448,,,,,,,,,,,,,,,,,,,,,,,,,,,,,,,,,,,,,,,,,,,,,,,324,2023-03-15_15h09.51.237,Main,2022.2.2,59.58523906787591,
negative,positive,2,j,l,0,0,0,0,0,0,0,0,,,,,,,,,4,4,76,15,,,,,,,,,,,,,,,,,,,,,,,,,,,,,,,,,,,,,,,,main,1,1,2,positive,negative,356.9315448,356.9315448,356.9315448,356.9315448,357.90433269999994,357.96561480000014,j,j,1,0.8751925999999912,358.8149307000001,358.8149307000001,358.8149307000001,358.8149307000001,358.8149307000001,358.8149307000001,,,,,,,,,,,,,,,,,,,,,,,,,,,,,,,,,,,,,,,,,,,,,,,324,2023-03-15_15h09.51.237,Main,2022.2.2,59.58523906787591,
positive,negative,1,l,j,0,0,0,0,0,0,0,0,,,,,,,,,4,5,77,5,,,,,,,,,,,,,,,,,,,,,,,,,,,,,,,,,,,,,,,,main,2,2,1,negative,positive,358.8149307000001,358.8149307000001,358.8149307000001,358.8149307000001,359.8098295,359.84387960000004,l,l,1,0.9872411999999713,360.7978035000001,360.7978035000001,360.7978035000001,360.7978035000001,360.7978035000001,360.7978035000001,,,,,,,,,,,,,,,,,,,,,,,,,,,,,,,,,,,,,,,,,,,,,,,324,2023-03-15_15h09.51.237,Main,2022.2.2,59.58523906787591,
positive,neutral,1,l,j,0,0,0,0,0,0,0,0,,,,,,,,,4,6,78,8,,,,,,,,,,,,,,,,,,,,,,,,,,,,,,,,,,,,,,,,main,2,2,1,neutral,positive,360.7978035000001,360.7978035000001,360.7978035000001,360.7978035000001,361.7876272000001,361.82266759999993,l,l,1,0.873203999999987,362.67971480000006,362.67971480000006,362.67971480000006,362.67971480000006,362.67971480000006,362.67971480000006,,,,,,,,,,,,,,,,,,,,,,,,,,,,,,,,,,,,,,,,,,,,,,,324,2023-03-15_15h09.51.237,Main,2022.2.2,59.58523906787591,
negative,positive,1,j,l,0,0,0,0,0,0,0,0,,,,,,,,,4,7,79,6,,,,,,,,,,,,,,,,,,,,,,,,,,,,,,,,,,,,,,,,main,2,2,1,positive,negative,362.67971480000006,362.67971480000006,362.67971480000006,362.67971480000006,363.6550661000001,363.71607330000006,j,j,1,0.8556261999999606,364.5369932000001,364.5369932000001,364.5369932000001,364.5369932000001,364.5369932000001,364.5369932000001,,,,,,,,,,,,,,,,,,,,,,,,,,,,,,,,,,,,,,,,,,,,,,,324,2023-03-15_15h09.51.237,Main,2022.2.2,59.58523906787591,
neutral,neutral,1,k,k,0,0,0,0,0,0,0,0,,,,,,,,,4,8,80,1,,,,,,,,,,,,,,,,,,,,,,,,,,,,,,,,,,,,,,,,main,2,2,1,neutral,neutral,364.5369932000001,364.5369932000001,364.5369932000001,364.5369932000001,365.51124759999993,365.5732094,k,k,1,0.7305441999999402,366.2696472,366.2696472,366.2696472,366.2696472,366.2696472,366.2696472,,,,,,,,,,,,,,,,,,,,,,,,,,,,,,,,,,,,,,,,,,,,,,,324,2023-03-15_15h09.51.237,Main,2022.2.2,59.58523906787591,
positive,positive,2,l,j,0,0,0,0,0,0,0,0,,,,,,,,,4,9,81,11,,,,,,,,,,,,,,,,,,,,,,,,,,,,,,,,,,,,,,,,main,2,2,2,positive,positive,366.2696472,366.2696472,366.2696472,366.2696472,367.25648950000004,367.28830570000014,l,l,1,0.7625700999999481,368.0335248000001,368.0335248000001,368.0335248000001,368.0335248000001,368.0335248000001,368.0335248000001,,,,,,,,,,,,,,,,,,,,,,,,,,,,,,,,,,,,,,,,,,,,,,,324,2023-03-15_15h09.51.237,Main,2022.2.2,59.58523906787591,
neutral,positive,2,k,k,0,0,0,0,0,0,0,0,,,,,,,,,4,10,82,13,,,,,,,,,,,,,,,,,,,,,,,,,,,,,,,,,,,,,,,,main,2,2,2,positive,neutral,368.0335248000001,368.0335248000001,368.0335248000001,368.0335248000001,369.02866659999995,369.05784770000014,k,k,1,0.7966424000001098,369.838608,369.838608,369.838608,369.838608,369.838608,369.838608,,,,,,,,,,,,,,,,,,,,,,,,,,,,,,,,,,,,,,,,,,,,,,,324,2023-03-15_15h09.51.237,Main,2022.2.2,59.58523906787591,
negative,neutral,1,j,l,0,0,0,0,0,0,0,0,,,,,,,,,4,11,83,3,,,,,,,,,,,,,,,,,,,,,,,,,,,,,,,,,,,,,,,,main,1,1,1,neutral,negative,369.838608,369.838608,369.838608,369.838608,370.81354780000015,370.88026000000013,j,j,1,0.7410114000001613,371.58484509999994,371.58484509999994,371.58484509999994,371.58484509999994,371.58484509999994,371.58484509999994,,,,,,,,,,,,,,,,,,,,,,,,,,,,,,,,,,,,,,,,,,,,,,,324,2023-03-15_15h09.51.237,Main,2022.2.2,59.58523906787591,
negative,negative,1,j,l,0,0,0,0,0,0,0,0,,,,,,,,,4,12,84,0,,,,,,,,,,,,,,,,,,,,,,,,,,,,,,,,,,,,,,,,main,1,1,1,negative,negative,371.58484509999994,371.58484509999994,371.58484509999994,371.58484509999994,372.5695587,372.6049117,j,j,1,1.1936946999999236,373.7771775000001,373.7771775000001,373.7771775000001,373.7771775000001,373.7771775000001,373.7771775000001,,,,,,,,,,,,,,,,,,,,,,,,,,,,,,,,,,,,,,,,,,,,,,,324,2023-03-15_15h09.51.237,Main,2022.2.2,59.58523906787591,
negative,negative,2,j,l,0,0,0,0,0,0,0,0,,,,,,,,,4,13,85,9,,,,,,,,,,,,,,,,,,,,,,,,,,,,,,,,,,,,,,,,main,1,1,2,negative,negative,373.7771775000001,373.7771775000001,373.7771775000001,373.7771775000001,374.7739068000001,374.80633280000006,j,j,1,0.7910776999999598,375.5728435000001,375.5728435000001,375.5728435000001,375.5728435000001,375.5728435000001,375.5728435000001,,,,,,,,,,,,,,,,,,,,,,,,,,,,,,,,,,,,,,,,,,,,,,,324,2023-03-15_15h09.51.237,Main,2022.2.2,59.58523906787591,
neutral,negative,2,k,k,0,0,0,0,0,0,0,0,,,,,,,,,4,14,86,16,,,,,,,,,,,,,,,,,,,,,,,,,,,,,,,,,,,,,,,,main,1,1,2,negative,neutral,375.5728435000001,375.5728435000001,375.5728435000001,375.5728435000001,376.56222720000005,376.5925864000001,k,k,1,0.8403314999998202,377.4177542,377.4177542,377.4177542,377.4177542,377.4177542,377.4177542,,,,,,,,,,,,,,,,,,,,,,,,,,,,,,,,,,,,,,,,,,,,,,,324,2023-03-15_15h09.51.237,Main,2022.2.2,59.58523906787591,
negative,neutral,2,j,l,0,0,0,0,0,0,0,0,,,,,,,,,4,15,87,12,,,,,,,,,,,,,,,,,,,,,,,,,,,,,,,,,,,,,,,,main,2,2,2,neutral,negative,377.4177542,377.4177542,377.4177542,377.4177542,378.41213519999997,378.4414743,j,j,1,0.8788773999999648,379.2978925,379.2978925,379.2978925,379.2978925,379.2978925,379.2978925,,,,,,,,,,,,,,,,,,,,,,,,,,,,,,,,,,,,,,,,,,,,,,,324,2023-03-15_15h09.51.237,Main,2022.2.2,59.58523906787591,
neutral,positive,1,k,k,0,0,0,0,0,0,0,0,,,,,,,,,4,16,88,4,,,,,,,,,,,,,,,,,,,,,,,,,,,,,,,,,,,,,,,,main,2,2,1,positive,neutral,379.2978925,379.2978925,379.2978925,379.2978925,380.29434689999994,380.323838,k,k,1,0.8437851999999566,381.14517649999993,381.14517649999993,381.14517649999993,381.14517649999993,381.14517649999993,381.14517649999993,,,,,,,,,,,,,,,,,,,,,,,,,,,,,,,,,,,,,,,,,,,,,,,324,2023-03-15_15h09.51.237,Main,2022.2.2,59.58523906787591,
neutral,negative,1,k,k,0,0,0,0,0,0,0,0,,,,,,,,,4,17,89,7,,,,,,,,,,,,,,,,,,,,,,,,,,,,,,,,,,,,,,,,main,1,1,1,negative,neutral,381.14517649999993,381.14517649999993,381.14517649999993,381.14517649999993,382.14060140000015,382.17119160000016,k,k,1,0.8952100999999857,383.04150100000015,383.04150100000015,383.04150100000015,383.04150100000015,383.04150100000015,383.04150100000015,,,,,,,,,,,,,,,,,,,,,,,,,,,,,,,,,,,,,,,,,,,,,,,324,2023-03-15_15h09.51.237,Main,2022.2.2,59.58523906787591,
negative,negative,2,j,l,0,0,0,0,0,0,0,0,,,,,,,,,5,0,90,9,,,,,,,,,,,,,,,,,,,,,,,,,,,,,,,,,,,,,,,,main,2,2,2,negative,negative,383.04150100000015,383.04150100000015,383.04150100000015,383.04150100000015,384.0427816000001,384.07908650000013,j,j,1,0.883863399999882,384.9322144,384.9322144,384.9322144,384.9322144,384.9322144,384.9322144,,,,,,,,,,,,,,,,,,,,,,,,,,,,,,,,,,,,,,,,,,,,,,,324,2023-03-15_15h09.51.237,Main,2022.2.2,59.58523906787591,
neutral,neutral,2,k,k,0,0,0,0,0,0,0,0,,,,,,,,,5,1,91,10,,,,,,,,,,,,,,,,,,,,,,,,,,,,,,,,,,,,,,,,main,2,2,2,neutral,neutral,384.9322144,384.9322144,384.9322144,384.9322144,385.9181651000001,385.9502913000001,k,k,1,1.0685363999998572,387.00136670000006,387.00136670000006,387.00136670000006,387.00136670000006,387.00136670000006,387.00136670000006,,,,,,,,,,,,,,,,,,,,,,,,,,,,,,,,,,,,,,,,,,,,,,,324,2023-03-15_15h09.51.237,Main,2022.2.2,59.58523906787591,
positive,negative,2,l,j,0,0,0,0,0,0,0,0,,,,,,,,,5,2,92,14,,,,,,,,,,,,,,,,,,,,,,,,,,,,,,,,,,,,,,,,main,1,1,2,negative,positive,387.00136670000006,387.00136670000006,387.00136670000006,387.00136670000006,387.99881490000007,388.0298574000001,l,l,1,1.091816000000108,389.1029638,389.1029638,389.1029638,389.1029638,389.1029638,389.1029638,,,,,,,,,,,,,,,,,,,,,,,,,,,,,,,,,,,,,,,,,,,,,,,324,2023-03-15_15h09.51.237,Main,2022.2.2,59.58523906787591,
neutral,negative,1,k,k,0,0,0,0,0,0,0,0,,,,,,,,,5,3,93,7,,,,,,,,,,,,,,,,,,,,,,,,,,,,,,,,,,,,,,,,main,1,1,1,negative,neutral,389.1029638,389.1029638,389.1029638,389.1029638,390.09122419999994,390.12179620000006,k,k,1,0.8813400000001366,390.98647729999993,390.98647729999993,390.98647729999993,390.98647729999993,390.98647729999993,390.98647729999993,,,,,,,,,,,,,,,,,,,,,,,,,,,,,,,,,,,,,,,,,,,,,,,324,2023-03-15_15h09.51.237,Main,2022.2.2,59.58523906787591,
positive,positive,1,l,j,0,0,0,0,0,0,0,0,,,,,,,,,5,4,94,2,,,,,,,,,,,,,,,,,,,,,,,,,,,,,,,,,,,,,,,,main,1,1,1,positive,positive,390.98647729999993,390.98647729999993,390.98647729999993,390.98647729999993,391.97424249999995,392.00346850000005,l,l,1,0.8360657000000629,392.82607499999995,392.82607499999995,392.82607499999995,392.82607499999995,392.82607499999995,392.82607499999995,,,,,,,,,,,,,,,,,,,,,,,,,,,,,,,,,,,,,,,,,,,,,,,324,2023-03-15_15h09.51.237,Main,2022.2.2,59.58523906787591,
negative,positive,2,j,l,0,0,0,0,0,0,0,0,,,,,,,,,5,5,95,15,,,,,,,,,,,,,,,,,,,,,,,,,,,,,,,,,,,,,,,,main,1,1,2,positive,negative,392.82607499999995,392.82607499999995,392.82607499999995,392.82607499999995,393.8011864,393.86383790000014,j,j,1,0.9832097999999405,394.8147596000001,394.8147596000001,394.8147596000001,394.8147596000001,394.8147596000001,394.8147596000001,,,,,,,,,,,,,,,,,,,,,,,,,,,,,,,,,,,,,,,,,,,,,,,324,2023-03-15_15h09.51.237,Main,2022.2.2,59.58523906787591,
neutral,negative,2,k,k,0,0,0,0,0,0,0,0,,,,,,,,,5,6,96,16,,,,,,,,,,,,,,,,,,,,,,,,,,,,,,,,,,,,,,,,main,1,1,2,negative,neutral,394.8147596000001,394.8147596000001,394.8147596000001,394.8147596000001,395.7993885000001,395.83141790000013,k,k,1,0.8318183000001227,396.6481653000001,396.6481653000001,396.6481653000001,396.6481653000001,396.6481653000001,396.6481653000001,,,,,,,,,,,,,,,,,,,,,,,,,,,,,,,,,,,,,,,,,,,,,,,324,2023-03-15_15h09.51.237,Main,2022.2.2,59.58523906787591,
positive,negative,1,l,j,0,0,0,0,0,0,0,0,,,,,,,,,5,7,97,5,,,,,,,,,,,,,,,,,,,,,,,,,,,,,,,,,,,,,,,,main,2,2,1,negative,positive,396.6481653000001,396.6481653000001,396.6481653000001,396.6481653000001,397.63161820000005,397.6682681,l,l,1,0.8186284999999316,398.4702743,398.4702743,398.4702743,398.4702743,398.4702743,398.4702743,,,,,,,,,,,,,,,,,,,,,,,,,,,,,,,,,,,,,,,,,,,,,,,324,2023-03-15_15h09.51.237,Main,2022.2.2,59.58523906787591,
positive,neutral,2,l,j,0,0,0,0,0,0,0,0,,,,,,,,,5,8,98,17,,,,,,,,,,,,,,,,,,,,,,,,,,,,,,,,,,,,,,,,main,2,2,2,neutral,positive,398.4702743,398.4702743,398.4702743,398.4702743,399.4426691000001,399.5017755000001,l,l,1,0.9393801999999596,400.4097024,400.4097024,400.4097024,400.4097024,400.4097024,400.4097024,,,,,,,,,,,,,,,,,,,,,,,,,,,,,,,,,,,,,,,,,,,,,,,324,2023-03-15_15h09.51.237,Main,2022.2.2,59.58523906787591,
neutral,positive,1,k,k,0,0,0,0,0,0,0,0,,,,,,,,,5,9,99,4,,,,,,,,,,,,,,,,,,,,,,,,,,,,,,,,,,,,,,,,main,1,1,1,positive,neutral,400.4097024,400.4097024,400.4097024,400.4097024,401.40236720000007,401.4318068,k,k,1,0.833319500000016,402.2417937,402.2417937,402.2417937,402.2417937,402.2417937,402.2417937,,,,,,,,,,,,,,,,,,,,,,,,,,,,,,,,,,,,,,,,,,,,,,,324,2023-03-15_15h09.51.237,Main,2022.2.2,59.58523906787591,
neutral,positive,2,k,k,0,0,0,0,0,0,0,0,,,,,,,,,5,10,100,13,,,,,,,,,,,,,,,,,,,,,,,,,,,,,,,,,,,,,,,,main,2,2,2,positive,neutral,402.2417937,402.2417937,402.2417937,402.2417937,403.23990920000006,403.27186230000007,k,k,1,0.8730167000001074,404.12163869999995,404.12163869999995,404.12163869999995,404.12163869999995,404.12163869999995,404.12163869999995,,,,,,,,,,,,,,,,,,,,,,,,,,,,,,,,,,,,,,,,,,,,,,,324,2023-03-15_15h09.51.237,Main,2022.2.2,59.58523906787591,
positive,positive,2,l,j,0,0,0,0,0,0,0,0,,,,,,,,,5,11,101,11,,,,,,,,,,,,,,,,,,,,,,,,,,,,,,,,,,,,,,,,main,1,1,2,positive,positive,404.12163869999995,404.12163869999995,404.12163869999995,404.12163869999995,405.12080820000006,405.15613069999995,l,l,1,0.9041756999999961,406.03312989999995,406.03312989999995,406.03312989999995,406.03312989999995,406.03312989999995,406.03312989999995,,,,,,,,,,,,,,,,,,,,,,,,,,,,,,,,,,,,,,,,,,,,,,,324,2023-03-15_15h09.51.237,Main,2022.2.2,59.58523906787591,
negative,positive,1,j,l,0,0,0,0,0,0,0,0,,,,,,,,,5,12,102,6,,,,,,,,,,,,,,,,,,,,,,,,,,,,,,,,,,,,,,,,main,2,2,1,positive,negative,406.03312989999995,406.03312989999995,406.03312989999995,406.03312989999995,407.0227314000001,407.05258230000004,j,j,1,0.879316499999959,407.9172138000001,407.9172138000001,407.9172138000001,407.9172138000001,407.9172138000001,407.9172138000001,,,,,,,,,,,,,,,,,,,,,,,,,,,,,,,,,,,,,,,,,,,,,,,324,2023-03-15_15h09.51.237,Main,2022.2.2,59.58523906787591,
negative,neutral,2,j,l,0,0,0,0,0,0,0,0,,,,,,,,,5,13,103,12,,,,,,,,,,,,,,,,,,,,,,,,,,,,,,,,,,,,,,,,main,1,1,2,neutral,negative,407.9172138000001,407.9172138000001,407.9172138000001,407.9172138000001,408.90854890000014,408.93997979999995,j,j,1,0.837656799999877,409.76132970000003,409.76132970000003,409.76132970000003,409.76132970000003,409.76132970000003,409.76132970000003,,,,,,,,,,,,,,,,,,,,,,,,,,,,,,,,,,,,,,,,,,,,,,,324,2023-03-15_15h09.51.237,Main,2022.2.2,59.58523906787591,
negative,neutral,1,j,l,0,0,0,0,0,0,0,0,,,,,,,,,5,14,104,3,,,,,,,,,,,,,,,,,,,,,,,,,,,,,,,,,,,,,,,,main,2,2,1,neutral,negative,409.76132970000003,409.76132970000003,409.76132970000003,409.76132970000003,410.74563690000014,410.7774247,j,j,1,0.8537662999999611,411.6105557000001,411.6105557000001,411.6105557000001,411.6105557000001,411.6105557000001,411.6105557000001,,,,,,,,,,,,,,,,,,,,,,,,,,,,,,,,,,,,,,,,,,,,,,,324,2023-03-15_15h09.51.237,Main,2022.2.2,59.58523906787591,
negative,negative,1,j,l,0,0,0,0,0,0,0,0,,,,,,,,,5,15,105,0,,,,,,,,,,,,,,,,,,,,,,,,,,,,,,,,,,,,,,,,main,1,1,1,negative,negative,411.6105557000001,411.6105557000001,411.6105557000001,411.6105557000001,412.60739090000015,412.63984060000007,j,j,1,0.7049561000001177,413.31843200000003,413.31843200000003,413.31843200000003,413.31843200000003,413.31843200000003,413.31843200000003,,,,,,,,,,,,,,,,,,,,,,,,,,,,,,,,,,,,,,,,,,,,,,,324,2023-03-15_15h09.51.237,Main,2022.2.2,59.58523906787591,
positive,neutral,1,l,j,0,0,0,0,0,0,0,0,,,,,,,,,5,16,106,8,,,,,,,,,,,,,,,,,,,,,,,,,,,,,,,,,,,,,,,,main,1,1,1,neutral,positive,413.31843200000003,413.31843200000003,413.31843200000003,413.31843200000003,414.29681400000004,414.35909590000006,l,l,1,0.9391402999999627,415.2709823,415.2709823,415.2709823,415.2709823,415.2709823,415.2709823,,,,,,,,,,,,,,,,,,,,,,,,,,,,,,,,,,,,,,,,,,,,,,,324,2023-03-15_15h09.51.237,Main,2022.2.2,59.58523906787591,
neutral,neutral,1,k,k,0,0,0,0,0,0,0,0,,,,,,,,,5,17,107,1,,,,,,,,,,,,,,,,,,,,,,,,,,,,,,,,,,,,,,,,main,1,1,1,neutral,neutral,415.2709823,415.2709823,415.2709823,415.2709823,416.2418606000001,416.3087034,k,k,1,0.8967812999999296,417.16691579999997,417.16691579999997,417.16691579999997,417.16691579999997,417.16691579999997,417.16691579999997,,,,,,,,,,,,,,,,,,,,,,,,,,,,,,,,,,,,,,,,,,,,,,,324,2023-03-15_15h09.51.237,Main,2022.2.2,59.58523906787591,
negative,positive,1,j,l,0,0,0,0,0,0,0,0,,,,,,,,,6,0,108,6,,,,,,,,,,,,,,,,,,,,,,,,,,,,,,,,,,,,,,,,main,1,1,1,positive,negative,417.16691579999997,417.16691579999997,417.16691579999997,417.16691579999997,418.1484805,418.2106933,j,,0,0.974349600000096,419.11970610000003,419.11970610000003,419.11970610000003,420.16285770000013,420.16285770000013,420.16285770000013,,,,,,,,,,,,,,,,,,,,,,,,,,,,,,,,,,,,,,,,,,,,,,,324,2023-03-15_15h09.51.237,Main,2022.2.2,59.58523906787591,
negative,neutral,2,j,l,0,0,0,0,0,0,0,0,,,,,,,,,6,1,109,12,,,,,,,,,,,,,,,,,,,,,,,,,,,,,,,,,,,,,,,,main,1,1,2,neutral,negative,420.16285770000013,420.16285770000013,420.16285770000013,420.16285770000013,421.1361661000001,421.19578,j,j,1,0.9581328000001577,422.1283443,422.1283443,422.1283443,422.1283443,422.1283443,422.1283443,,,,,,,,,,,,,,,,,,,,,,,,,,,,,,,,,,,,,,,,,,,,,,,324,2023-03-15_15h09.51.237,Main,2022.2.2,59.58523906787591,
neutral,positive,1,k,k,0,0,0,0,0,0,0,0,,,,,,,,,6,2,110,4,,,,,,,,,,,,,,,,,,,,,,,,,,,,,,,,,,,,,,,,main,2,2,1,positive,neutral,422.1283443,422.1283443,422.1283443,422.1283443,423.1154243000001,423.14671079999994,k,k,1,0.7965205000000424,423.92344320000007,423.92344320000007,423.92344320000007,423.92344320000007,423.92344320000007,423.92344320000007,,,,,,,,,,,,,,,,,,,,,,,,,,,,,,,,,,,,,,,,,,,,,,,324,2023-03-15_15h09.51.237,Main,2022.2.2,59.58523906787591,
negative,negative,2,j,l,0,0,0,0,0,0,0,0,,,,,,,,,6,3,111,9,,,,,,,,,,,,,,,,,,,,,,,,,,,,,,,,,,,,,,,,main,2,2,2,negative,negative,423.92344320000007,423.92344320000007,423.92344320000007,423.92344320000007,424.8985417000001,424.9596302,j,j,1,0.8491753999999219,425.7701145000001,425.7701145000001,425.7701145000001,425.7701145000001,425.7701145000001,425.7701145000001,,,,,,,,,,,,,,,,,,,,,,,,,,,,,,,,,,,,,,,,,,,,,,,324,2023-03-15_15h09.51.237,Main,2022.2.2,59.58523906787591,
neutral,neutral,1,k,k,0,0,0,0,0,0,0,0,,,,,,,,,6,4,112,1,,,,,,,,,,,,,,,,,,,,,,,,,,,,,,,,,,,,,,,,main,2,2,1,neutral,neutral,425.7701145000001,425.7701145000001,425.7701145000001,425.7701145000001,426.75751850000006,426.78807570000004,k,k,1,0.9061537999998563,427.692599,427.692599,427.692599,427.692599,427.692599,427.692599,,,,,,,,,,,,,,,,,,,,,,,,,,,,,,,,,,,,,,,,,,,,,,,324,2023-03-15_15h09.51.237,Main,2022.2.2,59.58523906787591,
negative,negative,1,j,l,0,0,0,0,0,0,0,0,,,,,,,,,6,5,113,0,,,,,,,,,,,,,,,,,,,,,,,,,,,,,,,,,,,,,,,,main,2,2,1,negative,negative,427.692599,427.692599,427.692599,427.692599,428.6717191,428.73379550000004,j,j,1,0.8892207000001235,429.58220440000014,429.58220440000014,429.58220440000014,429.58220440000014,429.58220440000014,429.58220440000014,,,,,,,,,,,,,,,,,,,,,,,,,,,,,,,,,,,,,,,,,,,,,,,324,2023-03-15_15h09.51.237,Main,2022.2.2,59.58523906787591,
positive,positive,2,l,j,0,0,0,0,0,0,0,0,,,,,,,,,6,6,114,11,,,,,,,,,,,,,,,,,,,,,,,,,,,,,,,,,,,,,,,,main,2,2,2,positive,positive,429.58220440000014,429.58220440000014,429.58220440000014,429.58220440000014,430.5780462,430.6089313,l,l,1,0.9135884999998325,431.49468290000004,431.49468290000004,431.49468290000004,431.49468290000004,431.49468290000004,431.49468290000004,,,,,,,,,,,,,,,,,,,,,,,,,,,,,,,,,,,,,,,,,,,,,,,324,2023-03-15_15h09.51.237,Main,2022.2.2,59.58523906787591,
positive,neutral,1,l,j,0,0,0,0,0,0,0,0,,,,,,,,,6,7,115,8,,,,,,,,,,,,,,,,,,,,,,,,,,,,,,,,,,,,,,,,main,2,2,1,neutral,positive,431.49468290000004,431.49468290000004,431.49468290000004,431.49468290000004,432.49518379999995,432.5244491000001,l,l,1,0.773620499999879,433.27769250000006,433.27769250000006,433.27769250000006,433.27769250000006,433.27769250000006,433.27769250000006,,,,,,,,,,,,,,,,,,,,,,,,,,,,,,,,,,,,,,,,,,,,,,,324,2023-03-15_15h09.51.237,Main,2022.2.2,59.58523906787591,
neutral,positive,2,k,k,0,0,0,0,0,0,0,0,,,,,,,,,6,8,116,13,,,,,,,,,,,,,,,,,,,,,,,,,,,,,,,,,,,,,,,,main,2,2,2,positive,neutral,433.27769250000006,433.27769250000006,433.27769250000006,433.27769250000006,434.27021030000014,434.30015920000005,k,k,1,0.9828179000001,435.25825110000005,435.25825110000005,435.25825110000005,435.25825110000005,435.25825110000005,435.25825110000005,,,,,,,,,,,,,,,,,,,,,,,,,,,,,,,,,,,,,,,,,,,,,,,324,2023-03-15_15h09.51.237,Main,2022.2.2,59.58523906787591,
neutral,negative,2,k,k,0,0,0,0,0,0,0,0,,,,,,,,,6,9,117,16,,,,,,,,,,,,,,,,,,,,,,,,,,,,,,,,,,,,,,,,main,1,1,2,negative,neutral,435.25825110000005,435.25825110000005,435.25825110000005,435.25825110000005,436.2340772,436.29482729999995,k,k,1,0.8775462000000971,437.14091800000006,437.14091800000006,437.14091800000006,437.14091800000006,437.14091800000006,437.14091800000006,,,,,,,,,,,,,,,,,,,,,,,,,,,,,,,,,,,,,,,,,,,,,,,324,2023-03-15_15h09.51.237,Main,2022.2.2,59.58523906787591,
positive,negative,1,l,j,0,0,0,0,0,0,0,0,,,,,,,,,6,10,118,5,,,,,,,,,,,,,,,,,,,,,,,,,,,,,,,,,,,,,,,,main,2,2,1,negative,positive,437.14091800000006,437.14091800000006,437.14091800000006,437.14091800000006,438.12774519999994,438.15842739999994,l,l,1,1.2410117999997965,439.3901642000001,439.3901642000001,439.3901642000001,439.3901642000001,439.3901642000001,439.3901642000001,,,,,,,,,,,,,,,,,,,,,,,,,,,,,,,,,,,,,,,,,,,,,,,324,2023-03-15_15h09.51.237,Main,2022.2.2,59.58523906787591,
positive,neutral,2,l,j,0,0,0,0,0,0,0,0,,,,,,,,,6,11,119,17,,,,,,,,,,,,,,,,,,,,,,,,,,,,,,,,,,,,,,,,main,2,2,2,neutral,positive,439.3901642000001,439.3901642000001,439.3901642000001,439.3901642000001,440.36276399999997,440.4230616,l,l,1,0.8680646000000252,441.2623827,441.2623827,441.2623827,441.2623827,441.2623827,441.2623827,,,,,,,,,,,,,,,,,,,,,,,,,,,,,,,,,,,,,,,,,,,,,,,324,2023-03-15_15h09.51.237,Main,2022.2.2,59.58523906787591,
neutral,negative,1,k,k,0,0,0,0,0,0,0,0,,,,,,,,,6,12,120,7,,,,,,,,,,,,,,,,,,,,,,,,,,,,,,,,,,,,,,,,main,1,1,1,negative,neutral,441.2623827,441.2623827,441.2623827,441.2623827,442.2488615,442.27917890000003,k,k,1,0.9174683000001096,443.1856213000001,443.1856213000001,443.1856213000001,443.1856213000001,443.1856213000001,443.1856213000001,,,,,,,,,,,,,,,,,,,,,,,,,,,,,,,,,,,,,,,,,,,,,,,324,2023-03-15_15h09.51.237,Main,2022.2.2,59.58523906787591,
neutral,neutral,2,k,k,0,0,0,0,0,0,0,0,,,,,,,,,6,13,121,10,,,,,,,,,,,,,,,,,,,,,,,,,,,,,,,,,,,,,,,,main,2,2,2,neutral,neutral,443.1856213000001,443.1856213000001,443.1856213000001,443.1856213000001,444.1731595000001,444.20405729999993,k,k,1,0.8471059000000878,445.0340906000001,445.0340906000001,445.0340906000001,445.0340906000001,445.0340906000001,445.0340906000001,,,,,,,,,,,,,,,,,,,,,,,,,,,,,,,,,,,,,,,,,,,,,,,324,2023-03-15_15h09.51.237,Main,2022.2.2,59.58523906787591,
positive,negative,2,l,j,0,0,0,0,0,0,0,0,,,,,,,,,6,14,122,14,,,,,,,,,,,,,,,,,,,,,,,,,,,,,,,,,,,,,,,,main,1,1,2,negative,positive,445.0340906000001,445.0340906000001,445.0340906000001,445.0340906000001,446.01593419999995,446.0746101,l,l,1,1.0383833000000777,447.0736058,447.0736058,447.0736058,447.0736058,447.0736058,447.0736058,,,,,,,,,,,,,,,,,,,,,,,,,,,,,,,,,,,,,,,,,,,,,,,324,2023-03-15_15h09.51.237,Main,2022.2.2,59.58523906787591,
positive,positive,1,l,j,0,0,0,0,0,0,0,0,,,,,,,,,6,15,123,2,,,,,,,,,,,,,,,,,,,,,,,,,,,,,,,,,,,,,,,,main,2,2,1,positive,positive,447.0736058,447.0736058,447.0736058,447.0736058,448.05444349999993,448.11766080000007,l,l,1,0.739735200000041,448.81203260000007,448.81203260000007,448.81203260000007,448.81203260000007,448.81203260000007,448.81203260000007,,,,,,,,,,,,,,,,,,,,,,,,,,,,,,,,,,,,,,,,,,,,,,,324,2023-03-15_15h09.51.237,Main,2022.2.2,59.58523906787591,
negative,neutral,1,j,l,0,0,0,0,0,0,0,0,,,,,,,,,6,16,124,3,,,,,,,,,,,,,,,,,,,,,,,,,,,,,,,,,,,,,,,,main,2,2,1,neutral,negative,448.81203260000007,448.81203260000007,448.81203260000007,448.81203260000007,449.80639970000016,449.83724789999997,j,j,1,0.9048777999998947,450.7202052,450.7202052,450.7202052,450.7202052,450.7202052,450.7202052,,,,,,,,,,,,,,,,,,,,,,,,,,,,,,,,,,,,,,,,,,,,,,,324,2023-03-15_15h09.51.237,Main,2022.2.2,59.58523906787591,
negative,positive,2,j,l,0,0,0,0,0,0,0,0,,,,,,,,,6,17,125,15,,,,,,,,,,,,,,,,,,,,,,,,,,,,,,,,,,,,,,,,main,1,1,2,positive,negative,450.7202052,450.7202052,450.7202052,450.7202052,451.71713320000003,451.7538257000001,j,j,1,0.8081635000000915,452.53396640000005,452.53396640000005,452.53396640000005,452.53396640000005,452.53396640000005,452.53396640000005,,,,,,,,,,,,,,,,,,,,,,,,,,,,,,,,,,,,,,,,,,,,,,,324,2023-03-15_15h09.51.237,Main,2022.2.2,59.58523906787591,
positive,positive,2,l,j,0,0,0,0,0,0,0,0,,,,,,,,,7,0,126,11,,,,,,,,,,,,,,,,,,,,,,,,,,,,,,,,,,,,,,,,main,1,1,2,positive,positive,452.53396640000005,452.53396640000005,452.53396640000005,452.53396640000005,453.52955010000005,453.56167040000014,l,,0,0.9283219999999801,454.44001920000005,454.44001920000005,454.44001920000005,455.4952962,455.4952962,455.4952962,,,,,,,,,,,,,,,,,,,,,,,,,,,,,,,,,,,,,,,,,,,,,,,324,2023-03-15_15h09.51.237,Main,2022.2.2,59.58523906787591,
positive,neutral,2,l,j,0,0,0,0,0,0,0,0,,,,,,,,,7,1,127,17,,,,,,,,,,,,,,,,,,,,,,,,,,,,,,,,,,,,,,,,main,2,2,2,neutral,positive,455.4952962,455.4952962,455.4952962,455.4952962,456.4770624,456.5463033000001,l,l,1,0.9721947000000455,457.46014549999995,457.46014549999995,457.46014549999995,457.46014549999995,457.46014549999995,457.46014549999995,,,,,,,,,,,,,,,,,,,,,,,,,,,,,,,,,,,,,,,,,,,,,,,324,2023-03-15_15h09.51.237,Main,2022.2.2,59.58523906787591,
positive,positive,1,l,j,0,0,0,0,0,0,0,0,,,,,,,,,7,2,128,2,,,,,,,,,,,,,,,,,,,,,,,,,,,,,,,,,,,,,,,,main,2,2,1,positive,positive,457.46014549999995,457.46014549999995,457.46014549999995,457.46014549999995,458.43491029999996,458.499959,l,l,1,0.7177245999998831,459.18413310000005,459.18413310000005,459.18413310000005,459.18413310000005,459.18413310000005,459.18413310000005,,,,,,,,,,,,,,,,,,,,,,,,,,,,,,,,,,,,,,,,,,,,,,,324,2023-03-15_15h09.51.237,Main,2022.2.2,59.58523906787591,
negative,positive,2,j,l,0,0,0,0,0,0,0,0,,,,,,,,,7,3,129,15,,,,,,,,,,,,,,,,,,,,,,,,,,,,,,,,,,,,,,,,main,2,2,2,positive,negative,459.18413310000005,459.18413310000005,459.18413310000005,459.18413310000005,460.1725586,460.21848780000005,j,j,1,0.9640679999999975,461.1475442000001,461.1475442000001,461.1475442000001,461.1475442000001,461.1475442000001,461.1475442000001,,,,,,,,,,,,,,,,,,,,,,,,,,,,,,,,,,,,,,,,,,,,,,,324,2023-03-15_15h09.51.237,Main,2022.2.2,59.58523906787591,
negative,negative,1,j,l,0,0,0,0,0,0,0,0,,,,,,,,,7,4,130,0,,,,,,,,,,,,,,,,,,,,,,,,,,,,,,,,,,,,,,,,main,1,1,1,negative,negative,461.1475442000001,461.1475442000001,461.1475442000001,461.1475442000001,462.12321810000003,462.20037679999996,j,j,1,0.752897300000086,462.90083759999993,462.90083759999993,462.90083759999993,462.90083759999993,462.90083759999993,462.90083759999993,,,,,,,,,,,,,,,,,,,,,,,,,,,,,,,,,,,,,,,,,,,,,,,324,2023-03-15_15h09.51.237,Main,2022.2.2,59.58523906787591,
positive,neutral,1,l,j,0,0,0,0,0,0,0,0,,,,,,,,,7,5,131,8,,,,,,,,,,,,,,,,,,,,,,,,,,,,,,,,,,,,,,,,main,2,2,1,neutral,positive,462.90083759999993,462.90083759999993,462.90083759999993,462.90083759999993,463.88205300000004,463.94274110000015,l,l,1,0.9451526000000285,464.84793360000003,464.84793360000003,464.84793360000003,464.84793360000003,464.84793360000003,464.84793360000003,,,,,,,,,,,,,,,,,,,,,,,,,,,,,,,,,,,,,,,,,,,,,,,324,2023-03-15_15h09.51.237,Main,2022.2.2,59.58523906787591,
neutral,positive,2,k,k,0,0,0,0,0,0,0,0,,,,,,,,,7,6,132,13,,,,,,,,,,,,,,,,,,,,,,,,,,,,,,,,,,,,,,,,main,2,2,2,positive,neutral,464.84793360000003,464.84793360000003,464.84793360000003,464.84793360000003,465.837859,465.87313670000003,k,k,1,0.8561678000000938,466.70944299999996,466.70944299999996,466.70944299999996,466.70944299999996,466.70944299999996,466.70944299999996,,,,,,,,,,,,,,,,,,,,,,,,,,,,,,,,,,,,,,,,,,,,,,,324,2023-03-15_15h09.51.237,Main,2022.2.2,59.58523906787591,
negative,negative,2,j,l,0,0,0,0,0,0,0,0,,,,,,,,,7,7,133,9,,,,,,,,,,,,,,,,,,,,,,,,,,,,,,,,,,,,,,,,main,2,2,2,negative,negative,466.70944299999996,466.70944299999996,466.70944299999996,466.70944299999996,467.68555620000006,467.74982320000004,j,j,1,0.9214535000000978,468.6348617000001,468.6348617000001,468.6348617000001,468.6348617000001,468.6348617000001,468.6348617000001,,,,,,,,,,,,,,,,,,,,,,,,,,,,,,,,,,,,,,,,,,,,,,,324,2023-03-15_15h09.51.237,Main,2022.2.2,59.58523906787591,
neutral,neutral,2,k,k,0,0,0,0,0,0,0,0,,,,,,,,,7,8,134,10,,,,,,,,,,,,,,,,,,,,,,,,,,,,,,,,,,,,,,,,main,2,2,2,neutral,neutral,468.6348617000001,468.6348617000001,468.6348617000001,468.6348617000001,469.62118710000004,469.651574,k,k,1,0.8156509999998889,470.46006550000016,470.46006550000016,470.46006550000016,470.46006550000016,470.46006550000016,470.46006550000016,,,,,,,,,,,,,,,,,,,,,,,,,,,,,,,,,,,,,,,,,,,,,,,324,2023-03-15_15h09.51.237,Main,2022.2.2,59.58523906787591,
neutral,negative,1,k,k,0,0,0,0,0,0,0,0,,,,,,,,,7,9,135,7,0,0,0,0,,,,,,,,,,,,,,,,,,,,,,,,,,,,,,,,,,,,main,2,2,1,negative,neutral,470.46006550000016,470.46006550000016,470.46006550000016,470.46006550000016,471.4396283000001,471.4991179000001,k,k,1,0.8977343999999903,472.3400294999999,472.3400294999999,472.3400294999999,472.3400294999999,472.3400294999999,472.3400294999999,,,,,,,,,,472.3400294999999,472.3400294999999,472.3400294999999,472.3400294999999,None,,,,,,,,,,,,,,,,,,,,,,,,,,,,,,,,,324,2023-03-15_15h09.51.237,Main,2022.2.2,59.58523906787591,
neutral,negative,1,k,k,0,0,0,0,0,0,0,0,,,,,,,,,7,9,135,7,,,,,,,,,,,,,,,,,,,,,,,,,,,,,,,,,,,,,,,,,,,,,,,,,,,,,,,,,,,,,,,,,,,,,,,,,,,,,,,,,,,,,,,,,,,,,,,,,,,,,,,,,,,,324,2023-03-15_15h09.51.237,Main,2022.2.2,59.58523906787591,
negative,neutral,1,j,l,0,0,0,0,0,0,0,0,,,,,,,,,7,10,136,3,,,,,,,,,,,,,,,,,,,,,,,,,,,,,,,,,,,,,,,,main,2,2,1,neutral,negative,532.3791493000001,532.3791493000001,532.3791493000001,532.3791493000001,533.3708165,533.4020851000002,j,j,1,0.9665749999999207,534.3409604000001,534.3409604000001,534.3409604000001,534.3409604000001,534.3409604000001,534.3409604000001,,,,,,,,,,,,,,,,,,,,,,,,,,,,,,,,,,,,,,,,,,,,,,,324,2023-03-15_15h09.51.237,Main,2022.2.2,59.58523906787591,
negative,neutral,2,j,l,0,0,0,0,0,0,0,0,,,,,,,,,7,11,137,12,,,,,,,,,,,,,,,,,,,,,,,,,,,,,,,,,,,,,,,,main,2,2,2,neutral,negative,534.3409604000001,534.3409604000001,534.3409604000001,534.3409604000001,535.3338191999999,535.3655873,j,j,1,0.7384541999999783,536.0850555,536.0850555,536.0850555,536.0850555,536.0850555,536.0850555,,,,,,,,,,,,,,,,,,,,,,,,,,,,,,,,,,,,,,,,,,,,,,,324,2023-03-15_15h09.51.237,Main,2022.2.2,59.58523906787591,
negative,positive,1,j,l,0,0,0,0,0,0,0,0,,,,,,,,,7,12,138,6,,,,,,,,,,,,,,,,,,,,,,,,,,,,,,,,,,,,,,,,main,1,1,1,positive,negative,536.0850555,536.0850555,536.0850555,536.0850555,537.0710652,537.1006463000001,j,j,1,0.6789502000001448,537.7618298999998,537.7618298999998,537.7618298999998,537.7618298999998,537.7618298999998,537.7618298999998,,,,,,,,,,,,,,,,,,,,,,,,,,,,,,,,,,,,,,,,,,,,,,,324,2023-03-15_15h09.51.237,Main,2022.2.2,59.58523906787591,
positive,negative,1,l,j,0,0,0,0,0,0,0,0,,,,,,,,,7,13,139,5,,,,,,,,,,,,,,,,,,,,,,,,,,,,,,,,,,,,,,,,main,2,2,1,negative,positive,537.7618298999998,537.7618298999998,537.7618298999998,537.7618298999998,538.7353045000002,538.7962848999998,l,l,1,0.874668400000246,539.6414047000001,539.6414047000001,539.6414047000001,539.6414047000001,539.6414047000001,539.6414047000001,,,,,,,,,,,,,,,,,,,,,,,,,,,,,,,,,,,,,,,,,,,,,,,324,2023-03-15_15h09.51.237,Main,2022.2.2,59.58523906787591,
neutral,positive,1,k,k,0,0,0,0,0,0,0,0,,,,,,,,,7,14,140,4,,,,,,,,,,,,,,,,,,,,,,,,,,,,,,,,,,,,,,,,main,1,1,1,positive,neutral,539.6414047000001,539.6414047000001,539.6414047000001,539.6414047000001,540.6383447999999,540.6688243000001,k,k,1,0.7257977000003848,541.3713602999999,541.3713602999999,541.3713602999999,541.3713602999999,541.3713602999999,541.3713602999999,,,,,,,,,,,,,,,,,,,,,,,,,,,,,,,,,,,,,,,,,,,,,,,324,2023-03-15_15h09.51.237,Main,2022.2.2,59.58523906787591,
positive,negative,2,l,j,0,0,0,0,0,0,0,0,,,,,,,,,7,15,141,14,,,,,,,,,,,,,,,,,,,,,,,,,,,,,,,,,,,,,,,,main,1,1,2,negative,positive,541.3713602999999,541.3713602999999,541.3713602999999,541.3713602999999,542.3593849000001,542.3885591000001,l,l,1,0.9034833000000617,543.281107,543.281107,543.281107,543.281107,543.281107,543.281107,,,,,,,,,,,,,,,,,,,,,,,,,,,,,,,,,,,,,,,,,,,,,,,324,2023-03-15_15h09.51.237,Main,2022.2.2,59.58523906787591,
neutral,neutral,1,k,k,0,0,0,0,0,0,0,0,,,,,,,,,7,16,142,1,,,,,,,,,,,,,,,,,,,,,,,,,,,,,,,,,,,,,,,,main,2,2,1,neutral,neutral,543.281107,543.281107,543.281107,543.281107,544.2545993000001,544.3170536999999,k,k,1,0.7469681000002311,545.0242660000001,545.0242660000001,545.0242660000001,545.0242660000001,545.0242660000001,545.0242660000001,,,,,,,,,,,,,,,,,,,,,,,,,,,,,,,,,,,,,,,,,,,,,,,324,2023-03-15_15h09.51.237,Main,2022.2.2,59.58523906787591,
neutral,negative,2,k,k,0,0,0,0,0,0,0,0,,,,,,,,,7,17,143,16,,,,,,,,,,,,,,,,,,,,,,,,,,,,,,,,,,,,,,,,main,1,1,2,negative,neutral,545.0242660000001,545.0242660000001,545.0242660000001,545.0242660000001,546.0218130999999,546.0528222999999,k,k,1,0.8614265000001069,546.8895817999999,546.8895817999999,546.8895817999999,546.8895817999999,546.8895817999999,546.8895817999999,,,,,,,,,,,,,,,,,,,,,,,,,,,,,,,,,,,,,,,,,,,,,,,324,2023-03-15_15h09.51.237,Main,2022.2.2,59.58523906787591,
negative,neutral,1,j,l,0,0,0,0,0,0,0,0,,,,,,,,,8,0,144,3,,,,,,,,,,,,,,,,,,,,,,,,,,,,,,,,,,,,,,,,main,2,2,1,neutral,negative,546.8895817999999,546.8895817999999,546.8895817999999,546.8895817999999,547.8605937999998,547.9231182000001,j,j,1,0.8233172999998715,548.7199892000001,548.7199892000001,548.7199892000001,548.7199892000001,548.7199892000001,548.7199892000001,,,,,,,,,,,,,,,,,,,,,,,,,,,,,,,,,,,,,,,,,,,,,,,324,2023-03-15_15h09.51.237,Main,2022.2.2,59.58523906787591,
neutral,positive,2,k,k,0,0,0,0,0,0,0,0,,,,,,,,,8,1,145,13,,,,,,,,,,,,,,,,,,,,,,,,,,,,,,,,,,,,,,,,main,1,1,2,positive,neutral,548.7199892000001,548.7199892000001,548.7199892000001,548.7199892000001,549.7267205,549.7564341999998,k,k,1,0.7545411999999487,550.4788876999999,550.4788876999999,550.4788876999999,550.4788876999999,550.4788876999999,550.4788876999999,,,,,,,,,,,,,,,,,,,,,,,,,,,,,,,,,,,,,,,,,,,,,,,324,2023-03-15_15h09.51.237,Main,2022.2.2,59.58523906787591,
positive,positive,1,l,j,0,0,0,0,0,0,0,0,,,,,,,,,8,2,146,2,,,,,,,,,,,,,,,,,,,,,,,,,,,,,,,,,,,,,,,,main,1,1,1,positive,positive,550.4788876999999,550.4788876999999,550.4788876999999,550.4788876999999,551.4635313000001,551.4940472000001,l,l,1,0.7719640000000254,552.2511636000002,552.2511636000002,552.2511636000002,552.2511636000002,552.2511636000002,552.2511636000002,,,,,,,,,,,,,,,,,,,,,,,,,,,,,,,,,,,,,,,,,,,,,,,324,2023-03-15_15h09.51.237,Main,2022.2.2,59.58523906787591,
negative,negative,2,j,l,0,0,0,0,0,0,0,0,,,,,,,,,8,3,147,9,,,,,,,,,,,,,,,,,,,,,,,,,,,,,,,,,,,,,,,,main,2,2,2,negative,negative,552.2511636000002,552.2511636000002,552.2511636000002,552.2511636000002,553.2486715000002,553.2820202999999,j,j,1,1.1906122999998843,554.4473992999999,554.4473992999999,554.4473992999999,554.4473992999999,554.4473992999999,554.4473992999999,,,,,,,,,,,,,,,,,,,,,,,,,,,,,,,,,,,,,,,,,,,,,,,324,2023-03-15_15h09.51.237,Main,2022.2.2,59.58523906787591,
positive,negative,2,l,j,0,0,0,0,0,0,0,0,,,,,,,,,8,4,148,14,,,,,,,,,,,,,,,,,,,,,,,,,,,,,,,,,,,,,,,,main,2,2,2,negative,positive,554.4473992999999,554.4473992999999,554.4473992999999,554.4473992999999,555.4178832,555.4818929999999,l,l,1,0.8942716999999902,556.3475096,556.3475096,556.3475096,556.3475096,556.3475096,556.3475096,,,,,,,,,,,,,,,,,,,,,,,,,,,,,,,,,,,,,,,,,,,,,,,324,2023-03-15_15h09.51.237,Main,2022.2.2,59.58523906787591,
neutral,neutral,1,k,k,0,0,0,0,0,0,0,0,,,,,,,,,8,5,149,1,,,,,,,,,,,,,,,,,,,,,,,,,,,,,,,,,,,,,,,,main,1,1,1,neutral,neutral,556.3475096,556.3475096,556.3475096,556.3475096,557.3322820999999,557.3638019000002,k,k,1,0.7048964000000524,558.0595704999998,558.0595704999998,558.0595704999998,558.0595704999998,558.0595704999998,558.0595704999998,,,,,,,,,,,,,,,,,,,,,,,,,,,,,,,,,,,,,,,,,,,,,,,324,2023-03-15_15h09.51.237,Main,2022.2.2,59.58523906787591,
neutral,neutral,2,k,k,0,0,0,0,0,0,0,0,,,,,,,,,8,6,150,10,,,,,,,,,,,,,,,,,,,,,,,,,,,,,,,,,,,,,,,,main,2,2,2,neutral,neutral,558.0595704999998,558.0595704999998,558.0595704999998,558.0595704999998,559.0576595,559.0875066000001,k,k,1,0.6576539000002413,559.713066,559.713066,559.713066,559.713066,559.713066,559.713066,,,,,,,,,,,,,,,,,,,,,,,,,,,,,,,,,,,,,,,,,,,,,,,324,2023-03-15_15h09.51.237,Main,2022.2.2,59.58523906787591,
negative,neutral,2,j,l,0,0,0,0,0,0,0,0,,,,,,,,,8,7,151,12,,,,,,,,,,,,,,,,,,,,,,,,,,,,,,,,,,,,,,,,main,2,2,2,neutral,negative,559.713066,559.713066,559.713066,559.713066,560.7099402000001,560.7474374999999,j,j,1,0.8477014999998573,561.5637444000001,561.5637444000001,561.5637444000001,561.5637444000001,561.5637444000001,561.5637444000001,,,,,,,,,,,,,,,,,,,,,,,,,,,,,,,,,,,,,,,,,,,,,,,324,2023-03-15_15h09.51.237,Main,2022.2.2,59.58523906787591,
positive,neutral,1,l,j,0,0,0,0,0,0,0,0,,,,,,,,,8,8,152,8,,,,,,,,,,,,,,,,,,,,,,,,,,,,,,,,,,,,,,,,main,1,1,1,neutral,positive,561.5637444000001,561.5637444000001,561.5637444000001,561.5637444000001,562.5469322000001,562.5755305999999,l,l,1,0.8856024000001526,563.4556464999998,563.4556464999998,563.4556464999998,563.4556464999998,563.4556464999998,563.4556464999998,,,,,,,,,,,,,,,,,,,,,,,,,,,,,,,,,,,,,,,,,,,,,,,324,2023-03-15_15h09.51.237,Main,2022.2.2,59.58523906787591,
neutral,negative,1,k,k,0,0,0,0,0,0,0,0,,,,,,,,,8,9,153,7,,,,,,,,,,,,,,,,,,,,,,,,,,,,,,,,,,,,,,,,main,2,2,1,negative,neutral,563.4556464999998,563.4556464999998,563.4556464999998,563.4556464999998,564.4378812000002,564.4978991,k,k,1,0.7399298999998791,565.1968654999998,565.1968654999998,565.1968654999998,565.1968654999998,565.1968654999998,565.1968654999998,,,,,,,,,,,,,,,,,,,,,,,,,,,,,,,,,,,,,,,,,,,,,,,324,2023-03-15_15h09.51.237,Main,2022.2.2,59.58523906787591,
positive,neutral,2,l,j,0,0,0,0,0,0,0,0,,,,,,,,,8,10,154,17,,,,,,,,,,,,,,,,,,,,,,,,,,,,,,,,,,,,,,,,main,2,2,2,neutral,positive,565.1968654999998,565.1968654999998,565.1968654999998,565.1968654999998,566.1864352999999,566.2210502,l,l,1,0.849688000000242,567.0502008000001,567.0502008000001,567.0502008000001,567.0502008000001,567.0502008000001,567.0502008000001,,,,,,,,,,,,,,,,,,,,,,,,,,,,,,,,,,,,,,,,,,,,,,,324,2023-03-15_15h09.51.237,Main,2022.2.2,59.58523906787591,
neutral,negative,2,k,k,0,0,0,0,0,0,0,0,,,,,,,,,8,11,155,16,,,,,,,,,,,,,,,,,,,,,,,,,,,,,,,,,,,,,,,,main,1,1,2,negative,neutral,567.0502008000001,567.0502008000001,567.0502008000001,567.0502008000001,568.041422,568.0764842000001,k,k,1,1.4589104000001498,569.5137765000002,569.5137765000002,569.5137765000002,569.5137765000002,569.5137765000002,569.5137765000002,,,,,,,,,,,,,,,,,,,,,,,,,,,,,,,,,,,,,,,,,,,,,,,324,2023-03-15_15h09.51.237,Main,2022.2.2,59.58523906787591,
positive,negative,1,l,j,0,0,0,0,0,0,0,0,,,,,,,,,8,12,156,5,,,,,,,,,,,,,,,,,,,,,,,,,,,,,,,,,,,,,,,,main,1,1,1,negative,positive,569.5137765000002,569.5137765000002,569.5137765000002,569.5137765000002,570.4875399,570.5526115999999,l,l,1,0.8950902999999926,571.4098863000002,571.4098863000002,571.4098863000002,571.4098863000002,571.4098863000002,571.4098863000002,,,,,,,,,,,,,,,,,,,,,,,,,,,,,,,,,,,,,,,,,,,,,,,324,2023-03-15_15h09.51.237,Main,2022.2.2,59.58523906787591,
negative,positive,1,j,l,0,0,0,0,0,0,0,0,,,,,,,,,8,13,157,6,,,,,,,,,,,,,,,,,,,,,,,,,,,,,,,,,,,,,,,,main,2,2,1,positive,negative,571.4098863000002,571.4098863000002,571.4098863000002,571.4098863000002,572.4084804000001,572.4395425,j,j,1,0.9162249000000884,573.3312045,573.3312045,573.3312045,573.3312045,573.3312045,573.3312045,,,,,,,,,,,,,,,,,,,,,,,,,,,,,,,,,,,,,,,,,,,,,,,324,2023-03-15_15h09.51.237,Main,2022.2.2,59.58523906787591,
negative,positive,2,j,l,0,0,0,0,0,0,0,0,,,,,,,,,8,14,158,15,,,,,,,,,,,,,,,,,,,,,,,,,,,,,,,,,,,,,,,,main,2,2,2,positive,negative,573.3312045,573.3312045,573.3312045,573.3312045,574.3278991999998,574.3659700999999,j,j,1,1.040049100000033,575.3730765000003,575.3730765000003,575.3730765000003,575.3730765000003,575.3730765000003,575.3730765000003,,,,,,,,,,,,,,,,,,,,,,,,,,,,,,,,,,,,,,,,,,,,,,,324,2023-03-15_15h09.51.237,Main,2022.2.2,59.58523906787591,
negative,negative,1,j,l,0,0,0,0,0,0,0,0,,,,,,,,,8,15,159,0,,,,,,,,,,,,,,,,,,,,,,,,,,,,,,,,,,,,,,,,main,2,2,1,negative,negative,575.3730765000003,575.3730765000003,575.3730765000003,575.3730765000003,576.3725631,576.4026563,j,j,1,1.0801046999999926,577.4635455999999,577.4635455999999,577.4635455999999,577.4635455999999,577.4635455999999,577.4635455999999,,,,,,,,,,,,,,,,,,,,,,,,,,,,,,,,,,,,,,,,,,,,,,,324,2023-03-15_15h09.51.237,Main,2022.2.2,59.58523906787591,
neutral,positive,1,k,k,0,0,0,0,0,0,0,0,,,,,,,,,8,16,160,4,,,,,,,,,,,,,,,,,,,,,,,,,,,,,,,,,,,,,,,,main,1,1,1,positive,neutral,577.4635455999999,577.4635455999999,577.4635455999999,577.4635455999999,578.4535446000002,578.4851132000001,k,k,1,0.8904265000001033,579.3548498000002,579.3548498000002,579.3548498000002,579.3548498000002,579.3548498000002,579.3548498000002,,,,,,,,,,,,,,,,,,,,,,,,,,,,,,,,,,,,,,,,,,,,,,,324,2023-03-15_15h09.51.237,Main,2022.2.2,59.58523906787591,
positive,positive,2,l,j,0,0,0,0,0,0,0,0,,,,,,,,,8,17,161,11,,,,,,,,,,,,,,,,,,,,,,,,,,,,,,,,,,,,,,,,main,1,1,2,positive,positive,579.3548498000002,579.3548498000002,579.3548498000002,579.3548498000002,580.3413791,580.3730298000003,l,l,1,0.8624187000000347,581.2201674999999,581.2201674999999,581.2201674999999,581.2201674999999,581.2201674999999,581.2201674999999,,,,,,,,,,,,,,,,,,,,,,,,,,,,,,,,,,,,,,,,,,,,,,,324,2023-03-15_15h09.51.237,Main,2022.2.2,59.58523906787591,
positive,neutral,1,l,j,0,0,0,0,0,0,0,0,,,,,,,,,9,0,162,8,,,,,,,,,,,,,,,,,,,,,,,,,,,,,,,,,,,,,,,,main,1,1,1,neutral,positive,581.2201674999999,581.2201674999999,581.2201674999999,581.2201674999999,582.2119031,582.2409005000002,l,l,1,0.9822564000000966,583.2052965999999,583.2052965999999,583.2052965999999,583.2052965999999,583.2052965999999,583.2052965999999,,,,,,,,,,,,,,,,,,,,,,,,,,,,,,,,,,,,,,,,,,,,,,,324,2023-03-15_15h09.51.237,Main,2022.2.2,59.58523906787591,
positive,positive,2,l,j,0,0,0,0,0,0,0,0,,,,,,,,,9,1,163,11,,,,,,,,,,,,,,,,,,,,,,,,,,,,,,,,,,,,,,,,main,2,2,2,positive,positive,583.2052965999999,583.2052965999999,583.2052965999999,583.2052965999999,584.1925042999999,584.2224303999999,l,l,1,0.7593777000001865,584.969785,584.969785,584.969785,584.969785,584.969785,584.969785,,,,,,,,,,,,,,,,,,,,,,,,,,,,,,,,,,,,,,,,,,,,,,,324,2023-03-15_15h09.51.237,Main,2022.2.2,59.58523906787591,
negative,positive,2,j,l,0,0,0,0,0,0,0,0,,,,,,,,,9,2,164,15,,,,,,,,,,,,,,,,,,,,,,,,,,,,,,,,,,,,,,,,main,2,2,2,positive,negative,584.969785,584.969785,584.969785,584.969785,585.9612248000001,585.9918811,j,j,1,0.7748924000002262,586.7578827999998,586.7578827999998,586.7578827999998,586.7578827999998,586.7578827999998,586.7578827999998,,,,,,,,,,,,,,,,,,,,,,,,,,,,,,,,,,,,,,,,,,,,,,,324,2023-03-15_15h09.51.237,Main,2022.2.2,59.58523906787591,
negative,neutral,2,j,l,0,0,0,0,0,0,0,0,,,,,,,,,9,3,165,12,,,,,,,,,,,,,,,,,,,,,,,,,,,,,,,,,,,,,,,,main,2,2,2,neutral,negative,586.7578827999998,586.7578827999998,586.7578827999998,586.7578827999998,587.7334730999999,587.8006235,j,j,1,0.6775701000001391,588.4204974000002,588.4204974000002,588.4204974000002,588.4204974000002,588.4204974000002,588.4204974000002,,,,,,,,,,,,,,,,,,,,,,,,,,,,,,,,,,,,,,,,,,,,,,,324,2023-03-15_15h09.51.237,Main,2022.2.2,59.58523906787591,
positive,neutral,2,l,j,0,0,0,0,0,0,0,0,,,,,,,,,9,4,166,17,,,,,,,,,,,,,,,,,,,,,,,,,,,,,,,,,,,,,,,,main,2,2,2,neutral,positive,588.4204974000002,588.4204974000002,588.4204974000002,588.4204974000002,589.4108021,589.4395330999998,l,l,1,0.8867434999997386,590.3151067000001,590.3151067000001,590.3151067000001,590.3151067000001,590.3151067000001,590.3151067000001,,,,,,,,,,,,,,,,,,,,,,,,,,,,,,,,,,,,,,,,,,,,,,,324,2023-03-15_15h09.51.237,Main,2022.2.2,59.58523906787591,
negative,positive,1,j,l,0,0,0,0,0,0,0,0,,,,,,,,,9,5,167,6,,,,,,,,,,,,,,,,,,,,,,,,,,,,,,,,,,,,,,,,main,1,1,1,positive,negative,590.3151067000001,590.3151067000001,590.3151067000001,590.3151067000001,591.3000635000001,591.3315456000003,j,j,1,0.8449920000002749,592.1659440999999,592.1659440999999,592.1659440999999,592.1659440999999,592.1659440999999,592.1659440999999,,,,,,,,,,,,,,,,,,,,,,,,,,,,,,,,,,,,,,,,,,,,,,,324,2023-03-15_15h09.51.237,Main,2022.2.2,59.58523906787591,
positive,negative,1,l,j,0,0,0,0,0,0,0,0,,,,,,,,,9,6,168,5,,,,,,,,,,,,,,,,,,,,,,,,,,,,,,,,,,,,,,,,main,2,2,1,negative,positive,592.1659440999999,592.1659440999999,592.1659440999999,592.1659440999999,593.1593221,593.1880831000001,l,l,1,1.720856299999923,594.8665881,594.8665881,594.8665881,595.9126822000001,595.9126822000001,595.9126822000001,,,,,,,,,,,,,,,,,,,,,,,,,,,,,,,,,,,,,,,,,,,,,,,324,2023-03-15_15h09.51.237,Main,2022.2.2,59.58523906787591,
neutral,neutral,2,k,k,0,0,0,0,0,0,0,0,,,,,,,,,9,7,169,10,,,,,,,,,,,,,,,,,,,,,,,,,,,,,,,,,,,,,,,,main,1,1,2,neutral,neutral,595.9126822000001,595.9126822000001,595.9126822000001,595.9126822000001,596.9013544000002,596.9433612,k,k,1,0.9683057000002009,597.8917296000002,597.8917296000002,597.8917296000002,597.8917296000002,597.8917296000002,597.8917296000002,,,,,,,,,,,,,,,,,,,,,,,,,,,,,,,,,,,,,,,,,,,,,,,324,2023-03-15_15h09.51.237,Main,2022.2.2,59.58523906787591,
neutral,negative,1,k,k,0,0,0,0,0,0,0,0,,,,,,,,,9,8,170,7,,,,,,,,,,,,,,,,,,,,,,,,,,,,,,,,,,,,,,,,main,2,2,1,negative,neutral,597.8917296000002,597.8917296000002,597.8917296000002,597.8917296000002,598.8802091999999,598.9107317,k,k,1,0.7454244999998991,599.6385232999999,599.6385232999999,599.6385232999999,599.6385232999999,599.6385232999999,599.6385232999999,,,,,,,,,,,,,,,,,,,,,,,,,,,,,,,,,,,,,,,,,,,,,,,324,2023-03-15_15h09.51.237,Main,2022.2.2,59.58523906787591,
negative,negative,1,j,l,0,0,0,0,0,0,0,0,,,,,,,,,9,9,171,0,,,,,,,,,,,,,,,,,,,,,,,,,,,,,,,,,,,,,,,,main,2,2,1,negative,negative,599.6385232999999,599.6385232999999,599.6385232999999,599.6385232999999,600.6340367,600.6653004000002,j,j,1,0.7813348999998198,601.4221458,601.4221458,601.4221458,601.4221458,601.4221458,601.4221458,,,,,,,,,,,,,,,,,,,,,,,,,,,,,,,,,,,,,,,,,,,,,,,324,2023-03-15_15h09.51.237,Main,2022.2.2,59.58523906787591,
neutral,neutral,1,k,k,0,0,0,0,0,0,0,0,,,,,,,,,9,10,172,1,,,,,,,,,,,,,,,,,,,,,,,,,,,,,,,,,,,,,,,,main,2,2,1,neutral,neutral,601.4221458,601.4221458,601.4221458,601.4221458,602.4219042000002,602.4527819000002,k,k,1,0.8553290000004381,603.2864178000002,603.2864178000002,603.2864178000002,603.2864178000002,603.2864178000002,603.2864178000002,,,,,,,,,,,,,,,,,,,,,,,,,,,,,,,,,,,,,,,,,,,,,,,324,2023-03-15_15h09.51.237,Main,2022.2.2,59.58523906787591,
